Time;AccX;AccY;AccZ;Acc-old;Acc-trns
05:44.6;0.013869110914489004;-0.49525475968915017;-0.901572052850435;1.0290000000000001;0.006192666901067231
05:44.6;0.013238135000564267;-0.4961322426944848;-0.8900431132165936;1.0759999999999998;0.00584568355197332
05:44.6;0.012404735090802253;-0.49707858790674836;-0.8788031517799441;1.058;0.005418812898454529
05:44.6;0.011220192398523423;-0.49810551620695476;-0.8682151021865152;0.998;0.004852315054340898
05:44.7;0.009611864600018373;-0.49917368337062534;-0.8586762873657342;0.96;0.004119920116755706
05:44.7;0.007599868978172774;-0.5001866138140296;-0.8505827578093035;0.9670000000000001;0.0032333650881682546
05:44.7;0.005292956995535355;-0.501001826424856;-0.844277782155023;0.971;0.002238839884401713
05:44.7;0.0028648902984519417;-0.5014574769982323;-0.8400053108316955;0.971;0.0012067689848388162
05:44.7;0.0005196718012590643;-0.5014050976872872;-0.8378800304599209;0.971;0.00021832312365696707
05:44.7;-0.0015433764090253322;-0.5007365905104147;-0.8378770846937849;0.975;0.0006475323922724081
05:44.7;-0.003156969184701933;-0.4993983451504341;-0.8398401503429143;0.9740000000000001;0.0013240795400846573
05:44.7;-0.004202615173158642;-0.4973919700165335;-0.8435042361108348;0.98;0.0017632165833493926
05:44.7;-0.0046162882988934765;-0.4947652145630622;-0.848528303572801;0.991;0.0019380207165401488
05:44.7;-0.004384208116238846;-0.49159769754225413;-0.8545321584584737;0.997;0.0018417446329873732
05:44.8;-0.003531977825057663;-0.48798520959504116;-0.8611315751311546;0.995;0.001484205857394668
05:44.8;-0.0021116372068756754;-0.4840252505124758;-0.8679662823631318;0.992;0.0008871359496315077
05:44.8;-0.00019056476475476207;-0.47980605393325;-0.8747182710090717;1.003;7.997910217667762e-05
05:44.8;0.002156005671046496;-0.4754009835642369;-0.8811211543175391;1.003;0.0009031202970155185
05:44.8;0.004849244701306809;-0.47086883340718727;-0.8869625899969461;1.003;0.002025253298891891
05:44.8;0.007809269317427053;-0.4662585401251937;-0.8920818378861892;1.002;0.003248193535237195
05:44.8;0.010957552442080841;-0.4616154494944671;-0.8963652247270479;1.01;0.0045339726151005216
05:44.8;0.014219919306249298;-0.45698649061976243;-0.8997425325261077;1.011;0.00584680681487011
05:44.8;0.017529384097873777;-0.45242310834958144;-0.9021854965701385;1.011;0.007154961111154038
05:44.8;0.020827216101705685;-0.44798241374752806;-0.9037070988533366;1.015;0.008431791958906225
05:44.9;0.02406140795082926;-0.44372761393334287;-0.9043593171021671;1.012;0.009655583193566747
05:44.9;0.027183729466127377;-0.4397279689819451;-0.9042275288977581;1.0090000000000001;0.010808635071761693
05:44.9;0.030148106483107;-0.4360571049900669;-0.9034212206017195;0.995;0.011876642809387989
05:44.9;0.03291246614512238;-0.43278845192803733;-0.9020625754367337;0.995;0.012849101348403016
05:44.9;0.035443616734995825;-0.42998854037439993;-0.9002758246362277;0.995;0.013720517786649391
05:44.9;0.037722806076211875;-0.42771045418898235;-0.8981798737979813;0.992;0.01449162795382017
05:44.9;0.03974984932815114;-0.4259890165147143;-0.8958851030220756;0.992;0.015170021752391042
05:44.9;0.04154448659345574;-0.4248379032159533;-0.8934936985970844;0.9940000000000001;0.015769871227659542
05:44.9;0.04314400540488021;-0.4242484444219704;-0.891101924359843;0.991;0.016310531067397476
05:44.9;0.044597327785310885;-0.4241899005869474;-0.8888022341988161;0.987;0.016814126058063962
05:45.0;0.04595748111736746;-0.4246112748844066;-0.8866832618170778;0.983;0.01730279449315097
05:45.0;0.047274972753281116;-0.42544543264007406;-0.8848266358169474;0.983;0.017796448433760756
05:45.0;0.04859368612640088;-0.426616456905794;-0.8833008101113297;0.9790000000000001;0.018311590911629164
05:45.0;0.049949352431332646;-0.42804971660032176;-0.8821533340633293;0.9790000000000001;0.018861149432479185
05:45.0;0.05136938875657028;-0.42968189822644204;-0.8814040624232942;0.9790000000000001;0.01945478805794069
05:45.0;0.05287271521943243;-0.43146756737335284;-0.8810419816093625;0.98;0.020099088980683612
05:45.0;0.05446893664252425;-0.43338063035193297;-0.8810270806255419;0.982;0.020797333286570584
05:45.0;0.05615704317288906;-0.4354115373175419;-0.8812970067804067;0.982;0.02154896722258733
05:45.0;0.057924224331761164;-0.43756197911501044;-0.8817774009430253;0.991;0.022349034654654768
05:45.0;0.05974569782438567;-0.4398380078833096;-0.882394557510334;0.9940000000000001;0.02318794247422379
05:45.1;0.0615863648737964;-0.4422415968376995;-0.8830883704034337;0.993;0.02405184108176023
05:45.1;0.06340446462199027;-0.44476125201622435;-0.8838225398379737;1.0;0.024923662226941354
05:45.1;0.06515642144311735;-0.4473638331631399;-0.8845889415655805;0.992;0.025784552621252763
05:45.1;0.06680114640142563;-0.4499900019009294;-0.8854046385821353;0.992;0.02661512885087555
05:45.1;0.06830212452595888;-0.4525543487608865;-0.8863027123498411;0.992;0.027395992173601016
05:45.1;0.06962700655777485;-0.454950289346166;-0.88732011435461;0.996;0.02810748556061408
05:45.1;0.07074581818336172;-0.45705988802601866;-0.8884856265481718;1.0;0.028729250025845515
05:45.1;0.07162924680837951;-0.45876818482442283;-0.8898095741281724;1.005;0.029240227762992597
05:45.1;0.07224797409837075;-0.4599797183460198;-0.8912758490483944;1.0070000000000001;0.02961941625601531
05:45.1;0.07257323091889223;-0.4606334196182225;-0.8928364335797095;1.0090000000000001;0.0298472144200179
05:45.2;0.07257829271195182;-0.4607123869210866;-0.8944086274669825;1.002;0.029906983885940378
05:45.2;0.07224091902758369;-0.4602467376052155;-0.8958757759477687;1.001;0.029786657702727624
05:45.2;0.07154723547430122;-0.45930953784204975;-0.8970932811736142;1.012;0.029480573347132888
05:45.2;0.07049729966700669;-0.4580073171253992;-0.897901335062496;1.012;0.028991688897355747
05:45.2;0.06911146411962381;-0.45646763953830394;-0.8981432544811908;1.012;0.028333857178926364
05:45.2;0.06743562093477112;-0.4548259731873364;-0.8976859531716365;1.016;0.027533349504918883
05:45.2;0.06554336831888996;-0.4532128306131211;-0.8964391475190802;1.011;0.026628810472401062
05:45.2;0.06353395496984159;-0.4517411771585387;-0.8943711701369849;1.006;0.02566926074353039
05:45.2;0.061525958988941226;-0.4504942816842342;-0.891520263946981;1.004;0.02471034979944091
05:45.2;0.05964756299867256;-0.4495150994492749;-0.8880008487478034;1.003;0.02380950518640429
05:45.3;0.05802467215573769;-0.44879910809904666;-0.8840040745186732;1.0;0.023020722368588036
05:45.3;0.05676806690481714;-0.4482927780336523;-0.8797909729608266;0.997;0.022389549216972206
05:45.3;0.05596064298009491;-0.4478993204678503;-0.8756761842624609;0.981;0.02194859059691147
05:45.3;0.05564591157031475;-0.44749177121491474;-0.872002062400007;0.981;0.021713799681699772
05:45.3;0.055819408031397885;-0.4469312017779881;-0.8691061450204441;0.981;0.021681969160083626
05:45.3;0.0564249241945863;-0.4460865207044535;-0.8672864980063439;0.97;0.021829946434562618
05:45.3;0.057356899759270136;-0.4448529523976662;-0.86676835471402;0.97;0.022115929314983174
05:45.3;0.058468979629326366;-0.4431674577219775;-0.8676745057387999;0.971;0.02248279052176318
05:45.3;0.05958713943719611;-0.4410195034980326;-0.8700022807276594;0.97;0.022862868800479337
05:45.3;0.060524597366331416;-0.4384553047583964;-0.8736100183501072;0.965;0.023183278032853433
05:45.4;0.06109574964177952;-0.4355741296258683;-0.8782156244898326;0.9640000000000001;0.023370835301490957
05:45.4;0.06112764204453003;-0.43251653586522276;-0.8834102363860127;0.971;0.023356232336028026
05:45.4;0.06046926517153634;-0.4294462363784641;-0.8886893688656985;0.998;0.02307775066627887
05:45.4;0.05900017888352525;-0.4265293055522598;-0.8934996089510906;0.998;0.022485190468495793
05:45.4;0.05663982192804273;-0.4239155400763114;-0.8972929625088254;0.998;0.021544453306623693
05:45.4;0.05335755716676531;-0.4217257826714804;-0.8995792067317943;1.002;0.020242563003333457
05:45.4;0.049182035298576836;-0.42004625622438535;-0.8999705524179336;1.004;0.018592248470955298
05:45.4;0.044207534050404694;-0.4189285262560454;-0.8982172391579689;1.004;0.016634801011182088
05:45.4;0.03859468997234141;-0.41839316569064006;-0.8942334814347377;1.003;0.014439862738533068
05:45.4;0.03256330698961757;-0.4184359068394217;-0.8881120823186169;1.0;0.0121011105134402
05:45.5;0.026375540828888887;-0.41903559431323145;-0.8801253285817888;0.9940000000000001;0.009727400743263073
05:45.5;0.02030905087493779;-0.4201632383836106;-0.8707096967420356;0.986;0.007429867353216039
05:45.5;0.014622270393023131;-0.42179120311914126;-0.8604328406015361;0.9440000000000001;0.005306758282306764
05:45.5;0.009517744898182523;-0.4239009364337653;-0.8499450925108694;0.9440000000000001;0.003429172300104638
05:45.5;0.005112611241280717;-0.42648693621993594;-0.8399233567762437;0.9440000000000001;0.0018314208820474009
05:45.5;0.001424432853136757;-0.4295550321062378;-0.8310168010989114;0.9309999999999999;0.000508476161395737
05:45.5;-0.0016246605463601878;-0.43311486820229284;-0.823798839220324;0.925;0.0005796781123227594
05:45.5;-0.004188370884218591;-0.4371683658524647;-0.8187251078751204;0.9129999999999999;0.0014991047120027458
05:45.5;-0.006467048459300484;-0.4416970187186421;-0.8160975801294779;0.898;0.002331163171196031
05:45.6;-0.008675165742918314;-0.4466517263438852;-0.8160381537673672;0.904;0.0031619664857704187
05:45.6;-0.011010773056093841;-0.45194949818738794;-0.8184770261862626;0.919;0.004072998158100389
05:45.6;-0.013631273638579895;-0.4574801765210659;-0.8231602373030166;0.9209999999999999;0.005133258083952193
05:45.6;-0.016638841693992806;-0.46312277087474607;-0.8296773108657769;0.977;0.0063933493831867015
05:45.6;-0.02007674409759238;-0.46876662022429266;-0.8375051774954864;0.977;0.007882018737931209
05:45.6;-0.02393515402840235;-0.4743296540768703;-0.8460599740064642;0.977;0.009605448611752351
05:45.6;-0.0281640511730028;-0.4797667596247802;-0.8547471936278045;1.0;0.011549494147561115
05:45.6;-0.0326916410556732;-0.4850655455139293;-0.8630040708565121;1.014;0.013685163604152976
05:45.6;-0.03744645846170136;-0.49023093591106465;-0.8703309880913102;1.012;0.015977024853948623
05:45.6;-0.042378694810883445;-0.495261944657526;-0.8763088311724535;1.002;0.018392455928367534
05:45.7;-0.04747373388727231;-0.5001257929105793;-0.8806011045901315;0.995;0.02090797007584927
05:45.7;-0.05275128270307804;-0.5047375038310701;-0.8829447344904348;0.9890000000000001;0.02350888984242243
05:45.7;-0.05824799713947158;-0.5089542751075841;-0.8831378997244136;0.9990000000000001;0.026181123918341077
05:45.7;-0.0639887300881629;-0.5125894305779284;-0.8810342353894051;1.0270000000000001;0.028897875978648332
05:45.7;-0.06995655552521973;-0.5154414275629734;-0.8765499165572135;1.0270000000000001;0.03160708116818525
05:45.7;-0.076070276634406;-0.517325989546512;-0.8696841813745283;1.0270000000000001;0.034224795635641715
05:45.7;-0.08217316447040952;-0.518099814293903;-0.8605477460225883;1.043;0.03663687476184979
05:45.7;-0.08803404654488067;-0.5176706473909771;-0.8493895814382748;1.025;0.03870892720073275
05:45.7;-0.09336135734434743;-0.5159946660852686;-0.8366108944511546;0.996;0.04030286177955037
05:45.7;-0.09782934026337942;-0.5130656104250313;-0.822757921095813;0.961;0.041296581522889286
05:45.8;-0.10111421321215151;-0.5089025492744715;-0.8084928540582672;0.965;0.04160284387391439
05:45.8;-0.10293858895510709;-0.5035437369427085;-0.794548887830563;0.958;0.041184712012588255
05:45.8;-0.10312193918150311;-0.49704883969273367;-0.7816763694915932;0.9309999999999999;0.040066104437185404
05:45.8;-0.10162988040987085;-0.489503808423445;-0.77058576319045;0.905;0.03833526507515826
05:45.8;-0.09860977397599321;-0.4810219718214255;-0.7618928733375026;0.905;0.03613922116501476
05:45.8;-0.09440175558762468;-0.4717426044507097;-0.7560701405469745;0.905;0.0336703211066208
05:45.8;-0.08952070660445478;-0.4618329613441293;-0.7534037447312295;0.884;0.031148432879595962
05:45.8;-0.08460902217755462;-0.451495876661987;-0.7539542392292238;0.8690000000000001;0.028801522889714933
05:45.8;-0.08036255737326023;-0.44097923619769885;-0.7575219727107565;0.85;0.026845229694525224
05:45.8;-0.077436753465501;-0.43058228208158905;-0.7636248106731729;0.8420000000000001;0.02546146113649853
05:45.9;-0.07634658265343675;-0.42065566188316983;-0.7714994813643202;0.848;0.024777185916201983
05:45.9;-0.07737937302258505;-0.4115941217904837;-0.7801370631396753;0.843;0.02484650347502012
05:45.9;-0.08054017441275782;-0.40382161241226605;-0.7883583811220359;0.903;0.02564046005766514
05:45.9;-0.0855425210533292;-0.3977685777544372;-0.7949268261090664;0.914;0.027048281090743476
05:45.9;-0.09184431044427001;-0.39384090860801707;-0.7986856755209768;0.914;0.02889009553427604
05:45.9;-0.09871609001467924;-0.39238011593332817;-0.7987009010093686;0.914;0.030937065075362858
05:45.9;-0.10532607489576486;-0.393614907529897;-0.794393811682013;0.932;0.032933909715625376
05:45.9;-0.11083236691576251;-0.3976058009427026;-0.7856547134957099;0.899;0.03462191138128261
05:45.9;-0.11447773323052333;-0.404188168738606;-0.7729308055423848;0.945;0.03576392989473768
05:45.9;-0.11567977387770392;-0.41292732790914394;-0.7572775017159298;0.94;0.036173131838577205
05:46.0;-0.11410519317973296;-0.42311058389552736;-0.7403535991894393;0.9279999999999999;0.03574361649062334
05:46.0;-0.10971941734785831;-0.43380408128500775;-0.7243352608297964;0.885;0.034475990593745585
05:46.0;-0.1028099090520643;-0.4439839137190327;-0.7117360053184746;0.855;0.03248786311558195
05:46.0;-0.09398358698792743;-0.45271905233685866;-0.7051490780511318;0.845;0.030002796104494328
05:46.0;-0.08413539961636275;-0.4593617556869172;-0.7069545163119753;0.845;0.027322791632239864
05:46.0;-0.07438567796271152;-0.4636997612546919;-0.7190398718197972;0.845;0.024801569863157204
05:46.0;-0.06598860892587355;-0.46603756164364674;-0.7425724672819732;0.867;0.022836457620723144
05:46.0;-0.060216350208961725;-0.46719214597468717;-0.7778434632323622;0.889;0.02188276358502977
05:46.0;-0.05822558807902881;-0.46840338326239445;-0.8241893491457281;0.924;0.02247816758877158
05:46.0;-0.06092022551493286;-0.4711671107971372;-0.8799886979874275;0.9309999999999999;0.025258849439060062
05:46.1;-0.06883107739074128;-0.4770056310125412;-0.9427317918751396;0.917;0.030952535221505716
05:46.1;-0.08203564500766608;-0.4872041832841986;-1.0091659784520361;1.002;0.040334456255921136
05:46.1;-0.10013647116285179;-0.5025595781759182;-1.075523110972347;1.124;0.05412520873116859
05:46.1;-0.12230424435078045;-0.5231914053475308;-1.1378258384214266;1.369;0.07280780220704315
05:46.1;-0.14737375757605659;-0.5484496403754462;-1.192242334710359;1.369;0.09636547174536629
05:46.1;-0.17396592913052059;-0.5769316328212887;-1.2354321340569296;1.369;0.1239959344826104
05:46.1;-0.2006093211852254;-0.6066133762595795;-1.2648285716828527;1.4809999999999999;0.15391989500034656
05:46.1;-0.22584916979178613;-0.6350959565358925;-1.2788327879704122;1.632;0.18343052488628156
05:46.1;-0.24834366705464508;-0.6599460506243806;-1.2769113914592267;1.68;0.2092773778821695
05:46.1;-0.26694682461416164;-0.6790699601821901;-1.2595824489519682;1.6019999999999999;0.2283315258434381
05:46.2;-0.2807737656479948;-0.6910348374855804;-1.2282759975423168;1.504;0.238315579188465
05:46.2;-0.2892466366512736;-0.6952622411011001;-1.1850861945127245;1.4140000000000001;0.23832351773423205
05:46.2;-0.29212656443423074;-0.6920559205414077;-1.1324695303899897;1.3330000000000002;0.2289490076829955
05:46.2;-0.2895418969070822;-0.6824634560906931;-1.0729576698130359;1.156;0.21201832787284006
05:46.2;-0.28201642381819536;-0.6680077068110077;-1.0089405247889118;1.156;0.19007344237471516
05:46.2;-0.27048472442551286;-0.6503602396953466;-0.9425464989716461;1.156;0.16580572062498072
05:46.2;-0.25626949297079904;-0.6310400013333342;-0.8756133440421932;1.093;0.14160095126759562
05:46.2;-0.2409962303529282;-0.6111921757393458;-0.8097180509964162;1.011;0.11926742872184536
05:46.2;-0.22643135375639722;-0.5914650482652866;-0.746230720414995;0.898;0.09993986827314151
05:46.2;-0.21425110130338895;-0.5719853649110941;-0.6863737304566869;0.818;0.08411406723683724
05:46.3;-0.20577936408822484;-0.5524268285301589;-0.6312881470767516;0.831;0.07176360016935647
05:46.3;-0.2017565516722807;-0.5321558251157129;-0.5821172000355269;0.924;0.06249955119063402
05:46.3;-0.2022023560574709;-0.5104210770581162;-0.5401003984737771;0.973;0.05574286791602829
05:46.3;-0.20641269621343825;-0.48653962933613143;-0.5066405176212845;0.7340000000000001;0.05088087196915438
05:46.3;-0.21309350234762015;-0.46003752148809657;-0.4832961506022471;0.7340000000000001;0.04737800816096264
05:46.3;-0.22059491038760037;-0.43073200925600497;-0.4716853361215508;0.7340000000000001;0.044818261891257455
05:46.3;-0.2271914851477336;-0.3987664625048073;-0.4733249712121208;0.698;0.04288151231500859
05:46.3;-0.2313638716273869;-0.36460904531141924;-0.4894375612259573;0.67;0.04128766072293273
05:46.3;-0.23205040668936464;-0.32901733011130374;-0.5207480615238763;0.664;0.039758388189288785
05:46.3;-0.22883710689602133;-0.2929703495887805;-0.5672971137618403;0.6579999999999999;0.03803300949149946
05:46.4;-0.22205372339743448;-0.2575728454780054;-0.6283053398655889;0.6579999999999999;0.035935929809920664
05:46.4;-0.21275452418413188;-0.2239396544144828;-0.7021203957680306;0.6970000000000001;0.03345194674087605
05:46.4;-0.20258146647499004;-0.19307457485032453;-0.7862649091295385;0.7559999999999999;0.030753439260939527
05:46.4;-0.1935278476656337;-0.16576464171800692;-0.8775845241819785;1.028;0.028152976767274435
05:46.4;-0.18764055619205922;-0.14251057405022413;-0.972469548816036;1.028;0.02600457809723281
05:46.4;-0.1867142964523171;-0.12350608112496478;-1.0670999006755333;1.028;0.024607698309481663
05:46.4;-0.19203035872154273;-0.10866664202181711;-1.1576693103647686;1.168;0.02415742614185707
05:46.4;-0.20417479388072604;-0.09769707727254848;-1.2405819457717648;1.276;0.02474623619805325
05:46.4;-0.2229532480703701;-0.09017943414229931;-1.3126377174730006;1.3719999999999999;0.026391628468074385
05:46.4;-0.2474116502404873;-0.08565769799691234;-1.3712093603867597;1.492;0.029059645638473162
05:46.5;-0.2759648705438772;-0.08369321758398832;-1.4143911787400234;1.594;0.03266732738567546
05:46.5;-0.30662260805428493;-0.08386775900379473;-1.4410863068747526;1.615;0.03705861663337087
05:46.5;-0.3372860650627696;-0.08572355768315755;-1.4509978057736168;1.56;0.04195322402748727
05:46.5;-0.36607388086064435;-0.08865283134477323;-1.4445066546486058;1.435;0.04687927652195204
05:46.5;-0.39162212428523013;-0.0917789962464193;-1.4224606450280697;1.435;0.051127055564509236
05:46.5;-0.41329688488323285;-0.09389391881585031;-1.3859385239519493;1.435;0.05378281927684844
05:46.5;-0.43127152745750813;-0.09351093264742859;-1.3360579532158405;1.355;0.05388135045534859
05:46.5;-0.4464556270902706;-0.08905638037370708;-1.2738635385200294;1.28;0.05064846034364624
05:46.5;-0.4603038209654244;-0.07916774924439102;-1.200299157505112;1.229;0.04374036263301382
05:46.5;-0.47456482945982176;-0.06302129243677998;-1.116256590133859;1.206;0.033384654827617065
05:46.6;-0.49104325732761733;-0.04059998168697366;-1.0226847510522026;1.195;0.020388598329383396
05:46.6;-0.5114311852714037;-0.012833969941894618;-0.9207286615342261;1.1540000000000001;0.006043379772608525
05:46.6;-0.5372278373120911;0.01841991101913518;-0.8118534144419435;1.097;0.008033848870667815
05:46.6;-0.5697243528378446;0.050559690019706706;-0.6979113117843297;0.9079999999999999;0.02010339582821975
05:46.6;-0.6100057139658484;0.08054542536670896;-0.5811395132754572;0.9079999999999999;0.028553226329498294
05:46.6;-0.6589206376663287;0.10526356994293572;-0.4641137834696857;0.9079999999999999;0.03219108918423057
05:46.6;-0.7169917196162958;0.12187440610663232;-0.34968796111200995;0.8759999999999999;0.03055676212863266
05:46.6;-0.7842692185970641;0.12809443051719369;-0.24091184975345287;0.873;0.02420212944222187
05:46.6;-0.8601532010583446;0.12238737371408578;-0.14089439962708666;0.858;0.014832219917995234
05:46.6;-0.9432167208848259;0.1040352618439761;-0.052594823623073175;0.848;0.005161014256356724
05:46.7;-1.031068676863524;0.07306031882675396;0.02144164985180295;0.857;0.0016152039059752462
05:46.7;-1.1203029402726983;0.029994841344010207;0.0793569633282705;0.9279999999999999;0.002666656556109857
05:46.7;-1.2065832535893801;-0.024459533576652582;0.12020050951492135;1.053;0.0035474131622649503
05:46.7;-1.284898362720546;-0.08980336731518584;0.14404779910998397;1.548;0.016621416199975637
05:46.7;-1.3499730789614743;-0.16604150512567767;0.15200603063476997;1.548;0.03407238918650909
05:46.7;-1.3967541182664265;-0.2538194862339594;0.1461249483172648;1.548;0.05180471535710553
05:46.7;-1.420864819596856;-0.35433768249794106;0.12923457275008704;1.604;0.06506520659596361
05:46.7;-1.4189635554372357;-0.4690533825040792;0.10472069323633847;1.5719999999999998;0.0696989157030033
05:46.7;-1.3889933033894268;-0.5992385735215358;0.07624481141288042;1.496;0.06346148172862232
05:46.7;-1.330335066051254;-0.7454823112605448;0.0474248304060576;1.465;0.04703316105227042
05:46.8;-1.2438893305579444;-0.907218580760473;0.021510320190714673;1.4380000000000002;0.024273955655267982
05:46.8;-1.1321123756978775;-1.0823495892537198;0.001097576113381145;1.4609999999999999;0.0013449054127704853
05:46.8;-0.9990151545280246;-1.267035922853861;-0.012075557079391662;1.49;0.015285096310226762
05:46.8;-0.8501026099264207;-1.455722141570906;-0.017233395284256197;1.761;0.021326554005099748
05:46.8;-0.6922231775634294;-1.641422903487852;-0.014561805670553382;1.761;0.016545574698174834
05:46.8;-0.5333165608932144;-1.8162217017307583;-0.005109921432787118;1.761;0.004949577779368788
05:46.8;-0.3820500268589217;-1.971911216768325;0.009399238887811998;1.954;0.00708109269517463
05:46.8;-0.2473061158089286;-2.1007515656802687;0.02683374366608418;2.333;0.013940900230987036
05:46.8;-0.1374946739904051;-2.1963352601408483;0.04493052015024112;2.83;0.013568316194720488
05:46.8;-0.059758543063685186;-2.254456530066501;0.061466464221451494;3.035;0.008280948772731313
05:46.9;-0.019258830949164456;-2.27377020250731;0.07424503333516873;2.81;0.003251201588062177
05:46.9;-0.018744865850881552;-2.2560183277629733;0.0809695400160088;2.492;0.0034241015188144538
05:46.9;-0.05851080480740083;-2.20573078037651;0.07916377755718877;2.2569999999999997;0.010216804550085634
05:46.9;-0.13670354267679952;-2.1294827465458956;0.06624555132233882;1.847;0.019284599058403983
05:46.9;-0.24984192688270207;-2.0349148637162733;0.03976163069870042;1.847;0.02021509339029933
05:46.9;-0.393344017540004;-1.9297517728856146;-0.002276145793013096;1.847;0.0017277228385065382
05:46.9;-0.5618776699526407;-1.8209946926316707;-0.0610563259841446;1.781;0.06247138295792267
05:46.9;-0.7494716591980366;-1.7143505880225647;-0.13672331722896752;1.7009999999999998;0.17566993576753176
05:46.9;-0.9494659079921967;-1.6138712044875634;-0.22823851417981428;1.7069999999999999;0.34973345600935507
05:46.9;-1.1544458776935544;-1.521753078659488;-0.3333058029447309;1.66;0.5855454912960358
05:47.0;-1.3562864589324868;-1.4382714977533357;-0.44833758750069047;1.722;0.8745757888799726
05:47.0;-1.5463680378232985;-1.3618539320863212;-0.5684936901576697;1.883;1.197206434715542
05:47.0;-1.7159718622304398;-1.289319059819614;-0.6878461614267468;2.075;1.5218150790455456
05:47.0;-1.8568284837934206;-1.2162961688829175;-0.7996976204204062;2.645;1.8060797867076024
05:47.0;-1.9617564034187827;-1.1378010766623725;-0.8970389696698945;2.645;2.0022704112732868
05:47.0;-2.025285852161363;-1.048907093559627;-0.9730890153310666;2.645;2.0671687045382856
05:47.0;-2.0441622324796187;-0.9454308253967092;-1.021842247315676;2.784;1.9748266193611779
05:47.0;-2.0176763178737325;-0.8245501109268853;-1.0385723200562973;2.827;1.7278470452248713
05:47.0;-1.9478118594854226;-0.6852770632991627;-1.0202481841947364;2.721;1.3618178807235886
05:47.0;-1.8392005566430214;-0.5287202084773877;-0.9658017655046158;2.474;0.9391673689969322
05:47.1;-1.698863751970332;-0.35809242433918176;-0.8761944085152447;2.154;0.5330330783257753
05:47.1;-1.5357306198666725;-0.1784626886815403;-0.7542817025711531;1.8090000000000002;0.20672645049309632
05:47.1;-1.3599509887669239;0.0037029843964009913;-0.6045274111316609;1.425;0.0030443258616706034
05:47.1;-1.1820632873274575;0.18113451453417517;-0.43263701825449846;0.8490000000000001;0.09263297613519511
05:47.1;-1.0121378858515075;0.3463887460271993;-0.24518522154018654;0.8490000000000001;0.08596026481374547
05:47.1;-0.8590638577096815;0.4924114945926861;-0.049307748990846154;0.8490000000000001;0.020857814786811736
05:47.1;-0.730116265368032;0.6129531561906787;0.14751427575363854;0.9490000000000001;0.06601663149960132
05:47.1;-0.6308234870231114;0.7028345573547075;0.3376327192186797;1.07;0.1496943773625804
05:47.1;-0.5650363749091805;0.7581113164276243;0.5134866716396949;1.22;0.21995739200842146
05:47.1;-0.535053356380497;0.7761751876619635;0.6680180516307801;1.399;0.27742464980544684
05:47.2;-0.541677848554275;0.7557996230013172;0.7952334214534399;1.5490000000000002;0.3255684941346611
05:47.2;-0.584160448081296;0.6971245640565095;0.8907830163491807;1.561;0.362755881741803
05:47.2;-0.6600862623993308;0.6015810488604895;0.9523690714213692;1.484;0.37818136409966235
05:47.2;-0.7653463915179078;0.471767185485071;0.9798347369165661;1.285;0.35378433601965215
05:47.2;-0.8943044694323805;0.31130351326886124;0.9749120642841707;1.285;0.27141563887055997
05:47.2;-1.0401450997145159;0.12471072509879316;0.9407487386755886;1.285;0.12203133893941408
05:47.2;-1.1953021783176736;-0.08266541366255818;0.8813904797283417;1.5230000000000001;0.08709032464887094
05:47.2;-1.351880015278056;-0.3047072011892617;0.8013513028586534;1.8159999999999998;0.33009869954999366
05:47.2;-1.5020057466231438;-0.534603833045542;0.7053350009487949;1.9380000000000002;0.5663685091295313
05:47.2;-1.6380370455208946;-0.7649782616187435;0.5981210028105233;1.885;0.749483137578986
05:47.3;-1.752582597538326;-0.9880637746622475;0.48456653746607276;1.745;0.8391061265193892
05:47.3;-1.8384175468491821;-1.1959459594102582;0.3696075021204453;1.651;0.8126368089470275
05:47.3;-1.888505359109287;-1.3809108294497452;0.2581182844853392;1.828;0.6731357045643632
05:47.3;-1.896352183500977;-1.5359388605867494;0.1545549505083582;3.09;0.4501692696559369
05:47.3;-1.8567595262532608;-1.6553244152874564;0.06244688956392093;3.09;0.1919329740536618
05:47.3;-1.7667841093708658;-1.7353025565784943;-0.016055958287028674;3.09;0.0492260425015969
05:47.3;-1.6265634586110018;-1.7745265472601062;-0.0803479821263762;3.0869999999999997;0.2319148117118658
05:47.3;-1.4397286656831956;-1.77429349712117;-0.13113930315839362;2.82;0.33499550848397647
05:47.3;-1.2132966163689483;-1.7384758296490914;-0.16990635549543023;2.394;0.3583812399766238
05:47.3;-0.9570841321433438;-1.6731399999144179;-0.1982152830924362;1.883;0.3174092179760994
05:47.4;-0.6827892811566181;-1.5858793696731663;-0.2171436198144021;1.425;0.23512776596949414
05:47.4;-0.40293839620969235;-1.4849717103079698;-0.22697654404713202;1.156;0.13581189617748404
05:47.4;-0.1298840253613341;-1.3785317769918355;-0.2272514119570833;1.133;0.040689196300452965
05:47.4;0.12502975462047636;-1.2738189406583282;-0.21711564423868998;1.2309999999999999;0.03457898161001992
05:47.4;0.3520860328860963;-1.1767928927289752;-0.19588109038994012;1.2309999999999999;0.08115987076426277
05:47.4;0.5435776299493337;-1.0919357973268304;-0.16361025543056723;1.2309999999999999;0.09711117351482385
05:47.4;0.6939573331105112;-1.022307870801416;-0.12157023169084723;1.4069999999999998;0.08624654733552327
05:47.4;0.7998039732971177;-0.9697695829683963;-0.07244252778125486;1.423;0.05618827658678605
05:47.4;0.8596714477968942;-0.9352806036357165;-0.02024599800503147;1.3840000000000001;0.016278471379988273
05:47.4;0.8738652422972322;-0.9191843866507227;0.03001408468634496;1.31;0.02410861203244365
05:47.5;0.8441726116513463;-0.9214151833453499;0.07291193664455463;1.325;0.05671334408239041
05:47.5;0.7735701295942207;-0.9416071158515039;0.10328434193630713;1.3219999999999998;0.07523222570100133
05:47.5;0.6659243571682488;-0.9791178130039673;0.11690791608959969;1.229;0.07622611242140298
05:47.5;0.5256985581783539;-1.0329913064689062;0.11104355006343007;1.151;0.06030131600208962
05:47.5;0.35770187317389035;-1.1018823512172122;0.08475518926367612;1.151;0.033405866368097094
05:47.5;0.16694160152293352;-1.1839552397101698;0.03898399224432153;1.151;0.0077052400150365305
05:47.5;-0.04138769483861802;-1.2767673727863373;-0.02357916612539704;1.232;0.001245981105200808
05:47.5;-0.2618139836946594;-1.3771582281611303;-0.09877198037491774;1.3430000000000002;0.03561315431510457
05:47.5;-0.48847061890642907;-1.4811716539909052;-0.18135041049528333;1.4680000000000002;0.13120862413926906
05:47.5;-0.7150039771327621;-1.5840350934575398;-0.26544440143306214;1.57;0.30064004404866507
05:47.6;-0.9345219545042126;-1.6802213753687087;-0.34503288410679567;1.672;0.5417719332279728
05:47.6;-1.1396008371524837;-1.7636310925009515;-0.41441281487943354;1.815;0.8329015743360838
05:47.6;-1.3224155600740506;-1.8279325100430777;-0.46865869575599495;1.9280000000000002;1.1328822887023955
05:47.6;-1.4751043383493097;-1.8670654170225118;-0.5040658413362149;2.9819999999999998;1.388255948199524
05:47.6;-1.5904233621608963;-1.87586014631282;-0.5185377405202648;2.9819999999999998;1.5470116142503465
05:47.6;-1.6625760726092582;-1.8506642712101828;-0.5118338698951003;2.9819999999999998;1.5748463487439988
05:47.6;-1.6879812700716799;-1.7898466603385217;-0.48558207875579834;3.0069999999999997;1.4670539973166743
05:47.6;-1.6657976026959274;-1.6940787831927275;-0.4430073311475544;2.822;1.2501633109309769
05:47.6;-1.5981425867584127;-1.5663436268338937;-0.3884101746673913;2.528;0.9722840625711106
05:47.6;-1.4900060985197328;-1.4116690982025253;-0.3264929918072231;2.225;0.6867439111059365
05:47.7;-1.3488767736435028;-1.2366322740578333;-0.2616597020464403;1.9240000000000002;0.43646527367435817
05:47.7;-1.1841165826356606;-1.0487202238415598;-0.1974199902872399;1.599;0.24515752737826285
05:47.7;-1.0061374013789017;-0.855635996291841;-0.1360173992228088;1.186;0.11709566215690383
05:47.7;-0.8254609114975132;-0.664619414393789;-0.07835010897153973;0.29600000000000004;0.04298422896848501
05:47.7;-0.6517920812115832;-0.4818570833177011;-0.02416513511505792;0.29600000000000004;0.0075895592381890874
05:47.7;-0.4932794859810689;-0.3120823131690252;0.027568178221010483;0.29600000000000004;0.004243950197780243
05:47.7;-0.3561038620891115;-0.1584459420633491;0.07821760126902895;0.245;0.004413288290798656
05:47.7;-0.2444201259072349;-0.02265308460687851;0.1290661651510054;0.235;0.000714622550968135
05:47.7;-0.16056774153981873;0.09471361071210577;0.1809609100508045;0.239;0.002752044574272559
05:47.7;-0.10542748282113967;0.19377220421538488;0.2340613282352712;0.247;0.004781619150435149
05:47.8;-0.07881990742661142;0.27488651146826093;0.28770336638243266;0.303;0.006233533442392594
05:47.8;-0.07987388102545047;0.3382319850415287;0.3403832856419956;0.371;0.009195761260037268
05:47.8;-0.10732550928614791;0.3834361999951963;0.3898516606915471;0.423;0.01604336479162782
05:47.8;-0.1597302530489218;0.40934269803780565;0.43329688563394736;0.608;0.028330862409812946
05:47.8;-0.235577670844928;0.4139331634590532;0.46759421901118653;0.608;0.045596707041368575
05:47.8;-0.3332959061982283;0.39442712114063644;0.4895973515428183;0.608;0.06436293039057495
05:47.8;-0.451143038009691;0.347565602737689;0.49645491067510095;0.7240000000000001;0.07784502456923974
05:47.8;-0.5870093126794059;0.2700726043179901;0.48594312164039566;0.8;0.07703905782508874
05:47.8;-0.7381720441667677;0.15926983061625996;0.45680710008891157;0.904;0.05370614219289936
05:47.8;-0.9010396012271625;0.013794193639092392;0.40909319404906486;1.044;0.005084666246478114
05:47.9;-1.07091016118557;-0.16566459964343339;0.3444374242069918;1.2309999999999999;0.06110729892979835
05:47.9;-1.2417720847606821;-0.37572637769606626;0.2662435774191748;1.341;0.1242203413407062
05:47.9;-1.40619580378659;-0.6099414481539926;0.179636044182991;1.058;0.15407331504036068
05:47.9;-1.5554147477372846;-0.8588352101993135;0.09105161917940562;1.8359999999999999;0.12163084583585182
05:47.9;-1.679712988694194;-1.1104514034746251;0.007427857460606727;1.8359999999999999;0.013854734218355213
05:47.9;-1.7691670739300587;-1.3513045401792343;-0.06485531289489015;1.8359999999999999;0.15504852638217145
05:47.9;-1.8146868498963031;-1.567571623294627;-0.1209960320809712;2.717;0.34419155759140885
05:47.9;-1.8092461662803676;-1.7464098906666028;-0.158511976592791;3.5989999999999998;0.5008479780770396
05:47.9;-1.7491222880378288;-1.8773121799168617;-0.17754875594751693;4.003;0.5830077195484111
05:47.9;-1.6348276075893113;-1.953317974912637;-0.18064969927431204;3.824;0.5768755768016218
05:48.0;-1.4713683495838052;-1.971821124462769;-0.1719870830341434;3.21;0.49898185762233
05:48.0;-1.2676463219737082;-1.9347642010281914;-0.15624059280426325;2.494;0.3831951659612771
05:48.0;-1.035150751646396;-1.8481563478262708;-0.13745079555515274;1.994;0.2629599254553955
05:48.0;-0.7863392394769718;-1.7210344747639386;-0.11818376858441071;1.138;0.1599400960582667
05:48.0;-0.5331390367117532;-1.5641464060533505;-0.09921829833780392;1.138;0.08273888393466611
05:48.0;-0.2858621941677768;-1.388689420014494;-0.07976417171538486;1.138;0.031664286718452284
05:48.0;-0.05263898816336497;-1.2053444014107768;-0.05806011993561242;0.971;0.0036838048576297365
05:48.0;0.1606860653036678;-1.0236768350394365;-0.032164527450431545;0.946;0.005290762507972837
05:48.0;0.35032890359659424;-0.8518620371008344;-0.0007711740207182165;0.9520000000000001;0.0002301429232001984
05:48.0;0.5141376092676209;-0.6966683021454922;0.03612140570809417;0.924;0.012938087017742166
05:48.1;0.6510561507865913;-0.5636323336378742;0.07684592928969153;0.8320000000000001;0.02819909769755668
05:48.1;0.7605674299135231;-0.4573453400819224;0.11809386864688963;0.7859999999999999;0.04107800390195091
05:48.1;0.8422127594534989;-0.3817518707087118;0.15531585771672318;0.868;0.049936579353986446
05:48.1;0.8952794774984458;-0.3403668724671729;0.18338796404130697;1.088;0.05588261781158417
05:48.1;0.9187024621163753;-0.33634113855543074;0.19738964674335596;1.088;0.060992893967197995
05:48.1;0.9111556287588654;-0.37234189485837194;0.1933390828303179;1.088;0.065592490491576
05:48.1;0.8712692426637911;-0.450249710876547;0.16877228297295901;1.033;0.06620746363613626
05:48.1;0.7979196256401396;-0.5707003201801655;0.12311047502636197;0.988;0.05606118459981064
05:48.1;0.6905624113265548;-0.7325290624325892;0.057804292835110425;0.9440000000000001;0.029240708225473044
05:48.1;0.5495846643295154;-0.9322077074045173;-0.023736283958638627;0.868;0.012160740574888394
05:48.2;0.37664242332076997;-1.1633870413976488;-0.1164061204331929;0.8;0.0510069403085376
05:48.2;0.17494820827045623;-1.4166713048035615;-0.21383039719312133;0.846;0.05299660373135229
05:48.2;-0.05052053354770265;-1.6797581117524683;-0.30891190592558;1.002;0.026214967431715575
05:48.2;-0.29291634747315926;-1.9380560638080453;-0.3944652888932238;2.562;0.22393333060548032
05:48.2;-0.5435396047758387;-2.1757770597163977;-0.46389582176302024;2.562;0.5486129420759044
05:48.2;-0.7919948547514679;-2.377308359837599;-0.5118471304543615;2.562;0.963713961219521
05:48.2;-1.0265311859761546;-2.5285857871717523;-0.5347275068211228;2.562;1.3879773063570142
05:48.2;-1.2346804477931779;-2.6183157457386286;-0.5310591725298682;3.2689999999999997;1.7167992016498934
05:48.2;-1.4043196505347595;-2.639038567056458;-0.5016208865501339;3.9789999999999996;1.859033951744202
05:48.2;-1.5251346322028432;-2.5879918627112306;-0.4493245414777123;4.33;1.773500148840101
05:48.3;-1.590194194478527;-2.4676031853427256;-0.3787557381862493;4.26;1.4862254947875138
05:48.3;-1.597158902797764;-2.2854030747241088;-0.2954086203160823;3.753;1.0782863270564682
05:48.3;-1.5487143098910672;-2.0532427668814943;-0.20480140486652493;3.1069999999999998;0.6512452132487717
05:48.3;-1.4520944616503177;-1.785865017791207;-0.11172899042176965;1.268;0.28974061242521576
05:48.3;-1.3178747330866345;-1.4990787274714905;-0.019842390139959844;1.268;0.03920058583606349
05:48.3;-1.1584144344614011;-1.2079526954606463;0.06839291162190905;1.268;0.09570287412086065
05:48.3;-0.9863304164331569;-0.9254138996605616;0.15142714813470182;0.773;0.13821723081830478
05:48.3;-0.8132207709888275;-0.6614096327670915;0.2281725451085149;0.47700000000000004;0.12272763493310335
05:48.3;-0.6487108797004265;-0.4225915578470738;0.297514108389318;0.303;0.08156044069056932
05:48.3;-0.4998568847605003;-0.2124267627833299;0.35793465984031725;0.242;0.03800656878583738
05:48.4;-0.3709329751027054;-0.03164670495580811;0.40736692576573935;0.341;0.00478200148406742
05:48.4;-0.26358306263975084;0.12107005775489345;0.443308248654437;0.479;0.014146860197516369
05:48.4;-0.1772634471935629;0.2483066182450447;0.46315408451748213;0.5920000000000001;0.020386045268346063
05:48.4;-0.109874175932598;0.3531334056890502;0.4646582598694207;0.7190000000000001;0.018028852904377064
05:48.4;-0.05847364577717389;0.438442185693655;0.4464166626891436;0.7190000000000001;0.011444923736571229
05:48.4;-0.019983693219305973;0.5064209191311668;0.4082863603330996;0.7190000000000001;0.004131923409875552
05:48.4;0.008188371546521262;0.5581646714026074;0.35167729732018393;0.7190000000000001;0.0016073269195848823
05:48.4;0.027665532029158807;0.5934293936520527;0.27967264235486855;0.675;0.004591536763995469
05:48.4;0.03879244263561837;0.6105584318411363;0.1969450244571113;0.5920000000000001;0.004664653331105523
05:48.4;0.04052248346047796;0.6066041645871292;0.1094543400814314;0.499;0.00269050886995173
05:48.5;0.030502224849128554;0.577639810993104;0.023948685317572917;0.521;0.00042195905676814424
05:48.5;0.005340497390035005;0.5192352428080779;-0.05266551273197404;0.593;0.00014604012167752182
05:48.5;-0.038960365286324676;0.42705691117724487;-0.11398226530439119;0.619;0.0018964703562903346
05:48.5;-0.10644081921335022;0.29754179525378466;-0.15467239442622113;0.39899999999999997;0.004898566365131435
05:48.5;-0.20051915541200044;0.12859945307277756;-0.1708982725895687;0.39899999999999997;0.004406894576032072
05:48.5;-0.32325115932214166;-0.0796891614479107;-0.16055083465002057;0.39899999999999997;0.004135727499616535
05:48.5;-0.4745461613789206;-0.32442066326321195;-0.1233414261443662;0.39899999999999997;0.0189887308280472
05:48.5;-0.6514066225943981;-0.5993686668403012;-0.06078330205006935;0.134;0.02373178988649273
05:48.5;-0.8473199356057012;-0.8947899060890291;0.02392246871732528;0.41600000000000004;0.018137377664167557
05:48.5;-1.052004470258762;-1.1976797620934407;0.1260835135920671;0.8420000000000001;0.15886074657949176
05:48.6;-1.2517551903092006;-1.4925374245747753;0.2397654887474494;1.4480000000000002;0.4479518169338518
05:48.6;-1.4305632975619011;-1.762601567221199;0.3580657696377972;2.383;0.9028675324884053
05:48.6;-1.5719539629782502;-1.9914440707668466;0.4734244404440364;3.4389999999999996;1.4820355159232195
05:48.6;-1.66118811478505;-2.164751434888806;0.5780372915291297;4.163;2.078656409800668
05:48.6;-1.6873026665181452;-2.2720450059235087;0.6644217563977374;4.163;2.5471455813363506
05:48.6;-1.64453679550154;-2.3080179394736446;0.726086663289675;4.163;2.755949370331619
05:48.6;-1.5329197877479082;-2.273196309437673;0.75817674945242;3.5460000000000003;2.6419636299836995
05:48.6;-1.3580119698903843;-2.173794994154438;0.7579895440453872;2.937;2.2376151671970352
05:48.6;-1.1299522549137306;-2.0208397696156286;0.7253255911271341;2.4130000000000003;1.6562465013683965
05:48.6;-0.8620870313179368;-1.8287661239048372;0.6626435854352323;1.9680000000000002;1.044694428075973
05:48.7;-0.569485153153388;-1.613761546614426;0.5749688359816189;1.56;0.5284039737323382
05:48.7;-0.2675632916859249;-1.3921104401405326;0.46949766499029133;1.177;0.17487738775973077
05:48.7;0.02907090249153476;-1.1787514918348905;0.3548695448890389;0.868;0.012160445883199481
05:48.7;0.3075258500866263;-0.9861868539330092;0.24014860995510806;1.051;0.07283177826662494
05:48.7;0.5572623219296889;-0.8238141429741482;0.13366292360971752;1.051;0.061362052782926266
05:48.7;0.7704189974749175;-0.6976995569110126;0.04194156371447184;1.051;0.022544470983076707
05:48.7;0.941809656048089;-0.6107621193998276;-0.031020485016415862;1.192;0.017843654934754375
05:48.7;1.068651827302485;-0.563287049586705;-0.0840562303365654;1.25;0.05059829801230725
05:48.7;1.1501445223898616;-0.5536464962665144;-0.11868626112581207;1.334;0.07557626412122789
05:48.7;1.1870048301196634;-0.5790890849718501;-0.1386128992220964;1.474;0.09527994826022053
05:48.8;1.1810317628821803;-0.6364579362174341;-0.1489527129779785;1.527;0.11196433415460492
05:48.8;1.1347258896329764;-0.7227090415789195;-0.15534234732950872;1.495;0.12739263337806772
05:48.8;1.0509674056453595;-0.8351400945506668;-0.1630634916492952;1.4080000000000001;0.1431216449580351
05:48.8;0.9327557471728403;-0.9713046323039832;-0.1763122155078406;1.146;0.15973710025562848
05:48.8;0.7830462158456887;-1.1286570371933116;-0.19769087306140504;1.146;0.1747173396591162
05:48.8;0.6047552744906228;-1.3040289712728872;-0.22794481063715624;1.146;0.17976147150327773
05:48.8;0.4009897409238995;-1.493071128839622;-0.2659308801623391;1.206;0.15921446809003276
05:48.8;0.17547451625880217;-1.6898064377599462;-0.30880116117975603;1.32;0.09156509259342678
05:48.8;-0.06692717913844984;-1.8864284938405669;-0.35238717202162434;1.541;0.044490056644187884
05:48.8;-0.3197376607047202;-2.0734388157683163;-0.391753597604641;1.945;0.2597155847508606
05:48.9;-0.5745688961243378;-2.2401501205045466;-0.421862402184946;2.301;0.5429877805782648
05:48.9;-0.8211480483889588;-2.3755027652051277;-0.4382637474475774;2.51;0.8548945594793663
05:48.9;-1.0478152770459144;-2.4690774650796947;-0.4377158707672902;2.9589999999999996;1.1324309633209304
05:48.9;-1.2425938212057355;-2.512159207614135;-0.4186313408851525;3.79;1.3067968764825904
05:48.9;-1.3947281622614032;-2.4987016541225002;-0.38126402532887305;3.79;1.3287087754785525
05:48.9;-1.496290591670864;-2.4260481680709223;-0.32760480193082814;3.79;1.1892293621547043
05:48.9;-1.5433435824650061;-2.2952957556647786;-0.26101416979599484;3.407;0.9246244188191719
05:48.9;-1.5363533038190618;-2.1112408028459377;-0.18565259474284515;2.909;0.6021849437800053
05:48.9;-1.479869117174879;-1.8819105423768328;-0.10580844231574424;2.4619999999999997;0.29467453248545294
05:48.9;-1.3816765169886567;-1.6177544539926698;-0.025284706082977892;2.002;0.0565167123178491
05:49.0;-1.25167492690417;-1.3306232316978162;0.05298378674787216;1.537;0.08824490672558574
05:49.0;-1.1006985069659883;-1.0326799399657776;0.12700112547990539;1.0759999999999998;0.14435827634636564
05:49.0;-0.9394397881537259;-0.7353791022214071;0.19551945130559073;0.706;0.13507351568000187
05:49.0;-0.7775848236506017;-0.44863404803327156;0.25771974775874706;0.462;0.08990579871567583
05:49.0;-0.6232317695852893;-0.1802768898043106;0.3128990288330111;0.462;0.03515554667676924
05:49.0;-0.4826241111201915;0.06411378944941085;0.360250309395018;0.462;0.011147175120412666
05:49.0;-0.3601715201519617;0.2810121037225199;0.398774941162911;0.5379999999999999;0.04036103129467501
05:49.0;-0.2586747928333233;0.46846252174132885;0.42734260628554865;0.632;0.05178514018000659
05:49.0;-0.17964943730513744;0.6254641693210435;0.4448910164092761;0.745;0.049989861439142184
05:49.0;-0.12366069762313434;0.751356058879494;0.45071879037723683;0.892;0.04187773160641519
05:49.1;-0.09061840786729417;0.8452950975706774;0.4447867671076833;0.9990000000000001;0.0340703531949299
05:49.1;-0.08001341236319277;0.9058841013869355;0.4279248589243375;0.9840000000000001;0.03101722540999234
05:49.1;-0.09110415920704672;0.9309819270280614;0.40185331985203443;0.8959999999999999;0.03408372205973335
05:49.1;-0.12307645350119621;0.9177118829036277;0.3689772176674833;0.795;0.04167550587769438
05:49.1;-0.17518188925546613;0.8626790596256868;0.33199891050031716;0.795;0.050173583514016476
05:49.1;-0.24681363738891196;0.7624004916557202;0.29347834259026034;0.795;0.05522406580464047
05:49.1;-0.3374548849107624;0.6139297420044493;0.2554905039260555;0.795;0.05293088501949002
05:49.1;-0.4464728359121026;0.4156204400696401;0.219467370560815;0.755;0.040725075596392074
05:49.1;-0.5727915702101176;0.16793653142566556;0.18623096197481717;0.696;0.017914045932435604
05:49.1;-0.7145083375292363;-0.12580384491629415;0.15617539606025335;0.73;0.014038277772242577
05:49.2;-0.8685192252605809;-0.4588670172605112;0.129525516460932;0.8;0.05162042920789695
05:49.2;-1.0302130762049986;-0.8208400745911717;0.10657292064718621;0.912;0.0901223436198406
05:49.2;-1.193286212436449;-1.1977837585944564;0.08778725207424298;1.036;0.1254742179612965
05:49.2;-1.3497282470131253;-1.5729011409399247;0.07374023834102182;2.318;0.15654972220622143
05:49.2;-1.4900344514248574;-1.9277112913528196;0.06485388360095594;2.318;0.1862834570235146
05:49.2;-1.6037119401937816;-2.243538977361735;0.06105921614655817;2.318;0.2196904641411337
05:49.2;-1.6801506344765254;-2.5030668242589185;0.06148391232348806;3.2239999999999998;0.2585723955491718
05:49.2;-1.7098712136814087;-2.6918119477362086;0.06427417409287903;4.176;0.2958316406446867
05:49.2;-1.6859848832428967;-2.799473487520698;0.06664807472138248;4.607;0.31457024716884274
05:49.2;-1.6054807910050404;-2.82101998010253;0.06527058908258249;4.487;0.295616593516328
05:49.3;-1.4699002882287153;-2.75729450851809;0.056952700907588874;4.039;0.23082633482807605
05:49.3;-1.2851584747975904;-2.6149513358025955;0.03949663112620384;3.3930000000000002;0.1327334398526021
05:49.3;-1.0605949689995182;-2.4056704539976024;0.012367796300966362;2.7710000000000004;0.03155571468955558
05:49.3;-0.807571545216506;-2.1447564732185063;-0.023090038062098684;1.222;0.03999296879354213
05:49.3;-0.538005741626963;-1.8493935002678237;-0.06396931493543327;1.222;0.06364846542883386
05:49.3;-0.2631709364355831;-1.5369475037850797;-0.10647788418021795;1.222;0.043068165417317984
05:49.3;0.0070568564685831985;-1.223660939525487;-0.14672369134388738;0.9840000000000001;0.0012669883632158414
05:49.3;0.26450419574724693;-0.9238667107654139;-0.18141747279943735;0.986;0.04433237487435428
05:49.3;0.5026602103697464;-0.6496517932960323;-0.20840371434240224;0.9209999999999999;0.06805508885033613
05:49.3;0.7164059291287157;-0.41084397528988725;-0.22696217755722217;0.79;0.0668020182650298
05:49.4;0.901627043496333;-0.21520764274068174;-0.23783651130894468;0.797;0.04614909043741963
05:49.4;1.0548387409699136;-0.06874560967814115;-0.2429957560247821;0.888;0.017620966609381936
05:49.4;1.1729385871287337;0.023988267847870837;-0.24519899913235838;0.996;0.00689910661612288
05:49.4;1.253150000608291;0.05965137981996435;-0.24747283759769667;1.365;0.01849912090043694
05:49.4;1.2931476377609266;0.03601944063990847;-0.25260985290141713;1.365;0.011766176559063115
05:49.4;1.2912942580439732;-0.047916455156603054;-0.2627645875544307;1.365;0.016258360049751033
05:49.4;1.2468986262453452;-0.191648878844935;-0.2791855058936192;1.354;0.06671604566278069
05:49.4;1.1604320852678112;-0.3926765138352256;-0.30209351555230385;1.291;0.1376562892328207
05:49.4;1.033678317185006;-0.6459279997709676;-0.3306977573064018;1.17;0.2208008632144089
05:49.4;0.8698084167735457;-0.9432137635961293;-0.3633216170317632;1.055;0.29807460267657854
05:49.5;0.673382329824059;-1.272868338653077;-0.39759994637078294;1.005;0.3407936680956833
05:49.5;0.4502859700030803;-1.6197616476905805;-0.43070833500511047;1.0859999999999999;0.31413968456959984
05:49.5;0.20761238812625651;-1.965844856282262;-0.4595973159581777;1.371;0.18757717389113898
05:49.5;-0.046512456344774224;-2.2913255653080933;-0.4812224433766339;3.287;0.051286368680773346
05:49.5;-0.3031512040998104;-2.5763799438423227;-0.4927735788173485;3.287;0.3848722699782483
05:49.5;-0.552795938818744;-2.803052337253122;-0.49190653562067116;3.287;0.762217022031947
05:49.5;-0.7856252207810193;-2.956904800300177;-0.4769744434891682;3.287;1.10802068833127
05:49.5;-0.9918599304797978;-3.028175503911859;-0.4472485962621456;3.637;1.3433227626445499
05:49.5;-1.1623443410363992;-3.012448319071871;-0.40309066056262616;3.89;1.4114228574687306
05:49.5;-1.289378887598829;-2.9108951134302705;-0.3459873434122266;3.911;1.2985758560356346
05:49.6;-1.3676418848964902;-2.730092469644659;-0.2783483382077852;3.7510000000000003;1.0392939107958932
05:49.6;-1.3949216976639793;-2.481383644533943;-0.20306039514657423;3.3789999999999996;0.7028602327439276
05:49.6;-1.3724295075575015;-2.1797841843203445;-0.12293052724381524;2.878;0.36775898185745515
05:49.6;-1.3046221182780584;-1.842496282710402;-0.040218996331335306;1.429;0.09667687105948505
05:49.6;-1.1986286948693414;-1.4872165909421247;0.04358547677663848;1.429;0.07769636359313993
05:49.6;-1.0634691929831097;-1.130548771517425;0.12770447896063788;1.429;0.15353957901267792
05:49.6;-0.9092355256375981;-0.7868107115154812;0.21177370683681052;0.9570000000000001;0.1515021159022176
05:49.6;-0.7463146289931998;-0.46733177290501166;0.2954136351370282;0.575;0.10303334515152222
05:49.6;-0.584671990015609;-0.18017414158302902;0.3777917948738491;0.355;0.03979763563195924
05:49.6;-0.43322959280656026;0.06979680115108035;0.45730844518489816;0.32299999999999995;0.013828110939799671
05:49.7;-0.29940217006618647;0.2805350893851567;0.5315117267323368;0.5489999999999999;0.044643165890129365
05:49.7;-0.18884744703274634;0.4521930534942507;0.5972762751587173;0.863;0.05100470837618734
05:49.7;-0.10544749973089718;0.5863677567730549;0.6511759533341465;1.06;0.04026286940536618
05:49.7;-0.051488950615955986;0.6853494799845039;0.6898983556013956;0.93;0.02434508179545088
05:49.7;-0.027962864598175544;0.7514818861415722;0.7105549252450137;0.93;0.014931307192899819
05:49.7;-0.03488108309205582;0.7866825101807906;0.7108420146121306;0.93;0.01950574514888682
05:49.7;-0.07151920360301253;0.7921242455840912;0.6891094427602686;0.93;0.039039493753654564
05:49.7;-0.13653846397925462;0.768075739311396;0.6444101982229714;0.81;0.0675805100519574
05:49.7;-0.2279869489928782;0.7139169427353895;0.5765667550736364;0.7759999999999999;0.09384416464916104
05:49.7;-0.34321989445636214;0.6283511673025463;0.4862606239486394;0.7609999999999999;0.10486824080697552
05:49.8;-0.47880210145367313;0.5098190387705024;0.37513867827925185;0.774;0.09157226187620789
05:49.8;-0.6304558205484547;0.35708556459950297;0.24591376029980244;0.8440000000000001;0.05536174661160005
05:49.8;-0.7930951567126224;0.16992526591963358;0.10242178478638016;0.951;0.01380306698161144
05:49.8;-0.9609512469066598;-0.05020699502504154;-0.0504037291758155;1.2409999999999999;0.0024318022330123935
05:49.8;-1.1277472323554636;-0.2996255717870327;-0.20665577800891335;1.2409999999999999;0.06982938196241004
05:49.8;-1.2868482630934646;-0.5720433919963265;-0.35965389953662946;1.2409999999999999;0.2647531203575271
05:49.8;-1.431332108162839;-0.858423804995984;-0.5021908006935368;1.3530000000000002;0.6170365911791784
05:49.8;-1.5540050347693086;-1.1471393005711064;-0.626849257563706;1.3880000000000001;1.117459253366646
05:49.8;-1.6474690152948586;-1.4245380033687205;-0.7264712620820398;1.7269999999999999;1.70494248952722
05:49.9;-1.7043871616997701;-1.6759462956840692;-0.7948553945808696;2.408;2.2704737135087045
05:49.9;-1.7180749118357868;-1.8870180210224334;-0.827667092449523;3.42;2.6833284300076476
05:49.9;-1.6834214923304456;-2.045243174424466;-0.8233888605712929;4.238;2.8349330481859476
05:49.9;-1.5979161335028211;-2.1413782678542845;-0.783984481471917;4.499;2.6825933191821534
05:49.9;-1.46236338172267;-2.1705647842485494;-0.7149326733882114;2.904;2.2693067325064598
05:49.9;-1.2809558891092154;-2.1329635249064878;-0.6245036505809133;2.904;1.7062889759430087
05:49.9;-1.0607369818056225;-2.0338268663921046;-0.5225070684299251;2.904;1.1272334308661118
05:49.9;-0.8107718821321013;-1.8830046570954917;-0.4189318486819896;2.218;0.6395779035798621
05:49.9;-0.5413060094749547;-1.6939228358060745;-0.3227916084636364;1.525;0.2959775066479217
05:49.9;-0.2630191755949246;-1.4821491727175766;-0.24129408809283218;0.995;0.09406455593325182
05:50.0;0.013585521765888918;-1.263777602112676;-0.1793703002072798;0.861;0.0030796226968002093
05:50.0;0.27863748238880015;-1.0539185788637528;-0.13958689577106034;0.736;0.04099125803239953
05:50.0;0.5232170082018434;-0.8655115089273199;-0.12242556271765172;0.7609999999999999;0.05544045797870017
05:50.0;0.7395763747912519;-0.7085504085319245;-0.1268383609404263;0.945;0.06646674384285585
05:50.0;0.9212866941762762;-0.5897339502030546;-0.15092377659073608;1.271;0.08199900700680096
05:50.0;1.0633054534554314;-0.5125118031834158;-0.19255345271298246;1.271;0.10493327400087721
05:50.0;1.1619528457218948;-0.47745342885356723;-0.24981335469507995;1.271;0.13859104581092152
05:50.0;1.2148120187224802;-0.4828254129485385;-0.3211847578842268;1.33;0.18838838706494626
05:50.0;1.220607015480702;-0.5252575483935479;-0.4054659508357647;1.389;0.2599576211236469
05:50.0;1.1791227040796113;-0.6003893909698255;-0.5015081680331868;1.436;0.35503406265209286
05:50.1;1.0912019282866396;-0.7034039398519457;-0.6078807859873987;1.541;0.4665823838036367
05:50.1;0.9588091209217898;-0.8293857200207531;-0.7225757163528123;1.564;0.5746085348823127
05:50.1;0.7851080359418089;-0.9734822788871531;-0.8428305038095951;1.604;0.6441658806478635
05:50.1;0.57447468790909;-1.130883540480488;-0.9651225131590633;1.6480000000000001;0.6270053224499573
05:50.1;0.33237682622813297;-1.2966585883666124;-1.0853519780390515;1.889;0.4677641991755042
05:50.1;0.06512884343962644;-1.4655058926212532;-1.1991649801250113;1.889;0.11445634471374663
05:50.1;-0.22035913781400837;-1.6314864092519514;-1.3022989521309232;1.889;0.46819332308349665
05:50.1;-0.5167027445311165;-1.7878297068026923;-1.39083434089949;2.0469999999999997;1.284820102129809
05:50.1;-0.8160196867359665;-1.9269205435730448;-1.461313761090905;2.302;2.297777208201427
05:50.1;-1.1098663894344292;-2.0405527300695545;-1.5107650880470838;2.5980000000000003;3.4214914715544498
05:50.2;-1.3892573128855616;-2.1204679808653406;-1.53668370399902;2.862;4.526879104066874
05:50.2;-1.6448519900568905;-2.159113838078893;-1.537015033832525;3.032;5.458590071132122
05:50.2;-1.8673666615234992;-2.150493399339036;-1.510162967260616;3.755;6.064451553779907
05:50.2;-2.0482238412260565;-2.0909449178003516;-1.4550251820372624;3.755;6.231470149279891
05:50.2;-2.1803631424368977;-1.9796811420855902;-1.3710188388283162;3.715;5.917898340656515
05:50.2;-2.259041623351416;-1.8189656414392879;-1.2580564851080969;3.715;5.169503926121773
05:50.2;-2.282412771271703;-1.6139076022471066;-1.1164915839804626;3.27;4.1127121088757335
05:50.2;-2.2517200925256087;-1.3719455868585708;-0.9471086174886809;2.852;2.925843404473956
05:50.2;-2.1710683540454205;-1.1021215597810365;-0.7512186090914331;2.471;1.797501795537631
05:50.2;-2.0468690369682716;-0.8142577162665153;-0.5308725941120674;2.1069999999999998;0.8847941551967909
05:50.3;-1.8871118992688372;-0.5181583560145927;-0.28917534135275086;1.8;0.28276224178185405
05:50.3;-1.70059809908769;-0.2229409627500413;-0.030659485113314996;1.5490000000000002;0.011624021878447643
05:50.3;-1.4962366147206199;0.06344654851495406;0.23836198397634556;1.339;0.022627953172425205
05:50.3;-1.2824743614126326;0.3345162521644154;0.5095971720571771;1.21;0.21862152698881304
05:50.3;-1.0668987590307852;0.585363793970337;0.7728695454872246;1.371;0.4826755068880628
05:50.3;-0.8560287508431816;0.8126508482110506;1.0165717255841074;1.371;0.707180652639657
05:50.3;-0.6552974133764824;1.014456550683291;1.228438954488524;1.682;0.8166302895829355
05:50.3;-0.4692014810968584;1.190012055661283;1.396547870131443;2.052;0.779770071235811
05:50.3;-0.3015520026056657;1.339355393433486;1.5104447705301312;2.318;0.6100464409262344
05:50.3;-0.15575325924105313;1.4629543429778933;1.5622797873910461;2.628;0.3559809271248641
05:50.4;-0.035073718568002565;1.5613467761023143;1.547758397865723;2.5860000000000003;0.08475871284044889
05:50.4;0.057100131904848465;1.6348559213601026;1.4667002689538264;2.359;0.1369171869640535
05:50.4;0.11704480181546359;1.6834251242131533;1.3230791754234528;2.248;0.2606944401473153
05:50.4;0.1405440230603266;1.7065755077356943;1.124565325786665;1.955;0.26972585478260164
05:50.4;0.12282127581091344;1.7034744471572754;0.8816971690727222;1.725;0.18447124296532966
05:50.4;0.05860207464602753;1.6731247131090439;0.6068579027884536;1.725;0.05950155522342702
05:50.4;-0.05761215780403825;1.6146779764487633;0.3132745444949305;1.725;0.029142390309784116
05:50.4;-0.23097302256656846;1.5278278165792096;0.014235820163809233;1.722;0.005023635994803259
05:50.4;-0.465396013525001;1.413205158156983;-0.277414334552894;1.714;0.18245542084595662
05:50.4;-0.7624184320690661;1.2727007317998036;-0.5495848168168435;1.685;0.5332789081333552
05:50.5;-1.1199331217900443;1.109647604802548;-0.7911517905763323;1.595;0.9831889398223163
05:50.5;-1.5309780297974886;0.9288093835775229;-0.9921665549983165;1.4569999999999999;1.4108477050483594
05:50.5;-1.982820312266125;0.7361525956774694;-1.1441355180603643;1.389;1.6700469277286776
05:50.5;-2.456639294214904;0.5384350060004226;-1.240428271224269;1.521;1.6407648272038362
05:50.5;-2.928128571244239;0.3426928530118969;-1.2768150620311731;3.676;1.2812184576307364
05:50.5;-3.3691714976115636;0.15573373947184688;-1.2520578459573872;3.676;0.6569468340667917
05:50.5;-3.750405499388834;-0.01627626515404167;-1.168404596685916;3.676;0.07132244782426214
05:50.5;-4.044281429686868;-0.1681069157447593;-1.0318068828497586;5.082;0.7014962763491179
05:50.5;-4.228271772004268;-0.2956934487002443;-0.8517065424950039;6.349;1.0648650657059093
05:50.5;-4.287861907827966;-0.3963741805673535;-0.640287696387245;6.462000000000001;1.0882315281972925
05:50.6;-4.218747088243513;-0.4691369622114553;-0.4111849437375553;6.017;0.8138049845860907
05:50.6;-4.027616221877037;-0.5147824814531715;-0.17784001683399128;5.442;0.36872393609993254
05:50.6;-3.7312272039689267;-0.5358788170128143;0.04804794695260893;4.459;0.09607117900557484
05:50.6;-3.3539253612370263;-0.5364180777676071;0.25744239481421133;3.2039999999999997;0.4631662074304482
05:50.6;-2.924093951152512;-0.5211742979172067;0.44395587327908215;0.8859999999999999;0.6765721522710519
05:50.6;-2.470259495354233;-0.49488608602021084;0.6030539843253728;0.8859999999999999;0.7372317187040833
05:50.6;-2.017692086782326;-0.4614916649411767;0.7310034645794672;0.8859999999999999;0.6806724728584918
05:50.6;-1.5861766939374289;-0.4236449155602489;0.8241567641785202;0.659;0.5538133115682816
05:50.6;-1.1891987586903436;-0.38262903462360043;0.8789456911933257;0.659;0.3999396025782995
05:50.6;-0.834394268658202;-0.3386427712639645;0.8926466767603748;1.946;0.2522276620309311
05:50.7;-0.5249268031354202;-0.29132491348894424;0.8646907434141169;3.471;0.1322321881842498
05:50.7;-0.2613430063356876;-0.24030682640080708;0.797988883400934;3.02;0.0501157035964441
05:50.7;-0.043366935969461506;-0.18557604557981958;0.6995367521070768;1.186;0.005629776984022405
05:50.7;0.12883763799791023;-0.12754617250320605;0.5797663259524629;0.17800000000000002;0.009527153701928423
05:50.7;0.2541295536715784;-0.06689023570964735;0.450743475098236;0.6609999999999999;0.007662091759548021
05:50.7;0.3304734195730141;-0.004273597427397151;0.32387877455777375;0.6609999999999999;0.00045741734730272895
05:50.7;0.3554281244073839;0.05990210810156269;0.20791672453873006;1.016;0.004426732928549132
05:50.7;0.32687231452808496;0.12568000852714278;0.10770543538077927;1.016;0.004424680947943366
05:50.7;0.24385323320299002;0.19361002439809805;0.023946626559737352;0.769;0.0011305784404844546
05:50.7;0.10744474625305477;0.2646561105389084;-0.046094438250016315;0.7490000000000001;0.0013107372349436739
05:50.8;-0.07852212434633642;0.33993819516698337;-0.10714651917496626;0.802;0.002860026595587271
05:50.8;-0.30700154982378935;0.4203448521762399;-0.16418262184463686;0.7190000000000001;0.02118719617060673
05:50.8;-0.5676797656153052;0.5061035640453464;-0.22085740589072847;0.943;0.06345338236247904
05:50.8;-0.8474161943395183;0.5964227351765933;-0.2785152985397875;1.381;0.14076672438409898
05:50.8;-1.131161675434268;0.6893008944493739;-0.3359295263861304;1.381;0.2619278645256282
05:50.8;-1.4031808883763104;0.7815456828660344;-0.3896655956293853;2.037;0.42732676203881864
05:50.8;-1.6483501374004437;0.8689952317105266;-0.43474938256550016;2.708;0.6227386716510466
05:50.8;-1.8533810323060322;0.946902380481603;-0.4653631890188522;2.708;0.8166988599784017
05:50.8;-2.0078599235601007;1.0104280216346095;-0.4756363133138591;2.499;0.9649699680182374
05:50.8;-2.104983469977739;1.0552011514662778;-0.46078411717733236;3.85;1.0234849175769072
05:50.9;-2.1419483148888383;1.0779004071359426;-0.4184601914866677;3.5839999999999996;0.9661438028730862
05:50.9;-2.120014252725215;1.0767421937323127;-0.3496884465229675;3.042;0.7982368931652635
05:50.9;-2.0441948388618614;1.051702997189775;-0.2588749046765019;2.168;0.5565514916030626
05:50.9;-1.9225249343793631;1.0043850926726934;-0.15297576824796985;1.855;0.29538938337841797
05:50.9;-1.7650252580669519;0.9376040455985041;-0.04023745052183201;1.6640000000000001;0.06658874854107562
05:50.9;-1.5826262329299137;0.8548742828846607;0.0711092625084294;1.6640000000000001;0.0962070254071197
05:50.9;-1.3862606943651945;0.7599511446489957;0.17395589002610218;1.535;0.18326086042075473
05:50.9;-1.1861860132140927;0.6565186283880711;0.2630807566652281;1.431;0.2048749849020485
05:50.9;-0.9915088932432017;0.548047228255513;0.3354872868617494;1.166;0.1823016783565548
05:50.9;-0.8098814480435065;0.4378055154856901;0.3902776788104859;0.907;0.13838097702144286
05:51.0;-0.6473467357880658;0.3289889625609303;0.42811900424072574;0.727;0.09117647480326248
05:51.0;-0.5083034280260594;0.22491631989397765;0.4504927413092332;0.521;0.05150291440254477
05:51.0;-0.39556009970143735;0.12923215613596528;0.45898284182099275;0.444;0.023462782705286664
05:51.0;-0.3104777127747453;0.046043994200899566;0.4548039942253118;0.39799999999999996;0.00650171144614346
05:51.0;-0.25322253247499;-0.0200812905062468;0.43866314751315677;0.775;0.00223061756243468
05:51.0;-0.22312982013717525;-0.06431284172099686;0.41092982731530386;0.775;0.005896889377208273
05:51.0;-0.21912017839719572;-0.08193513656801374;0.3719737910332709;0.722;0.00667828418154374
05:51.0;-0.24006883827453074;-0.06884968650663838;0.3224790193066645;0.5870000000000001;0.005330147439470631
05:51.0;-0.28503444374641246;-0.022122095355101578;0.2636233433052181;0.49;0.0016622925829623202
05:51.0;-0.3532915312398145;0.059493775333688236;0.1971526726591495;0.544;0.004143882429141827
05:51.1;-0.4441564889874499;0.17511403279829257;0.12544065496141985;0.6940000000000001;0.00975652752407817
05:51.1;-0.5566376200139899;0.3214273499877453;0.05155843707217393;0.738;0.009224761064403892
05:51.1;-0.6889655151478683;0.4926089999521137;-0.020738143231153715;0.688;0.0070383311523816465
05:51.1;-0.8380766077855958;0.6804962397665842;-0.08724480178740161;0.49;0.04975640669332641
05:51.1;-0.9991503221168336;0.8750367980377071;-0.14383524953909782;1.4469999999999998;0.125754194777866
05:51.1;-1.1653281954685368;1.064977854467376;-0.1871872882049302;1.4469999999999998;0.2323085446816533
05:51.1;-1.3277395031113843;1.2387155147706768;-0.2154752074186265;1.4469999999999998;0.35439024685940945
05:51.1;-1.475928748058674;1.3852125200114564;-0.2287779480252407;1.949;0.4677307908176014
05:51.1;-1.5987336491898283;1.4949310732587255;-0.22908508840912686;2.66;0.547512584708112
05:51.1;-1.6855483352546756;1.560734128810724;-0.2199514746830509;3.273;0.5786247635677291
05:51.2;-1.7277307893787321;1.5786374536828751;-0.20592611832283125;3.156;0.5616553606441721
05:51.2;-1.7198083227408176;1.5482431910955772;-0.19185853198434621;3.013;0.5108581686574564
05:51.2;-1.660190052582806;1.4727461793492935;-0.18215814347793907;2.841;0.4453836842632643
05:51.2;-1.5512494463865918;1.3585222262419652;-0.18009710586442867;2.474;0.37953787480911555
05:51.2;-1.3988073618483077;1.2143715431912472;-0.187267781088857;1.126;0.3181065090155911
05:51.2;-1.2112067105087851;1.05051970019287;-0.20328981623198644;1.126;0.2586652527724776
05:51.2;-0.9982796661448077;0.8775456327102349;-0.225808614842532;1.126;0.19781646696183922
05:51.2;-0.7704732723867173;0.7054370502092713;-0.25077613642285834;0.772;0.13630194410760724
05:51.2;-0.5382341666820951;0.5428881068651812;-0.27298331580109664;0.597;0.07976597815105571
05:51.2;-0.3116117666919967;0.39685175264971917;-0.28679619531184253;0.606;0.03546627170567009
05:51.3;-0.10000441403812542;0.2723329832823525;-0.2870066513729939;0.619;0.007816482766329172
05:51.3;0.08801580628476678;0.17241099343757055;-0.269665805256575;0.591;0.004092149632597779
05:51.3;0.24486318693848347;0.09846063661266669;-0.23276386655650605;0.5710000000000001;0.0056117937355058085
05:51.3;0.3641468787523936;0.050523168755092496;-0.17665922981552565;0.518;0.0032501507544399877
05:51.3;0.4409676336069277;0.02776405268680468;-0.10421661432790158;0.708;0.0012759290754610787
05:51.3;0.4722901495439264;0.0289443007495487;-0.020665647023705127;0.708;0.00028250162937906953
05:51.3;0.4573203182770432;0.05282531252861223;0.0667806754633775;0.708;0.001613293483872544
05:51.3;0.3977955673408105;0.09843967050993549;0.1495166235165358;0.7120000000000001;0.005854901212644523
05:51.3;0.2981188528156076;0.16518975908076564;0.21832951688884045;0.773;0.01075189500984829
05:51.3;0.16528982656877086;0.2527609642056985;0.26434326931491575;0.775;0.01104394879287027
05:51.4;0.008583718276874798;0.3608526993231499;0.28003110572847023;0.718;0.0008673845636078339
05:51.4;-0.16107798588937053;0.48876179290630084;0.26018511834708324;0.6859999999999999;0.020484053085944604
05:51.4;-0.3320937738071057;0.6349073379381651;0.20273718080644432;0.779;0.04274688599165116
05:51.4;-0.49343653922139535;0.7964371927409828;0.10933381682618694;1.044;0.042967229197311566
05:51.4;-0.6360335605742367;0.9690595928934116;-0.014420562565609836;2.338;0.00888817752345082
05:51.4;-0.7539863611596251;1.1471572164661739;-0.15912379776235241;2.338;0.1376326801035001
05:51.4;-0.8452633401909804;1.3240950980879476;-0.3122261896026585;2.338;0.3494463755954379
05:51.4;-0.91155568945721;1.4925807076563389;-0.4592754387532588;1.235;0.624876583966159
05:51.4;-0.9572468801180836;1.6450737166646696;-0.5857494256651645;2.84;0.9224040362954122
05:51.4;-0.9878130339188878;1.77437979247349;-0.6791526398716746;3.752;1.190388515453123
05:51.5;-1.0082159351258477;1.8744180057736597;-0.7307496072743236;2.4459999999999997;1.3809838362274947
05:51.5;-1.021801752537251;1.9408718469054256;-0.7363992636187668;1.933;1.4604168975196843
05:51.5;-1.0299360184465172;1.9714451194667413;-0.6964495219216218;2.639;1.4141145238343353
05:51.5;-1.0322968013577838;1.9657300096214911;-0.6150714458493433;2.5140000000000002;1.2481133118960097
05:51.5;-1.0275596075107472;1.9248628792776348;-0.4993962776869334;2.131;0.9877615631591778
05:51.5;-1.0141714397642856;1.8511133015271777;-0.3585821812030803;2.131;0.673182910393105
05:51.5;-0.9909951328799825;1.747507368618824;-0.20285459975212272;2.131;0.3512977733097049
05:51.5;-0.9577268160821297;1.6175543523472666;-0.04260938883672405;1.9280000000000002;0.06600940760860753
05:51.5;-0.9150713887650559;1.46508754629072;0.11236883527177138;1.7369999999999999;0.15064836849562013
05:51.5;-0.8647006397957838;1.2941938384273355;0.25360206636454136;1.655;0.2838035973397487
05:51.6;-0.8090492809816243;1.1092157093474833;0.3745237579892764;1.7109999999999999;0.3361014301131086
05:51.6;-0.7510211465088599;0.9148252664390266;0.4708667493810399;1.42;0.3235104694813632
05:51.6;-0.6936634565976635;0.7161619019718782;0.5406751314770463;1.113;0.2685940724882279
05:51.6;-0.6398419145091145;0.5189911147172097;0.5839327329907982;0.963;0.19390786726872755
05:51.6;-0.5919485027272224;0.32980562027495136;0.6020141692070462;0.851;0.11752998797904093
05:51.6;-0.5516934916507775;0.15579525675150485;0.5972148298335036;0.851;0.05133134870863479
05:51.6;-0.5200376509106511;0.004666337377680551;0.572451963949016;0.851;0.0013891526532225464
05:51.6;-0.4972921331720582;-0.1156732572624003;0.5310454401504686;0.79;0.030547539725984334
05:51.6;-0.4833647661163706;-0.19756679204638186;0.4764616034247486;0.705;0.04550057094745416
05:51.6;-0.478083607045478;-0.23421141547320892;0.4120017501281818;0.754;0.04613292295458134
05:51.7;-0.48150231176791064;-0.22037383222960302;0.34052215068488695;0.828;0.036132978963679355
05:51.7;-0.49409874145538635;-0.15312231718824226;0.26432493045888433;0.884;0.019998175112379633
05:51.7;-0.5168073397008464;-0.03245179267372518;0.1853202157334256;1.1;0.003108065500462986
05:51.7;-0.5508586817062454;0.13832640293744267;0.1054165388660864;0.941;0.008032561050031176
05:51.7;-0.5974343587159645;0.3525392599934075;0.026937922651938635;0.8009999999999999;0.005673640128228865
05:51.7;-0.6571905441639115;0.6004730529048327;-0.0471588380420609;0.8009999999999999;0.018610066478616308
05:51.7;-0.729750173679202;0.8699478759304634;-0.11336641466061738;0.8009999999999999;0.07197005770500774
05:51.7;-0.8132829614049435;1.1469931409833138;-0.16798175118892036;0.981;0.15669841333484588
05:51.7;-0.9042740683676593;1.4165850961948914;-0.2076696786839851;1.4509999999999998;0.26602094758478506
05:51.7;-0.9975462130552676;1.6635243285439005;-0.23014231386305734;1.972;0.381907912338432
05:51.8;-1.0865610609693068;1.8735108279254722;-0.23478170390250339;2.603;0.4779413376841947
05:51.8;-1.163979931901987;2.0343473297160863;-0.2229879711736118;3.095;0.5280220174539281
05:51.8;-1.2224117650405115;2.137065889208647;-0.1981101034483971;3.168;0.5175377795951848
05:51.8;-1.255228960238908;2.1767153847353455;-0.16497740648743847;3.0460000000000003;0.45076383948796767
05:51.8;-1.257304342742993;2.1526315087746433;-0.1291887774102431;2.541;0.3496510983201169
05:51.8;-1.225540598173864;2.068200227620205;-0.09635302535806121;2.541;0.24422248146831071
05:51.8;-1.1591342031495873;1.9302786800232945;-0.07141068430688312;2.541;0.15977798125348394
05:51.8;-1.0595875118050064;1.7484445632962748;-0.058081292703546214;2.13;0.10760314671577174
05:51.8;-0.9305104641766904;1.5341535627529634;-0.05844169711526641;1.68;0.0834282076654286
05:51.8;-0.7772672748561851;1.2998297138823283;-0.07266135109792839;1.3530000000000002;0.07341086016332063
05:51.9;-0.6065475238533411;1.057939980403373;-0.09895151012303749;1.002;0.06349628116281177
05:51.9;-0.425940524696328;0.8201401356110181;-0.13376942376648548;0.738;0.04672979583030288
05:51.9;-0.24354914307281822;0.5965735536188175;-0.17225475568109042;0.523;0.025027750896387486
05:51.9;-0.06762315292396016;0.3953791749668314;-0.20882079540340598;0.33799999999999997;0.005583197005028695
05:51.9;0.0938393384309181;0.22244482557175982;-0.237816970235427;0.565;0.004964209336948139
05:51.9;0.23354746238353202;0.0814219350268104;-0.2541969046417247;0.565;0.004833779438479099
05:51.9;0.3453836804780168;-0.026015042157970618;-0.25413109206982576;0.565;0.0022834113207761257
05:51.9;0.424798467651825;-0.09972414981258458;-0.2355032261913933;0.763;0.009976544519725407
05:51.9;0.46908746607875174;-0.1405600387067256;-0.19824255552649347;0.8170000000000001;0.013071113460087101
05:51.9;0.47754134522455033;-0.1498493779328718;-0.14445875006876685;0.732;0.010337363208401899
05:52.0;0.4514553212512206;-0.12896685846576528;-0.07835526947558921;0.5329999999999999;0.00456206118708584
05:52.0;0.39398862024971326;-0.07907465158074546;-0.005925045886215818;0.445;0.00018459191833537282
05:52.0;0.3098934056407764;-0.001055148502442894;0.06551887190700478;0.408;2.1423594171951716e-05
05:52.0;0.20514935025183276;0.1043653630557951;0.1278973539684419;0.374;0.0027383445602559933
05:52.0;0.08652760916796044;0.2363289737705077;0.1729547165880367;0.29600000000000004;0.0035367477267696213
05:52.0;-0.03889940938105114;0.3934378220145214;0.19290411675329583;0.29600000000000004;0.002952300843530529
05:52.0;-0.16426783172781345;0.5732840538576928;0.18119918448893868;0.29600000000000004;0.017063912884217308
05:52.0;-0.28341174820979187;0.7720021666361597;0.13349867192026388;0.523;0.02920877299317136
05:52.0;-0.39131935115885574;0.983960365976473;0.04882359987282476;1.3359999999999999;0.018799172280128073
05:52.0;-0.4845472108509838;1.201722277366339;-0.06926320562334264;2.668;0.04033135357475676
05:52.1;-0.5615289380287523;1.4163693445521781;-0.21192007415597475;3.513;0.16854689565614248
05:52.1;-0.622636558421962;1.6181619756342704;-0.36541589846879596;1.85;0.3681663121243822
05:52.1;-0.6698382374894072;1.797418854429116;-0.5130389558090275;3.319;0.6176885791579476
05:52.1;-0.7059459237113371;1.945493137831068;-0.6380618742967705;3.813;0.8763224412264938
05:52.1;-0.7337203207782719;2.0557037262101456;-0.7266327749746705;2.705;1.0959886415597704
05:52.1;-0.7552287338773445;2.123983210221857;-0.7696762333892605;2.705;1.234632374184404
05:52.1;-0.7716587505400009;2.1490515870266464;-0.763628522532563;2.705;1.2663514954568251
05:52.1;-0.783494956834484;2.132150812575475;-0.7102974125894436;2.464;1.1865727167702684
05:52.1;-0.7908579442611502;2.0765234894894564;-0.6161306983493474;2.2569999999999997;1.011831457850858
05:52.1;-0.7938529666778427;1.9868148614993104;-0.49104403943065117;2.197;0.7744937468739853
05:52.2;-0.7928252647841788;1.8685218134915913;-0.34694973647782007;2.043;0.5139752606833479
05:52.2;-0.7884615861102594;1.7275390179652936;-0.1961897183764867;1.901;0.26722965326819104
05:52.2;-0.7817326826643464;1.569790925688194;-0.05008518445090261;1.9140000000000001;0.061462378262294205
05:52.2;-0.7737008683430295;1.4009337948267833;0.08220066913401777;1.902;0.08909760888652644
05:52.2;-0.7652164578969644;1.226144285273121;0.19428249811241097;1.031;0.18228862096210088
05:52.2;-0.7565503154753214;1.0500362639320575;0.2825392878570063;1.031;0.22445069833410175
05:52.2;-0.7470748700915585;0.8767425341165747;0.34561339924745793;1.031;0.22637412039169102
05:52.2;-0.7351446919466387;0.7101517791428237;0.38378510182805764;1.048;0.2003605047246588
05:52.2;-0.7182816690412257;0.5542218089294728;0.39852182091373306;1.2429999999999999;0.15864650195592858
05:52.2;-0.6936755158478588;0.41324780118273063;0.3922432818898186;1.276;0.11244041276784728
05:52.3;-0.6589219850284985;0.2919769331103415;0.3681404353951909;1.188;0.07082654585645487
05:52.3;-0.6128470079129587;0.19551489378181688;0.3298730472784107;1.178;0.03952562526047082
05:52.3;-0.5562152775917081;0.12903373957498132;0.28112031170713286;1.172;0.020176155810528396
05:52.3;-0.4921223446254819;0.09733625390197483;0.22513221133544153;1.0759999999999998;0.01078413583549906
05:52.3;-0.42593133086889656;0.10434948308932436;0.1644794766057306;0.34600000000000003;0.007310407810253232
05:52.3;-0.3647393653416931;0.15261407729512932;0.10109299188953147;0.34600000000000003;0.005627276865351756
05:52.3;-0.3165072170556748;0.24281383924494826;0.0365258031797395;0.34600000000000003;0.0028070931716032894
05:52.3;-0.28905377961975465;0.3733727304467247;-0.027707806284914392;0.34600000000000003;0.0029903594224391632
05:52.3;-0.28905637608733503;0.5401574103268489;-0.08984267044100042;0.293;0.014027670119979829
05:52.3;-0.3211152849356653;0.7363460473311683;-0.14770030644208265;0.525;0.03492402854599423
05:52.4;-0.3869467260633895;0.9525225344419058;-0.19870361310703066;0.705;0.07323727882435886
05:52.4;-0.4848249192426527;1.177030948057968;-0.24011372826415334;0.8740000000000001;0.1370218437225783
05:52.4;-0.609399386755113;1.396608157543137;-0.2695068524784707;1.403;0.22937516779416847
05:52.4;-0.7519487541597139;1.5973069840816034;-0.28540430051609395;1.74;0.34279710657530876
05:52.4;-0.9010585847110064;1.765691328078403;-0.287834163219073;2.8310000000000004;0.45794165790456587
05:52.4;-1.043654044360314;1.8901844856812071;-0.2785844996459229;2.8310000000000004;0.5495632755747567
05:52.4;-1.1662579753880185;1.9623149149839367;-0.2610491867301842;2.8310000000000004;0.5974281416235847
05:52.4;-1.2563195071406863;1.9775675916049555;-0.239726359178776;2.7769999999999997;0.5955897693022251
05:52.4;-1.3034966713347793;1.9356862022530679;-0.21949553959806886;2.804;0.5538224801340627
05:52.4;-1.3007935773632906;1.8404622994560191;-0.2048168143839007;2.835;0.49034405775697903
05:52.5;-1.2454037743067317;1.699144754367106;-0.19899749424105412;2.6060000000000003;0.42110283425642
05:52.5;-1.1390866336610073;1.521596800930722;-0.20363342520548405;2.241;0.3529436792204612
05:52.5;-0.9879698919100751;1.319294039828915;-0.2182856425304119;1.6480000000000001;0.28451848118808015
05:52.5;-0.8017960673355796;1.1042487920136204;-0.2404411201919462;1.1179999999999999;0.2128823213384162
05:52.5;-0.592758297988476;0.8879662523590803;-0.2657922222089782;0.46;0.13989956722736185
05:52.5;-0.37416669322756435;0.6805642861778767;-0.2888090209304318;0.46;0.07354362540553659
05:52.5;-0.15921011193779425;0.490189991657279;-0.3035018875693191;0.46;0.023686259556767824
05:52.5;0.04000757408220387;0.3228070595049522;-0.30424579380763683;0.511;0.003929251473619751
05:52.5;0.2131322842148226;0.18232660019609445;-0.28657257662683583;0.5710000000000001;0.011136119992281252
05:52.5;0.35200805610972596;0.07098556625415763;-0.24787337012873498;0.669;0.006193733652073104
05:52.6;0.4509978410892944;-0.010132529124064505;-0.18795515594685877;0.825;0.0008589078407725451
05:52.6;0.5072184019419017;-0.06053580544444074;-0.10938494590502937;0.955;0.003358651035962033
05:52.6;0.5206756624790256;-0.07982771097793454;-0.017552438722447977;0.982;0.0007295556414275869
05:52.6;0.49424064027900055;-0.06737415994994661;0.0796090867755262;0.865;0.002650906797946919
05:52.6;0.43339374178960705;-0.022197252828109283;0.17226702370244584;0.534;0.0016572346874214477
05:52.6;0.3457112618745111;0.05688358276519278;0.24964497473878716;0.534;0.004909342117867208
05:52.6;0.2401473676464419;0.17087365904013427;0.3011575988494386;0.534;0.012357959731631018
05:52.6;0.12619933628094385;0.32002480815807716;0.3175831549217093;0.564;0.012826204957634183
05:52.6;0.013006485868155499;0.5031290742282448;0.2921847414121392;0.68;0.0019120397655289845
05:52.6;-0.09159532132258591;0.7168042299951628;0.22172015889999505;0.7929999999999999;0.01455723963420692
05:52.7;-0.18199312232990547;0.9549375398612759;0.10726144769849681;0.943;0.018641188437787955
05:52.7;-0.2555314212090089;1.208478462941759;-0.04526157661144847;1.341;0.013976965822361968
05:52.7;-0.31285433626751546;1.4657490730137346;-0.22489537103687304;2.509;0.10312936022857186
05:52.7;-0.3576700597314821;1.713350524597905;-0.41611293460415294;2.495;0.2549999086684848
05:52.7;-0.3958379949125593;1.9375786605817085;-0.6002581001656032;4.0089999999999995;0.4603783055687663
05:52.7;-0.4338656911348333;2.1260593368537872;-0.7580815282218546;4.0089999999999995;0.6992727499170356
05:52.7;-0.47719123523546236;2.2691751534985407;-0.8727389826780559;4.0089999999999995;0.9450283841509286
05:52.7;-0.5288026512836266;2.3609027429207936;-0.9321935285099572;2.6689999999999996;1.1637985300311937
05:52.7;-0.5886035261708786;2.398930427579075;-0.9303822565287824;2.023;1.3137173385484602
05:52.7;-0.6536034399970378;2.3842287085901224;-0.8673051826270548;2.9139999999999997;1.3515564326007214
05:52.8;-0.7187518600124068;2.320394008029322;-0.7485530427483541;3.115;1.2484274146938503
05:52.8;-0.7781225462951255;2.212993674882384;-0.584545136580512;2.7110000000000003;1.006575194006801
05:52.8;-0.8261426681820513;2.068945877353673;-0.38940348626341165;2.467;0.6655857544980589
05:52.8;-0.8586059006332373;1.8958855286046126;-0.17937810291903586;2.199;0.29199499474671564
05:52.8;-0.8733012556097028;1.7015221948826278;0.029045194610074165;1.943;0.043159459153219795
05:52.8;-0.8702132876968356;1.4930762223618155;0.22105462226858738;1.943;0.28721511420960694
05:52.8;-0.8513534714641035;1.276920295960576;0.3850770097025287;1.943;0.41862127085664846
05:52.8;-0.8203170067653113;1.0585201225164118;0.5136774244751706;1.7009999999999998;0.44603743862706324
05:52.8;-0.7816394941676017;0.8426613508852783;0.6036592926683828;1.2890000000000001;0.39760465540207746
05:52.8;-0.7400194015208199;0.6338523049347615;0.6554808839072;0.9890000000000001;0.3074618320442956
05:52.9;-0.6995065025991891;0.43676065637342804;0.6722903746645937;0.831;0.2053960840838804
05:52.9;-0.6628051441223121;0.25655278455819375;0.6589263991201562;0.943;0.11204681359653888
05:52.9;-0.630862491925251;0.09903099147055297;0.6211042393970438;0.8340000000000001;0.03880344888323397
05:52.9;-0.6028800927950543;-0.029495777006467192;0.564795347808269;0.6559999999999999;0.010043426269409421
05:52.9;-0.5767933755200785;-0.12261880676085433;0.4956933052646057;0.991;0.03505826366051666
05:52.9;-0.5501213435799128;-0.17445797464184984;0.4187261911597673;0.991;0.0401864319450429
05:52.9;-0.5209556506645513;-0.18038840445943172;0.3377134717569179;0.991;0.031736406904846734
05:52.9;-0.4888213576167212;-0.13772232195120518;0.2553095458594493;1.089;0.01718785028589727
05:52.9;-0.4552127156932062;-0.04624346415994987;0.1732809242037441;1.272;0.0036476696589412046
05:52.9;-0.42369584003590177;0.09146978185534894;0.09300972570212854;1.119;0.003604625966828749
05:53.0;-0.3995236898323516;0.2699930695310194;0.01600892209593709;0.5589999999999999;0.00172686045213311
05:53.0;-0.38877784073091803;0.48130934189277913;-0.05574787701147135;0.67;0.01043167691283388
05:53.0;-0.3971759657219933;0.7153076506349353;-0.11975627531095762;0.767;0.03402311791449144
05:53.0;-0.4288097867707739;0.9603960552039427;-0.17315334595076456;0.7879999999999999;0.07130926242079098
05:53.0;-0.4851141731604961;1.2041361770348535;-0.21312407261108227;1.5759999999999998;0.12449504722811908
05:53.0;-0.5642796737793148;1.4338964110049757;-0.23751777491346687;1.5759999999999998;0.19218004928394655
05:53.0;-0.6611697879136494;1.6375454917314325;-0.24551885976526933;1.5759999999999998;0.26582219052713163
05:53.0;-0.767704165907876;1.8041895620947668;-0.23811153333809285;2.158;0.3298044376365608
05:53.0;-0.8736586384095035;1.9249453591155474;-0.21814655300911112;2.6319999999999997;0.3668669056487915
05:53.0;-0.9678275119830393;1.9936877122396348;-0.18998018482262324;2.694;0.3665754711668838
05:53.1;-1.0394236933530436;2.007621443524336;-0.15877923902157226;2.859;0.3313356407821027
05:53.1;-1.0795019480384915;1.9675229038354831;-0.12966180810223374;2.932;0.2753945240498985
05:53.1;-1.0821498244321452;1.8775850040128057;-0.10687703644105341;2.822;0.2171557853852526
05:53.1;-1.0452148638697683;1.7448824455593812;-0.09318609419695306;2.574;0.16995066163463543
05:53.1;-0.9704207774060202;1.5785245354908852;-0.08951795172651358;1.249;0.1371265531634601
05:53.1;-0.8628819591349041;1.3886308648621732;-0.0949066665568129;1.249;0.11371949509253584
05:53.1;-0.7302124511586312;1.1853384991221978;-0.10668610268543677;1.249;0.09234204212091675
05:53.1;-0.5815016902994419;0.9780334146830792;-0.12090492444089994;0.888;0.0687620260001691
05:53.1;-0.4263435634002024;0.7748744602496328;-0.1329189241656138;0.687;0.043911459795214984
05:53.1;-0.27399945202256404;0.5825651533563923;-0.13810382643434171;0.521;0.022044482563038634
05:53.2;-0.13275054996368724;0.4063090357603835;-0.13261146249481398;0.37200000000000005;0.007152763639645268
05:53.2;-0.009484754976362843;0.24991297461401515;-0.1140892466004426;0.44799999999999995;0.0002704329664465661
05:53.2;0.09048719293683313;0.11602120566601823;-0.08229055413635787;0.564;0.0008639218873908188
05:53.2;0.16344922766601588;0.006455257291442329;-0.03949171642429031;0.59;4.1667979280316546e-05
05:53.2;0.20721702596939498;-0.0773944920289843;0.009387661971831007;0.307;0.00015055422017816686
05:53.2;0.22106063327992165;-0.13420543767625773;0.05703744428895689;0.307;0.0016921606053169282
05:53.2;0.2056343651229302;-0.16246389905972874;0.09438006176554795;0.307;0.003153064273977055
05:53.2;0.16290293780018236;-0.1603632034188889;0.11149990992112055;0.084;0.0029127831669584115
05:53.2;0.09605551700576491;-0.12588644022023104;0.09880909180839892;0.223;0.001194808144356768
05:53.2;0.009419429326220946;-0.05707879277475276;0.04837477510601879;0.428;2.600868112554574e-05
05:53.3;-0.09162507049512633;0.047504365801428715;-0.04471209143071685;0.633;0.00019461344073347074
05:53.3;-0.20078758410987196;0.1882009063733485;-0.1811052074075298;0.7290000000000001;0.006843676982714898
05:53.3;-0.31118771129779615;0.3635524259316048;-0.3563291681173241;0.6940000000000001;0.04031260465322812
05:53.3;-0.4159645333662427;0.5696313711856857;-0.5605094725583545;1.0070000000000001;0.13281072831617888
05:53.3;-0.5091824861212626;0.799544806247191;-0.778933080540504;2.15;0.31711472744878005
05:53.3;-0.5868506767493876;1.0432879379167064;-0.9935045600017528;2.15;0.6082773717805944
05:53.3;-0.6476760465031456;1.2881070844327047;-1.1848480020654277;2.15;0.9884903748982519
05:53.3;-0.6931407456866259;1.5195047181155226;-1.3345892865410738;3.1;1.4056303195777482
05:53.3;-0.7267421732358478;1.7228864310553549;-1.4274104771522733;4.327;1.7872524210616485
05:53.4;-0.7526360889269751;1.885526334656914;-1.4526071997510928;2.989;2.0614169075310307
05:53.4;-0.7741990173727757;1.998247720017125;-1.4050006412733338;2.6639999999999997;2.1735941890094397
05:53.4;-0.792990586570345;2.056342858715699;-1.2852670889665527;3.4619999999999997;2.0958343121293543
05:53.4;-0.8083443374473017;2.059674000340912;-1.0998697254585657;3.322;1.8312014992322163
05:53.4;-0.8175938079995528;2.012146619719741;-0.8605862202611687;2.8710000000000004;1.4157664125456306
05:53.4;-0.81682988176169;1.920730334319989;-0.5834189800387569;1.881;0.9153318322293399
05:53.4;-0.8019890044491892;1.7941953151237995;-0.2868475470042424;1.881;0.4127520820658392
05:53.4;-0.7699747178257355;1.6418236654347278;0.010224092607079974;1.881;0.012924916653371551
05:53.4;-0.7195155459869392;1.4723719477770774;0.2903274406346027;1.8430000000000002;0.307571295520503
05:53.4;-0.6515831506339054;1.2934247078640242;0.5388109976160941;1.695;0.4540957629858071
05:53.4;-0.5693510393230669;1.1111273890576727;0.7447031863156068;1.5819999999999999;0.47111527193806435
05:53.5;-0.477791856142218;0.9302354752074563;0.9010785474839064;1.746;0.4004924109791794
05:53.5;-0.3830566394992284;0.7544235195293741;1.0049263033923914;1.662;0.2904105754838682
05:53.5;-0.29175088303436914;0.5867812203740517;1.0565430127600153;1.068;0.18087376028029134
05:53.5;-0.2101698627197364;0.43036825208431584;1.0585919028925466;0.789;0.09575009964911667
05:53.5;-0.14354175478521217;0.28866133641392766;1.015158722401324;1.274;0.04206305574453159
05:53.5;-0.0953680455776607;0.16577324860195064;0.9311678475694467;1.274;0.014721270829215967
05:53.5;-0.06700488687407996;0.06642942536457762;0.8122479495513796;1.274;0.003615393706199887
05:53.5;-0.057625592903766426;-0.0042524885140212375;0.6648045076998598;0.992;0.00016291178852531244
05:53.5;-0.06461425123488664;-0.04115017136415419;0.49599581253396774;0.489;0.0013187970713963845
05:53.5;-0.0843081343027229;-0.03966902230901295;0.3134856670833177;0.385;0.001048428129851076
05:53.6;-0.11290446488540062;0.0036385395437954207;0.12505349041727662;0.602;5.137289427668904e-05
05:53.6;-0.14732226121864284;0.09044908434290712;-0.061730705581257345;0.632;0.0008225717528997343
05:53.6;-0.1858484410030978;0.22011442368397208;-0.2395845937396158;1.068;0.009800907989051626
05:53.6;-0.2284328641390801;0.3892664069693955;-0.4013779501581378;1.475;0.03569102513993327
05:53.6;-0.2765102548837357;0.5917089526316875;-0.5400856805828946;1.445;0.08836535889499937
05:53.6;-0.3323095080448319;0.8186863905575267;-0.6491549824582891;1.445;0.17660733343103366
05:53.6;-0.3978117470687498;1.0594517497612157;-0.723280943409146;1.445;0.3048356872098201
05:53.6;-0.4736831292042236;1.301947305250847;-0.7592529070232841;1.445;0.4682392198802717
05:53.6;-0.5584822349779933;1.5335070366774748;-0.7565463746954647;1.6980000000000002;0.6479338817193345
05:53.6;-0.648310791951292;1.7416497426991038;-0.7175458511952859;2.197;0.8102027794385455
05:53.7;-0.7369837502109264;1.9150291810744018;-0.6474146208648857;2.5469999999999997;0.9137256390428992
05:53.7;-0.8167282929654763;2.0444542694432295;-0.5536620130273736;2.7910000000000004;0.9244847012631515
05:53.7;-0.8793176724015609;2.123762517317364;-0.4454740111549945;3.22;0.831905749268735
05:53.7;-0.9174146875648145;2.1503229585983057;-0.33287731327048686;3.2119999999999997;0.6566796803633574
05:53.7;-0.9258129745811812;2.12503155021676;-0.2257935912602576;2.312;0.44422219761829573
05:53.7;-0.9022973605027295;2.0518107406827917;-0.13304300429307217;2.312;0.2463082899855284
05:53.7;-0.8479868649838688;1.9367960282881422;-0.06141222402240086;2.312;0.10086206061795099
05:53.7;-0.7671616328729396;1.7874612518944386;-0.014953499109711544;1.869;0.020505310035968765
05:53.7;-0.6666385634121131;1.6118505634039422;0.005359639752096093;1.565;0.005759049453755198
05:53.7;-0.5548070258931067;1.4179724539258036;0.001590103278787068;1.324;0.0012509359666711948
05:53.8;-0.44050970669047324;1.2133634177500838;-0.0215492793566894;1.064;0.011518054545626941
05:53.8;-0.33199791267344897;1.0048150514718788;-0.05734875960179771;0.904;0.019131345465957596
05:53.8;-0.23615390394733665;0.7982486642177091;-0.09793981136883012;0.76;0.018462588629747048
05:53.8;-0.15807795299307958;0.5987164270132399;-0.13524854380989967;0.653;0.012800445220092688
05:53.8;-0.10103357315784546;0.4105027160900363;-0.16198944589450093;0.624;0.006718440377165829
05:53.8;-0.06665984719698201;0.23729998895756238;-0.17260028034754574;0.624;0.0027302569958926855
05:53.8;-0.0553122253730699;0.08244134987902602;-0.16400150164737287;0.624;0.0007478492295631136
05:53.8;-0.06639759210431984;-0.05084089416991823;-0.1360766481543133;0.584;0.0004593557038179477
05:53.8;-0.09861624204649619;-0.15919823503537878;-0.09181081615065775;0.478;0.0014413868166893774
05:53.8;-0.15007654372675774;-0.239071841069934;-0.03706680007996865;0.34299999999999997;0.0013299225226961922
05:53.9;-0.21828521836594916;-0.2867685785712576;0.01998748673805331;0.29100000000000004;0.0012511635389433624
05:53.9;-0.3000427082606399;-0.2987065448597479;0.06975155427857317;0.294;0.006251463570252074
05:53.9;-0.3913020525578279;-0.2718022277638368;0.10228003699166034;0.395;0.010878174330410871
05:53.9;-0.48709165718043756;-0.20396164587688792;0.10847029310853125;0.55;0.01077630842518772
05:53.9;-0.5816381051649614;-0.09462869326478714;0.08121543031012468;0.8740000000000001;0.004470069171123071
05:53.9;-0.6687824853066222;0.054672090678120004;0.016400346115232844;0.8740000000000001;0.0005996579368284374
05:53.9;-0.7426416077628407;0.23988399842675773;-0.08633072924346194;0.8740000000000001;0.015379632790842276
05:53.9;-0.7983480069709613;0.454169404660696;-0.22306364434849954;1.3259999999999998;0.08087958480680033
05:53.9;-0.8326926307533962;0.6879965142224947;-0.3854291913581333;2.612;0.22080838581741621
05:54.0;-0.8445007026120583;0.9296932721910451;-0.5609490048092711;1.475;0.4404159970240284
05:54.0;-0.8345917290280473;1.1665149645717232;-0.7341546782720728;3.2289999999999996;0.7147463752119949
05:54.0;-0.8053436560298142;1.3860527514008887;-0.8884029487608464;1.939;0.9916787168207097
05:54.0;-0.7600971309221612;1.5776066078769684;-1.007895465384997;2.43;1.208601979384269
05:54.0;-0.7026421237533911;1.7331870309135688;-1.0794482350349668;3.23;1.3145630885525865
05:54.0;-0.6368698076400037;1.8480123821963927;-1.0938970012667069;2.583;1.2874547359920776
05:54.0;-0.5665663493498746;1.920498646044846;-1.0471341923082855;2.583;1.139376145737811
05:54.0;-0.49530177488301835;1.9518194525890669;-0.9406782041383712;2.583;0.9093909075954298
05:54.0;-0.42635692089040533;1.9452142707794642;-0.7816552852534978;2.583;0.6482701622699517
05:54.0;-0.3626275060168744;1.9052371935662529;-0.5821183251050653;2.021;0.40218055150928683
05:54.1;-0.3064680410463768;1.8370506948290228;-0.35769952630971225;1.7519999999999998;0.20138387744878436
05:54.1;-0.25950392463493377;1.745800041380196;-0.1257630947461736;1.311;0.05697595923702649
05:54.1;-0.2225167209458909;1.6361100795775223;0.09660978416166717;1.3330000000000002;0.035171936751360496
05:54.1;-0.19551085735051724;1.5117794764368528;0.2945070178708603;2.215;0.08704723357751722
05:54.1;-0.17795966805600164;1.3757316343202386;0.4567754503599117;2.3890000000000002;0.11182993314647155
05:54.1;-0.1690925422731253;1.2302003928261755;0.5771084202118358;1.476;0.1200487731070655
05:54.1;-0.16806464701223833;1.0770638254111886;0.6543548685251236;1.476;0.11844893097003342
05:54.1;-0.1739622722682004;0.9182498063543962;0.6919567177359147;1.476;0.11053373544920744
05:54.1;-0.18570599709827146;0.756167188989684;0.6967077038705082;0.93;0.09783502729740932
05:54.1;-0.20193492112985176;0.5941054797176669;0.6771552949176718;0.9209999999999999;0.08123875627051623
05:54.2;-0.22093443200858834;0.43652045025827696;0.6419959068389767;0.758;0.06191562459349769
05:54.2;-0.24065294837140727;0.2891240258856993;0.5988101974674211;0.556;0.04166434483050292
05:54.2;-0.258833757673182;0.1587260074646596;0.5533553728021354;0.612;0.02273385788220449
05:54.2;-0.2732686592506232;0.052825619755763574;0.5093978223355009;0.725;0.00735345621758316
05:54.2;-0.2821653095895245;-0.020993257305639428;0.46889559657044605;0.537;0.0027775353952008016
05:54.2;-0.28459181887906176;-0.055772541208490616;0.43232158697056006;0.8029999999999999;0.00686198502459417
05:54.2;-0.28090882398919914;-0.045895273619742154;0.3990227223956268;0.8029999999999999;0.005144355494260224
05:54.2;-0.27304700548098637;0.012285202781643393;0.3676261672232532;0.8029999999999999;0.0012331791230927413
05:54.2;-0.26448566563268355;0.1199694544830398;0.3365340991133732;0.754;0.010678294616478694
05:54.2;-0.25985826164438897;0.2756219396503406;0.30449213116180346;0.878;0.021808529717115836
05:54.3;-0.2642305184346587;0.4748575073924871;0.271123237883247;0.934;0.034018332977435076
05:54.3;-0.2822158014333356;0.7104672956955971;0.23724810938290158;0.738;0.04756945524346364
05:54.3;-0.3171469016737034;0.9725592052827584;0.20483725994725221;0.706;0.06318085220778796
05:54.3;-0.37048005101905934;1.248835945965371;0.1765804971991706;0.7170000000000001;0.08169828762115271
05:54.3;-0.44150867665025717;1.5250947421876553;0.15522571777125188;0.747;0.10452008239762409
05:54.3;-0.5273757347211788;1.7860739405506267;0.14291768210746708;2.622;0.1346187462411722
05:54.3;-0.6233178398490224;2.016693549045501;0.1407246660143034;2.622;0.17689668426755942
05:54.3;-0.7230608792936075;2.203503253589223;0.1484255677269731;2.622;0.23648155902552878
05:54.3;-0.8193241034186787;2.335984521697231;0.16452933933120653;2.915;0.31489737910152954
05:54.3;-0.9044443614962258;2.4074467393349375;0.18646431171467343;2.96;0.4060076960767671
05:54.4;-0.9711358203955356;2.4154523519702202;0.21087896499459366;3.091;0.4946655998856227
05:54.4;-1.013326079899362;2.3617969429195234;0.23399933119594304;3.049;0.5600236817897652
05:54.4;-1.0269117368345237;2.252086893311273;0.2519966844452621;2.86;0.5827913368392772
05:54.4;-1.0102380551776402;2.0949791342882196;0.2613369422093476;2.6039999999999996;0.5531007294811942
05:54.4;-0.9641627324440841;1.9011730847789285;0.25909424078879784;2.167;0.47493016835159063
05:54.4;-0.8916901674631547;1.6822645688427647;0.24321015121227063;1.137;0.36482952152148923
05:54.4;-0.7973107713795492;1.4496078456795942;0.21268237733595557;1.137;0.2458157288249711
05:54.4;-0.6862740261432096;1.213376757078825;0.16768296656692336;1.137;0.13963110741002066
05:54.4;-0.5639958178383648;0.9819857067944003;0.10961845275764089;0.9690000000000001;0.060710626964653756
05:54.4;-0.43568070653796853;0.7618976933024262;0.041133970907946876;0.792;0.013654179994291407
05:54.5;-0.3061390220962307;0.5577234906306408;-0.03395920068029608;0.644;0.005798225303194154
05:54.5;-0.17974859818578798;0.3724908546438154;-0.11086915357227674;0.444;0.0074232119099903945
05:54.5;-0.060514389642454376;0.2079930608140424;-0.18415523151187274;0.371;0.002317883287780586
05:54.5;0.04781956762597753;0.06515197625126352;-0.24820514421563003;0.449;0.0007732928897827199
05:54.5;0.14165416682749457;-0.05565689396777404;-0.2977986475575556;0.581;0.0023478537521902268
05:54.5;0.21746473053932938;-0.15435779464836955;-0.3286561052133497;0.489;0.011032123130648042
05:54.5;0.2718210358772896;-0.2310162960397413;-0.33787814825551954;0.489;0.021217088355064747
05:54.5;0.30153269670794647;-0.28573385716846006;-0.3242400741534512;0.489;0.02793590889269591
05:54.5;0.30394475015670946;-0.3185433567865317;-0.2883632161647658;0.512;0.027919205762740186
05:54.5;0.27739011260219837;-0.32928372404765843;-0.2328003570866417;0.6579999999999999;0.02126399609140785
05:54.6;0.22175330685517017;-0.31747231256329606;-0.16205007409538846;0.825;0.011408411936743084
05:54.6;0.13901601422144827;-0.28221872308143453;-0.08247828612304949;0.8690000000000001;0.0032358641679282505
05:54.6;0.03359183431347231;-0.2222393238675316;-0.0020818213833810103;0.752;1.5541684618057922e-05
05:54.6;-0.08773677812224025;-0.13602798158967735;0.06999615543899289;0.447;0.0008353800952241623
05:54.6;-0.21639464120548638;-0.022201318114817556;0.12425234938126321;0.375;0.0005969388857734579
05:54.6;-0.3430947588568312;0.12001348730644153;0.1518618256171192;1.345;0.006253062301839143
05:54.6;-0.45923113137098087;0.290213596658166;0.14581825003058652;1.345;0.019433944527874853
05:54.6;-0.5582027446879215;0.4862613101692439;0.10200942042190805;1.345;0.027688661600854113
05:54.6;-0.6362600865066104;0.7038392408441627;0.02012285030907503;1.2690000000000001;0.009011511742414857
05:54.6;-0.6926620843277332;0.9362642305384726;-0.09568161867018311;0.8320000000000001;0.062050939423775126
05:54.7;-0.7292181363173548;1.1747113764295163;-0.23644217025214792;1.909;0.20254129064194829
05:54.7;-0.7495023983551361;1.4089027868537332;-0.3886600008257635;3.23;0.4104156399486218
05:54.7;-0.7580565777472477;1.6281137303664648;-0.53553968374571;2.137;0.6609643215367637
05:54.7;-0.7597381275890462;1.8222402393673687;-0.6593859268000655;3.64;0.9128706172053339
05:54.7;-0.7591887947168611;1.9827752028162615;-0.744654866968888;5.251;1.120929504734322
05:54.7;-0.7603434251814065;2.1035820681834694;-0.780552119146087;2.062;1.2484500240951473
05:54.7;-0.765955166616151;2.181231867924977;-0.7622829379981114;2.062;1.2735657857631713
05:54.7;-0.7772149576699444;2.214772634128408;-0.6909239950363895;2.062;1.1893250721061361
05:54.7;-0.7936124725293341;2.2051611972269134;-0.5725035614679497;2.378;1.0019060964312176
05:54.7;-0.8131446624410411;2.1547179145795696;-0.4168088588762362;2.3;0.7302897059743021
05:54.8;-0.83285213971509;2.066769485693084;-0.2361072841361453;2.372;0.40641462929584843
05:54.8;-0.8495441958625344;1.9454494173393413;-0.04386209055682877;2.27;0.07249286229854363
05:54.8;-0.8605096893065477;1.7955770160343707;0.1464303162315568;2.286;0.22625115387195543
05:54.8;-0.8640207300678348;1.6225644429465864;0.3222124910049662;1.882;0.45171913666268176
05:54.8;-0.8595312418202764;1.4323318098229143;0.4726842450847934;1.84;0.5819376166470221
05:54.8;-0.8476106602485313;1.2312304727103314;0.5894867763721469;1.6540000000000001;0.6151908013275027
05:54.8;-0.8297291715633738;1.0259999780309037;0.6671829974378697;1.6540000000000001;0.5679742946729911
05:54.8;-0.8079773131726148;0.8237885518461308;0.7034534523214863;1.6540000000000001;0.4682203488833371
05:54.8;-0.7847338646046836;0.6322156827315154;0.6990042974632895;1.335;0.34679075018756506
05:54.8;-0.7622824698379678;0.4593818451218399;0.6572608183736096;0.9570000000000001;0.23015875701249547
05:54.9;-0.7424321400761488;0.3137104119348725;0.5839482018590929;1.087;0.13600661218096247
05:54.9;-0.7262612262109636;0.20356360366903228;0.4866207933583603;1.07;0.07194218958139606
05:54.9;-0.714094968780617;0.13665328588321368;0.37410505536940963;0.9440000000000001;0.03650645220743459
05:54.9;-0.7057196575149155;0.11931429661190197;0.25577595202322123;0.934;0.021536960415306266
05:54.9;-0.7007142015151164;0.15572424062841145;0.14067856851494515;0.972;0.015350590336045494
05:54.9;-0.6987413898350484;0.24715986618118746;0.03665274136385546;0.843;0.0063299587969212305
05:54.9;-0.699695524901106;0.3913856249057605;-0.05033994094670802;0.843;0.013785631602957121
05:54.9;-0.7036846946866268;0.5822833278844622;-0.11658153503130306;0.843;0.0477685688450312
05:54.9;-0.710875143281249;0.809849127616486;-0.16067116398907463;0.8320000000000001;0.0924986485330824
05:54.9;-0.721239027263568;1.0606689261684952;-0.18337225988788172;1.131;0.14027901315407806
05:55.0;-0.7342625033687087;1.318896299064826;-0.18728231858007754;1.473;0.181367212227735
05:55.0;-0.7487033143134306;1.5676217053385386;-0.1763508736399159;1.949;0.20698012230733195
05:55.0;-0.7625028633473315;1.790419572222891;-0.15529400776385915;2.327;0.21200738722806647
05:55.0;-0.7729224082972735;1.972834714075287;-0.12901391382899374;2.7430000000000003;0.19672662890696094
05:55.0;-0.7768876366365022;2.103596403665814;-0.10215317150400988;2.918;0.1669446416867543
05:55.0;-0.7714268523327774;2.1754056229004757;-0.07884362207466244;2.45;0.13231271049919344
05:55.0;-0.754049197558652;2.1852398306159144;-0.06260459627169562;2.45;0.10315849776784408
05:55.0;-0.7229813044004226;2.1342387094323856;-0.05629091506581841;2.45;0.08685770863759906
05:55.0;-0.6772890363844469;2.027293209685407;-0.062001683509146206;2.45;0.08513224636120757
05:55.0;-0.616940979732079;1.872420976603787;-0.08090047641515206;2.043;0.09345406479277694
05:55.1;-0.5428355891488702;1.6799516855484011;-0.11294247239112792;1.653;0.10299648302775426
05:55.1;-0.4567937485279688;1.4615567715418707;-0.15655643308058356;1.345;0.10452177084757541
05:55.1;-0.3615198684924916;1.2292234390303962;-0.20838904147466092;1.071;0.09260573440706533
05:55.1;-0.26052800342796345;0.994310575488022;-0.2632560476293059;0.784;0.0681953600419687
05:55.1;-0.1580206311908699;0.766799216875508;-0.31441913644351793;0.561;0.03809819702486424
05:55.1;-0.05871391815962291;0.554797930390051;-0.3542185552333326;0.5539999999999999;0.011538442836049233
05:55.1;0.03238075636303093;0.36432811585088976;-0.3749828635829287;0.5539999999999999;0.004423755321257222
05:55.1;0.11020314664763266;0.1993962649823008;-0.3700636989673835;0.5539999999999999;0.008131815184622455
05:55.1;0.16991883215130724;0.06232667033090989;-0.33484058901130553;0.637;0.0035461208984640972
05:55.1;0.2072465883438074;-0.045725323000554575;-0.2675882555926141;0.6809999999999999;0.002535777945884811
05:55.2;0.21886149286775444;-0.12419405146161004;-0.17013233801881822;0.737;0.004624417355187523
05:55.2;0.20286211894851103;-0.1725721207341445;-0.0482118057699716;0.8109999999999999;0.0016878155817088697
05:55.2;0.15924215919360263;-0.19002740290682218;0.08855280091054146;0.816;0.002679640869415514
05:55.2;0.09026174905685605;-0.17525326399655483;0.2271854526409662;0.639;0.0035937708263407294
05:55.2;0.0005844826258432803;-0.12660573422098034;0.35243791876850517;0.526;2.608000138460361e-05
05:55.2;-0.1029390275405277;-0.04252777992223448;0.44840377331045755;1.081;0.001963007828278674
05:55.2;-0.21187325844549537;0.07780635748218048;0.5004944566181623;1.081;0.008250694403877048
05:55.2;-0.31709251946301686;0.23375403220159183;0.497472769134123;1.081;0.03687350496836132
05:55.2;-0.4098211748056062;0.4225340446805836;0.4332176821224675;1.081;0.07501744616403239
05:55.2;-0.4827335663766343;0.6387877054238191;0.308001028619916;1.466;0.09497651148623705
05:55.3;-0.5310786702445037;0.8745232749461728;0.12914228716534848;2.6260000000000003;0.05997892882105356
05:55.3;-0.5536916165550204;1.1195403613689396;-0.08915436230713143;3.262;0.055265016135469504
05:55.3;-0.5535472906528967;1.3622888855195538;-0.3270651724677031;1.975;0.2466370081770568
05:55.3;-0.5374435939121585;1.590975209975186;-0.5616005881658617;2.7880000000000003;0.48020188142980824
05:55.3;-0.5146768686066948;1.7947299575528717;-0.7697987132008043;3.3960000000000004;0.711067685978872
05:55.3;-0.49505811539067934;1.9646958812778619;-0.9318218407094073;3.25;0.9063259281506042
05:55.3;-0.4869121258439336;2.094823305386735;-1.033281263317072;3.25;1.0539415867069701
05:55.3;-0.49559995784266603;2.182148619069131;-1.0665348666567587;3.25;1.1534284097372727
05:55.3;-0.5228128088919974;2.2265232995244926;-1.0309446623701994;2.08;1.2000761861576628
05:55.3;-0.5666572021304818;2.229966745659631;-0.9322119742826604;2.1430000000000002;1.1779679565544898
05:55.4;-0.6224044556736511;2.1958885885428248;-0.7810840086603138;2.508;1.0675316045728338
05:55.4;-0.6836493708389976;2.1283917881446377;-0.5917923274331461;2.336;0.8611014555718046
05:55.4;-0.7435581492858224;2.031756060086119;-0.3804473470232854;2.195;0.5747527548392605
05:55.4;-0.7959396391797764;1.910090704148394;-0.16346540544702046;2.162;0.24851921942444918
05:55.4;-0.8359970992100788;1.7671209910668235;0.0439099604153268;2.12;0.06486853678856563
05:55.4;-0.8607257505938468;1.606097057102995;0.22887472704131626;1.784;0.31639850427791144
05:55.4;-0.8689917143949654;1.4298338331897036;0.38197033673539105;1.784;0.4746033970150509
05:55.4;-0.8613693304649124;1.2409037373714888;0.4975184537488658;1.784;0.5317857444390153
05:55.4;-0.8398187774467892;1.041988080375102;0.5735682001892276;1.676;0.5019187235372297
05:55.4;-0.807258341874914;0.8363324979449313;0.6114296559826881;1.4140000000000001;0.4127984079564772
05:55.5;-0.7670611113861628;0.6281978099361767;0.6149247260553389;1.16;0.29631138584698047
05:55.5;-0.7225120502511236;0.42319319057836385;0.589531172844822;0.893;0.18025633645557612
05:55.5;-0.6762935047187002;0.22840537051978885;0.541609634249657;0.847;0.0836619357069278
05:55.5;-0.6301035157027308;0.05227234667667019;0.47782288978632126;0.879;0.015738047463137658
05:55.5;-0.5845266630605104;-0.09581249177448432;0.4046952508381969;0.716;0.022664939755635813
05:55.5;-0.5392432556176414;-0.20614305965584917;0.3281565880172397;0.912;0.036478298033124516
05:55.5;-0.49356094498949854;-0.26952728579883634;0.25299734191757856;0.912;0.033655766295704576
05:55.5;-0.44711955237070933;-0.2781974901613805;0.18236855804146107;0.912;0.02268437581055224
05:55.5;-0.4005500265946044;-0.2267013725211661;0.11757754591564046;0.958;0.010676657368647601
05:55.5;-0.3559040162803412;-0.11270734846126908;0.058341739882666;0.95;0.002340262094160707
05:55.6;-0.31674435968707393;0.062321218695904;0.003466719155049134;1.0979999999999999;6.843267041907396e-05
05:55.6;-0.2878428046934801;0.2926640567773103;-0.04827102827055387;0.7959999999999999;0.004066411419298325
05:55.6;-0.2744966415054173;0.5682292967592524;-0.09735904730940081;0.271;0.015185775390073765
05:55.6;-0.28157618324230843;0.8749186613735763;-0.14317001877908367;0.491;0.03527082998642558
05:55.6;-0.3125110187335845;1.1955314278663274;-0.18404408894001284;0.7;0.06876195334513008
05:55.6;-0.36844751462255554;1.511169566628969;-0.21772095037596847;2.539;0.1212241231662883
05:55.6;-0.44773689218749035;1.8029831350377856;-0.24193494392659073;2.539;0.19530490256248606
05:55.6;-0.5457976656898166;2.053935543259864;-0.254999493642977;2.539;0.2858629047290412
05:55.6;-0.6553342744188392;2.250224867418421;-0.2562559980572391;2.539;0.3778877744790186
05:55.6;-0.7669123225475527;2.382182498567556;-0.24632468157466844;2.6910000000000003;0.4500167466487054
05:55.7;-0.8699047072251285;2.4447025050287285;-0.2271514628751579;3.009;0.48307352500193707
05:55.7;-0.9537391251336776;2.43732140934453;-0.20187636290954306;3.3510000000000004;0.46927549237921085
05:55.7;-1.0092251412525566;2.3639973674595116;-0.17454861942982383;3.22;0.4164390697099059
05:55.7;-1.0296527801079143;2.2325652029386216;-0.14969356310366178;2.847;0.34411061818161925
05:55.7;-1.0114222834480875;2.0538460961198926;-0.1317340898041018;2.451;0.27365197673942687
05:55.7;-0.9541399090408024;1.840468279959577;-0.12431344561086878;1.371;0.21830239604447033
05:55.7;-0.8602917389668665;1.6055658823137098;-0.12963190412581957;1.371;0.1790547241492108
05:55.7;-0.7347050365930842;1.3616015427814145;-0.1479428943668585;1.371;0.14799844859758118
05:55.7;-0.5839839331934656;1.1195206809105795;-0.17732678189021794;1.0859999999999999;0.11593307417107081
05:55.7;-0.4160012120899384;0.8882924202429092;-0.213792643173113;0.863;0.07900295011316544
05:55.8;-0.23944548546366834;0.6747587913550824;-0.2516863583067612;0.616;0.04066444804018612
05:55.8;-0.06341020823526843;0.4836913790598548;-0.284335039522069;0.45399999999999996;0.008720831770740177
05:55.8;0.10298055060348456;0.3179943756339827;-0.3048447774683583;0.475;0.009982823838078282
05:55.8;0.2509299684148444;0.1790246193609576;-0.30697361758606323;0.5820000000000001;0.013790065951350928
05:55.8;0.3723627285255371;0.06700279075962036;-0.2859947425711169;0.71;0.007135380638627103
05:55.8;0.46042056872292036;-0.01852678634904995;-0.23944585042261052;0.956;0.0020425002829897966
05:55.8;0.5100707230956717;-0.07824700019989365;-0.16766188549490044;0.956;0.006691638008887242
05:55.8;0.5187311625233882;-0.11268854930519087;-0.07402413400169963;0.956;0.004327085356197634
05:55.8;0.4867523806861403;-0.12196710775175984;0.035102464092364616;0.8490000000000001;0.0020839553679249394
05:55.8;0.41763379893206776;-0.10567253604238613;0.15075292116254815;0.731;0.0066530916355080245
05:55.9;0.3179280416829725;-0.06293445608206039;0.2620543953085984;0.624;0.005243349010171928
05:55.9;0.19682626553643778;0.0073295278580686385;0.3571872539650035;0.555;0.0005152939046657921
05:55.9;0.06542671996127734;0.10600357369000936;0.42456741606107684;0.6609999999999999;0.002944572934295028
05:55.9;-0.06430867351987023;0.23326018314697955;0.4541905708779994;0.993;0.006813155132891405
05:55.9;-0.1808902798998862;0.38805014959198775;0.4390153862427614;1.109;0.030816465606395765
05:55.9;-0.2748491222473972;0.5677307553483878;0.37617675343803536;1.98;0.058698733376872175
05:55.9;-0.3402787275216982;0.7679271671713549;0.2677924858966311;1.98;0.06997666148475157
05:55.9;-0.3759890200447857;0.9826246152445037;0.1211715876072941;1.98;0.04476757808746981
05:55.9;-0.3858584343419155;1.204430651992559;-0.05170684900067851;2.197;0.024030226818866525
05:55.9;-0.3781384000303941;1.4249663042369645;-0.23549758431131715;1.146;0.1268942180024659
05:56.0;-0.3637494953802339;1.6353779807167899;-0.41344492812988964;2.84;0.2459451224638729
05:56.0;-0.3539282239331408;1.8269554779499648;-0.5695679242041979;2.975;0.3682889462751251
05:56.0;-0.35784454757138956;1.9917725702677327;-0.6905040862366045;2.129;0.4921533033697249
05:56.0;-0.38084908081425534;2.1232048539380797;-0.7666675375606992;2.474;0.6199431772582601
05:56.0;-0.42376958819451166;2.216254512656975;-0.7927656516221665;3.0669999999999997;0.7445506452898799
05:56.0;-0.48330250251513057;2.2677301089081063;-0.7678540944705465;2.588;0.8415678085508352
05:56.0;-0.5532174363005865;2.276311441500768;-0.6950221944123235;2.588;0.875238099339139
05:56.0;-0.6259170682730366;2.2424716342659563;-0.5807969504845759;2.562;0.8152073378960907
05:56.0;-0.6939154032118214;2.1682700500732746;-0.43441244230033377;2.562;0.6536152169833884
05:56.0;-0.7509670414965628;2.057088101683221;-0.26701625271949486;2.299;0.4124881399619122
05:56.1;-0.792761138528049;1.913371829956859;-0.09076299157497056;2.206;0.137673556083042
05:56.1;-0.8171940635001648;1.7424086437636404;0.08223184377263763;2.076;0.1170887710917686
05:56.1;-0.824272373485719;1.5501404330373647;0.2409761724834301;1.899;0.3079043967663954
05:56.1;-0.8157185730102967;1.3430055203346896;0.37654078253675205;1.827;0.41250590465428383
05:56.1;-0.7943730084424029;1.1278068725138337;0.48267428762739156;1.635;0.43242757488089845
05:56.1;-0.7635019678130478;0.9116121813085785;0.5559726874860966;0.9279999999999999;0.3869668280442103
05:56.1;-0.7261334556249156;0.7016916175828157;0.5956069588935928;0.9279999999999999;0.30347470540291543
05:56.1;-0.684548223179784;0.5054909669095875;0.602772506368626;0.9279999999999999;0.20857914447769693
05:56.1;-0.6400346091553498;0.33060833989348215;0.5800971526230624;0.894;0.12274900974297075
05:56.1;-0.5929617314983474;0.18469385528477522;0.5311675035834759;0.762;0.0581715465358898
05:56.2;-0.5431619576408225;0.0751770988414717;0.46019930997843406;0.83;0.018791474973336
05:56.2;-0.4905514003034553;0.008781967707390292;0.37179903557611005;0.975;0.0016017126828804754
05:56.2;-0.43584368959455194;-0.009123688979472822;0.27076179022287883;1.044;0.001076684872780836
05:56.2;-0.38114774723443046;0.02477326268423352;0.16189304155239778;1.0959999999999999;0.0015286383378361407
05:56.2;-0.33022928562329806;0.11113513627568755;0.049885384584754534;1.1059999999999999;0.0018307974384724865
05:56.2;-0.28828047413136215;0.2476224473491971;-0.06072532295092629;0.462;0.004334859964886375
05:56.2;-0.26119102315200204;0.428854065647232;-0.16555656715510875;0.462;0.018544459974581172
05:56.2;-0.2545070548526175;0.6466160682752894;-0.26039226737898824;0.462;0.04285232609662479
05:56.2;-0.2723662324524442;0.8901979504211441;-0.3412610791469332;0.462;0.0827421141194539
05:56.2;-0.31663113122124764;1.1468236356731705;-0.40461834668942476;0.932;0.1469250403801843
05:56.3;-0.3863219854631497;1.402266397339457;-0.4476585583711131;1.341;0.24250843184473975
05:56.3;-0.47740045788025137;1.641743014602982;-0.46872667246719163;1.838;0.36737337296221584
05:56.3;-0.5829547318614685;1.8510745011308056;-0.4677240149765953;2.594;0.5047175418610034
05:56.3;-0.6938127571206391;2.017959231371668;-0.4463786383477285;2.988;0.6249684188974396
05:56.3;-0.7995409247059547;2.1330989082415344;-0.4082660983724903;2.989;0.6962977791632003
05:56.3;-0.8896761519001847;2.190920721518584;-0.3585141733026186;2.818;0.698819381857108
05:56.3;-0.954940166891167;2.1897805034272055;-0.303219719295057;2.5180000000000002;0.6340655929718672
05:56.3;-0.9881882096909479;2.131723206592791;-0.24870371519659906;2.5180000000000002;0.523905254133226
05:56.3;-0.9849718680220041;2.021976245536017;-0.2007554550785593;2.5180000000000002;0.39982250050047075
05:56.3;-0.9437372603391432;1.868312823650028;-0.16396973895366146;2.16;0.289110857637526
05:56.4;-0.8657395299403862;1.680334319271643;-0.14122759235631982;1.817;0.20544827581108246
05:56.4;-0.7547592839237124;1.4686881754463597;-0.13335699122433636;1.565;0.14782702966258235
05:56.4;-0.6167001270921671;1.2442676424783536;-0.13901897678864203;1.266;0.10667482349142507
05:56.4;-0.4591223344397495;1.0174673457684795;-0.15485635121738045;0.961;0.07233990298867399
05:56.4;-0.29073537943978817;0.7975583546292534;-0.1759096393398819;0.75;0.04078965114301809
05:56.4;-0.12086175806203622;0.5922195899963396;-0.19626009617528298;0.43700000000000006;0.01404765018404318
05:56.4;0.0411011708311089;0.40725365763857496;-0.20980965573335775;0.43700000000000006;0.0035119203554297147
05:56.4;0.18618173247043912;0.24652357339675915;-0.2110752505972352;0.43700000000000006;0.009687971109758093
05:56.4;0.3062785243548714;0.11212836245209977;-0.19588690707356712;0.47;0.006727247945582847
05:56.4;0.3945806549888543;0.004774668120874739;-0.1619232084131294;0.5920000000000001;0.0003050619765569084
05:56.5;0.4460141863329004;-0.07574937731370339;-0.1090507421368235;0.7340000000000001;0.003684311698926989
05:56.5;0.4577175840853225;-0.13009399586513953;-0.03944076713997884;0.8340000000000001;0.0023485521266953246
05:56.5;0.4294714351695813;-0.15893275516968366;0.04255538020639958;0.853;0.0029047059255658853
05:56.5;0.36395757100335985;-0.1626619892443706;0.13076003459763486;0.7490000000000001;0.007741263740745557
05:56.5;0.26672810321548446;-0.14124994349824124;0.21770735727451798;0.608;0.008202196421759667
05:56.5;0.1458222777952633;-0.09425914821595625;0.2953128039197675;0.51;0.004059099206345768
05:56.5;0.011057637439948972;-0.021046526180933552;0.35562101706185456;0.51;8.276184994331935e-05
05:56.5;-0.12690092268494443;0.07888369171865814;0.391561302419679;0.51;0.003919690455368949
05:56.5;-0.2575827209684106;0.20543069560506022;0.39762708396068586;0.747;0.021040595222194137
05:56.5;-0.37180040309572854;0.35743117598046925;0.37041643670527097;0.948;0.049225772010258004
05:56.6;-0.46272533388409215;0.5322662162827149;0.3090068028333532;1.18;0.07610623184785549
05:56.6;-0.5268039466340314;0.7256255574964571;0.21518784553679077;1.432;0.08225822389267105
05:56.6;-0.5642898442373948;0.9315032648488417;0.0936370875424334;1.6540000000000001;0.049219195711964786
05:56.6;-0.5791792467491083;1.1424778781884286;-0.047932369451479495;2.9010000000000002;0.03171682379342169
05:56.6;-0.5784491068133782;1.3502481266203161;-0.19886888772331057;1.225;0.15532650952069407
05:56.6;-0.5706818727905;1.5462697121825022;-0.3462967071702897;1.999;0.3055819436779953
05:56.6;-0.5643746352277;1.7223187636543913;-0.47655096831423577;1.999;0.4632232788126423
05:56.6;-0.5663597713967017;1.870928506801402;-0.5769704024283322;1.999;0.6113685939558219
05:56.6;-0.580707338056888;1.9857562799222688;-0.6375471662008209;1.999;0.7351832070172142
05:56.6;-0.6082943251638325;2.061962354488761;-0.6521555915864008;3.045;0.8179857147217285
05:56.7;-0.6470379801658052;2.096631172545945;-0.619275239319066;3.04;0.8401087890637541
05:56.7;-0.6926435504213821;2.089141493940224;-0.5421403835481113;2.6;0.7844936061381071
05:56.7;-0.7396312517595026;2.0412989483519106;-0.4282687066854417;2.7510000000000003;0.6466037320894439
05:56.7;-0.7824038329575517;1.9571028949231801;-0.2884379263781152;2.377;0.441669076758412
05:56.7;-0.8161628930184758;1.8421606216424322;-0.1352708693056333;2.08;0.20338017707138392
05:56.7;-0.8375460902834861;1.7028669667051786;0.018391666269821902;1.7590000000000001;0.02623073827994714
05:56.7;-0.8449351338255242;1.5455401835219003;0.1611052215112022;1.7590000000000001;0.21038428028278874
05:56.7;-0.8384579980231874;1.3757465710115282;0.2841205482241014;1.7590000000000001;0.32773467632931635
05:56.7;-0.8197471934774214;1.1979909507201252;0.38209071042630216;1.5919999999999999;0.37523207506043377
05:56.7;-0.791514605603227;1.0158047143024205;0.4530847866790262;1.4069999999999998;0.3642911638658976
05:56.8;-0.7569963491133649;0.8321283011471176;0.4980184013033389;1.217;0.31371079812299124
05:56.8;-0.7193378090269461;0.6498226767482418;0.5197563589252652;0.9940000000000001;0.24295596260875243
05:56.8;-0.6810166184097202;0.472147391665597;0.5221808476225129;0.877;0.16790214465726563
05:56.8;-0.6434132230844394;0.3030881616416537;0.5094351389278392;0.769;0.09934542070635743
05:56.8;-0.6066284025389236;0.14747323606372295;0.48539979709993764;0.591;0.0434245714308419
05:56.8;-0.569613647426331;0.010861639571151566;0.45335067228693976;0.742;0.002804852562062985
05:56.8;-0.5306094807006849;-0.10076705655950481;0.41574321123009506;0.742;0.022228939539418832
05:56.8;-0.4877881118312019;-0.18143835351475007;0.37411534057303125;0.742;0.033110506522307334
05:56.8;-0.4399362824823452;-0.22563142482511903;0.3291250809355546;0.742;0.03267009109706474
05:56.8;-0.3870356611857881;-0.22871454380180992;0.28072375044050485;0.74;0.02484985859581224
05:56.9;-0.33065371199203875;-0.18738759540117916;0.22844681617773377;0.725;0.014154657023037394
05:56.9;-0.2740894737545789;-0.10014973753815634;0.17179940514586606;0.7609999999999999;0.004715891757149657
05:56.9;-0.22223360566669687;0.03223771078171985;0.11069499828051488;0.732;0.0007930524756621767
05:56.9;-0.18112892118620674;0.2063804753362468;0.04585834807449828;0.546;0.0017142525935638301
05:56.9;-0.15726095241393329;0.41609753186114357;-0.02093226217470674;0.298;0.0013697212921426243
05:56.9;-0.15665900430172272;0.6525908057052401;-0.08686260296801925;0.983;0.008880330968730022
05:56.9;-0.18393512330300782;0.9049441829891003;-0.14837095223528798;0.983;0.02469649632019571
05:56.9;-0.24141188737891858;1.16083012948098;-0.20162067160180006;0.983;0.05650181257716268
05:56.9;-0.3284756386100493;1.4072794732080012;-0.2430338072203661;1.3319999999999999;0.11234408437561412
05:56.9;-0.4412577917480549;1.6314750290674227;-0.2697958873031318;1.735;0.19422634757836985
05:57.0;-0.5727224753612271;1.8216080530660834;-0.28027756862482256;2.137;0.2924068251706465
05:57.0;-0.7132112025098662;1.967786441174349;-0.27433057838279656;2.41;0.3850085188639749
05:57.0;-0.8514234467843932;2.0628865771974647;-0.2534367363795102;2.8110000000000004;0.44513374937988603
05:57.0;-0.9756970594985818;2.103198179105618;-0.2207054557847821;3.157;0.45290619608255467
05:57.0;-1.075350773149036;2.08872198024728;-0.18068943619232372;3.247;0.40584813203951553
