Time;AccX;AccY;AccZ;Acc-old;Acc-trns
10:06.7;0.05992828312361354;-0.3256977778598772;-0.93288806314219;0.992;0.018208583724622387
10:06.7;0.07199738458808502;-0.32544738561137015;-0.9269029916353432;1.032;0.021718598224368033
10:06.7;0.0832398249315003;-0.32521339268990074;-0.9210221551310722;1.03;0.024932719863965388
10:06.7;0.09294698820172505;-0.32503334987706134;-0.915346027402406;1.012;0.02765340069580868
10:06.7;0.10057903756018072;-0.32495574499770685;-0.9100670783662748;0.996;0.02974439220580409
10:06.7;0.1058072345039341;-0.32503601065978527;-0.9054613639708986;0.973;0.03113986791169162
10:06.7;0.10852126817759371;-0.32532901376359863;-0.9018494623445815;0.9440000000000001;0.03183990091846976
10:06.7;0.10880983145972604;-0.32588021483167673;-0.8995388474380014;0.9440000000000001;0.03189672213126601
10:06.7;0.10692497453361459;-0.32671787560336996;-0.8987629013255938;0.937;0.03139765329883509
10:06.7;0.10323930564150145;-0.32784819095746925;-0.899630091946545;0.937;0.03044961742009407
10:06.7;0.09820224389551396;-0.32925384361733534;-0.9020921836896575;0.9420000000000001;0.029167767179728122
10:06.8;0.0922988402310553;-0.33089517480252756;-0.9059358720254145;0.9490000000000001;0.027668405682408533
10:06.8;0.08601266928751063;-0.3327128108927393;-0.9107989801370439;0.965;0.02606480527127345
10:06.8;0.07979313107352808;-0.33463108449255685;-0.9162091263256676;0.981;0.024463939916161217
10:06.8;0.07402757288377552;-0.3365620168322244;-0.9216391329347157;0.998;0.022962518475201938
10:06.8;0.0690196510036656;-0.3384094470251247;-0.9265702137654245;1.012;0.021641809614194433
10:06.8;0.06497606782102144;-0.34007267035124583;-0.9305522795045877;1.012;0.020562027441278816
10:06.8;0.06200326962056551;-0.34144928574591654;-0.9332516421726286;1.012;0.019757844502843798
10:06.8;0.06011414255521742;-0.342437590888213;-0.934480144360754;1.012;0.019236593508644467
10:06.8;0.05924321341185239;-0.34293929147114227;-0.9342043427603571;1.0090000000000001;0.01898006673645799
10:06.8;0.05926786948098035;-0.3428633337705072;-0.9325363378471652;1.002;0.01894986512528589
10:06.9;0.060032569829929806;-0.34213146954055695;-0.9297090582523789;0.99;0.019095323481003887
10:06.9;0.06137293278904159;-0.3406859290312583;-0.9260400479628309;0.977;0.01936247378102141
10:06.9;0.06313684865160236;-0.33849908333275586;-0.9218897866394821;0.975;0.019702412238341436
10:06.9;0.06519993870345119;-0.33558382530346087;-0.9176218647048189;0.9740000000000001;0.020077607545589567
10:06.9;0.0674728926610348;-0.332001958308254;-0.9135711857986981;0.966;0.020465029177774555
10:06.9;0.06989934281146583;-0.32786730543771375;-0.9100233136828405;0.966;0.020855649649513957
10:06.9;0.07244521770047596;-0.32334155687372096;-0.9072051164143438;0.966;0.0212508711373469
10:06.9;0.07508285317888275;-0.31862336331469876;-0.9052846926808072;0.966;0.021657262588493518
10:06.9;0.07777420942365043;-0.3139323963702812;-0.9043771992533713;0.96;0.022081132560018965
10:06.9;0.0804572890208081;-0.30948952353126913;-0.9045531187782525;0.9640000000000001;0.02252399502962379
10:07.0;0.08303900525485067;-0.305494366021627;-0.905846248227048;0.9620000000000001;0.022979460761427865
10:07.0;0.08539646103888365;-0.302102988102369;-0.9082591568624908;0.963;0.02343174752138741
10:07.0;0.08738678473473545;-0.29940926928785655;-0.9117643448045905;0.96;0.023855779206968436
10:07.0;0.0888638092350918;-0.29743299957135866;-0.916300769065733;0.9570000000000001;0.024218772506062594
10:07.0;0.08969847207360862;-0.2961168653663194;-0.9217676797945101;0.9590000000000001;0.024483283698556055
10:07.0;0.08979892066349983;-0.2953334235637839;-0.9280195132729959;0.9840000000000001;0.02461165534365859
10:07.0;0.08912605365193729;-0.2949013036145559;-0.9348651005064935;0.9840000000000001;0.024571423480539877
10:07.0;0.08770096534014576;-0.29460747791080377;-0.9420717894834622;0.9840000000000001;0.024340648167812822
10:07.0;0.08560232999633205;-0.2942311869358762;-0.9493734864182362;0.996;0.023911751481962982
10:07.0;0.08295370897507585;-0.29356595787630524;-0.956482569355972;1.0070000000000001;0.023292631807897902
10:07.1;0.0799031078427634;-0.2924377728100184;-0.9631060782477872;1.013;0.02250459818010814
10:07.1;0.07659936744063713;-0.2907184901955739;-0.9689648506592573;1.02;0.02157773529077461
10:07.1;0.07317074534212398;-0.2883342549810471;-0.9738127323450203;1.024;0.020545142999534072
10:07.1;0.06970983397340448;-0.2852690985499539;-0.9774532221890725;1.026;0.019437694887537868
10:07.1;0.06626670243521196;-0.2815641936345541;-0.9797518994016368;1.028;0.01828053488027632
10:07.1;0.06284996098513392;-0.2773135319425505;-0.9806437960036029;1.021;0.017091782583654614
10:07.1;0.05943407352826753;-0.2726572993152099;-0.9801356297882565;1.021;0.015883229194898422
10:07.1;0.05597089968237014;-0.26777446893030366;-0.978303624306485;1.021;0.014662401816319325
10:07.1;0.052403465359620066;-0.26287530079860916;-0.9752878690190611;1.022;0.013435152863074316
10:07.1;0.048679581877559004;-0.25819280829438834;-0.9712832522687355;1.01;0.012207785248843106
10:07.2;0.04476265810567491;-0.25397151029805143;-0.9665259941137452;1.001;0.010987892660457226
10:07.2;0.04063795823819621;-0.25045282964941035;-0.961275403065826;0.9890000000000001;0.009783756880844582
10:07.2;0.03631452604702353;-0.24785868311443762;-0.9557923852337459;0.9790000000000001;0.008602963583720308
10:07.2;0.03182461681955686;-0.24637708676820672;-0.9503176062114138;0.9740000000000001;0.007451303865229985
10:07.2;0.027222396315627617;-0.24615445403463293;-0.9450521823576516;0.972;0.006332713496441689
10:07.2;0.022582046184134744;-0.24729723702251652;-0.9401429127617369;0.9620000000000001;0.005250207063112927
10:07.2;0.017994347965121036;-0.24988100456643303;-0.9356735056684747;0.9620000000000001;0.004207205154247587
10:07.2;0.013561634819406322;-0.2539605945989454;-0.9316635667078612;0.9620000000000001;0.0032087619082686617
10:07.2;0.009391905268891079;-0.259574219426764;-0.9280770035385472;0.96;0.0022625556592626352
10:07.2;0.005592370925488557;-0.2667382883801158;-0.9248396890395038;0.965;0.001379582854231291
10:07.3;0.002262444726248564;-0.27543469800289605;-0.921863838974654;0.965;0.0005744647795586171
10:07.3;-0.0005127694927400805;-0.28559480327488124;-0.9190751763960489;0.971;0.00013459332306457899
10:07.3;-0.002666899183764571;-0.29708449697800254;-0.9164384456224691;0.978;0.0007260890507022476
10:07.3;-0.0041542594795665865;-0.3096946452556872;-0.9139763391857827;0.982;0.0011758780101976858
10:07.3;-0.004950598036802749;-0.32314085270971304;-0.9117763924058374;0.982;0.0014586055954663372
10:07.3;-0.005054265066220233;-0.3370750086425708;-0.9099813215585264;0.972;0.0015503046393650997
10:07.3;-0.00448847222360715;-0.3511069653560751;-0.9087623085394817;0.972;0.0014321492940965847
10:07.3;-0.003304196979313145;-0.3648295147198567;-0.9082806109596531;0.972;0.0010949037387906872
10:07.3;-0.0015829239475321165;-0.3778392017236323;-0.9086460202777137;0.972;0.0005434527531515788
10:07.3;0.0005617039720861632;-0.38975128191062414;-0.9098791490918359;0.972;0.00019919515002301573
10:07.4;0.002985074756224526;-0.40021277017836854;-0.9118819202350166;0.977;0.0010893934483220122
10:07.4;0.00551877380207449;-0.4089182743703183;-0.9144197783706765;0.982;0.00206359622361909
10:07.4;0.007986812520971514;-0.41563113347430364;-0.9171188602773434;0.991;0.003044438366606404
10:07.4;0.0102302118564143;-0.4202089626590104;-0.9194806162474226;1.008;0.003952687834259161
10:07.4;0.012132852719526908;-0.42262812884643725;-0.9209151558162648;1.02;0.004722162685636736
10:07.4;0.013637852835943024;-0.4229984914078218;-0.9207921529620544;1.021;0.005311857646611382
10:07.4;0.014747321947041724;-0.42156162022124705;-0.918504550376682;1.021;0.00571025547106409
10:07.4;0.015507137710767442;-0.41867216081668257;-0.9135374588242744;1.021;0.005931056858552984
10:07.4;0.015984876042697032;-0.41476732049419124;-0.9055341502789225;1.015;0.006003695223813598
10:07.4;0.01624932491756021;-0.4103300905764002;-0.8943521147134469;1.006;0.005963170502387331
10:07.5;0.01635738510707313;-0.40585095047773234;-0.8801028132045657;0.997;0.005842703599810372
10:07.5;0.016351194976489656;-0.4017929444290222;-0.8631688353038915;0.973;0.0056708421037225355
10:07.5;0.016264021019226842;-0.3985643006852884;-0.8441935496295273;0.9440000000000001;0.0054722805289630925
10:07.5;0.016129246972038238;-0.3965007438330286;-0.8240421787020266;0.9179999999999999;0.005269962683328302
10:07.5;0.015986136051237918;-0.3958582843104274;-0.8037381915721004;0.892;0.005086251701841765
10:07.5;0.015878768479578705;-0.3968160967180116;-0.7843831655118536;0.851;0.004942359835232028
10:07.5;0.015847368874796215;-0.3994859074484031;-0.7670720430015977;0.851;0.0048561801006917595
10:07.5;0.015912273755903848;-0.4039202762270759;-0.7528180138922408;0.851;0.004838579700704285
10:07.5;0.01605126323801407;-0.4101119535636361;-0.7424975985635575;0.84;0.004887724272640146
10:07.5;0.016173488297224606;-0.417982283720326;-0.7368168328837489;0.8420000000000001;0.004981052418061222
10:07.6;0.016097756933542852;-0.4273650042462169;-0.7362913944257617;0.8340000000000001;0.005065403501074957
10:07.6;0.015545018458334047;-0.43799692345514973;-0.7412325106769698;0.85;0.005046807751046007
10:07.6;0.014151155779268128;-0.4495249572706541;-0.7517347028803836;0.868;0.00478200823419238
10:07.6;0.011499010825452507;-0.46153171887893035;-0.7676661574108365;0.878;0.004074125766483942
10:07.6;0.007162421350105195;-0.47357567989997496;-0.7886651448465971;0.895;0.0026751116028626673
10:07.6;0.0007532282264504083;-0.48523981335563854;-0.8141465402038528;0.9990000000000001;0.0002975675676556627
10:07.6;-0.008034360849439781;-0.4961813276265069;-0.843319254621298;0.9990000000000001;0.003361892067633762
10:07.6;-0.019382566531363502;-0.5061732783689776;-0.8752079491461129;0.9990000000000001;0.008586610264859488
10:07.6;-0.033311429433847156;-0.515130284398846;-0.9086706180334272;1.037;0.015592538936918112
10:07.7;-0.04964636098831345;-0.5231150903765395;-0.9424134220518283;1.08;0.024475193384723464
10:07.7;-0.06800010756365406;-0.5303242155673663;-0.9750135418508176;1.1059999999999999;0.03516103945726509
10:07.7;-0.08777753962054118;-0.5370492644249922;-1.0049596618212058;1.109;0.0473746658251148
10:07.7;-0.10820618487462388;-0.5436136463569742;-1.030714879237866;1.109;0.060629080362583146
10:07.7;-0.1283877291475792;-0.5502951966277195;-1.0508070685251272;1.114;0.07424072850860453
10:07.7;-0.1473613650480683;-0.557255346926906;-1.0639555546559247;1.1420000000000001;0.08736980499540409
10:07.7;-0.16417119119635304;-0.5644954090169431;-1.0692415340897012;1.341;0.09909076560222793
10:07.7;-0.17793237843863613;-0.5718484778332659;-1.0663119737933624;1.341;0.10849762695774683
10:07.7;-0.18788966574422927;-0.5789996830845064;-1.0555756572505046;1.341;0.11483402468513929
10:07.7;-0.19346065662467166;-0.5855205121003043;-1.0383320951018495;1.329;0.1176172578155366
10:07.8;-0.19426124791213922;-0.5909082987555738;-1.016787546447907;1.25;0.116717635770486
10:07.8;-0.19011978354065473;-0.5946306982288307;-0.9939435080909923;1.1740000000000002;0.11236636680591626
10:07.8;-0.18109536096358256;-0.5961783007424251;-0.9733719421788073;1.181;0.10509022299183977
10:07.8;-0.16751677460681116;-0.5951243091888703;-0.958909423110356;1.225;0.09559684936057973
10:07.8;-0.15004162671789062;-0.5911793224461227;-0.9543025778219776;1.203;0.0846480769984553
10:07.8;-0.12970370025200925;-0.5842195373628895;-0.9628241628034678;1.1440000000000001;0.0729584204923416
10:07.8;-0.10789779493494744;-0.574271935684647;-0.986873127258817;0.971;0.06114929939670471
10:07.8;-0.08627187503558549;-0.5614633608817964;-1.0275862010018826;0.971;0.04977473101896124
10:07.8;-0.06654515720584993;-0.5459643828518778;-1.0845135262480086;0.971;0.039401770752093064
10:07.8;-0.0503010814866868;-0.5279619190809851;-1.155426432560301;0.99;0.030684723911338703
10:07.9;-0.03879644647697353;-0.5076756584001944;-1.236321711777006;1.141;0.024350606663721224
10:07.9;-0.03281370657028042;-0.48540897708829295;-1.3216652753601232;1.354;0.021051574036539938
10:07.9;-0.032583393301745124;-0.4616063265100932;-1.4048783071702884;1.534;0.021130353839186124
10:07.9;-0.03779829332830365;-0.43687986695408454;-1.4790151032036067;1.734;0.024423439863907468
10:07.9;-0.047714889302333426;-0.4119755049124026;-1.5375325181331825;1.905;0.030223838849541614
10:07.9;-0.0613048035878089;-0.38767292865688646;-1.5750228566929045;1.9909999999999999;0.03743232829452947
10:07.9;-0.07740406904516439;-0.36464188683416654;-1.5877832635705595;1.734;0.04481481073205201
10:07.9;-0.09482279887129177;-0.34329515190598886;-1.5741369081794323;1.734;0.051241630705980784
10:07.9;-0.11241060167844338;-0.3236837123708747;-1.5344954584688135;1.734;0.055833355135595994
10:07.9;-0.12909818551483593;-0.30546904323658736;-1.4712071075817958;1.5719999999999998;0.058017786732902366
10:08.0;-0.14393853167265477;-0.28798348820234143;-1.3882391632074176;1.42;0.057545179341931804
10:08.0;-0.15615833807867557;-0.2703651511291072;-1.2907355156416458;1.2819999999999998;0.0544945600535666
10:08.0;-0.16521501476371708;-0.251735863513395;-1.1845003007326083;1.176;0.049264012357632746
10:08.0;-0.1708432611041837;-0.23137988404452084;-1.075469857488403;1.083;0.04251299431259326
10:08.0;-0.1730710432751931;-0.20888123463941272;-0.9692236550069708;0.9470000000000001;0.035038688528196874
10:08.0;-0.1721904024426914;-0.18419288379060766;-0.8705610100915506;0.8590000000000001;0.02761092783919023
10:08.0;-0.16868410717620808;-0.15763504745938964;-0.7831547689267592;0.524;0.020824498216569787
10:08.0;-0.16312805219394783;-0.12984216378885574;-0.7092997354279247;0.524;0.015023606249417199
10:08.0;-0.15610051267879937;-0.10168988828566332;-0.6497953416546792;0.524;0.01031474968758259
10:08.0;-0.1481260405403077;-0.0742274603948424;-0.6040055582734668;0.474;0.006641053077147772
10:08.1;-0.13966771301822978;-0.04862083211906646;-0.5701088536385154;0.51;0.0038714726424353605
10:08.1;-0.1311658759355949;-0.026096201811945767;-0.5455143828594038;0.636;0.0018672581843668635
10:08.1;-0.12310769511444716;-0.007873103066656895;-0.5273950115723941;0.745;0.0005111721152568791
10:08.1;-0.11609975782664218;0.004917162620791945;-0.5132608260108983;0.8059999999999999;0.00029301105351267815
10:08.1;-0.11091198008644382;0.011328412717504134;-0.501471704134417;0.82;0.0006300774753665295
10:08.1;-0.10847041767247916;0.010710229385682505;-0.4915863995604592;0.79;0.0005710970855397438
10:08.1;-0.10979317720954071;0.0028237840056282632;-0.48447518757111857;0.624;0.00015020291683851502
10:08.1;-0.11587766248218027;-0.012056568997473007;-0.48217290936834206;0.624;0.0006736375193338584
10:08.1;-0.1275553410393873;-0.03308262072903443;-0.48749987258328714;0.589;0.0020571836349834133
10:08.1;-0.14533260830556766;-0.058836551468774624;-0.5035053394308875;0.539;0.004305408444317876
10:08.2;-0.16923396822604;-0.08741034545550949;-0.532790549440328;0.371;0.007881463840201452
10:08.2;-0.19865897234511967;-0.11655216103899217;-0.5767785292741164;0.231;0.013354806511083351
10:08.2;-0.23226237657441576;-0.14385895117899922;-0.6350398751441978;0.217;0.021218601250700166
10:08.2;-0.2678747295282669;-0.16699140131861198;-0.7048313526794895;0.309;0.031529063342658196
10:08.2;-0.30249980643275776;-0.18388340552302948;-0.7810064420341339;0.56;0.043443244800749986
10:08.2;-0.33244340605947104;-0.19290552353935225;-0.8563904464412752;0.83;0.05492046431127908
10:08.2;-0.3536200159894868;-0.19293395884560519;-0.9225972285748301;1.41;0.06294448156659671
10:08.2;-0.3620320161530279;-0.18330393085173283;-0.9711381824342055;1.41;0.06444656684475959
10:08.2;-0.3543429472320041;-0.16368748988127965;-0.9945880716723384;1.41;0.057687607587570564
10:08.2;-0.3284305080165327;-0.13397545569335959;-0.9875822542041319;1.454;0.04345522595673494
10:08.3;-0.28382745016628624;-0.09422495982925516;-0.9475137323741469;1.3980000000000001;0.02533995676414888
10:08.3;-0.22199384447897813;-0.044691877623886996;-0.8748894996519697;1.2819999999999998;0.00868006020486769
10:08.3;-0.1463796653453386;0.014061044703395375;-0.7733445226245405;1.12;0.0015917371510254048
10:08.3;-0.0622521864047455;0.08101171093741102;-0.649323542350164;0.9079999999999999;0.003274640003114376
10:08.3;0.023703600902128568;0.15454125215168674;-0.5114527282377118;0.6659999999999999;0.0018735455346734517
10:08.3;0.10396310186612318;0.23239126274033892;-0.36963892850988467;0.439;0.008930519583522591
10:08.3;0.17084133745965474;0.3117819130288102;-0.2339634025393051;0.716;0.012462116557620424
10:08.3;0.21718409278638254;0.38969774087638553;-0.11349985450853943;0.716;0.00960619074670433
10:08.3;0.23698674359966973;0.4632736734521906;-0.01526196947595225;0.716;0.0016756073442246635
10:08.3;0.22587892936799614;0.5301899533951527;0.05651117336712264;0.925;0.006767706863810293
10:08.4;0.18144106166022075;0.5890240926804527;0.10061997314164191;0.956;0.010753574158667468
10:08.4;0.10332902605046519;0.639543921570568;0.11871635436855202;0.932;0.007845186331298926
10:08.4;-0.006817289394166342;0.6829145939929571;0.11472604959200491;0.998;0.0005341216273993148
10:08.4;-0.14568651132372198;0.7217621931626296;0.09399950453341814;1.093;0.009884143398344413
10:08.4;-0.3087872924059951;0.760023103426089;0.06235699542545105;1.175;0.014634281170371745
10:08.4;-0.491021782971101;0.8025236271931123;0.025192830982965677;1.31;0.009927400875629086
10:08.4;-0.6872049518737948;0.8542847029432463;-0.013243513858009506;1.1520000000000001;0.007774852174982584
10:08.4;-0.8924014763942175;0.9196330401104938;-0.050315291576259344;1.1520000000000001;0.04129284822119053
10:08.4;-1.1020236255320175;1.00129441045657;-0.08515759574600973;1.238;0.09396715723821732
10:08.4;-1.3117308023818033;1.0996852034418196;-0.11849323742998222;1.4069999999999998;0.17092542313588066
10:08.5;-1.5172276132227625;1.2125702381611894;-0.15212950376812678;1.69;0.279879501259308
10:08.5;-1.7140522301420675;1.335152727388431;-0.1882261529832873;2.093;0.43075959983935064
10:08.5;-1.8974144440068779;1.4605546672534555;-0.22846934206165134;2.309;0.6331519521006479
10:08.5;-2.062123105498753;1.580561411592961;-0.27331219975362187;2.384;0.8908097888438682
10:08.5;-2.202649570926222;1.686475962568679;-0.3214426869976488;2.6830000000000003;1.1940681495370093
10:08.5;-2.3133809806310692;1.7699659165421462;-0.36958463852802087;3.022;1.5133032890841782
10:08.5;-2.3890833558137645;1.8238351229178276;-0.4126357519366557;3.345;1.7979753421810358
10:08.5;-2.4255194641229187;1.8426644380238897;-0.4440636042573845;3.345;1.9847060704037907
10:08.5;-2.4200972942041346;1.8232674841416519;-0.45647863196647287;3.4130000000000003;2.0142049817029823
10:08.5;-2.372409056540046;1.7649298090705419;-0.4423577047207626;3.367;1.852211632854488
10:08.6;-2.2845571041217623;1.6694238214169754;-0.39492661802786155;3.1830000000000003;1.5062082790812692
10:08.6;-2.161209805010875;1.5408053343580388;-0.309192191551299;2.948;1.0296111097913347
10:08.6;-2.0093670424279093;1.3850171342780608;-0.18306097733762702;2.62;0.5094601246605717
10:08.6;-1.8378537294124202;1.2093555454196947;-0.01840180870765923;2.347;0.040900202295051424
10:08.6;-1.6565952593501252;1.0218878458826728;0.17817771857027664;2.079;0.30162896356394187
10:08.6;-1.4757418417488977;0.830924453212913;0.3951148899309538;1.715;0.48450172473882813
10:08.6;-1.3047144677297875;0.6446291613632009;0.6164740843584889;0.785;0.5184898397461208
10:08.6;-1.151290227569132;0.47079741189875635;0.8234591041894864;0.785;0.44633497585538434
10:08.6;-1.0209185416288022;0.3167686989426141;0.9968483009305404;1.4509999999999998;0.32237579431731583
10:08.6;-0.9164623875746079;0.18936595371673287;1.1201312669530934;6.294;0.19439516791306044
10:08.7;-0.8384318734663129;0.09470692352806379;1.1826554776145557;4.194;0.09390911692761464
10:08.7;-0.7855978594828762;0.037824627085932996;1.1815720886132652;1.3619999999999999;0.035110350896214865
10:08.7;-0.7557568942952715;0.02224422530550917;1.1216324621695222;1.3030000000000002;0.01885601752034487
10:08.7;-0.7464115899221271;0.049723035152876544;1.0130801005267847;1.062;0.03759930260954108
10:08.7;-0.7552047673244116;0.12017406073529177;0.8688442765456111;0.887;0.07885285164606849
10:08.7;-0.7800573538752926;0.23164083543461503;0.7021702091149937;0.695;0.12687733789024652
10:08.7;-0.8190689696621857;0.3802435250862018;0.5251897599497078;1.25;0.16356807787947802
10:08.7;-0.8702875201872453;0.5601239547718415;0.34838408545649474;1.25;0.16982640259357806
10:08.7;-0.9314158754353121;0.7634569666881764;0.1805694071149587;1.25;0.12840217210438637
10:08.7;-0.9994698828606717;0.9806047915767103;0.028962353856864617;1.101;0.02838556731037905
10:08.8;-1.0704184285642022;1.2004935642922085;-0.10093729707853658;1.47;0.12970749873128323
10:08.8;-1.1389222655622289;1.4112446489255774;-0.20559370936073468;1.636;0.3304503481675397
10:08.8;-1.1983567014918652;1.6010024664292928;-0.2835698519034278;2.0140000000000002;0.5440491877602711
10:08.8;-1.2412548192288235;1.7588384323113915;-0.33540435881758784;2.4090000000000003;0.7322436206151776
10:08.8;-1.2601412454779133;1.8756121780972288;-0.36329764363110123;2.737;0.8586671561256707
10:08.8;-1.2485622224724051;1.94469927336594;-0.37073022078449996;2.861;0.9001619103700295
10:08.8;-1.202060222303073;1.9625162961707001;-0.36204372493432607;2.7889999999999997;0.8540838745048234
10:08.8;-1.1188850972427247;1.9287920227108923;-0.34196417221462333;2.7889999999999997;0.7379917344394245
10:08.8;-1.0003244499849777;1.8465500824243293;-0.31508151903812015;2.496;0.5820025744304995
10:08.8;-0.850626368508597;1.7217841516444186;-0.2853371345819868;2.085;0.4179033406998456
10:08.9;-0.6765537178802439;1.5628409809565291;-0.2555825230285937;1.6059999999999999;0.27023912673307504
10:08.9;-0.4866581665117778;1.3795878012811862;-0.22728267687603915;1.183;0.1525947868395107
10:08.9;-0.2904021672792084;1.1824983658687287;-0.20044197759996693;0.9079999999999999;0.06883179279731447
10:08.9;-0.09727782664729667;0.9818066561062001;-0.17380294113861736;0.785;0.01659957437751214
10:08.9;0.08393738726230662;0.78684081388411;-0.14530707987291464;0.733;0.00959685870717593
10:08.9;0.2456878336758665;0.6055892141884297;-0.11274408566233948;0.586;0.016774730495253905
10:08.9;0.38187604546692167;0.44450158693717595;-0.07447854661089462;0.66;0.0126423242676554
10:08.9;0.48787813246559675;0.3085031067603743;-0.03012533179891526;0.66;0.004534221517222494
10:08.9;0.5604610838733403;0.20118180571269711;0.018972702293340162;0.66;0.002139258943566167
10:08.9;0.5977456588922287;0.12508404889221936;0.0696095826751394;0.7340000000000001;0.00520460040839073
10:09.0;0.5993026930293901;0.08202996722679665;0.11701168531323311;0.9690000000000001;0.005752385750487643
10:09.0;0.5663540298802989;0.07335989836554795;0.1555365152953831;1.115;0.006462180443621921
10:09.0;0.5019390167454231;0.10004452370570607;0.17961431776171238;1.013;0.009019557459084867
10:09.0;0.4108862425131405;0.16262335900373687;0.18469247531216648;0.7809999999999999;0.012341095963625153
10:09.0;0.29951052573057807;0.26096886706019556;0.16797305811456156;0.595;0.01312926513567662
10:09.0;0.17506465086034337;0.39390209603071874;0.12884734523937738;0.414;0.008885098128201964
10:09.0;0.04504529343103077;0.5587120379768207;0.06904651210169162;0.47200000000000003;0.0017377175771291985
10:09.0;-0.08352452545200863;0.7506623872735237;-0.007406687255089147;0.753;0.00046438980790273565
10:09.0;-0.20472535568191091;0.9626172888908341;-0.09438718916100045;0.753;0.01860108789119152
10:09.0;-0.31421867167336903;1.1849756549607027;-0.18408438824549914;1.1159999999999999;0.0685422528770427
10:09.1;-0.4095474791286569;1.4061097612071554;-0.2678575152964258;2.301;0.15425076128342913
10:09.1;-0.49020429467392107;1.6133724767161444;-0.33757995365917;3.701;0.2669859484050231
10:09.1;-0.5573710927586869;1.7944837206102917;-0.3870412739574647;3.238;0.387116109275747
10:09.1;-0.613333691391343;1.9389048990312627;-0.4126461672048557;3.253;0.49071704724043264
10:09.1;-0.6607506318598807;2.0388398284624563;-0.4130709567967903;2.412;0.556474613623203
10:09.1;-0.7020230977892075;2.089720846094961;-0.38844261726493845;3.513;0.5698578669584631
10:09.1;-0.7389443328686437;2.090228296229507;-0.33985859077898284;2.019;0.5249327849668839
10:09.1;-0.7726780432823654;2.0419534839558557;-0.2693888553565131;2.019;0.42503436077643264
10:09.1;-0.8039668715400791;1.9488510093688824;-0.1801909148628699;2.079;0.2823252244691355
10:09.1;-0.8333895457005475;1.8166611143651736;-0.07656089350826668;2.489;0.11591215007283158
10:09.2;-0.8615172654329072;1.6524188973918807;0.03605908845207214;2.006;0.05133326433034194
10:09.2;-0.8888986042522526;1.4640421096331182;0.1512524737426237;1.6269999999999998;0.19683769869919882
10:09.2;-0.9158758845178779;1.259947704337374;0.2621691320047324;1.6909999999999998;0.30253156900092487
10:09.2;-0.9423038949232149;1.0486966806727027;0.36235484732571166;1.5919999999999999;0.35807578690017655
10:09.2;-0.9672815412034083;0.8386995942064337;0.44652243770534583;1.28;0.36224518379672105
10:09.2;-0.9890010834399867;0.6379900012930878;0.5109660356432113;0.976;0.3224056714935132
10:09.2;-1.0047908344232692;0.454036157794191;0.5535999346604576;1.285;0.2525585845394101
10:09.2;-1.0113867959158025;0.2935634965671176;0.5738095170124144;1.285;0.17036762857712548
10:09.2;-1.005404707963125;0.16240137998642673;0.5722625357600621;1.285;0.09343851868010733
10:09.2;-0.9839292940467503;0.06538710418599725;0.5506737073791483;1.041;0.03542830182529434
10:09.3;-0.9451428085275954;0.006322220319017137;0.5114746660636017;1.053;0.0030562662660795514
10:09.3;-0.8889491700980157;-0.012067018326855819;0.4574443005323817;1.28;0.004906989425410026
10:09.3;-0.8175370841712062;0.011787464209626999;0.3914490900843537;1.483;0.0037722731873366267
10:09.3;-0.7357555919859414;0.07814987563077075;0.31641227221535023;1.639;0.01819345505650364
10:09.3;-0.6511101343837865;0.1857846285159415;0.2354871721028637;1.659;0.0284860011778231
10:09.3;-0.5731890519853761;0.3317555793709977;0.1522528304104883;1.291;0.028952195130229647
10:09.3;-0.5124332763071674;0.5112853388381655;0.07069392403355687;0.7979999999999999;0.018521781325615175
10:09.3;-0.4783815199252503;0.7177175288302061;-0.00515702750192782;0.7979999999999999;0.0017706282741469601
10:09.3;-0.4777818541812735;0.9425705157990394;-0.07181451659446701;0.7979999999999999;0.03234117121916781
10:09.3;-0.5130588435760365;1.1756582151125505;-0.1269338629248167;1.268;0.0765642015413769
10:09.4;-0.5814878969240524;1.405316721912217;-0.16969293046944378;1.15;0.1386687636324735
10:09.4;-0.675224360246052;1.6188387700871116;-0.2008351729723242;1.337;0.21952878492354425
10:09.4;-0.782189613522287;1.8032080216075668;-0.22233998341471756;1.919;0.3135995597921313
10:09.4;-0.8876745970006817;1.9461481517982921;-0.23682149557571985;2.6830000000000003;0.40912009284175005
10:09.4;-0.9763584678148337;2.037385527619142;-0.246856417567058;3.1830000000000003;0.49105138033932455
10:09.4;-1.0343463066459;2.069904462377331;-0.25440638131526117;3.2239999999999998;0.5446835626832921
10:09.4;-1.0508721035863224;2.040920034263368;-0.2604107335360718;3.043;0.5585148607906958
10:09.4;-1.0194512276005143;1.9523539338908635;-0.2645979403797374;3.043;0.5266371167041198
10:09.4;-0.9384061832985258;1.8107263303155319;-0.26555406168065215;2.5469999999999997;0.4512286077530797
10:09.4;-0.8107845938813288;1.6264842768535905;-0.26102797882037737;1.886;0.34422500726312893
10:09.5;-0.6437666157022569;1.412864716479781;-0.24839082578477503;1.3019999999999998;0.22592515156958645
10:09.5;-0.4477396381619035;1.1844704513047968;-0.22515210557757612;0.855;0.11940590035400427
10:09.5;-0.23525368095313673;0.9557970837882251;-0.1894602273885065;0.534;0.04260103816603835
10:09.5;-0.020018002903375264;0.739943582807198;-0.14055377145252335;0.457;0.002081909559971377
10:09.5;0.18400671515236766;0.547674995256312;-0.07914241092843037;0.516;0.007975645857193335
10:09.5;0.36346344107718975;0.386922303362475;-0.007659266647669483;0.539;0.0010771388435748819
10:09.5;0.506494448319549;0.2627276539300907;0.06971943082942979;1.11;0.009277571502431142
10:09.5;0.6037251736727972;0.17756983826953593;0.14736173035201605;1.11;0.01579767578981255
10:09.5;0.6492376406262294;0.13193465094729748;0.21873281783771745;1.11;0.018735984181189297
10:09.5;0.6413216377963267;0.12496180324547607;0.27708098232383593;1.567;0.02220546618525934
10:09.6;0.5828125067614541;0.15502334597374787;0.31612714231269073;1.466;0.028561943430114353
10:09.6;0.48089808502816456;0.22013095866008484;0.33066422367233655;1.041;0.03500429872434357
10:09.6;0.3463426484582301;0.3180996691595102;0.31701525832926775;0.677;0.03492604079200072
10:09.6;0.19218553838828328;0.44643111828740517;0.2733746964745273;0.573;0.02345489417627754
10:09.6;0.03211165366666672;0.6019435316065209;0.2001033706089022;0.642;0.0038678785348443307
10:09.6;-0.1212390432324285;0.780261170359811;0.09999828629082363;0.616;0.009459649662921355
10:09.6;-0.2577839605552379;0.9753481254973917;-0.021531674787249332;1.619;0.005413689671619821
10:09.6;-0.3711469069683751;1.1792824134540436;-0.15653215228698647;1.619;0.06851209129930574
10:09.6;-0.45927861133582915;1.3824105232945898;-0.29504593110502536;1.619;0.18732807989397135
10:09.6;-0.5244035180315476;1.5739509148301933;-0.4263323671049982;5.648;0.3518885100538553
10:09.7;-0.5722146715109787;1.7430101064806451;-0.5405167905346024;3.5069999999999997;0.5390984504341276
10:09.7;-0.6103710984713188;1.8797792599269416;-0.6298342855910498;3.64;0.7226485124419935
10:09.7;-0.6465776622669559;1.9765637100002298;-0.6889005834655257;2.7119999999999997;0.880416284157067
10:09.7;-0.686759617509041;2.0284583764934614;-0.7144916528309101;3.6519999999999997;0.9953320988388722
10:09.7;-0.7338644482456048;2.033680471224594;-0.7055829168688285;2.2680000000000002;1.0530442586616229
10:09.7;-0.7875721171971859;1.9935501667215954;-0.6636106983255751;2.3;1.0419116162122872
10:09.7;-0.8448532271580304;1.9120840143138298;-0.592499568761841;2.29;0.9571417857933047
10:09.7;-0.9010668034969502;1.795301950200535;-0.4983244349266244;2.29;0.8061329549701258
10:09.7;-0.9512039552607086;1.6504482205718025;-0.3887077808950805;2.29;0.6102373499801493
10:09.7;-0.9909548545705789;1.485270588460826;-0.27197562316489043;1.912;0.4003035404903167
10:09.8;-1.0174282266449672;1.307410975344485;-0.15609646668770982;1.9140000000000001;0.20763902518418717
10:09.8;-1.0294741528932114;1.1239462289337363;-0.0476230466191094;1.64;0.05510336961017883
10:09.8;-1.027622092362336;0.9411517912053632;0.04899110820754162;1.27;0.0473816705899334
10:09.8;-1.013700114131916;0.7645488205777581;0.1314501384468501;1.147;0.10187691044649155
10:09.8;-0.9902676742861657;0.5992105842080114;0.19911643971500573;1.321;0.11815148832133628
10:09.8;-0.9600309684490191;0.45019410762419537;0.25225864872125997;1.232;0.10902625990446727
10:09.8;-0.9253856970551636;0.3228894611964332;0.29136531063683246;0.818;0.08705916496219163
10:09.8;-0.8881657289354595;0.22310967546128213;0.31669090483191953;0.818;0.06275495271582274
10:09.8;-0.8496129574886708;0.15687557981326244;0.32804501270264297;0.818;0.04372299575760243
10:09.8;-0.8105493484521418;0.1299567989954386;0.324787948165364;0.757;0.03421199281801112
10:09.9;-0.771716095630355;0.14723662432023452;0.3060275725786196;0.9309999999999999;0.03477234402412657
10:09.9;-0.7342196935173702;0.21195451750960856;0.2710275918456603;1.244;0.042177633895582246
10:09.9;-0.6999723047138897;0.32491833696836475;0.2197879270251901;1.569;0.04998721160731971
10:09.9;-0.6719500264499234;0.48383009941598476;0.15365490692187417;1.595;0.04995469271818418
10:09.9;-0.654071981110498;0.6828831977831421;0.07572704972750406;1.215;0.033823847679020455
10:09.9;-0.6505765694178794;0.912761652986928;-0.009177391377961076;0.8170000000000001;0.005449730890701734
10:09.9;-0.6649432431536275;1.161102455323333;-0.09509793190699249;1.699;0.07342199708263523
10:09.9;-0.6986220294972634;1.4133644768335687;-0.17593828515901225;1.699;0.17372279272305813
10:09.9;-0.7499751912955761;1.6539368122180353;-0.24656383907337867;1.699;0.30584064048922743
10:09.9;-0.8138069969745299;1.8673217251037015;-0.3035923719266025;2.0;0.46135095587382047
10:10.0;-0.8816720496848407;2.039331132370048;-0.34565289040943364;2.485;0.6214912453509296
10:10.0;-0.9429087689676793;2.158282972848482;-0.37314534353789186;2.992;0.7593746333906725
10:10.0;-0.9861366227194021;2.2161109032091457;-0.38768866174163974;3.15;0.847250196273337
10:10.0;-1.0008578683771314;2.209215710372927;-0.3914684128020827;3.3510000000000004;0.8655800849925018
10:10.0;-0.9788473990197027;2.1388747338178606;-0.38665806236497163;3.156;0.8095196808358327
10:10.0;-0.9151385170917891;2.0110758420957344;-0.3750218293137289;2.713;0.6901950364124588
10:10.0;-0.808531153158409;1.8357481957923845;-0.35771691877802586;1.672;0.5309447728006947
10:10.0;-0.6616395635977347;1.6255260073783837;-0.3352444971963455;1.672;0.36055958632285157
10:10.0;-0.48056378429130375;1.3943247423056286;-0.30749686041457597;1.2670000000000001;0.2060419535014084
10:10.0;-0.27429164560617975;1.1560120906857596;-0.2738843944955865;0.895;0.08684448497359631
10:10.1;-0.05392282373228223;0.9233325167411629;-0.2335459461903364;0.655;0.01162794824454014
10:10.1;0.16820233130476303;0.707130564417935;-0.18563855188417647;0.56;0.022080036758014836
10:10.1;0.37938715061907036;0.51587560922321;-0.12968475474016872;0.547;0.02538145634610544
10:10.1;0.5674196831602678;0.3554796002043076;-0.06593812378492739;0.556;0.013300123248385587
10:10.1;0.7213618999510061;0.22939412768223083;0.0042894550554727;0.754;0.0007098026530859929
10:10.1;0.832311489338731;0.138969666775627;0.07840800141315996;1.094;0.0090691438374885
10:10.1;0.8941409033666725;0.0840364359212792;0.15250970174409065;1.5219999999999998;0.01145964223945571
10:10.1;0.9041413515269447;0.06360734250215395;0.2215615533193606;1.5219999999999998;0.012742011271808943
10:10.1;0.8634185570682343;0.07653737123036745;0.2798233079767273;1.625;0.01849178377830041
10:10.1;0.7768742161552274;0.12196034755727984;0.32140859405218253;1.4140000000000001;0.03045277306852271
10:10.2;0.652680113206941;0.19938589111080887;0.3408663436922757;0.8390000000000001;0.04435871184874921
10:10.2;0.5012791284768141;0.30843712787268285;0.3336808958738944;0.377;0.05159143593661724
10:10.2;0.33408930447020974;0.4482984377077786;0.2966695552402018;0.336;0.04443270755710631
10:10.2;0.1621816485805726;0.6170047773528968;0.228346882262684;0.35700000000000004;0.02284995366591761
10:10.2;-0.0048150116869378964;0.8107388029178743;0.12935603282511515;0.39899999999999997;0.0005049693199570718
10:10.2;-0.15944345167660548;1.0233204507232037;0.003025606467296594;0.465;0.0004936632303868633
10:10.2;-0.2967714684312822;1.2460754583223639;-0.14401450617453254;3.141;0.053256513048292875
10:10.2;-0.4144423243914123;1.4682129330310179;-0.30152763411275985;3.141;0.1834764236407581
10:10.2;-0.5125139833006147;1.6777083748567734;-0.45636133708783067;5.544;0.39240184025304053
10:10.2;-0.5931092698521613;1.8625421195575285;-0.5944300823931454;4.926;0.6566615601277035
10:10.3;-0.659780696058993;2.012047210650811;-0.7030993997052029;3.488;0.9333714202237866
10:10.3;-0.7165037428321166;2.1180998310304653;-0.7726647170312989;2.391;1.1726164166676791
10:10.3;-0.766466066948525;2.1759600894583215;-0.7968083853651268;4.803;1.3289166837624975
10:10.3;-0.8111133940143638;2.1846663674367797;-0.7728940724842506;2.992;1.369577688713216
10:10.3;-0.8498961176762505;2.146908550440016;-0.7023663488039281;2.408;1.2815722259688953
10:10.3;-0.8807954886070611;2.0683522865436466;-0.5907536240116255;2.728;1.076232212803971
10:10.3;-0.9013284636438108;1.9565421452249856;-0.44700549585866;2.14;0.7882884371130631
10:10.3;-0.9096006145828448;1.8196408406602098;-0.28236213480013117;2.14;0.467350678530173
10:10.3;-0.9050575236607984;1.6652707786874896;-0.10899267032560644;1.713;0.16427003030809423
10:10.3;-0.8887518154109929;1.499673064864057;0.06142414508442203;1.604;0.08186838302346612
10:10.4;-0.8631322658869441;1.3273333772872997;0.21893063388045134;1.597;0.2508210038656482
10:10.4;-0.8315054843505663;1.1511410921222087;0.3560373298872231;1.482;0.34079185819084234
10:10.4;-0.7973628007101923;0.9730327394130732;0.46782263835801197;1.4169999999999998;0.36296492378845113
10:10.4;-0.7637344844249067;0.7949322894224697;0.5514973729926079;1.51;0.3348235421200734
10:10.4;-0.7326957185341123;0.619700498886272;0.6057892740358652;1.5130000000000001;0.2750597722734186
10:10.4;-0.7051219578508771;0.4517946362667685;0.6305050683505035;2.0380000000000003;0.20086020042196717
10:10.4;-0.6807559242028381;0.2974235411475389;0.6263443756286481;0.831;0.12681772306936134
10:10.4;-0.658579471815629;0.16415679919531687;0.5947618983646858;0.831;0.0642998861360786
10:10.4;-0.6373860917121023;0.06015119036692335;0.537738924159386;0.831;0.020616658765632366
10:10.4;-0.6163907227273441;-0.006753950242803464;0.45759249606393343;0.878;0.0019049906319764402
10:10.5;-0.595736830133106;-0.029898625881751836;0.3570389113571015;1.075;0.006359474479012465
10:10.5;-0.5768090651110241;-0.004550988468919059;0.23958764704645513;1.49;0.0006289298892814979
10:10.5;-0.562273408930716;0.07150296354099822;0.11012970848484815;1.45;0.004427678484292827
10:10.5;-0.5557728649136027;0.19757752897698702;-0.024603896693611897;0.98;0.0027017103303491577
10:10.5;-0.5612580486547096;0.36993017988853816;-0.1560781548962867;0.536;0.03240592839205725
10:10.5;-0.5820418465218411;0.5817933448885856;-0.27467309148450586;0.53;0.0930120196065261
10:10.5;-0.6197999605020121;0.82353398321171;-0.3710084463767896;1.652;0.189372479782048
10:10.5;-0.6738010530303983;1.082912733600837;-0.43756766958919663;1.652;0.3192790126713507
10:10.5;-0.7405700467584942;1.3454898071289239;-0.4701552599195175;1.652;0.4684765467640314
10:10.5;-0.8140405951738897;1.59529975956799;-0.468718673349407;1.615;0.6086962394468993
10:10.6;-0.8861579858628729;1.8159318093950867;-0.4372918060075707;2.276;0.703691056383739
10:10.6;-0.9478386149285428;1.9920378900324616;-0.38315891226727733;2.915;0.7234540035299413
10:10.6;-0.9901201495577625;2.1110691053930792;-0.3155920933160354;3.364;0.6596543989717994
10:10.6;-1.005285005357166;2.1648621041962754;-0.24453617990559204;3.662;0.5321849226895262
10:10.6;-0.987765142407046;2.1506748491397056;-0.17942008616125182;3.2510000000000003;0.38115315003516465
10:10.6;-0.9347206659654748;2.0713924032206417;-0.12808787491695225;2.793;0.248000321753387
10:10.6;-0.8462638515516461;1.9348443174245866;-0.09585076878833705;1.811;0.15694497568957186
10:10.6;-0.7253404673616696;1.7524442935778854;-0.08477535859057163;1.811;0.1077595489385161
10:10.6;-0.5773043887848652;1.5375497873135648;-0.09336615897491832;1.2409999999999999;0.08287499958128706
10:10.6;-0.4092582652296205;1.3039271975913609;-0.11674607314157844;0.877;0.06230072270986004
10:10.7;-0.22928441439291644;1.064551673439019;-0.14734800437427162;0.711;0.03596545341915621
10:10.7;-0.04572681309829862;0.8308203929257573;-0.17603672525578876;0.655;0.006687770534003248
10:10.7;0.1333404096571137;0.6121714136235228;-0.19350201315073678;0.816;0.015795025026444705
10:10.7;0.3004118054070664;0.4160449879152378;-0.19171997230715992;1.042;0.023962087369983273
10:10.7;0.4486714441050159;0.24808711178508744;-0.16525309928508408;1.072;0.018394256827764025
10:10.7;0.572066618064795;0.11248522944982838;-0.11213971828380936;1.001;0.007216083754987184
10:10.7;0.6654915539228914;0.012339243658107414;-0.03416364273973949;1.088;0.0002805403017719675
10:10.7;0.7251630052747855;-0.05000953498681293;0.0635361099975822;1.088;0.0023041411387959565
10:10.7;0.7491044801182847;-0.07275520991237185;0.17331402726822903;1.088;0.00944583176944721
10:10.7;0.7375414486029617;-0.054563175080061706;0.2860036172084518;1.339;0.011509530077917135
10:10.8;0.6930386145909472;0.005301583595847319;0.39180192075943554;1.245;0.0014395594597867818
10:10.8;0.6203018777359267;0.1066601837773675;0.4809559557246155;0.8270000000000001;0.03182077336925503
10:10.8;0.5256412714763672;0.24797851384325462;0.5442501272090502;0.467;0.07094177479231244
10:10.8;0.4161645304116212;0.42590197964018256;0.5734015380271533;0.132;0.10163272611335024
10:10.8;0.2988472012066525;0.6348970376250425;0.5615805180804939;0.153;0.10655271661872422
10:10.8;0.1796680187302815;0.8671494540297912;0.5042848722509105;0.41;0.07856709109043908
10:10.8;0.06298837433015479;1.1128566829961224;0.4006496099932742;3.352;0.02808434906309605
10:10.8;-0.0487147996945084;1.3609330090896599;0.25492577867024985;3.352;0.016900961934071274
10:10.8;-0.15476944377522753;1.5999352725603737;0.0773872201612436;3.352;0.019162707979464358
10:10.8;-0.25598089997756757;1.8189246954528526;-0.11623960316214077;3.0589999999999997;0.05412231936553964
10:10.9;-0.354142730926218;2.008137269873287;-0.3070884925751106;4.047;0.2183912685844385
10:10.9;-0.4513858963721931;2.1595225091599564;-0.47632749208904135;2.592;0.4643135617664816
10:10.9;-0.5493562443474165;2.2671940236266988;-0.607826936948593;2.133;0.7570467444231773
10:10.9;-0.6483502824091155;2.3277396615360266;-0.6897176077718656;3.965;1.040915376467815
10:10.9;-0.7467003640240194;2.340338438828875;-0.7151837291827152;3.159;1.2498061409583041
10:10.9;-0.8407050310383118;2.306648984522608;-0.68283027895163;2.352;1.3241522653922708
10:10.9;-0.9252180909023283;2.2304378213188034;-0.5965180379443821;2.6010000000000004;1.2309993326191608
10:10.9;-0.9947458394914281;2.117005819516217;-0.4645947090981563;2.6010000000000004;0.9783819748701656
10:10.9;-1.0446982696602296;1.972574299495953;-0.29872921407407066;2.6010000000000004;0.6156047215490288
10:10.9;-1.0724146060333706;1.8037624182792809;-0.11254674518647145;2.345;0.21770830386556672
10:11.0;-1.0777303766434325;1.617184093064221;0.07987798658412952;2.115;0.1392184179677745
10:11.0;-1.0630290017732302;1.419157093700537;0.2655659773129592;2.31;0.40063420068747235
10:11.0;-1.0328223160241976;1.2155537459246333;0.4339351269466073;2.12;0.5447843042990785
10:11.0;-0.9929568978545199;1.0118322763122196;0.5775030319744865;1.454;0.580220667823792
10:11.0;-0.9495901174876664;0.8132282691032575;0.6918201002480027;1.126;0.5342466764805216
10:11.0;-0.9081171482666105;0.625016294937229;0.7748258919920099;1.1640000000000001;0.4397818902996667
10:11.0;-0.872240292492603;0.45272559136892615;0.8260973372688004;1.318;0.326213861921989
10:11.0;-0.843355808111773;0.3022144788902243;0.8463909616254893;1.318;0.21572333439786626
10:11.0;-0.8203994149480622;0.17956637868276276;0.8375149639555529;1.318;0.12337948174548363
10:11.0;-0.8002329965274602;0.09082174001274214;0.8022597498897572;1.089;0.05830707788067921
10:11.1;-0.7785577206413316;0.041567079548428906;0.7441429386403503;1.046;0.024082229639232004
10:11.1;-0.7512070357632192;0.03640883026432585;0.6669884944045662;1.344;0.018242515144212688
10:11.1;-0.7155473947391947;0.07839715310548948;0.5745926502708182;1.756;0.032232854180941656
10:11.1;-0.6716452404638389;0.16848926578194506;0.47073334341113854;2.356;0.05327054512986591
10:11.1;-0.6228566184692336;0.30513893748081444;0.35951035010930427;1.895;0.06832774865022702
10:11.1;-0.5755675603106627;0.4840891280871766;0.24569310156992488;1.0070000000000001;0.06845648573131376
10:11.1;-0.538009956348713;0.6984050622554833;0.1347369785242382;0.846;0.05062726837864244
10:11.1;-0.5183987406945871;0.9387071616765934;0.032396806964406166;0.846;0.01576508357030787
10:11.1;-0.5229154153825019;1.1935222159373053;-0.055912239120368364;0.9840000000000001;0.034895452712789626
10:11.1;-0.5540957157624768;1.4497274898203678;-0.1258556255839385;1.185;0.10109828747692791
10:11.2;-0.6099771350014483;1.6931583628405902;-0.1749398170558047;1.841;0.18067572405633292
10:11.2;-0.6841156527329924;1.9094756172645166;-0.20315305300780526;2.3930000000000002;0.26537927160580527
10:11.2;-0.7663992012059997;2.08529839936979;-0.2132154319874117;2.9989999999999997;0.340754726029512
10:11.2;-0.8444548225796085;2.20944801959405;-0.21018660356263225;2.955;0.3921617584459712
10:11.2;-0.9053679735421242;2.274031996807916;-0.20043936377481186;2.96;0.4126717259867469
10:11.2;-0.9374273266240187;2.275133936497922;-0.19031811017430592;3.248;0.405905274225461
10:11.2;-0.9316476738665775;2.213025164956794;-0.18490521426237966;2.805;0.3812301278025077
10:11.2;-0.8828628619063984;2.0919420517657965;-0.18717206046548465;2.805;0.34568769416534595
10:11.2;-0.7902335568540623;1.9195269729565392;-0.19758258571714424;2.222;0.29970801107397443
10:11.2;-0.6571203837816618;1.706043366881642;-0.21411270230003338;1.733;0.24003658443587814
10:11.3;-0.4904242306493061;1.4634697530762637;-0.23263138696855398;1.3119999999999998;0.16696443813754844
10:11.3;-0.299625193899661;1.2045702139432872;-0.24757146146047507;1.0759999999999998;0.08935338886041298
10:11.3;-0.09577763280024168;0.9420340030343264;-0.2527791918769899;0.887;0.02280720148083816
10:11.3;0.10937347220712712;0.6877575703022191;-0.24240633121396393;0.606;0.01823439412988889
10:11.3;0.3041219131175147;0.45230808973619674;-0.21172886720518097;0.526;0.02912474577259354
10:11.3;0.47743120845994047;0.2445812333027352;-0.15782641594578975;0.696;0.018429503243699543
10:11.3;0.6195450605621219;0.07165469762017943;-0.0800789835809934;0.955;0.003554971461042408
10:11.3;0.722614452988557;-0.061176211806272834;0.01956873476209969;0.955;0.0008650714340914338
10:11.3;0.7812980075214648;-0.15022596720203762;0.1366083914426495;0.955;0.01603389750741463
10:11.3;0.793241351993022;-0.1931872245709483;0.2642275621905539;1.291;0.04049131369649441
10:11.4;0.7593526806950829;-0.18892986033460538;0.39378370961970915;1.3980000000000001;0.056493942019172266
10:11.4;0.6838097839995885;-0.1374003514393091;0.5153936680298522;1.087;0.04842417524631716
10:11.4;0.573738291478576;-0.039652472823839074;0.6185151032342764;0.797;0.014071306434435398
10:11.4;0.438538456123455;0.10199369776909004;0.6925066581259173;0.55;0.0309745477428435
10:11.4;0.2889056319026335;0.2836936313442554;0.7273416767307738;0.303;0.05961342411247237
10:11.4;0.13564116581444707;0.4997891011277619;0.7147201250672132;0.539;0.04845228980708064
10:11.4;-0.011615453207522832;0.7426043467548152;0.6496679099901437;2.888;0.005603831422769333
10:11.4;-0.14555318065031225;1.002454946490363;0.5323544896315611;2.888;0.07767611291108999
10:11.4;-0.2620259815492444;1.2679553980873983;0.3694474247988325;2.888;0.12274419929593648
10:11.4;-0.3603563386560052;1.5266711415895076;0.17417292555524172;2.412;0.09582047262451267
10:11.5;-0.4430159842028475;1.7661056431695026;-0.03535432538805423;4.8469999999999995;0.027661684840395336
10:11.5;-0.5147081647891144;1.9748551890624877;-0.23907032523183266;3.569;0.24300879130673766
10:11.5;-0.5809658237579707;2.14359992077867;-0.41792449909144824;3.032;0.5204657411185158
10:11.5;-0.6465286094550726;2.2656695683074206;-0.5558871980916243;2.9360000000000004;0.8142747941747763
10:11.5;-0.7139456749097406;2.337191149454769;-0.6411344185596547;3.622;1.06981453007739
10:11.5;-0.7828648868679838;2.356981286298779;-0.6669854464842421;2.379;1.2307201372116416
10:11.5;-0.8501989199731176;2.32629656788104;-0.6325816713333947;2.889;1.2511294104644786
10:11.5;-0.9109937618408366;2.2484948526427004;-0.5429234073900485;2.889;1.1121051882638198
10:11.5;-0.9596375225011002;2.1286514727803936;-0.4081492721456093;2.638;0.8337403241088336
10:11.6;-0.9910861187487596;1.973144860019554;-0.24216805046458648;2.4730000000000003;0.4735733005882592
10:11.6;-1.0018989248850498;1.7892092616917543;-0.060762580512488625;2.362;0.10892341718044656
10:11.6;-0.9909503717627841;1.5844888796185703;0.12060061641671402;2.6210000000000004;0.18936103909063712
10:11.6;-0.9597168418858086;1.3666679981944794;0.28878905706340763;2.509;0.3787798555225201
10:11.6;-0.9120761166578036;1.1432470605698206;0.4342984050467768;1.82;0.45285525469196697
10:11.6;-0.8536141307997983;0.9214796908279541;0.5515224806171657;1.199;0.4338210120482912
10:11.6;-0.7905240887585986;0.7084181998135766;0.6381713387894686;0.8440000000000001;0.357389767323458
10:11.6;-0.7283079002099957;0.5109904863543925;0.6943506069630552;1.183;0.258408416581227
10:11.6;-0.6706062090561716;0.3360517922268815;0.7217576822422519;1.183;0.16265416976111643
10:11.6;-0.6185224588810979;0.19037176958833152;0.7231027505911806;0.797;0.08514478126620792
10:11.6;-0.5707032663122016;0.0805084365818083;0.7016062044941842;0.6940000000000001;0.03223629876474899
10:11.7;-0.5241929096398973;0.012520057426041717;0.6604713492486389;0.873;0.0043346241483938185
10:11.7;-0.4758138490001818;-0.008492349369889109;0.6024284000311734;1.166;0.0024342790885077837
10:11.7;-0.4236763500962071;0.02104191029798999;0.5295621674092339;1.319;0.004721025409749507
10:11.7;-0.36841590536417795;0.10256554438720233;0.4435863678506745;1.7790000000000001;0.016761699559037314
10:11.7;-0.31383538290747465;0.23487511612464637;0.3465140052183569;1.88;0.025542282628894356
10:11.7;-0.2667338369169262;0.41379068654118495;0.2414053471220515;1.1909999999999998;0.026644385541325682
10:11.7;-0.23584981721421697;0.6320916023982276;0.13278371620005397;0.932;0.019795222316815318
10:11.7;-0.23009059441407437;0.879714173582796;0.02649865959481213;0.932;0.005363698546806807
10:11.7;-0.25649731770476364;1.1441397968715956;-0.07091087918431065;0.932;0.02081012983950247
10:11.7;-0.31849219567520376;1.4109371678558267;-0.1531842296314778;1.374;0.06883677663792494
10:11.8;-0.4147887726215185;1.6645184027688262;-0.21546417042428379;1.974;0.1487615364273915
10:11.8;-0.5391158109351616;1.8891888641101808;-0.25533213284583206;2.427;0.2600536290626065
10:11.8;-0.6807708596972374;2.070463780818098;-0.2734049281874599;2.753;0.38536736529445287
10:11.8;-0.8259216036088143;2.196478560144419;-0.2732202737882715;3.134;0.49565411573487456
10:11.8;-0.9594216987622819;2.2592384345567913;-0.2604246274057311;3.395;0.5644866243546112
10:11.8;-1.0667586827657631;2.2554621566611335;-0.24157763193354587;3.6239999999999997;0.5812439572423069
10:11.8;-1.1357349432099142;2.1868430347286254;-0.22297134764494345;2.734;0.5537881500072809
10:11.8;-1.157626709229129;2.0596688245473347;-0.2097048998182096;2.734;0.5000051896061039
10:11.8;-1.127759420263899;1.8839011319795278;-0.20506961572069143;2.2680000000000002;0.4356882906017974
10:11.9;-1.0455666689309435;1.6719325432790801;-0.21023323074425793;1.755;0.36751227200520037
10:11.9;-0.9142539004206657;1.4372509867097027;-0.2242012228890017;1.334;0.2946031691434577
10:11.9;-0.7402142383396468;1.193196778609258;-0.24401561914564207;1.072;0.21551977886014226
10:11.9;-0.5323501411106536;0.9519504295221912;-0.2651463003373692;0.84;0.1343684413142123
10:11.9;-0.301416251096278;0.7238277516488208;-0.2820403375049774;0.589;0.06153371272280284
10:11.9;-0.05942496867736782;0.5168922562159063;-0.28880770517803933;0.442;0.008871105886454459
10:11.9;0.18091456733477318;0.3368558529334318;-0.2800278859291607;0.5770000000000001;0.01706549607648342
10:11.9;0.40679077304344635;0.18722855938066377;-0.2516305624453554;0.9890000000000001;0.01916490088517144
10:11.9;0.6059625176467209;0.06967336734246836;-0.20172791858069308;0.9890000000000001;0.008516841588098768
10:11.9;0.7674866445923595;-0.015490368892454684;-0.13121756991096895;0.9890000000000001;0.001559999925857461
10:12.0;0.8824386473107184;-0.0687100750763449;-0.043990180617068796;1.073;0.002667231358101394
10:12.0;0.9445929119695559;-0.09063972756995348;0.05333901513081695;1.361;0.0045667608197383115
10:12.0;0.9510310860469331;-0.08169136841368897;0.15212294697575338;1.655;0.01181858856239874
10:12.0;0.9025742943435077;-0.04178432272936221;0.24260933495504183;1.5190000000000001;0.009149636382476031
10:12.0;0.8038781023152992;0.02964910473215053;0.31486337362439726;1.256;0.007504537415554837
10:12.0;0.663068239173518;0.13338504396295864;0.35956621537351857;0.966;0.0318012536624748
10:12.0;0.49089879795720104;0.2698864205315648;0.36877353377098415;0.607;0.04885766945438945
10:12.0;0.2995240689617742;0.4386132123040907;0.33681913658540025;1.075;0.044249686164947406
10:12.0;0.10108608180485402;0.6372859998332993;0.26143113880336083;1.075;0.016841588652680723
10:12.0;-0.09358544539799712;0.8612653835317824;0.14488254162744227;1.075;0.0116778087874059
10:12.1;-0.2758843584989203;1.1032337464362028;-0.00518027520717694;2.394;0.001576694123657704
10:12.1;-0.43983986126266705;1.353347811657041;-0.17567237311769907;3.284;0.10457008924437476
10:12.1;-0.5820894202651383;1.5999180402773587;-0.3492446181804839;3.682;0.3252498940009037
10:12.1;-0.7015273456130362;1.830477980678171;-0.5068278106868187;4.126;0.6508329784825024
10:12.1;-0.798714617966518;2.032973260030605;-0.6307818937659608;2.838;1.0242418523456602
10:12.1;-0.8751178403078986;2.196823719863942;-0.70735681888456;2.271;1.359879074926903
10:12.1;-0.9322872320512195;2.3137393346149615;-0.7278443349312675;3.46;1.5700109174943584
10:12.1;-0.9711651464084246;2.3782822826851304;-0.6888293130843851;2.861;1.5909924130124675
10:12.1;-0.9917454399286404;2.388181488543563;-0.5921121654130224;2.861;1.4023987759859393
10:12.1;-0.993197718859127;2.3443689844269566;-0.4444254488718471;2.861;1.0348099602908798
10:12.2;-0.9744019738605044;2.2507196874805437;-0.25684654338552226;2.761;0.563291619887701
10:12.2;-0.9347428701251712;2.1135256466955417;-0.04385113941647807;2.519;0.08663244385959952
10:12.2;-0.8749698161695414;1.9407776245251596;0.17802499425451476;2.431;0.3023081310509993
10:12.2;-0.7978732740862651;1.7413691563837796;0.3918896036681132;2.436;0.5444882450266925
10:12.2;-0.708519076511163;1.5243666900016364;0.58234810559689;2.345;0.6289609248194672
10:12.2;-0.6138892056670867;1.298473488768943;0.7371129289115402;1.9080000000000001;0.5875666165533711
10:12.2;-0.521956355470357;1.071751922330557;0.8480043822410157;1.3659999999999999;0.4743802042505969
10:12.2;-0.4403832973318019;0.851577690699145;0.9112532322509619;1.571;0.34173872604137717
10:12.2;-0.375153411866572;0.6447345675020222;0.9272940492422043;1.571;0.22428866651220783
10:12.2;-0.3295018453313652;0.45756170062242313;0.9002621777918555;1.571;0.13573021010773517
10:12.3;-0.303475231856589;0.2960896023874389;0.8372401089189346;1.123;0.07523093062865316
10:12.3;-0.2942680621036238;0.16609055371720902;0.7472156517009816;0.599;0.03652027360416853
10:12.3;-0.297242599479851;0.07296954217501865;0.6398095153576564;0.72;0.013877248548890874
10:12.3;-0.30734754019861504;0.021483492331171996;0.523987228854184;1.055;0.0034598344993995948
10:12.3;-0.3205664134971641;0.015349141755311171;0.4070698586696024;1.1079999999999999;0.002002954398310959
10:12.3;-0.33505499382219694;0.056816219330222816;0.2943303073030332;1.246;0.0056030359710439155
10:12.3;-0.3517149628922379;0.14626604308999366;0.18925552835247722;2.3169999999999997;0.009736053057763195
10:12.3;-0.37403865480060516;0.28190270177398286;0.09421490208193149;0.539;0.009934255505837415
10:12.3;-0.40719485356224216;0.45959804733389015;0.01106662803100817;0.539;0.0020710747221958322
10:12.3;-0.45656856791375516;0.6728731922028014;-0.058594392787116006;0.539;0.018000944528154636
10:12.4;-0.5261669066834286;0.912933386254669;-0.11349325093325055;0.695;0.054517088669163785
10:12.4;-0.61728062017042;1.168732245576343;-0.15285547380917786;0.7020000000000001;0.11027540573737676
10:12.4;-0.7276441364054852;1.4271634647147753;-0.1766419411613426;0.848;0.18343684910875319
10:12.4;-0.8512219013316414;1.673542673870367;-0.18585634890389494;1.5490000000000002;0.26476280983069034
10:12.4;-0.9786423813147077;1.8925143639837323;-0.1828789987116747;2.362;0.33870923593043795
10:12.4;-1.0981717140372154;2.0693951927151772;-0.17164293154132962;2.963;0.39006736134062653
10:12.4;-1.1970356270315627;2.1917722754041526;-0.15743098704980243;3.053;0.41304058183779147
10:12.4;-1.2629072053582528;2.2510251616721995;-0.1462189584212047;3.612;0.415676503692866
10:12.4;-1.2854126939009263;2.2434337298896616;-0.1437089023655382;3.612;0.4144188506161216
10:12.4;-1.2574809845039396;2.1706410395097744;-0.15431653124845296;3.417;0.42121311868110534
10:12.5;-1.1763158110625676;2.0393768047287746;-0.1803457252120369;2.9189999999999996;0.4326405903264209
10:12.5;-1.0437992840918877;1.8604939743268891;-0.221487117330009;2.291;0.4301240567619969
10:12.5;-0.8662436652644483;1.6475189949381863;-0.27470279940595654;1.577;0.39204289482369353
10:12.5;-0.6535523613253859;1.415006315667813;-0.3345040886542985;0.996;0.3093429315790502
10:12.5;-0.4179974574553364;1.1769813362086883;-0.39357476827825977;0.764;0.19362902770309665
10:12.5;-0.17290268254908792;0.9456848437267952;-0.44365196389959977;0.68;0.07254217428276154
10:12.5;0.06852228930183393;0.7307449190326503;-0.4765604449558085;0.672;0.02386248459617909
10:12.5;0.29408493829269183;0.5388236398864782;-0.4852936245062837;1.1640000000000001;0.076899587404891
10:12.5;0.4932592687376716;0.37372121538267056;-0.46502433581142183;1.1640000000000001;0.08572326193515309
10:12.5;0.657631124967039;0.23686608458533934;-0.41390157126951244;1.1640000000000001;0.06447365871085688
10:12.6;0.7811878085692117;0.1280744023620041;-0.3334808103186618;1.324;0.03336480900122649
10:12.6;0.8604969052677407;0.04643074361455857;-0.22868403177694743;1.2690000000000001;0.00913673002248484
10:12.6;0.8947860717749433;-0.008871989237572365;-0.10728216983256951;1.1909999999999998;0.0008516629810205072
10:12.6;0.8858794202621862;-0.03788346584757793;0.020993395000870895;1.173;0.0007045421730361486
10:12.6;0.8379344264566138;-0.03954400538259801;0.14550872845340518;1.159;0.004821472964672222
10:12.6;0.7569653416094907;-0.011678241250328245;0.25572674737340834;0.966;0.0022606305528842614
10:12.6;0.6501820733677309;0.048663988363046695;0.34199673311027573;0.623;0.010820931509591965
10:12.6;0.5252044648413073;0.14455400237588825;0.3961332378964538;0.251;0.030074596828952683
10:12.6;0.38926153906373906;0.2782984042710947;0.41191027515311224;0.251;0.04462259647791598
10:12.6;0.2485369982879121;0.4504590535982012;0.38561413870845407;0.251;0.04317171665187257
10:12.7;0.10780074377492707;0.6589589551988626;0.3167281078816164;0.424;0.022499181958859357
10:12.7;-0.029644709906899398;0.8984669577932342;0.20871788703788313;1.807;0.00555915757570731
10:12.7;-0.16179147267528737;1.16023545179066;0.0696719808141395;4.518;0.01307855965178765
10:12.7;-0.2876626082935915;1.432480230054278;-0.08780454468891473;1.46;0.0361817064736061
10:12.7;-0.4070459741541521;1.701256844610642;-0.2480605351705673;4.204;0.17177937788614572
10:12.7;-0.5202055276409262;1.9516932300029957;-0.3949961638522248;3.517;0.4010323397999621
10:12.7;-0.6274904901346988;2.169376545648999;-0.5145552972148759;2.169;0.7004451657218015
10:12.7;-0.7288309474731371;2.341648924879732;-0.5961052701470239;2.9760000000000004;1.0173527189257263
10:12.7;-0.8232342735711314;2.4586421378125576;-0.6328519846205065;2.9760000000000004;1.2809167654049
10:12.7;-0.9084692219875043;2.5140152631008665;-0.6219838170852376;2.9760000000000004;1.420552254615448
10:12.7;-0.9811151612341455;2.5053823228614003;-0.5648441934252144;3.395;1.3884257653844532
10:12.8;-1.037071539857453;2.43437897503249;-0.4669817544956612;3.352;1.1789538830339001
10:12.8;-1.0724728809303867;2.306340134295077;-0.3378037693967162;3.05;0.8355533160077563
10:12.8;-1.084783600403231;2.1296340357549104;-0.1895879854327306;2.846;0.43798466181216866
10:12.8;-1.073742111446288;1.9147666221252355;-0.03580362177644459;2.738;0.07361101314410182
10:12.8;-1.041840023752567;1.6733983228232359;0.1109380017978758;2.5869999999999997;0.19341079317898094
10:12.8;-0.9941473342876871;1.4174113602882696;0.24070573293644965;2.213;0.33918223347941806
10:12.8;-0.9374829913604891;1.1581489647293168;0.3472910509399927;0.973;0.37706950678574197
10:12.8;-0.8791285509836954;0.9059079966800819;0.42825979428818883;0.973;0.3410702048039443
10:12.8;-0.82541674752366;0.6697013670886414;0.48423226209936016;0.727;0.26767522900549695
10:12.8;-0.7805312605735252;0.45723876939375746;0.5178519247132695;0.695;0.1848157348203723
10:12.9;-0.7457615912369955;0.2750330097805967;0.5328212118289095;0.862;0.10928645525106881
10:12.9;-0.7193660226768342;0.12854122905027643;0.5331186486001833;0.573;0.04929651792640137
10:12.9;-0.6971135390508304;0.022272735418941363;0.5223295369775592;0.752;0.008110015062399842
10:12.9;-0.6734384576229885;-0.04018935604480283;0.5030746007147385;1.078;0.01361574322034693
10:12.9;-0.6429713804528099;-0.05628205208560201;0.47670222883467306;1.463;0.017250780473333557
10:12.9;-0.6020937204402653;-0.02465084516791779;0.4434426036571829;2.1390000000000002;0.006581627928247587
10:12.9;-0.5501337832025684;0.05464471722967638;0.40299277617277046;1.429;0.012114730561695299
10:12.9;-0.489885106245507;0.1799940507406163;0.355240013444093;1.429;0.03132378718064497
10:12.9;-0.4272933090677191;0.3481873603265072;0.3008098460740024;0.9209999999999999;0.044753926194807545
10:12.9;-0.3703783867134486;0.5543980865398686;0.24130086470188508;0.713;0.04954801227842535
10:13.0;-0.3276544615091574;0.7921250449361739;0.1792192208587543;0.953;0.04651514890953599
10:13.0;-0.3064336028084532;1.0530684479817645;0.11768141468091871;0.953;0.0379752698377602
10:13.0;-0.31141447935879096;1.3269785324759051;0.059960136102524764;0.889;0.024777946358576223
10:13.0;-0.34383617388421667;1.6015922115856491;0.008929136639765821;0.87;0.00491714462989602
10:13.0;-0.401274674798834;1.862840157000801;-0.03353794736847322;1.5659999999999998;0.02506997042913932
10:13.0;-0.4779754052042551;2.0955078292320426;-0.06708263198432589;2.376;0.06719004494862561
10:13.0;-0.5655302316053372;2.284420150928568;-0.09304369885647105;3.008;0.12020396003556118
10:13.0;-0.6537363365749076;2.4160073637551656;-0.11409691315751709;3.008;0.18020829327872365
10:13.0;-0.731561095016665;2.479924456401903;-0.13342660211064622;3.008;0.24206470984936562
10:13.0;-0.7882056978611302;2.470380738984793;-0.1537790619337082;3.555;0.29943369527936053
10:13.1;-0.8142542687823308;2.3869541342688723;-0.17673154670860566;3.633;0.3434932415127309
10:13.1;-0.8028015565822305;2.23475660964159;-0.20231438808214947;2.968;0.36296538212579527
10:13.1;-0.7503492734916799;2.0238779893699133;-0.2289988864254058;2.419;0.34776123069022485
10:13.1;-0.6572638110226382;1.7681782606308547;-0.25401792107493587;1.8330000000000002;0.29520936101496137
10:13.1;-0.5277062130862925;1.4836793002771036;-0.2739203903049528;1.3780000000000001;0.21446508893075691
10:13.1;-0.3690893713231859;1.1868779969195014;-0.28519111383172774;0.9940000000000001;0.12493197541014586
10:13.1;-0.1912158346877298;0.893246926712003;-0.28476821528275814;0.298;0.04863925313692661
10:13.1;-0.005286171369620704;0.6161016463162851;-0.27037657814020766;0.298;0.0008805675453521525
10:13.1;0.17705444775558019;0.36594298914374634;-0.24071414723286527;0.298;0.015596311033547644
10:13.1;0.34454355707382034;0.15029621107526192;-0.19558715098999416;0.49700000000000005;0.010128205066650709
10:13.2;0.48701625800666426;-0.026039368689299108;-0.1360449511735006;0.731;0.0017252670950064573
10:13.2;0.5960660880159664;-0.1604842267209275;-0.06446783859052603;0.872;0.006166942201164081
10:13.2;0.6656675461443597;-0.25206760582553467;0.015494279357243585;0.997;0.0025998350967066258
10:13.2;0.6927008743891305;-0.3008321308959603;0.09919252712477289;1.238;0.020670401419845424
10:13.2;0.6772726200693401;-0.3073478368542283;0.18140063575314538;1.209;0.03776004337491568
10:13.2;0.6227233152397162;-0.27240447746858343;0.2567309772092604;0.983;0.04354994811826905
10:13.3;0.5352602854826711;-0.19692340582674356;0.31991213435151405;0.364;0.03372042759159134
10:13.3;0.4232514472790295;-0.08209852757838197;0.3659266653700667;0.364;0.012715337090598806
10:13.3;0.29631985566124597;0.07026539508579599;0.39012300495405533;0.364;0.00812276346467467
10:13.3;0.16439917307144947;0.257295932442596;0.3884290733163801;0.32899999999999996;0.016430254023501255
10:13.3;0.036837594882808244;0.47459337821330644;0.35773251002322204;0.46;0.006254194044254383
10:13.3;-0.07841836238773003;0.7158951369422619;0.2964184186699784;0.667;0.016640729728383038
10:13.3;-0.1755027005504489;0.972969951219487;0.2050167999692406;0.972;0.03500843381215364
10:13.3;-0.25107183688146667;1.2358107366899806;0.08687481643322137;2.42;0.02695528102221593
10:13.3;-0.30443743289327346;1.4931626101477846;-0.05138359491672937;2.126;0.023357676690943165
10:13.3;-0.337399476575428;1.733364006410421;-0.19999816731272088;3.054;0.1169661498738162
10:13.3;-0.3538302036177086;1.945367657679434;-0.3469442251142764;2.533;0.23881206102866723
10:13.3;-0.35904353715948834;2.1197249573235393;-0.47913083723134275;2.533;0.36465380552087806
10:13.3;-0.35900174435674337;2.2493363854454893;-0.5834580772873317;2.533;0.47115154954460303
10:13.4;-0.35947606747991717;2.329857408149939;-0.6477720966213012;2.545;0.5425272548520692
10:13.4;-0.36531704254095687;2.359750504373044;-0.66208007983673;3.06;0.570750817299414
10:13.4;-0.3799718244832081;2.34005467805392;-0.6201532703021405;3.537;0.5514122851863865
10:13.4;-0.40530317746641875;2.2739715115477988;-0.5211374514404521;3.0060000000000002;0.4803052268388579
10:13.4;-0.4416581475659499;2.1663477665365156;-0.37047225943319023;2.387;0.3544623531829299
10:13.4;-0.4881066358881616;2.023113967035922;-0.17960225645447167;1.817;0.1773563935416028
10:13.4;-0.542803582201995;1.850758426472413;0.03553402300691052;1.895;0.03569741923565963
10:13.4;-0.6034073263893313;1.6559532132107755;0.256839842160658;2.254;0.2566380433559101
10:13.4;-0.6674334004002501;1.4454216419158912;0.46662893340718514;2.254;0.4501675158908823
10:13.4;-0.7324439406827775;1.2260310768104044;0.6498214577270744;2.254;0.5835390408555751
10:13.5;-0.7960588868405133;1.0049892440132608;0.7953572168436684;1.76;0.6363101264188419
10:13.5;-0.8558480988309272;0.7899867098364146;0.8967420341464671;1.6640000000000001;0.6062950225343321
10:13.5;-0.9091994287422938;0.5891776360888162;0.9518890196447221;1.585;0.5099078816386182
10:13.5;-0.9532636713346384;0.41098397698347355;0.9624704026422051;1.271;0.37707289566826285
10:13.5;-0.9850523172937592;0.2637623449777087;0.9329497567119779;1.057;0.2423987344265944
10:13.5;-1.0017225060349275;0.1553626157372798;0.8694591275651523;1.077;0.13531412293824935
10:13.5;-1.00104434873336;0.09259791718594082;0.778717982613025;1.13;0.07218296881200037
10:13.5;-0.9820001466585097;0.08066957692587788;0.6671819826560341;1.435;0.05285251297785884
10:13.5;-0.9454011334083089;0.12260347289069935;0.5405627676117053;1.435;0.0626563396957911
10:13.5;-0.8943483144736009;0.21873796286787064;0.4038021189202432;1.706;0.07899497200881393
10:13.6;-0.8343477727255088;0.3663034694569293;0.261468650356069;1.849;0.07991122131666219
10:13.6;-0.7729303572659599;0.5591761247070631;0.11835414496446357;1.2819999999999998;0.05115315875934538
10:13.6;-0.7187239029470298;0.7879213733166645;-0.020090173487886016;0.8059999999999999;0.011377023551958637
10:13.6;-0.6800875428188607;1.0401983167922986;-0.1477645426342518;0.925;0.10453246711916303
10:13.6;-0.663588527104189;1.3014943915700241;-0.25843270760793374;1.148;0.22319715139955232
10:13.6;-0.6726721912869161;1.5561011115966819;-0.3465933305635431;1.716;0.36279516319340105
10:13.6;-0.7068028901728788;1.7882562190053148;-0.40848499149226564;2.274;0.5163024253054495
10:13.6;-0.7612135885925139;1.9833895023304378;-0.4429537089667599;2.911;0.6687639975891131
10:13.6;-0.8272839464923942;2.1293542506894125;-0.45189633437195;2.911;0.796051810413778
10:13.6;-0.8934931629807475;2.2174504295862385;-0.44008129032177706;2.772;0.871922849785417
10:13.7;-0.9468447776573966;2.2430568633405916;-0.414343920574639;2.727;0.8799946719868468
10:13.7;-0.9746035387147066;2.205806369734004;-0.3823635772469831;3.033;0.8220001305066432
10:13.7;-0.9660970824363387;2.1093544491058682;-0.35134247045452227;2.992;0.7159801542608091
10:13.7;-0.914256748871147;1.9608295433366116;-0.3268825676386202;2.61;0.5860029161984948
10:13.7;-0.8165895383219826;1.7700460987188837;-0.3122491814535183;2.185;0.45132531864081527
10:13.7;-0.6754189715336809;1.548567396589468;-0.30808135603404757;1.68;0.32223208675635323
10:13.7;-0.49743107450975416;1.3087202145256032;-0.3125088568278974;1.167;0.20344267282318915
10:13.7;-0.29271267279046015;1.0626665511188795;-0.321601955528268;0.8;0.10003620709324494
10:13.7;-0.0735373785613394;0.8216327036225146;-0.3300736241628834;0.8;0.019943284428914475
10:13.7;0.14685761359275817;0.5953771135373194;-0.33211689557674556;0.741;0.029038860653316526
10:13.8;0.3553478192487098;0.391923880752376;-0.32223703742133697;0.696;0.04487772545534022
10:13.8;0.5398092282197327;0.2175205708458283;-0.2959820445667474;0.757;0.03475409667518357
10:13.8;0.6898493805549636;0.07674980250647334;-0.2505373007001193;0.9009999999999999;0.013264898746607027
10:13.8;0.7974307899473001;-0.027262007190453758;-0.18516530965031208;1.033;0.004025413086656127
10:13.8;0.8574196476256909;-0.09257896867915483;-0.10144596084470467;1.187;0.008052681634745562
10:13.8;0.8680518402230364;-0.11817654639450834;-0.0032554940466428066;1.38;0.00033395954566080104
10:13.8;0.8312439703070819;-0.1037062453219537;0.10355083853610877;1.554;0.008926619825301678
10:13.8;0.7526158008088295;-0.04936751274420686;0.21171336974454447;1.156;0.007866161587983301
10:13.8;0.641090345436301;0.04406588077516183;0.3132740893843501;1.156;0.008850059040762576
10:13.8;0.5080240762342805;0.17505679135453153;0.40025156920143773;0.767;0.03559559870664134
10:13.9;0.3659334351887815;0.3409911425814192;0.4651776544211963;0.35700000000000004;0.05804489571016835
10:13.9;0.22697051233051063;0.5378101725858118;0.5015108907568984;0.511;0.06121795518236486
10:13.9;0.10137269211550475;0.7596694324160739;0.5040624819010748;0.8440000000000001;0.03881771839753912
10:13.9;-0.0038418135609016115;0.9987086594166958;0.46962781925755137;0.9;0.001801892658832984
10:13.9;-0.08569426463602654;1.2450421795884579;0.39789242574610184;4.654;0.04245232624314965
10:13.9;-0.1454428922731102;1.487129511386339;0.29226134114294405;2.4019999999999997;0.0632139119652048
10:13.9;-0.18807448507808394;1.7126543632120068;0.15994083993539032;4.265;0.05151799814992671
10:13.9;-0.2210317449819875;1.9098182844213296;0.011102799771855779;3.0869999999999997;0.004686830063849874
10:13.9;-0.25232943005441827;2.068691107813734;-0.14217032539873192;3.0869999999999997;0.0742117224790594
10:13.9;-0.28860121515612897;2.1822286152885635;-0.28660096291449066;3.0869999999999997;0.18049951815021387
10:14.0;-0.3337769302591968;2.246767044060484;-0.408488961881238;2.611;0.3063336366538336
10:14.0;-0.38879036999914446;2.2620134666082885;-0.4951752665613971;3.572;0.4354814190610912
10:14.0;-0.45221391893501023;2.2306575841743457;-0.5370618679881926;3.176;0.5417527854330701
10:14.0;-0.5213604940034332;2.1577506220132645;-0.5293608829096157;2.52;0.5955129580692875
10:14.0;-0.5933481231156289;2.049968420490151;-0.47284766436001147;2.2680000000000002;0.5751458519929445
10:14.0;-0.6658174142254021;1.914846333779376;-0.37349645144073884;2.208;0.4761848317284267
10:14.0;-0.7372128585898178;1.7600614930433016;-0.2413102122964536;1.9480000000000002;0.31310964431600874
10:14.1;-0.8066621825180431;1.59281876018277;-0.0887004238960539;1.3980000000000001;0.11396821716525224
10:14.1;-0.8735635878613464;1.419386062933444;0.07129813782500505;1.3980000000000001;0.08840427093952824
10:14.1;-0.9370686202862184;1.2448479244770805;0.22668871644210353;1.3980000000000001;0.264434184703841
10:14.1;-0.9956774225184575;1.0731428961979683;0.36777748686999084;1.734;0.39297177205649675
10:14.1;-1.047094987022311;0.9073766185917715;0.4878762918288298;1.774;0.4635359039205965
10:14.1;-1.088371607808568;0.7503231228331624;0.5833879842614709;1.591;0.47641235335983445
10:14.1;-1.1162434767264768;0.604995390664012;0.6533233871944377;1.6119999999999999;0.4412037598938305
10:14.1;-1.1275477210306004;0.4751501354416572;0.6984694255594459;1.526;0.3742081045840328
10:14.1;-1.1196172591316884;0.36557548037490295;0.7205537294848474;1.581;0.2949259685219385
10:14.1;-1.0906350741369337;0.28203113546759256;0.7216469974331783;1.234;0.22197359976560627
10:14.1;-1.0399893238939306;0.23079076229536566;0.7038079514056483;1.296;0.1689279344137774
10:14.1;-0.968662967652926;0.21785527930632118;0.668885030555701;1.296;0.14115369856654061
10:14.1;-0.8796100048120319;0.24801222346053797;0.6184865904910513;1.399;0.13492534411630525
10:14.2;-0.7779847474092714;0.32394777015392323;0.5542021498963012;1.706;0.13967358608740063
10:14.2;-0.6710641735608058;0.44556908991084243;0.4780597630385901;1.7830000000000001;0.1429424760491856
10:14.2;-0.5677395507924687;0.6096251273402303;0.3930121846353889;1.149;0.13602477751093314
10:14.2;-0.47754470167233143;0.8096565205318653;0.3031496126781342;0.855;0.117211943331323
10:14.2;-0.4093284674093255;1.0362502569649752;0.2134648884065624;0.8290000000000001;0.09054470358617728
10:14.2;-0.36982024004118436;1.2775430968640993;0.12923796867032913;0.9590000000000001;0.06105993800822837
10:14.2;-0.3624105900780666;1.5199511772863028;0.05524552581658244;1.234;0.030431799180680348
10:14.3;-0.3864358726775206;1.7491601057290378;-0.004997584690457158;2.517;0.0033780584595369265
10:14.3;-0.43711769261399425;1.951360445145893;-0.049790649828450086;2.517;0.042470138472105255
10:14.3;-0.5061260215870643;2.114539956846641;-0.07945474663077191;2.517;0.08503435259166627
10:14.3;-0.5826251379682464;2.2295458740653498;-0.09613126273326807;2.721;0.12487349826709515
10:14.3;-0.6546559759861987;2.290736483681299;-0.10321341969806247;2.7910000000000004;0.15478341947029134
10:14.3;-0.7106953790955077;2.2962055347393338;-0.10456413938114509;2.977;0.17063849750963825
10:14.3;-0.7411564506933972;2.2476307836849037;-0.10374249031139057;2.87;0.17281901812826883
10:14.3;-0.7395490344782286;2.1498000639053463;-0.10342403638098831;2.555;0.16443207189060044
10:14.3;-0.7030817666915475;2.0098814011486885;-0.10508340055642361;2.184;0.14849450570869355
10:14.3;-0.6326257298024769;1.8365404377009937;-0.1089196111133276;1.815;0.12654745883971436
10:14.3;-0.5321154932614295;1.6390374282941174;-0.11398421995040013;1.232;0.09941215921386942
10:14.3;-0.40760028963597966;1.4264336713804278;-0.1184672538011541;1.232;0.06887861202182011
10:14.3;-0.26623141103679554;1.2070070531698756;-0.1200821534852919;1.021;0.038587582370720644
10:14.4;-0.11542946548294503;0.9879241382709537;-0.11648988472496274;0.8370000000000001;0.013283988681928668
10:14.4;0.037658360701330065;0.7751584315600014;-0.10572113256194156;0.711;0.0030861262825433917
10:14.4;0.18642247849266602;0.5736116941683972;-0.08657975342735676;0.575;0.00925832919878557
10:14.4;0.32484562923492466;0.3873868639133375;-0.05902772811763043;0.55;0.007428104176448771
10:14.4;0.4474432093144007;0.22015155886415821;-0.024543801499079365;0.599;0.002417695021511576
10:14.4;0.5492020487833298;0.0755135371192624;0.013597321143270669;0.6890000000000001;0.0005639106763827614
10:14.4;0.6256242663501078;-0.04268462950020369;0.05023927753994914;0.831;0.0013416167974149354
10:14.5;0.6729367278298793;-0.1302390192993759;0.07859234640405968;0.902;0.006888039110174555
10:14.5;0.6884457938691751;-0.1826754029456117;0.09089542166727722;0.902;0.011431200272838492
10:14.5;0.6709358533233222;-0.19555068109220888;0.07943016126520822;0.902;0.010421393086277198
10:14.5;0.6209824070356785;-0.1649229677649908;0.037709591335947465;1.051;0.00386199994806891
10:14.5;0.5410890565612043;-0.08794555414937334;-0.0383597443077603;0.9690000000000001;0.0018254012513157381
10:14.5;0.43561465657382037;0.03647076887106818;-0.14953200256290722;0.6679999999999999;0.002375645048948694
10:14.5;0.3104943135697532;0.20701520993227376;-0.2926618925992111;0.41200000000000003;0.018811441788594407
10:14.5;0.17278169443421762;0.4194644731515929;-0.4606253194272653;0.239;0.03338418043075805
10:14.5;0.030059736069497446;0.6664093278828987;-0.6427398593710049;0.21;0.012875421752089167
10:14.5;-0.11022047988162512;0.9373299492161439;-0.8257216665696724;0.408;0.08530774687541251
10:14.6;-0.24140448320792018;1.2191276766139372;-0.9952562644718989;3.398;0.29290679167762074
10:14.6;-0.3582211319565532;1.4971417466310724;-1.1380833350183894;3.398;0.6103629823414087
10:14.6;-0.4572012060088524;1.75650829711801;-1.2440556714060083;3.398;0.9990733819531459
10:14.6;-0.5368609714190791;1.983611770848201;-1.3073434542357156;4.427;1.3922210836461397
10:14.6;-0.5976188420030397;2.1674037290607386;-1.3262282867732018;4.542;1.7178387082931248
10:14.6;-0.6414190670926712;2.300370524448975;-1.3017309189643833;2.109;1.9207059440430068
10:14.6;-0.6710793020205599;2.378939052714617;-1.2361356893505728;4.625;1.9734371763606913
10:14.6;-0.6895278022816348;2.4032767423816206;-1.132428388185086;2.911;1.8765766729237106
10:14.6;-0.6991966252385885;2.3766367788418643;-0.9946121024999495;2.358;1.6527831497070276
10:14.6;-0.7017278746343;2.3044542835813018;-0.8281104783221723;2.138;1.3391372943460151
10:14.6;-0.6979687861256171;2.1933969966081936;-0.6398114206857479;2.3480000000000003;0.9795017887556089
10:14.6;-0.688168380012023;2.0505521399559394;-0.4378623297813086;2.3480000000000003;0.6178785432890312
10:14.6;-0.6723034747865572;1.8828444268983626;-0.23131561783219404;1.9369999999999998;0.292809221084961
10:14.7;-0.6504598543160224;1.6966884931213422;-0.029511771291524835;1.787;0.032570009750614505
10:14.7;-0.6231825251423811;1.4978482838707188;0.15882295757898496;1.903;0.14825057003962444
10:14.7;-0.591715326487708;1.2914829209315541;0.3265048200123378;1.726;0.24951179618269692
10:14.7;-0.5580727943999734;1.0823501799792947;0.46848363142426047;1.5490000000000002;0.2829782566482731
10:14.7;-0.5249157354251132;0.8751023223332338;0.5819164331901356;1.3619999999999999;0.2673062110058697
10:14.7;-0.49522931483967264;0.6745795872762972;0.6658085300562027;1.099;0.22242771214862098
10:14.7;-0.47183096563939925;0.48600783184651786;0.7204567074874679;0.8340000000000001;0.16521048133088687
10:14.8;-0.45677439464012115;0.31503394973055815;0.7469468518932774;0.9540000000000001;0.10748523495152507
10:14.8;-0.4507732321571126;0.16758613725053695;0.7468720984885606;0.9540000000000001;0.05642121642262996
10:14.8;-0.4528271339283788;0.04960879317111842;0.7222643275290069;0.9540000000000001;0.01622509581686517
10:14.8;-0.4602372638639958;-0.033262970333576065;0.675587254941962;0.591;0.010342469659445255
10:14.8;-0.4691062245657574;-0.07606770823939953;0.6096573542254204;0.743;0.02175491269293943
10:14.8;-0.4752634404943752;-0.07492565756714069;0.5274931528566141;0.9640000000000001;0.018783728284895256
10:14.8;-0.47540952839677286;-0.027463195238156175;0.43219883045458546;1.199;0.005642902331907001
10:14.8;-0.4681825108798556;0.0668096690976507;0.3270017947412768;1.473;0.010228327929670565
10:14.8;-0.45483662605361797;0.20622983471141904;0.2154830688358815;1.5930000000000002;0.020212501958498167
10:14.8;-0.4392846895642086;0.3868630176374913;0.1018820423707342;1.324;0.01731413998842746
10:14.9;-0.42738427237653803;0.602561875866891;-0.008764588231557197;0.909;0.002257104693865
10:14.9;-0.4255692655108689;0.8451774260351663;-0.11083319158158608;0.909;0.03986465263485732
10:14.9;-0.43918810913399786;1.1048397364236056;-0.19866205941655807;0.909;0.09639728272684435
10:14.9;-0.47102232818357176;1.3702385143479563;-0.26729650066741845;1.266;0.17251661906310356
10:14.9;-0.5203438004184764;1.6289420593759867;-0.3132792786998139;1.744;0.2655386186663782
10:14.9;-0.5826877031236043;1.8678782419858921;-0.3353181045391947;1.959;0.36495676534842847
10:14.9;-0.6503944445082259;2.074069835314278;-0.33461379721383266;2.375;0.45138179850599247
10:14.9;-0.7138450857395817;2.2355990268883477;-0.31469552267586265;2.8280000000000003;0.5022135777468041
10:14.9;-0.7631375957089191;2.342660668319518;-0.2808060683010253;3.24;0.5020173470805542
10:14.9;-0.7898046010998684;2.388511998475387;-0.2390586347395422;3.42;0.45097401807634374
10:14.9;-0.7881587790746583;2.37014240576211;-0.19562189074286954;2.8810000000000002;0.36543118832513116
10:14.9;-0.7560011463824143;2.2885496518770987;-0.15608087335049853;2.8810000000000002;0.27004272373489874
10:15.0;-0.6946524190079868;2.1486000976301938;-0.12497306395559275;2.517;0.18652607905121543
10:15.0;-0.6084254373743646;1.9585287602559225;-0.1054409712464614;2.115;0.12564543493593622
10:15.0;-0.5037111384488641;1.7291675055732727;-0.09899274382849545;1.6569999999999998;0.08622277221515945
10:15.0;-0.3878758419725297;1.4730000120661204;-0.10541583629193574;1.291;0.060228401962829754
10:15.0;-0.26819324364998437;1.2031560639868994;-0.12286662369899971;1.025;0.039646396630664806
10:15.0;-0.15101794898249457;0.9324590567072245;-0.14810169525396336;0.726;0.020855392557393337
10:15.0;-0.04132929750268314;0.6726164452380039;-0.17680438936590545;0.42700000000000005;0.004914943701085605
10:15.0;0.057335391723106956;0.4336092847682754;-0.20399951494554794;0.22;0.005071664213165456
10:15.0;0.14263725894703874;0.2233117575016418;-0.2245805039635554;0.373;0.007153467790859059
10:15.0;0.21301853725989608;0.04735400312758893;-0.23394991859986244;0.373;0.0023599184471056515
10:15.1;0.2672592873714063;-0.09078062127165737;-0.22871231542667703;0.47600000000000003;0.005549009997133088
10:15.1;0.3041351279862024;-0.18946629552106012;-0.2073155106278667;0.5770000000000001;0.011946215480978576
10:15.1;0.3222651979119393;-0.24852816839918193;-0.17053429384805557;0.711;0.013658429145754318
10:15.1;0.3201938857262483;-0.2688039615738741;-0.12169532265655442;0.73;0.010474241572943572
10:15.1;0.2967006715906541;-0.2517494919955253;-0.06653683693205886;0.632;0.0049699186893879975
10:15.1;0.2512813793489272;-0.1991492444202844;-0.01262048841222205;0.593;0.0006315607514150042
10:15.1;0.18468721859023368;-0.11297733338023482;0.03168972255134047;0.956;0.0006612209382726759
10:15.1;0.09935055100518639;0.004573314696375187;0.05850288200409911;1.143;2.6581447569021966e-05
10:15.2;-0.0004901240732202657;0.15091762248887036;0.061618722578337046;0.29100000000000004;4.5578358454776e-06
10:15.2;-0.10906760971968538;0.32281938060075943;0.03740438102694266;0.29100000000000004;0.0013169760213610914
10:15.2;-0.21970022835280348;0.5161150588394156;-0.014755620185280672;0.29100000000000004;0.0016731485713394661
10:15.2;-0.32557097076577146;0.7254973902916275;-0.0923480408985468;0.764;0.02181268941723536
10:15.2;-0.42052834112886045;0.9444602860350951;-0.18989283681576238;1.4769999999999999;0.07542017804598315
10:15.2;-0.49981970316815527;1.16549704412742;-0.2994772129893664;1.949;0.17445697249000844
10:15.2;-0.5606601875366141;1.3805441894712802;-0.41179903670216855;3.2680000000000002;0.3187391107977522
10:15.2;-0.6025166942399404;1.5815459107566099;-0.517528998529081;2.74;0.49315742663774903
10:15.2;-0.6269989069475221;1.76101343631822;-0.6083523673717277;2.247;0.6717143954790559
10:15.2;-0.6373248291966204;1.9125299068393091;-0.677189900730316;3.485;0.8254286635652129
10:15.3;-0.637479108636234;2.0311673205654115;-0.7179490345090692;3.0069999999999997;0.9296196028175341
10:15.3;-0.6313245172722272;2.1137601237962818;-0.7256998059074798;3.0069999999999997;0.9684235965965815
10:15.3;-0.6219373941549686;2.1589947145866706;-0.6975963713838623;3.0069999999999997;0.936704187477826
10:15.3;-0.6113193148596909;2.1673031923053814;-0.6339276624915747;2.44;0.8398998268573338
10:15.3;-0.6004882130776061;2.140577354286532;-0.5385536430319124;2.366;0.6922522591221745
10:15.3;-0.5898285579742283;2.0817568392902497;-0.4185443849272863;2.278;0.5139221264164927
10:15.3;-0.5795103696894011;1.9943744951629756;-0.2832372910997858;2.041;0.32735453010828275
10:15.3;-0.5698070900910006;1.8821443779467186;-0.1429366807767928;1.824;0.15329375990727065
10:15.3;-0.5612325049153285;1.7486612128472634;-0.007439048376274914;2.002;0.007300723085975174
10:15.3;-0.5545115154926847;1.5972547168877052;0.11533397669832839;1.989;0.1021508572447144
10:15.4;-0.5504566085254031;1.431007372149623;0.2202288428584218;1.385;0.1734759034944889
10:15.4;-0.5498243230340547;1.2529139294226248;0.30504461327174953;1.385;0.21013991198928667
10:15.4;-0.5531850100101158;1.0661541456359855;0.3700693410677773;1.385;0.21825967794765905
10:15.4;-0.5608001896404072;0.8744410286896783;0.417240266959357;1.284;0.2046090754176738
10:15.4;-0.572494031481795;0.6823657814546632;0.4492139821425331;1.131;0.17548559358555127
10:15.4;-0.5875181066177642;0.4956257158777128;0.46857379181387443;0.877;0.13644357237354687
10:15.4;-0.6044287233850719;0.32104101060973766;0.4773556952449552;0.821;0.09262915809471164
10:15.4;-0.6210242058909548;0.16632767948664398;0.4769618839960842;1.193;0.04926706955278404
10:15.4;-0.6344154033440753;0.03965594425845933;0.46832570698235326;0.775;0.011782298243577311
10:15.4;-0.6412992129278113;-0.05093929662841885;0.4520606392877356;0.58;0.014767614461049449
10:15.5;-0.6384550182968476;-0.09822013747024116;0.4284344658233584;0.843;0.026866756754908717
10:15.5;-0.6234069514653058;-0.09641446878553034;0.3972742656476185;0.843;0.023878348535092395
10:15.5;-0.5951314480034333;-0.041842404106394435;0.35806086824694616;1.315;0.008916335259358555
10:15.5;-0.5546572144637729;0.06654572772741278;0.31035940165072456;1.624;0.011455386611841784
10:15.5;-0.5053859786324156;0.22678110333088122;0.25445582111813914;1.432;0.02916368798528499
10:15.5;-0.45295943487627455;0.433708282641109;0.19187916224651677;1.103;0.03769509480280835
10:15.5;-0.40456442697911926;0.6790733681192044;0.12554107305023507;0.634;0.03448976442532859
10:15.5;-0.36773711601972076;0.9518433080508032;0.05942537889800562;0.7390000000000001;0.02080055324029228
10:15.5;-0.3489291706327351;1.2387117945914699;-0.0020668332325496103;1.0390000000000001;0.0008933321971077421
10:15.5;-0.3522102939207095;1.5247940116344785;-0.05491985433048063;1.459;0.029494606002041502
10:15.6;-0.3784380347874367;1.794555127487338;-0.09622070670525826;2.375;0.06534616799808368
10:15.6;-0.42505700445627187;2.0329591179607394;-0.12459723397071178;2.375;0.10766739951171686
10:15.6;-0.4864840185159515;2.22668516121885;-0.14032001827346544;2.375;0.1520012030810778
10:15.6;-0.5549160525591816;2.36520122874087;-0.1451542332549026;2.747;0.19051320807355876
10:15.6;-0.6214055839343451;2.4415721546005105;-0.14207756205554642;3.2289999999999996;0.21556101066381858
10:15.6;-0.6770726825715839;2.4529560809981863;-0.1349199472737912;3.2710000000000004;0.2240790358553172
10:15.6;-0.7142817750713228;2.4007168853514904;-0.12792892996187422;3.009;0.21937103467284755
10:15.6;-0.7275704274161608;2.2900735731590425;-0.12526002062728614;2.574;0.20870696977389017
10:15.6;-0.7141603061266274;2.1293118763420225;-0.13042436448872702;2.195;0.19833242114434674
10:15.6;-0.6739935551164823;1.9287174952187482;-0.14576730348080444;1.804;0.1894892093181908
10:15.6;-0.6093600156009262;1.699449952609183;-0.17206068919354348;1.266;0.17818206646106377
10:15.6;-0.5242689140267117;1.452554065152111;-0.20826042925107008;1.266;0.1585963444110076
10:15.7;-0.423749429528918;1.1982417596534911;-0.2514493171856138;1.0759999999999998;0.1276744625008404
10:15.7;-0.31322541492167016;0.9454883480262946;-0.29698198944346155;0.853;0.08795150724992849
10:15.7;-0.1980293278569861;0.7019017109858617;-0.33885598105881626;0.665;0.047100006833706354
10:15.7;-0.0830622276160113;0.473784326161029;-0.37032098124984864;0.691;0.014573456931768678
10:15.7;0.02740279340605578;0.26631553449300766;-0.38469050574357955;0.685;0.002807390361468792
10:15.7;0.12976991781670727;0.08379578002258703;-0.3762511590562027;0.634;0.004091419625728809
10:15.7;0.22103708563771443;-0.07010012395823;-0.34112929945014914;0.569;0.005285705401670834
10:15.7;0.2986374631780163;-0.19211058005312903;-0.27800213633790294;0.643;0.01594937628966032
10:15.8;0.3602948307309995;-0.27925945546882924;-0.18858627041036488;0.703;0.01897474681892257
10:15.8;0.40397011841129127;-0.32884294492120614;-0.07784900153700564;0.703;0.010341673378032752
10:15.8;0.4279343019817241;-0.3385401984156871;0.046130452853975754;0.6940000000000001;0.006683055412634218
10:15.8;0.430968906912286;-0.30663909570149145;0.17273500974055905;0.5489999999999999;0.022827262478672963
10:15.8;0.4126774286703949;-0.23235316663936084;0.2898656484294065;1.3219999999999998;0.027794320575522898
10:15.8;0.37385082190530106;-0.11618140246250747;0.3853826135486998;1.564;0.01673890606135554
10:15.8;0.31675493568438595;0.03976412361925832;0.4486239523094574;1.218;0.005650635104309152
10:15.8;0.24516351002397838;0.2315454430564995;0.47161605485579455;0.7190000000000001;0.02677198973594822
10:15.8;0.164017534934872;0.4533609906663633;0.4497865852115091;0.401;0.033445749113404734
10:15.8;0.07873105088956721;0.6976989286686152;0.3823052770187979;0.665;0.021000246726594514
10:15.9;-0.005695288721358759;0.9556536547447357;0.272326220776496;2.3609999999999998;0.0014821963164192411
10:15.9;-0.0855116319064943;1.2173619778397593;0.1272089952353847;2.3609999999999998;0.013242279500304899
10:15.9;-0.1587725500174894;1.4725254061178705;-0.04163278905998877;2.184;0.00973360510089835
10:15.9;-0.2254557750836594;1.7109805798828468;-0.21975969063565967;2.34;0.08477240016782268
10:15.9;-0.28711958339706545;1.9232610477842522;-0.39161270821610045;2.937;0.21625085222274326
10:15.9;-0.3461999609412875;2.1011102314897143;-0.542589566969587;2.439;0.3946819733377611
10:15.9;-0.40513893009463603;2.2379350003380782;-0.6604985163747294;2.487;0.5988572226249761
10:15.9;-0.4655455970502015;2.329178371957324;-0.7362500745634074;2.805;0.7983444750915797
10:15.9;-0.5275434627067254;2.3725721152716712;-0.7642578411379116;3.377;0.9565717936070848
10:15.9;-0.5894282751138923;2.368229144045988;-0.742897188888964;2.964;1.037011091895693
10:16.0;-0.6477453785290957;2.3185394682677174;-0.6748151666297378;2.4619999999999997;1.013453090169403
10:16.0;-0.6978175948677136;2.2278709563429557;-0.5667087660874489;2.4619999999999997;0.8810323961389732
10:16.0;-0.7346286058688204;2.1021313471689096;-0.4285136061184371;2.577;0.6617474860016462
10:16.0;-0.7538806936877507;1.9482524357825999;-0.272205959515483;2.411;0.39980247520983475
10:16.0;-0.7530114276668803;1.7736231840992844;-0.11037659730236134;2.292;0.14741440559822275
10:16.0;-0.731935324747289;1.5854964401081517;0.04530415320351254;2.323;0.052574602298613084
10:16.0;-0.6933005886902421;1.390438067215911;0.18545325571096077;1.7209999999999999;0.17877536781608522
10:16.0;-0.6421618899406275;1.1939273978327365;0.3037852991489592;1.169;0.23291057097117768
10:16.0;-0.5851393614899197;1.0002050436447982;0.3971665408976007;0.9390000000000001;0.23244542783304614
10:16.0;-0.529278440622997;0.8123965482006059;0.46507588196588007;0.857;0.1999751778921545
10:16.1;-0.4808766704619051;0.6328609289789988;0.5088541782483502;0.825;0.15485860305370083
10:16.1;-0.4445004066826928;0.4636676065851651;0.5310640302521252;0.825;0.10945253013993858
10:16.1;-0.4223333863904403;0.30710176520831267;0.5350615556234326;1.002;0.06939712445281868
10:16.1;-0.4139343489895984;0.16610914270095475;0.5246879154734124;0.8390000000000001;0.036076638523484056
10:16.1;-0.4164421777190937;0.044596056166729174;0.5039287742980885;0.616;0.009358803308014396
10:16.1;-0.42522388264774214;-0.0524912096221683;0.476455959849415;0.594;0.01063474285625368
10:16.1;-0.434880903451685;-0.11935324311519459;0.44509165550467805;0.8079999999999999;0.023102235885352984
10:16.1;-0.4404309605725844;-0.1497824250211255;0.4113529608177291;0.9490000000000001;0.027136468329905603
10:16.1;-0.4384277924098194;-0.13780660907916703;0.3752889532141615;1.028;0.02267430082105299
10:16.1;-0.42779846945357763;-0.07845174761117661;0.335766197155811;1.3880000000000001;0.01126882983521514
10:16.1;-0.41023516225383583;0.0314579490847021;0.29117519313084916;1.15;0.0037576615372903947
10:16.1;-0.3900450348358506;0.19255273751441906;0.24031514555766453;1.15;0.01804868617812129
10:16.2;-0.37344434230315826;0.40232033885257895;0.1831326542342613;0.841;0.027514629080362642
10:16.2;-0.36738758661200127;0.654738367565152;0.12107572487896993;0.7170000000000001;0.029123887665901228
10:16.2;-0.3781404129375465;0.9401770311432982;0.056964238936459896;0.622;0.020251865320008906
10:16.2;-0.4098994433113739;1.245588864235006;-0.005591729801964624;0.909;0.0028549481360150663
10:16.2;-0.46377153148312356;1.5550221025905677;-0.06305475818858551;1.1640000000000001;0.045473514102205646
10:16.2;-0.5373308491041193;1.8505317973005313;-0.11282080916268716;1.7819999999999998;0.11218312586016312
10:16.2;-0.6248240902854354;2.1135397477601843;-0.15379542772771537;2.484;0.20310078851755312
10:16.2;-0.7179485699518999;2.3265686894816375;-0.18653145765281126;2.965;0.31157406324427234
10:16.2;-0.8070197939034662;2.4751083794910977;-0.2129521659632253;3.773;0.4253637431224417
10:16.2;-0.8822824394048244;2.5492664371955502;-0.23580689759521564;3.773;0.5303705098556285
10:16.3;-0.9351002276096425;2.5448639684122027;-0.2580215264599318;3.593;0.6140145686118519
10:16.3;-0.9588117863887152;2.4637484414712842;-0.2820523461981988;3.096;0.6662840904233059
10:16.3;-0.9491667447776541;2.313284038242623;-0.30931304043015606;2.528;0.679156255076304
10:16.3;-0.9043909466428863;2.1051763460401203;-0.3397510873549892;2.035;0.6468529202821417
10:16.3;-0.8250046954955041;1.8539176915254745;-0.37165626784884725;1.568;0.5684448426492527
10:16.3;-0.7135296096416458;1.5751689620129485;-0.4017432824354673;1.344;0.4515312047291639
10:16.3;-0.5741885429323925;1.2843365945050222;-0.42548896417919746;1.155;0.3137774143771568
10:16.3;-0.41264845153079793;0.9954950989782274;-0.43767313361656196;0.929;0.17979153257989294
10:16.4;-0.23580800959111478;0.7206960130137825;-0.4330662797908471;0.6609999999999999;0.07359783536533117
10:16.4;-0.05161419754856882;0.4696436339535504;-0.4071959241111759;0.6609999999999999;0.00987054293040123
10:16.4;0.13110911726714983;0.24970430977289773;-0.3571073042141132;0.6609999999999999;0.011691161632931458
10:16.4;0.30286033233159415;0.06619122291448663;-0.28203205187603325;0.585;0.0056538107411548
10:16.4;0.4537707760567842;-0.0771867427715283;-0.18389162405527693;0.612;0.006440820346027351
10:16.4;0.5741237683353596;-0.17785098294179985;-0.06756980773030817;0.75;0.006899450126678531
10:16.4;0.655125576547065;-0.23396829669920172;0.05912129153820091;0.9570000000000001;0.009062029699878417
10:16.4;0.6898718168942471;-0.2442277991915201;0.1858649236533258;1.197;0.0313156143984293
10:16.4;0.6743469555703117;-0.20781771283566963;0.3006998955846748;1.5590000000000002;0.0421404568257774
10:16.4;0.6082165419307572;-0.12460215251996508;0.3912581071920671;1.693;0.029651530993087157
10:16.5;0.4951646675807205;0.004544769462164149;0.44618796914746145;0.784;0.0010041055374537648
10:16.5;0.3426479989526322;0.17731328090515283;0.4565226586966029;0.784;0.02773650931892598
10:16.5;0.16114759689648592;0.38950189749329833;0.4168326228784626;0.784;0.026163456108991998
10:16.5;-0.03687752294401383;0.634596416332748;0.32612118890761893;0.541;0.0076320002170343435
10:16.5;-0.23818579001390192;0.9034890838539387;0.1884622958443866;1.584;0.0405567583687322
10:16.5;-0.43003014707705167;1.184493134079497;0.013272694856766543;2.7960000000000003;0.006760682804023416
10:16.5;-0.6014189482699569;1.4638138136380916;-0.18512379933393525;2.4130000000000003;0.1629765810340475
10:16.5;-0.7441708244717767;1.7265334161429247;-0.38903356594463084;3.81;0.4998442512813812
10:16.5;-0.8535425401050848;1.9579747200395377;-0.5798908940591998;3.423;0.969122195828503
10:16.5;-0.9283031828697873;2.1451771113413383;-0.7408122310065844;3.0989999999999998;1.475234764115192
10:16.5;-0.9702875746826402;2.2782221894359678;-0.8582828727724544;3.095;1.89726062476464
10:16.5;-0.983575564563166;2.3511928360936682;-0.9228662186386843;3.095;2.134198103387058
10:16.6;-0.9735008143948819;2.362607227050111;-0.9294738854470976;3.088;2.1377899919514736
10:16.6;-0.9457105276300074;2.315273324357443;-0.8776345698829305;3.202;1.921649659733697
10:16.6;-0.9054450849119361;2.215637433627952;-0.7717333904327155;2.6660000000000004;1.5482036991113992
10:16.6;-0.8571140184354752;2.0727888492307156;-0.6208968911322847;2.5269999999999997;1.1030955870347106
10:16.6;-0.8041784578597471;1.8973005852077744;-0.43823008699937316;2.08;0.6686375567548324
10:16.6;-0.7492975076212683;1.7000617140218817;-0.23932607067818568;1.653;0.3048659950106434
10:16.6;-0.6946304933316513;1.4912367945526084;-0.040218635389236666;1.9980000000000002;0.04166081734830891
10:16.6;-0.6421439290106674;1.2794794527829971;0.14478355303914528;1.976;0.11895560964080408
10:16.7;-0.5937911672754551;1.071502966045191;0.3047790679902225;1.121;0.19391537629924685
10:16.7;-0.5515082308943167;0.8720522172187647;0.4330360076803372;1.121;0.20826605909691814
10:16.7;-0.51705657075438;0.684241395874398;0.5268267984990447;1.121;0.18638684840140782
10:16.7;-0.4917831963191423;0.5101483201911634;0.5866536206382824;0.9690000000000001;0.14718105159505857
10:16.7;-0.4763478513496337;0.3515074334285499;0.6152301347656111;0.8009999999999999;0.10301401726955244
10:16.7;-0.4704451684753928;0.21032989553514253;0.6165114704722222;0.6990000000000001;0.06100299814420382
10:16.7;-0.47257953076185033;0.08931129327947726;0.5949774233938786;0.97;0.02511202711270605
10:16.7;-0.48000768775501407;-0.008039958758715476;0.5552139490762431;0.442;0.0021427049987100314
10:16.7;-0.4889800383232058;-0.0775400989889716;0.5016705305946704;0.451;0.01902111939156122
10:16.7;-0.49534375443542417;-0.11466588582574229;0.43846184119298914;0.987;0.024904207443033264
10:16.7;-0.495437996359399;-0.11500331553861604;0.369186002136786;1.115;0.021035115357098094
10:16.7;-0.48707341772562524;-0.07474031944657442;0.29679041721285077;1.115;0.010804365125351009
10:16.7;-0.4703154575846113;0.008824057949613832;0.22353556988300996;1.115;0.0009276929237409044
10:16.8;-0.44782504717597876;0.13675373584883316;0.15112528621202953;1.135;0.009255176726058297
10:16.8;-0.4246210302443346;0.30795225417583316;0.08101574139240617;0.9359999999999999;0.010593861669920072
10:16.8;-0.40725443617917695;0.5187065439330227;0.01478331534386738;0.47700000000000004;0.003122909448947344
10:16.8;-0.40251662836014934;0.7623838685426013;-0.04564557345128392;0.562;0.014007356827797008
10:16.8;-0.4159483680011974;1.0293542825492246;-0.09804488443499484;0.716;0.0419787245647145
10:16.8;-0.450516141692429;1.3071970799213803;-0.14023416121022458;1.053;0.08258577455381104
10:16.8;-0.5058052444905206;1.5812633849011475;-0.17060203591133835;1.4780000000000002;0.13644943834337458
10:16.9;-0.5779463706125867;1.8356672921165198;-0.18858085301235245;2.673;0.20006867981663817
10:16.9;-0.6602715054705935;2.054673110044803;-0.19483824505922326;2.673;0.2643257674219764
10:16.9;-0.7444478420105817;2.224252526686002;-0.19111958803205853;2.673;0.31646345741962956
10:16.9;-0.8217245761818531;2.333494679327174;-0.17987842191292922;3.1439999999999997;0.3449150619934633
10:16.9;-0.8840244470197843;2.375654922270301;-0.16388423827826468;3.2289999999999996;0.3441793572726987
10:16.9;-0.924768701400141;2.3487551983426704;-0.14591965600502022;3.1910000000000003;0.31694556142332314
10:16.9;-0.9394004677768524;2.2556811085938357;-0.12857298180813614;2.847;0.2724445912485732
10:16.9;-0.9255975831772602;2.1037480773164243;-0.11405543980941524;2.501;0.22209150523646684
10:16.9;-0.8831933033388037;1.9037951122204753;-0.10398101889403473;2.08;0.17483567058640007
10:16.9;-0.8138589329700163;1.6689509289302324;-0.09912313468060384;1.5590000000000002;0.13463802427958077
10:16.9;-0.7206528945043784;1.4132564732453214;-0.09921160560375687;0.925;0.10104378284634573
10:16.9;-0.6075821160933633;1.1503412441849503;-0.10283266112044545;0.925;0.07187249941710794
10:16.9;-0.47929623833717355;0.8923480013065184;-0.10749061141709752;0.762;0.04597363134584797
10:17.0;-0.3409398107307914;0.6492428166435961;-0.10988719715848982;0.575;0.02432383031659408
10:17.0;-0.19809538389913475;0.42854117570426675;-0.10644190899678571;0.47200000000000003;0.00903606959532442
10:17.0;-0.05671872173822538;0.23539707774482665;-0.09401068581896858;0.42;0.0012551762778279475
10:17.0;0.07701175052903869;0.07296704871617071;-0.0706925841787647;0.429;0.0003972442629129803
10:17.0;0.19696717592456303;-0.057054683347977045;-0.03657576299130512;0.6409999999999999;0.0004110347615185242
10:17.0;0.2974526033617935;-0.15384110149373567;0.005734967874025397;0.8340000000000001;0.0002624346311835464
10:17.0;0.3736554929953298;-0.21688282377151658;0.05097082626775592;0.875;0.004130648156905136
10:17.0;0.4220919787757255;-0.24557335869944966;0.09157635643026159;0.774;0.009492305550116301
10:17.0;0.44098583926867513;-0.23899312549134286;0.11864043422400883;0.774;0.012503821932626601
10:17.0;0.43052232458395445;-0.1959208591929618;0.12319879812556618;0.774;0.010391609643988515
10:17.1;0.3929286234948859;-0.11506618392031603;0.09759129982947011;0.7909999999999999;0.004412375653394946
10:17.1;0.3323489570358286;0.004506702469034192;0.036621531167516354;0.589;5.485165120505008e-05
10:17.1;0.25449967632557435;0.16281306703589735;-0.061577027994156805;0.419;0.002551497903198622
10:17.1;0.16610712386540671;0.35831217611608523;-0.1949604305527088;0.27899999999999997;0.011603694876540182
10:17.1;0.0741579136248455;0.5873017600415572;-0.35725444641821025;0.475;0.015559529053334686
10:17.1;-0.014967765381298462;0.8434628642246934;-0.5379463700797678;0.9740000000000001;0.006791440727075736
10:17.1;-0.09636065343399504;1.117690529960185;-0.7228070653343345;1.9369999999999998;0.07784732549662349
10:17.1;-0.16728686680908464;1.3983411579335547;-0.8952976425704428;3.787;0.20943170515529688
10:17.1;-0.22756518590633762;1.6719455590955878;-1.038981568416737;3.787;0.3953081766719477
10:17.1;-0.2794761249540087;1.9242766869358148;-1.1403411447574108;3.787;0.6132633706883471
10:17.2;-0.32712905291463307;2.1415700952048544;-1.1908368165007128;3.557;0.834264306789677
10:17.2;-0.3753471119450123;2.311747457398731;-1.1873932107615734;3.4810000000000003;1.0303102695231532
10:17.2;-0.42831656634335163;2.4255524898096468;-1.1315507699968288;3.175;1.1755729763701483
10:17.2;-0.4883758093489296;2.47748389012154;-1.0283197469519816;4.5969999999999995;1.2442084852369455
10:17.2;-0.5552840085504974;2.4663544870240517;-0.8855082111922148;3.073;1.2127275864183438
10:17.2;-0.6261461420431232;2.3953003330473925;-0.7133476785383557;2.53;1.0698845996890114
10:17.2;-0.6959827802429867;2.271187057351049;-0.5238536667262469;2.546;0.8280592012543395
10:17.3;-0.7587756204170256;2.103564224369482;-0.3297826283383643;2.137;0.5263770181762731
10:17.3;-0.8087163915374362;1.9034298708303456;-0.1434139098870407;2.137;0.22076204189535548
10:17.3;-0.8413544630668984;1.6820453680172691;0.02464137001364552;2.021;0.034872377579020106
10:17.3;-0.8543919922398392;1.4499691100628909;0.1664711512587963;1.98;0.20623145340721807
10:17.3;-0.8480004629624747;1.2164027100674537;0.27755183320337534;1.7080000000000002;0.286297508477658
10:17.3;-0.8246621578209098;0.988878503870452;0.3568911343085303;1.456;0.2910413940974985
10:17.3;-0.788617369312477;0.7732636565668012;0.40654024847670045;1.0759999999999998;0.24791196361912696
10:17.3;-0.7450306720102304;0.5740108963970711;0.4306115292916986;0.8190000000000001;0.1841534852719966
10:17.3;-0.6990130583077362;0.39456212215157926;0.434112115391391;0.617;0.11972989073463772
10:17.3;-0.6546634101951431;0.2378113534548576;0.4219340077598815;0.523;0.06568938317660117
10:17.4;-0.6143075078408504;0.10654020827493885;0.39821536895160403;0.53;0.02606257859645273
10:17.4;-0.5781013023938901;0.0037447250041623857;0.3660799774443559;0.53;0.000792501064739863
10:17.4;-0.5441219575652276;-0.06721860838169208;0.3276170870423423;0.344;0.01198263452733222
10:17.4;-0.5089859017225433;-0.10272297754492073;0.2839755063428023;0.5760000000000001;0.014847530808564987
10:17.4;-0.46890941648769774;-0.09921732738827595;0.23555004597013146;0.935;0.010958715991621461
10:17.4;-0.4209989717985676;-0.053786098167721695;0.18229330741432487;1.178;0.004127829970091813
10:17.4;-0.36447476319787225;0.0351839371830791;0.12414535649103212;1.2590000000000001;0.0015919974912821653
10:17.4;-0.30151813184346443;0.16736412861781488;0.0615157941093991;1.324;0.003104291166192071
10:17.4;-0.23748833542614628;0.3399936685002639;-0.004280511794273162;1.2109999999999999;0.000345627914646984
10:17.4;-0.1803620424563539;0.5476340576652223;-0.07078121851468801;0.858;0.006991230626542067
10:17.5;-0.13941121462615186;0.7822285124587891;-0.1345087883382082;1.3880000000000001;0.014668375317311192
10:17.5;-0.12335980517595334;1.0334583715171848;-0.19154724238925974;1.3880000000000001;0.02441982607596912
10:17.5;-0.13847101334078576;1.2893101120121344;-0.23837756804690538;1.3880000000000001;0.04255804250545547
10:17.5;-0.18705533933048754;1.5367673273240894;-0.2726221692906152;1.617;0.07836811433306186
10:17.5;-0.26672657169622616;1.7626282402239144;-0.2934411920272689;1.973;0.1379583797191646
10:17.5;-0.3705229222609105;1.9544839162122583;-0.3015331722926024;2.381;0.21836462202938056
10:17.5;-0.48784529144370314;2.1017982515162057;-0.2988359938960248;2.64;0.30641219774033146
10:17.5;-0.6060105994233399;2.1969084362030675;-0.28808487234477437;3.033;0.38354173668996133
10:17.5;-0.7120896933661512;2.2357314668792387;-0.27237437709822476;3.1430000000000002;0.43363126685329173
10:17.5;-0.7946614386739932;2.218020578434193;-0.2547903751777961;2.9419999999999997;0.44908725352624573
10:17.6;-0.8451752080994916;2.1471219016617566;-0.23809983615830027;2.344;0.4320783917097874
10:17.6;-0.8587377818451304;2.0293158970564678;-0.22448190593545395;2.344;0.3911934454809682
10:17.6;-0.8342887542233731;1.872936887910625;-0.21531734923073267;2.011;0.3364484697806269
10:17.6;-0.7742536099879438;1.6874688806652682;-0.21106025945041432;1.6640000000000001;0.2757563228298643
10:17.6;-0.6838368478994418;1.4827347222498437;-0.21119742204134337;1.3769999999999998;0.21414333858303203
10:17.6;-0.5701421599240285;1.2682271729107897;-0.21429753791653783;1.1740000000000002;0.15495207351821308
10:17.6;-0.44128687530675026;1.0526075870957028;-0.2181631491943226;1.0090000000000001;0.10133720015420641
10:17.6;-0.3056238210452843;0.843380311064034;-0.22008461841839985;0.8059999999999999;0.056728375916840636
10:17.6;-0.17112392246175018;0.6467251852472913;-0.21716210972499267;0.574;0.02403336335624216
10:17.6;-0.04492879134238872;0.467458907843804;-0.20665265201220684;0.41600000000000004;0.004340194163671533
10:17.7;0.06694035671164218;0.3091051734500819;-0.1863228660495959;0.39299999999999996;0.003855320184987438
10:17.7;0.15973650494878705;0.17406740029391576;-0.15480275427121543;0.39299999999999996;0.004304277911669103
10:17.7;0.23002527459489322;0.06389790783309904;-0.11191549143012021;0.39299999999999996;0.0016449488668120052
10:17.7;0.2756447073560819;-0.020365629176574283;-0.058927033908275736;0.366;0.00033079738763929824
10:17.7;0.2956432004105441;-0.0778592777752757;0.0013488098172028643;0.36;3.10476678838906e-05
10:17.7;0.29025453955692915;-0.10762587350525024;0.06464062844529721;0.36700000000000005;0.0020193020218437553
10:17.7;0.2609355833782396;-0.10848593032555606;0.12552815567637052;0.521;0.0035534308858558806
10:17.7;0.2104305041373343;-0.07907863949241158;0.1779430638847501;0.5379999999999999;0.0029610718708024367
10:17.7;0.14277283175069444;-0.01807076213502919;0.21578006997849045;0.44299999999999995;0.0005567155759843063
10:17.7;0.06313093522835865;0.07549643282066425;0.23352170707944253;0.457;0.0011130019152448727
10:17.8;-0.0225555570556056;0.2017672222619927;0.22681465845731086;0.33399999999999996;0.0010322271810771072
10:17.8;-0.10813814300643013;0.3595892625962569;0.19297632075975005;0.33399999999999996;0.007503945040008181
10:17.8;-0.18795267379912642;0.5460485514155521;0.13142997976809412;0.439;0.013488827745649207
10:17.8;-0.25754270724455;0.7561052706554136;0.044065113146210345;1.128;0.008580772971911899
10:17.8;-0.3142971486046534;0.982455876533087;-0.06455334918742954;2.13;0.01993298202670643
10:17.8;-0.3578596102459557;1.2157672679281069;-0.18738120042789297;2.0;0.08152468851686458
10:17.8;-0.39014547527129495;1.445342087916665;-0.31577998977062544;4.521;0.17806633918211356
10:17.8;-0.41486221283714525;1.6600786133089194;-0.44087405688385056;2.416;0.30363167665378926
10:17.8;-0.43659874553285033;1.8494670143337801;-0.5545401539847991;3.735;0.4477772988400211
10:17.8;-0.45972715753258875;2.00444064438309;-0.6495106216443568;2.3209999999999997;0.5985213098259887
10:17.9;-0.4874110795293764;2.1180386770889297;-0.7191428356860483;2.924;0.7424110747117054
10:17.9;-0.5209392036291292;2.1858694603628863;-0.757675200367828;2.924;0.8627686117100499
10:17.9;-0.559489445401381;2.2063241460834444;-0.7609773021735786;2.384;0.9393618519134175
10:17.9;-0.6003351476508778;2.1804968993985216;-0.727260880647471;2.4;0.9520055310086162
10:17.9;-0.6394350555324707;2.111846843671435;-0.6574716506327389;2.503;0.8878424215506414
10:17.9;-0.6722828625075007;2.005703208881928;-0.5554101906069442;2.5340000000000003;0.7489150424784029
10:17.9;-0.6948300376891307;1.868709256553643;-0.4276095073587036;2.354;0.5552232888740978
10:17.9;-0.7042798402339894;1.708257273937672;-0.28286510990030944;2.025;0.340312513184262
10:17.9;-0.6995978690683323;1.531937762948611;-0.13133664035932327;1.79;0.14075878275155163
10:17.9;-0.6816607829255033;1.3470225032389076;0.01668573296430469;1.692;0.015321047147452025
10:18.0;-0.6530433315208763;1.160014123190731;0.15207820534693023;1.242;0.11520524575664362
10:18.0;-0.6175233223244864;0.9763158712524223;0.2679070607609936;1.242;0.1615205830170193
10:18.0;-0.5794435798119314;0.8000885468262969;0.35993274060713093;0.9570000000000001;0.16686703995659846
10:18.0;-0.5430664256227657;0.6343356842195393;0.42654573429928844;0.8340000000000001;0.14693920985019174
10:18.0;-0.5119948822763647;0.4811912902957741;0.46828498477952146;0.7;0.11537019069822865
10:18.0;-0.4886833097896888;0.34232515902734967;0.4871964677039789;0.55;0.08150241098181302
10:18.0;-0.4740632690771289;0.21936585287212107;0.4862681619463255;0.759;0.0505686276054607
10:18.0;-0.4673472167366652;0.1142622295075863;0.46904431855702516;0.903;0.02504702990308029
10:18.0;-0.4660996254113118;0.029531593805855176;0.4393497596788534;0.5870000000000001;0.00604750217664458
10:18.0;-0.46664824751112943;-0.031647719873764094;0.400971985949253;0.519;0.005921695838352015
10:18.1;-0.4648307737988762;-0.06554078516066839;0.35723340760342676;0.858;0.010883249325643331
10:18.1;-0.45695401918827033;-0.06817353966299065;0.31055344088130765;0.904;0.00967441450095412
10:18.1;-0.4407483970206007;-0.03582939787766607;0.26219500570945503;0.904;0.004140517897718234
10:18.1;-0.4160928661276229;0.034339886791106146;0.2123514068324483;1.004;0.0030342004718025796
10:18.1;-0.38535396544647776;0.14365561203389798;0.16059170763297106;1.227;0.008890077465790097
10:18.1;-0.35325591728787903;0.2912860712968096;0.10650658598534431;1.04;0.010959370953122487
10:18.1;-0.3262498331638116;0.4737705469182;0.050275444229667295;0.596;0.007770952837515866
10:18.1;-0.31142327040421636;0.6848206146079336;-0.0070949268619481445;0.405;0.001513128492172234
10:18.1;-0.3151157272941216;0.9154756996185074;-0.0639362357239137;0.927;0.01844437584914748
10:18.1;-0.34153919978498;1.154621046608858;-0.11835812548365249;1.255;0.04667433129398228
10:18.2;-0.39175932185891693;1.3898336938722544;-0.16870465895995268;1.996;0.09185636423427898
10:18.2;-0.4632952796382402;1.6084653736242973;-0.21380475380500527;1.996;0.15932610844913067
10:18.2;-0.55037614104693;1.7987725388900098;-0.2529683960537134;1.996;0.25043908865572595
10:18.2;-0.6447167819982959;1.9508720667979573;-0.2858441080364689;2.2840000000000003;0.35952327417498375
10:18.2;-0.7366453255639961;2.057409327052263;-0.3122787466259877;2.58;0.47328372370598193
10:18.2;-0.8164175689947076;2.1139472394408867;-0.3322467857174574;2.735;0.573412655683956
10:18.2;-0.875508918740194;2.1191073566156775;-0.34583784062551987;2.739;0.6416320432434883
10:18.2;-0.9076522824606484;2.0744738347022436;-0.3532568030138605;2.657;0.6651475562019904
10:18.2;-0.9094425802340858;1.9842807525732251;-0.35481046400271476;2.472;0.6402872050197582
10:18.2;-0.8804282529926291;1.8549270531751445;-0.35088617438733294;2.147;0.5730428028405148
10:18.3;-0.8227363983977084;1.6943727153225923;-0.3419206520797306;1.615;0.47664494727409756
10:18.3;-0.7404000757168634;1.5114759001580282;-0.3283357884926685;1.615;0.3674395535135963
10:18.3;-0.6386073696976404;1.3153402873731594;-0.3104339243667788;1.3330000000000002;0.26076015075844433
10:18.3;-0.5230430738761775;1.1147297933056919;-0.28827892985348;1.037;0.16808151944259772
10:18.3;-0.3994049498326598;0.9175774375820468;-0.2615987921336602;0.769;0.09587202559833011
10:18.3;-0.2731208203479633;0.7306058037337176;-0.22973634496002912;0.523;0.04584243029662762
10:18.3;-0.14926662247989622;0.5590916793373917;-0.1916745575271669;0.415;0.01599595612604865
10:18.3;-0.032644671426137896;0.40681303302514066;-0.146170832143444;0.395;0.0019411892563877876
10:18.3;0.07207278188320713;0.27619390105351027;-0.09202223160136712;0.41600000000000004;0.001831800320158054
10:18.3;0.16025703481453443;0.1686186129208059;-0.028430783130478077;0.48;0.0007682656889320503
10:18.4;0.22739828796843323;0.08484286967276068;0.04462548974627001;0.295;0.0008609650764401207
10:18.4;0.26939830708757145;0.025407868511615677;0.12611772987340208;0.295;0.0008632552739959947
10:18.4;0.2830733328085063;-0.00903093897681918;0.2138176862748433;0.652;0.000546607380747862
10:18.4;0.2667938531611659;-0.017525648294598434;0.30422305882666884;0.81;0.0014224664762655802
10:18.4;0.22111814902803745;0.0011605391664641497;0.39249722771959844;0.736;0.00010072117549025189
10:18.4;0.1492281017466975;0.04837375211547573;0.47244313165588936;0.617;0.003410436196373408
10:18.4;0.05699677240916959;0.12524948706769443;0.5366290053254226;0.562;0.0038308960022979846
10:18.4;-0.04739707835286805;0.2323075109190718;0.5768030269529306;0.503;0.006351003529766858
10:18.4;-0.15430420993955632;0.3690276672758261;0.5846518564678512;0.302;0.03329155157626474
10:18.4;-0.2538267349686339;0.5334747978996192;0.5528786887542518;0.363;0.07486539509887714
10:18.5;-0.337302827944587;0.7220372861951354;0.4765574731743329;2.863;0.11606329393922502
10:18.5;-0.39882050988982626;0.9293311135231743;0.3546010050160196;2.863;0.13142800750789313
10:18.5;-0.436388311444908;1.1483012079735595;0.19085251224309308;2.863;0.09563719112331057
10:18.5;-0.45236118965088007;1.3705393099487737;-0.005892230589255259;2.681;0.003653058007105563
10:18.5;-0.45289659524622583;1.5868082824813494;-0.22319086505764174;4.895;0.16039836235847058
10:18.5;-0.44653258049985456;1.7876915157309778;-0.44687507711712393;2.533;0.35672361877520276
10:18.5;-0.44228661245735634;1.9642515640374498;-0.6624135403403211;3.4130000000000003;0.5754798249237406
10:18.5;-0.4477968824766993;2.108653626195382;-0.8554319050159503;3.305;0.807740310300731
10:18.5;-0.4679029216871024;2.2147775960248723;-1.0122760717467343;4.2;1.0490226123658133
10:18.5;-0.5038511992794614;2.2787559343166675;-1.1212670992414997;2.924;1.287387204564075
10:18.6;-0.5531798101376015;2.299242296780146;-1.1741759526466957;2.679;1.4934278389738205
10:18.6;-0.6102494672279059;2.2772929546837406;-1.167171541893901;2.679;1.6220379146286292
10:18.6;-0.6672789723760576;2.215966296345693;-1.101089203524859;2.679;1.6281450544352303
10:18.6;-0.7156743981524524;2.119828583211015;-0.9812419215293059;2.823;1.488649032468429
10:18.6;-0.7474539869575473;1.994469694468466;-0.8169034440477406;2.728;1.2178186803875508
10:18.6;-0.7565728503760063;1.8460513472956654;-0.6204421193448855;2.395;0.8665543403091028
10:18.6;-0.7399080857216269;1.6808912827677398;-0.4061023335622426;2.149;0.505071523611855
10:18.6;-0.697683546406644;1.5050917179560421;-0.18856440961155782;1.8030000000000002;0.1980072867230139
10:18.6;-0.6332483852734494;1.3242245830950996;0.018486474226529846;1.492;0.015502074746964224
10:18.6;-0.5523098438345225;1.143086802545043;0.20355682625519886;1.297;0.12851317858711409
10:18.7;-0.46187645552612544;0.9655415691994181;0.3581405961068901;0.917;0.15971670888574185
10:18.7;-0.3692193614381234;0.7944718784860625;0.4770330969837198;0.917;0.1399302171193661
10:18.7;-0.28106853065721726;0.631876979978929;0.5582013296227398;0.935;0.09913696603872771
10:18.7;-0.20309354330472892;0.4791149772400328;0.602344307619314;0.7929999999999999;0.05861120825100989
10:18.7;-0.13959478386123836;0.33724103452477183;0.6122955055566469;0.585;0.028825090207544975
10:18.7;-0.09330203533621965;0.2073527894929955;0.5924069836952089;0.457;0.01146096456160316
10:18.7;-0.06521934322857417;0.0908592099007065;0.5480459439433211;0.778;0.0032475985954115816
10:18.7;-0.054529666305046305;-0.010375870093793392;0.48526981039345446;1.087;0.00027456213267207645
10:18.7;-0.05864309735560893;-0.09402311927204836;0.4105970327874262;0.848;0.0022639527677560086
10:18.7;-0.07349301861655406;-0.1573854996652728;0.3306681518766077;0.5529999999999999;0.00382475103677067
10:18.8;-0.09412545291185462;-0.197564102812165;0.25163662907954726;0.784;0.004679387108557697
10:18.8;-0.11550801663049722;-0.21165747493543557;0.17834897676176387;0.784;0.00436029988502693
10:18.8;-0.1333789727826902;-0.19698449252461733;0.11361550460121324;0.784;0.002985087102261244
10:18.8;-0.1449418663710572;-0.1513434779572329;0.05793681834957933;0.523;0.0012709024041033675
10:18.8;-0.14928857977577445;-0.07332079030295276;0.00987663132049308;0.56;0.00010810917830550964
10:18.8;-0.14752098122010068;0.03736013924855989;-0.033012273629229;0.8540000000000001;0.00018194399014955835
10:18.8;-0.14257798437043517;0.1794931296052879;-0.07303369277910145;0.7440000000000001;0.0018690613676119966
10:18.8;-0.13878091658911815;0.35011882985248766;-0.11137111971687647;0.41200000000000003;0.005411501782864
10:18.8;-0.1411304969402069;0.5444002554151176;-0.14758836456538527;0.341;0.011339432270926616
10:18.8;-0.1544338921810543;0.7556901391826402;-0.17969129753697283;0.439;0.020970723641264163
10:18.9;-0.1823872030532889;0.9758114356650855;-0.20465297398894583;1.3419999999999999;0.036423219149729805
10:18.9;-0.22676529468306217;1.1955362701644494;-0.21921646952674564;1.3419999999999999;0.05943092969583703
10:18.9;-0.28687323708531653;1.4051927332400256;-0.2207607927038626;1.3419999999999999;0.08899136619648726
10:18.9;-0.35939138691255473;1.5953168963526159;-0.20803102413397212;1.8019999999999998;0.11927316307935933
10:18.9;-0.43869432065113473;1.7573217905063834;-0.18158558501432237;2.181;0.1399892464688295
10:18.9;-0.5176387316923953;1.8841715518925917;-0.14386545860054795;2.388;0.14031488388650035
10:18.9;-0.5887038289399101;1.9709791642408858;-0.09885868457825563;2.513;0.11470800356280567
10:18.9;-0.6452625995493093;2.015395772852942;-0.051450529009242546;2.614;0.06690933002818428
10:18.9;-0.6827096273037164;2.017704247760166;-0.006647590691306596;2.6260000000000003;0.009157096827275083
10:18.9;-0.699191110567673;1.98061609720794;0.031137328494030718;2.435;0.04311988073128164
10:19.0;-0.6957719302306516;1.9088316375949648;0.058618829714491026;1.91;0.07785234027617073
10:19.0;-0.6760245122109368;1.8084548326167753;0.07392995358944426;1.91;0.09038378898416494
10:19.0;-0.6451844032143134;1.6863653332435544;0.07665454522073137;1.6740000000000002;0.08340141851877526
10:19.0;-0.6090997177925751;1.5496290695698165;0.06763024086599852;1.47;0.06383473902470785
10:19.0;-0.5731872388850201;1.4049860874487399;0.04859367642216946;1.314;0.03913346416793286
10:19.0;-0.5415627190209971;1.2584272374736032;0.021770470996772245;1.1640000000000001;0.014836952100019979
10:19.0;-0.5164703651354724;1.1148685459571226;-0.010479985368505492;1.013;0.006034339576525098
10:19.0;-0.4980797879091782;0.9779344525814525;-0.045884599463023625;0.89;0.02234990132106558
10:19.0;-0.48465108364970266;0.8498599169822456;-0.0823209139383424;0.8190000000000001;0.03390679324419049
10:19.0;-0.4730117421164199;0.731518198852003;-0.1177673413812677;0.804;0.04074946655327585
10:19.1;-0.4592491184036587;0.6225753823426472;-0.15021898959567564;0.877;0.04295019221313725
10:19.1;-0.4394942080206739;0.5217649197864708;-0.17764819738979887;0.88;0.040736980722216924
10:19.1;-0.4106585421347511;0.42726590947514986;-0.1980540120801427;0.88;0.03475063528775385
10:19.1;-0.37099894332122085;0.33715410948026403;-0.20960294780000638;0.8290000000000001;0.02621793704899199
10:19.1;-0.3204267143340651;0.24987720980927958;-0.21083949379922934;0.7070000000000001;0.0168813560283399
