Time;AccX;AccY;AccZ;Acc-old;Acc-trns
05:47.3;-0.005599449002184242;-0.3880313029472267;-0.4486004161129945;0.58;0.00097470170947219
05:47.3;-0.0022112134191291334;-0.43268693515088047;-0.5017016575685018;0.58;0.00048000966191160397
05:47.3;-0.0003969161312366152;-0.4745616672144528;-0.5575265442639616;0.6629999999999999;0.00010501635830746512
05:47.3;-0.0019905750308060457;-0.5117507143431822;-0.6180578919334793;0.6759999999999999;0.000629602097122896
05:47.4;-0.008282669777737672;-0.5423836806124555;-0.6844813481896802;0.667;0.003074953686181559
05:47.4;-0.01985122579999552;-0.5647537133354319;-0.7569365838718721;0.797;0.008486056526395112
05:47.4;-0.0364819392288175;-0.5774905800721386;-0.8344076249503845;0.986;0.017579280023109427
05:47.4;-0.057201345622333546;-0.579760534680318;-0.9147846316007089;1.129;0.030337078410989062
05:47.4;-0.08044155775305632;-0.571452248488123;-0.9950911589356265;1.188;0.04574285694497921
05:47.4;-0.10433437209701821;-0.5532974278481173;-1.0718348224601042;1.307;0.06187481601801763
05:47.4;-0.12708704258771247;-0.5268882526105733;-1.1414267390377721;1.5390000000000001;0.07643069897187015
05:47.4;-0.1473432229304791;-0.4945809892097997;-1.200609976480215;1.5390000000000001;0.08749223925215838
05:47.4;-0.16442108962788635;-0.4592953347846638;-1.246824638719834;1.58;0.09415750283466154
05:47.4;-0.1783627838279477;-0.42422067705783373;-1.2784398097746186;1.516;0.09673337949861831
05:47.5;-0.18979950158244047;-0.39244121954762384;-1.2948148265784307;1.354;0.09644447382266734
05:47.5;-0.19969622073792465;-0.3665205479493629;-1.2961954562556226;1.222;0.09487213363419272
05:47.5;-0.20906534424638348;-0.34813159880048816;-1.2834914429831792;1.151;0.09341539834417559
05:47.5;-0.2187261999605964;-0.337831748533267;-1.258013632084785;1.1909999999999998;0.09295796677600066
05:47.5;-0.2291537004622746;-0.33504193253562775;-1.2212506430485413;1.205;0.09376285984776789
05:47.5;-0.2404287310037489;-0.338220363619691;-1.1747313326118678;1.1840000000000002;0.09552667660315924
05:47.5;-0.2522861215689095;-0.3451660958228273;-1.11997927126515;1.169;0.09752848441469891
05:47.5;-0.2642436718666576;-0.35336881460517927;-1.05854695150685;1.169;0.09884232238963014
05:47.5;-0.27577709548775436;-0.3603386292254241;-0.9921141673321602;1.219;0.09858950060169379
05:47.5;-0.28649085352164894;-0.36388198960159945;-0.9226242107085636;1.2309999999999999;0.09618252381899278
05:47.6;-0.29623815265804665;-0.362314015420018;-0.8524080727018694;1.225;0.091490010834746
05:47.6;-0.30516073872617566;-0.3546098631689807;-0.78422701673736;1.113;0.08486356428249126
05:47.6;-0.3136389051199782;-0.34050630337443416;-0.7211709948836618;0.769;0.0770181950052087
05:47.6;-0.3221658927486194;-0.3205604173489348;-0.6664039324382465;0.875;0.06882195517176812
05:47.6;-0.3311958211667152;-0.2961351352765448;-0.6228300399697255;0.772;0.061086372664434015
05:47.6;-0.34103821730544825;-0.26924629071479184;-0.5927951189344222;0.679;0.054432389225448755
05:47.6;-0.35184229001367895;-0.24225504283684743;-0.5778904379359544;0.647;0.04925682031971323
05:47.6;-0.3636469959372547;-0.21749828262329998;-0.5788572776221975;0.647;0.04578332543591372
05:47.6;-0.37644249183545153;-0.19698045676338868;-0.5955678174499367;0.789;0.044162434016129015
05:47.6;-0.39020846542989546;-0.18217906262760963;-0.6270647065266194;0.757;0.044576658258712334
05:47.7;-0.4049124926702232;-0.17395627548486434;-0.6716450037315503;0.648;0.04730870555342248
05:47.7;-0.4204589798648137;-0.17256162754931917;-0.7269835701236883;0.9009999999999999;0.05274635536599858
05:47.7;-0.43660565869474294;-0.17770788649649932;-0.7902991267981906;0.9890000000000001;0.06131794111328819
05:47.7;-0.4528940218053177;-0.188694727353426;-0.8585446900915967;0.9890000000000001;0.07337012509632183
05:47.7;-0.46863822457932014;-0.2045575197038617;-0.9285751427035476;1.127;0.08901643798951585
05:47.7;-0.4829854491465015;-0.22422231073908053;-0.9972551577520433;1.19;0.10799885771346401
05:47.7;-0.4950168092441157;-0.24665107122559063;-1.061508265798549;1.284;0.12960636571509435
05:47.7;-0.5038246544504341;-0.2709693808591763;-1.1183293558444545;1.284;0.15267550313727857
05:47.7;-0.508511764184224;-0.29656915320446603;-1.1647839109699625;1.123;0.1756597841932626
05:47.7;-0.5081138274602411;-0.32316846220054785;-1.198023056208964;1.153;0.19672301033955364
05:47.8;-0.501513037727324;-0.3508039998244568;-1.2153609390597302;1.252;0.21382182822465778
05:47.8;-0.4874431827325191;-0.3797373753970495;-1.214458506682984;1.462;0.22479674913543093
05:47.8;-0.46465218384185675;-0.41028199718894276;-1.1936083690940167;1.52;0.22754762072641624
05:47.8;-0.43219705904798167;-0.44259627183983513;-1.1520497376542007;1.5430000000000001;0.22037421996060075
05:47.8;-0.38976200443490744;-0.4765084344581398;-1.0902144910584939;1.607;0.20247995830019888
05:47.8;-0.33786499850695595;-0.5114303984515562;-1.0098227064026104;1.287;0.17449173977109234
05:47.8;-0.2778580248405241;-0.546399788438467;-0.9137865180411494;1.044;0.13873250014845345
05:47.8;-0.21171840337737396;-0.58024843007528;-0.8059421943248689;1.044;0.0990094111842197
05:47.8;-0.14172973696064947;-0.6118322543780673;-0.6906925922081156;0.9490000000000001;0.05989328690092174
05:47.8;-0.07018685663757276;-0.6402281782435175;-0.5726573999883158;0.785;0.0257327057880243
05:47.9;0.0007856918948595905;-0.6648382218076495;-0.4563982302566036;0.7759999999999999;0.00023840326779509436
05:47.9;0.06928332906298218;-0.6853986889582956;-0.3462527637556918;0.7559999999999999;0.016442402122998273
05:47.9;0.1335752564510696;-0.7019260744294517;-0.24628351222746633;0.778;0.02309153112259827
05:47.9;0.19201824669253575;-0.7146336497696001;-0.16031374788409247;0.759;0.021998685404917003
05:47.9;0.24297365866941734;-0.723842954886531;-0.09199538074683167;0.737;0.01617966652658594
05:47.9;0.28475479602480147;-0.7299116003269382;-0.04483999163328205;0.7140000000000001;0.009319805227419332
05:47.9;0.31562645833197406;-0.7331981212343015;-0.022154668086832967;0.8320000000000001;0.005126960760050391
05:47.9;0.33387080075867864;-0.7340705785963438;-0.026860375176429245;0.8320000000000001;0.006583067848562456
05:47.9;0.33791824710821283;-0.7329406383282273;-0.061212872202388774;0.902;0.015160837873237873
05:47.9;0.3265242111010873;-0.7302877259141201;-0.12647841231278914;0.905;0.03015961515598254
05:48.0;0.29895860744986796;-0.7266395983099007;-0.22263353582512257;0.828;0.04836383231703725
05:48.0;0.2551761943597076;-0.722492228005962;-0.34815351931235167;0.7859999999999999;0.0641865636374849
05:48.0;0.19595244702789388;-0.7181765701433799;-0.4999241840755691;0.8290000000000001;0.07035355870083812
05:48.0;0.12298318239225896;-0.7137055649591175;-0.6732716127036852;0.872;0.059095595537885244
05:48.0;0.03893831087863386;-0.7086505440371811;-0.8620828130673621;0.961;0.0237880158873101
05:48.0;-0.05256159355079387;-0.7020948088725392;-1.0590024656675328;1.04;0.03908060306586376
05:48.0;-0.14708878329646463;-0.6926934400522077;-1.255719617488178;1.4869999999999999;0.12794205127513952
05:48.0;-0.239700030982823;-0.6788378719980868;-1.4433670279004018;1.4869999999999999;0.23486101511253524
05:48.0;-0.32536637605927693;-0.658896057741469;-1.6130302733600181;1.844;0.34580566018624226
05:48.0;-0.39948651838753785;-0.6314880156111125;-1.7563333234597724;2.138;0.4430718738478927
05:48.1;-0.45838962831659563;-0.5957563638912223;-1.866053506610967;2.338;0.5095978243445413
05:48.1;-0.49971056187879404;-0.5515854115274439;-1.9367047844290748;2.441;0.5338198581442137
05:48.1;-0.5225500877019124;-0.499714394989759;-1.9650105562609332;2.355;0.5131149553352311
05:48.1;-0.5274158821829492;-0.4417055371587011;-1.9501880476942468;2.3169999999999997;0.4543207133779114
05:48.1;-0.5160120585257464;-0.37977026166808503;-1.8939936691070653;2.162;0.37115842868447435
05:48.1;-0.4909576228135044;-0.3164962672680898;-1.8005185075624082;2.001;0.27977582796143563
05:48.1;-0.4554871807452273;-0.25453169805090337;-1.6757622129918035;1.5219999999999998;0.1942810431741401
05:48.1;-0.41316272528338216;-0.19628283885283257;-1.5270531729286878;1.5219999999999998;0.12383905341296056
05:48.1;-0.3676181533394628;-0.14368172387600656;-1.3624142343309806;1.272;0.07196273348140682
05:48.1;-0.3223526262362751;-0.098068191537883;-1.1899689392496196;1.047;0.03761793961086393
05:48.2;-0.28057445017758065;-0.060198199984708545;-1.0174463774997322;1.015;0.017184747519330388
05:48.2;-0.2450870662857446;-0.030350160538270478;-0.8518060641539453;0.8240000000000001;0.0063361013215314935
05:48.2;-0.2182109246495017;-0.00847465716317391;-0.6989809000719802;0.44799999999999995;0.001292599359403023
05:48.2;-0.20173887165600438;0.005664519647763527;-0.5637323670676915;0.607;0.0006442073058971848
05:48.2;-0.19692248775010918;0.012382050681765759;-0.44962199999246666;0.536;0.001096315221650634
05:48.2;-0.2044859471336391;0.01199502081508022;-0.35908731804056215;0.46799999999999997;0.0008807741108629358
05:48.2;-0.22466258505149733;0.004778303284248173;-0.2935708616030849;0.35100000000000003;0.0003151500719615947
05:48.2;-0.25724462113831026;-0.009040070369997284;-0.25364990006017285;0.35100000000000003;0.0005898652465298754
05:48.2;-0.30162977663813706;-0.029236239786172787;-0.23915851602412216;0.46799999999999997;0.0021090242706742783
05:48.2;-0.35684700833412375;-0.055505697555156316;-0.24931695447472982;0.55;0.004938231418026478
05:48.3;-0.42155020849011604;-0.08735766032618719;-0.28285973814771925;0.445;0.01041649086594364
05:48.3;-0.4939806595581827;-0.12402187012060359;-0.338134223091939;0.575;0.020715592056105472
05:48.3;-0.5719152272332223;-0.16440040209680168;-0.4131596739295127;0.667;0.03884655057893744
05:48.3;-0.6526319745172292;-0.20708361143625414;-0.5056605948469245;0.75;0.06833971903011274
05:48.3;-0.7329314696461817;-0.25043031407500305;-0.6130842284402303;0.929;0.11253054222266444
05:48.3;-0.8092524078628384;-0.29269359745679857;-0.7325959017941729;1.127;0.1735248619936039
05:48.3;-0.8779046533152133;-0.332162826985364;-0.861038919326798;1.45;0.2510852271140991
05:48.3;-0.9353936381444162;-0.36729734839958417;-0.994852917815761;1.45;0.34179923231179976
05:48.3;-0.9787500879474916;-0.39684483500184037;-1.1299670579422774;1.5619999999999998;0.4388926713025065
05:48.3;-1.0057655558025687;-0.4199528754026559;-1.2617135198097535;1.605;0.5329151592478186
05:48.4;-1.0150820897337878;-0.4362802242520241;-1.3848223586631807;1.6740000000000002;0.6132827645290618
05:48.4;-1.0061503342146008;-0.4460883849056662;-1.4935496293196688;1.784;0.6703528337146698
05:48.4;-0.9791144484827425;-0.45026380700458996;-1.5819623854987226;1.8880000000000001;0.6974236194025807
05:48.4;-0.9346903418273428;-0.45022278372317515;-1.6443675725562648;1.962;0.6919809327160552
05:48.4;-0.874077573033652;-0.44770012422031336;-1.6758377057196772;2.045;0.6557965835799958
05:48.4;-0.7989085607879889;-0.44448193159339594;-1.672761749920037;2.178;0.593998400400734
05:48.4;-0.7112201210507565;-0.4421575100326041;-1.6333347239207796;1.984;0.5136369230543867
05:48.4;-0.6134335467079565;-0.44193203462571756;-1.5578997505210657;1.984;0.4223402901336609
05:48.4;-0.5083324428619141;-0.4445078781654313;-1.449080679851516;1.808;0.32743104705404313
05:48.4;-0.39902393474652004;-0.450035394717314;-1.3116796129092296;1.567;0.23554472741774518
05:48.5;-0.28886785351793515;-0.4581362176533691;-1.1523434594128052;1.306;0.1525020850381558
05:48.5;-0.18136603549820893;-0.4679964255771241;-0.979032177412698;1.087;0.08309893572679034
05:48.5;-0.08001148543104994;-0.4785159164803624;-0.8003519664145712;0.8540000000000001;0.030642891080904216
05:48.5;0.011899402845236847;-0.48849059754234536;-0.6248350225785655;0.696;0.0036320075320032115
05:48.5;0.0914816340391591;-0.4967993766485953;-0.46025044770718776;0.654;0.020917470984202647
05:48.5;0.15647706058975086;-0.5025689403540229;-0.31303239097090074;0.654;0.024617027038473148
05:48.5;0.20542429307681287;-0.5052920632541803;-0.18790792240649815;0.654;0.019504704213048615
05:48.5;0.23773700585495677;-0.5048792621574193;-0.08777002334887893;0.654;0.010534902852300413
05:48.5;0.2536761539325181;-0.501631947792794;-0.013770757975120005;0.626;0.001752357364241107
05:48.5;0.2542381885123368;-0.4961361215442336;0.034443042679925547;0.532;0.004344533422320138
05:48.6;0.24099754045209043;-0.4890887533335524;0.05843054283464796;0.43200000000000005;0.006887160557460959
05:48.6;0.21594361177956323;-0.4810879905536734;0.06064384218605198;0.386;0.006300160094481711
05:48.6;0.18134770911304646;-0.4724371335250651;0.044123112531014655;0.413;0.003780264956385156
05:48.6;0.13967546054596364;-0.4630146986306367;0.01220951692977032;0.47;0.0007896113303992187
05:48.6;0.09352593844336089;-0.4522428514470572;-0.031707984381197915;0.46399999999999997;0.0013411347664996404
05:48.6;0.045553514964140736;-0.4391576060726992;-0.08438074731337769;0.42100000000000004;0.0016880514124207443
05:48.6;-0.0016633564050764055;-0.42256500540745695;-0.14279597755822124;0.43;0.00010036789526741974
05:48.6;-0.045801914209687766;-0.40126260548594433;-0.2041877660618606;0.43;0.003752684344619494
05:48.6;-0.08497660483521674;-0.374305187374139;-0.2660133940214488;0.529;0.008461136968844873
05:48.6;-0.11786981269079769;-0.34128343245493803;-0.3259549354510799;0.784;0.013112193835835215
05:48.7;-0.1437912024643123;-0.3025499943599068;-0.38197447872501245;1.117;0.01661742822468153
05:48.8;-0.16266718336313207;-0.25928307540830814;-0.43240068058762193;0.551;0.018237297594481373
05:48.8;-0.17495500015318613;-0.21329996111708188;-0.4759933969975437;0.551;0.017763071481288334
05:48.8;-0.18148306760905653;-0.1666646573752029;-0.5119425963216441;0.551;0.015484632122280706
05:48.8;-0.1832530375998488;-0.12125509402132226;-0.539791573748309;0.551;0.011994365416842723
05:48.8;-0.181252533504612;-0.0784329817309392;-0.559303128461468;0.551;0.007951152074576593
05:48.8;-0.17630727726258844;-0.03885426503149537;-0.570299332599067;0.485;0.003906715631326511
05:48.8;-0.16898162164033745;-0.002400562823520886;-0.5725089120097391;0.485;0.00023223881196036977
05:48.8;-0.15953151969009002;0.031783715610366206;-0.5654590741824094;0.485;0.0028671627534724723
05:48.8;-0.1479126155248085;0.06515202487221364;-0.548445715143628;0.485;0.005285265180812582
05:48.8;-0.1338416968763411;0.09952409180717708;-0.5206011598817908;0.485;0.006934653864496642
05:48.8;-0.11690411829273782;0.1367866854209852;-0.48105870738327444;0.485;0.007692574601921677
05:48.8;-0.09669562491667061;0.17855995224352578;-0.42919731732458644;0.485;0.00741050636001304
05:48.8;-0.0729840732883413;0.22586541064425047;-0.36493769593139974;0.485;0.006015843798314012
05:48.8;-0.04587366099526115;0.2788344162643224;-0.2890494157001808;0.485;0.003697276019220024
05:48.8;-0.01595110318993578;0.33650002204400176;-0.20341667012018802;0.485;0.0010918484510095627
05:48.8;0.015610267446538475;0.39671841357324983;-0.11119842101436739;0.517;0.0006886385372277596
05:48.8;0.047015655954574416;0.45626032747610457;-0.016813044607163187;0.386;0.0003606629849899936
05:48.8;0.0759098993287672;0.511087509741627;0.07430201469853476;0.526;0.002882665648417938
05:48.8;0.09955274103837715;0.5567860399294802;0.15614566537236413;0.7190000000000001;0.008655088095606878
05:48.8;0.11510984869032385;0.589085246573859;0.2227485078667706;0.858;0.015104467973308429
05:48.9;0.12003594567976511;0.6043704523996756;0.268810270917612;0.84;0.019501157975841503
05:48.9;0.11249150035704053;0.6001152250733287;0.2902979681240259;0.8909999999999999;0.019597395187138236
05:48.9;0.0917026981379567;0.5752033577608185;0.2849452499266995;0.986;0.015030206526698526
05:48.9;0.058171324866287774;0.5301392352562284;0.2526062764346698;1.021;0.007790100122329513
05:48.9;0.013675907705497922;0.4671280305837484;0.1954150419592861;1.0859999999999999;0.0012483894214016548
06:00.7;-0.03894195446257476;0.38996651449819825;0.11767981257473838;1.1079999999999999;0.0017870924885523183
06:00.7;-0.09616667158167491;0.30367352505988987;0.025434415373463852;0.64;0.0007427681541905868
06:00.7;-0.1542959267126229;0.21386027241029695;-0.07435117096334204;0.64;0.0024534227582727643
06:00.7;-0.20991635587555552;0.12598272978992517;-0.17472499959173432;0.64;0.0046207486040616445
06:00.7;-0.260261454594581;0.044698581868139166;-0.2695928301043988;0.64;0.003136259105686334
06:00.7;-0.30340182192460396;-0.026525259667096207;-0.3542552260584198;0.64;0.0028509794983108956
06:00.7;-0.3382822369653088;-0.08554627442930936;-0.4256242344265012;0.64;0.012317048244054662
06:00.7;-0.36464863178329726;-0.1314849631205076;-0.4821927783532058;0.64;0.023119124251411306
06:00.7;-0.38290773319338123;-0.16453881303774417;-0.5238399542325108;0.64;0.03300358498252363
06:00.7;-0.39395439491288614;-0.18573052814002447;-0.5515431602715397;0.64;0.04035605885273748
06:00.7;-0.3989935342525897;-0.1966370387191011;-0.5670540631145852;0.64;0.044489307918418555
06:00.7;-0.39937576534502683;-0.19913340948141434;-0.5725811590245559;0.64;0.045536840101220374
06:00.7;-0.3964587715328789;-0.19517420299918517;-0.5705081860985931;0.64;0.04414508180151106
06:00.7;-0.39150050525570745;-0.18662469707520252;-0.5631656787346604;0.64;0.0411469474758184
06:00.7;-0.385585610159569;-0.17514592725863362;-0.552663011512936;0.64;0.03732340522764956
06:00.7;-0.3795830575812679;-0.16213094604718534;-0.5407805722459122;0.64;0.033280804625960815
06:00.7;-0.3741308017957575;-0.14868490754666272;-0.528916223806578;0.64;0.02942234207538086
06:00.7;-0.3696421336010561;-0.13563843208413676;-0.5180767825456831;0.64;0.025975167645412585
06:00.7;-0.36632815231072113;-0.12358194134605223;-0.5089035657596248;0.64;0.023038850287247403
06:00.7;-0.36423116501932173;-0.11290801504976594;-0.5017207890884401;0.64;0.020633075724480185
06:00.7;-0.3632645023279933;-0.10384988003346207;-0.496596420733577;0.632;0.01873408755089602
06:00.7;-0.3632545894628559;-0.09650917559594428;-0.4934068606211996;0.632;0.017297562149460616
06:00.7;-0.3639809652818053;-0.09087494307217087;-0.49189919849517466;0.632;0.016270426567549963
06:00.7;-0.36521030703556195;-0.08684150212033538;-0.4917470546977605;0.632;0.01559596026879
06:00.7;-0.36672215910159933;-0.0842303424463297;-0.492597547257833;0.632;0.015215911174289429
06:00.7;-0.36832607517942934;-0.08281528267901359;-0.49410800251229664;0.632;0.01507179025247414
06:00.7;-0.3698711101052345;-0.08234752748005672;-0.49597205825085433;0.632;0.01510630276712462
06:00.7;-0.3712490462389854;-0.08257781812238156;-0.4979357639452152;0.632;0.015265184956143958
06:00.7;-0.372392861136826;-0.08327406253691803;-0.4998049750217949;0.632;0.015499285348764867
06:00.7;-0.3732719152073972;-0.08423378670718369;-0.5014457334545159;0.632;0.015766510350491345
06:00.7;-0.373885199820474;-0.08529146657262057;-0.5027794716223782;0.632;0.016033243685016622
06:00.7;-0.3742537769988185;-0.08632129184036855;-0.5037748255314172;0.632;0.016274984529331148
06:00.7;-0.37441329662873973;-0.08723620643912765;-0.5044376540183193;0.632;0.01647614223038159
06:00.7;-0.374407225349436;-0.08798419870361227;-0.5048005857906027;0.632;0.01662910036728728
06:00.7;-0.3742811852353922;-0.08854281508067449;-0.5049131023955246;0.632;0.016732774656327113
06:00.7;-0.3740785953029818;-0.08891278126903414;-0.5048328496367651;0.632;0.01679092651976251
06:00.7;-0.3738376434515471;-0.08911146828686063;-0.5046185799670913;0.632;0.016810470431010038
06:00.7;-0.3735894938241656;-0.08916676716448951;-0.5043248818794143;0.632;0.01679995316470618
06:00.7;-0.37335755350315125;-0.08911175805151468;-0.5039986587356641;0.632;0.016768311554537608
06:00.7;-0.3731575785757158;-0.08898039460152403;-0.5036771812481982;0.632;0.01672395034970678
06:00.7;-0.37299838661424567;-0.08880428375321149;-0.5033874520545333;0.632;0.016674132751388956
06:00.7;-0.3728829533097169;-0.08861053044886971;-0.503146580914712;0.632;0.01662464544514995
06:00.7;-0.37280969810741477;-0.08842053811195326;-0.5029628662661458;0.632;0.016579685084696493
06:00.7;-0.3727738005073994;-0.08824960726559121;-0.5028373035844618;0.632;0.016541909924318483
06:00.7;-0.3727684294560417;-0.08810715268017862;-0.5027652837655978;0.632;0.016512604241117886
06:00.7;-0.3727858083971099;-0.08799735873071167;-0.5027382969933514;0.632;0.016491910806146537
06:00.7;-0.37281807473965584;-0.08792010752597992;-0.502745512063271;0.632;0.0164790955672101
06:00.7;-0.37285792258635153;-0.08787203923042747;-0.5027751522502425;0.632;0.0164728174948886
06:00.7;-0.3728990404446021;-0.0878476337624345;-0.5028156325076522;0.632;0.01647138449735868
06:00.7;-0.37293637106689925;-0.08784023347906302;-0.5028564565793773;0.632;0.016472983094619528
06:00.7;-0.3729662289464868;-0.08784295429349309;-0.5028888953623147;0.632;0.016475875006651288
06:00.7;-0.3729863132009693;-0.08784945569545068;-0.50290647959276;0.632;0.016478557882122137
06:00.7;-0.3729956507697615;-0.08785455712740801;-0.5029053415811898;0.632;0.016479890061007123
06:00.7;-0.3729944983373544;-0.08785469877774166;-0.5028844339319077;0.632;0.01647918058509788
06:00.7;-0.3729842225181491;-0.08784824952113766;-0.5028456401240851;0.632;0.016476245799353136
06:00.7;-0.37296716790866;-0.08783566452126308;-0.5027937750317212;0.632;0.01647143308340704
06:00.7;-0.37294651285330266;-0.08781949143269505;-0.5027364556862592;0.632;0.016465610868186417
06:00.7;-0.3729261042911141;-0.08780421903232326;-0.5026838067113945;0.632;0.01646012254155152
06:00.7;-0.3729102568297642;-0.08779595746705982;-0.5026479537453443;0.632;0.01645670056400033
06:00.7;-0.3729034980554356;-0.08780193711852673;-0.5026422545152266;0.632;0.01645733651496543
06:00.7;-0.37291024268037976;-0.08782981518960502;-0.5026802234133483;0.632;0.01646410323486848
06:00.7;-0.3729343828860603;-0.08788678701339324;-0.5027741232702209;0.632;0.016478927016623204
06:00.7;-0.37297879130093553;-0.08797851375983587;-0.5029332285399113;0.632;0.016503311173780538
06:00.7;-0.37304474628228357;-0.08810789995508474;-0.5031618072218127;0.632;0.016538017470035242
06:00.7;-0.3731313059594168;-0.08827378243190126;-0.5034569230337628;0.632;0.016582718994723415
06:00.7;-0.37323467675539246;-0.08846962533762924;-0.5038062214025498;0.632;0.016635647179728732
06:00.7;-0.37334764218998817;-0.08868235079349415;-0.5041859275666304;0.632;0.01669326661283967
06:00.7;-0.3734591364347418;-0.08889146762673093;-0.5045593452136513;0.632;0.0167500234591464
06:00.7;-0.37355406150931475;-0.08906868596614657;-0.5048761902586905;0.632;0.016798225151031864
06:00.7;-0.37361345383148825;-0.08917821702327074;-0.5050731154579071;0.632;0.016828117816751427
06:00.7;-0.3736151013575552;-0.08917794795573186;-0.5050757651283531;0.632;0.01682822953231726
06:00.7;-0.3735346929658108;-0.08902164396509424;-0.5048026324791863;0.632;0.016786036587614607
06:00.7;-0.3733475434754674;-0.08866225679768318;-0.5041708629011719;0.632;0.01668898110599519
06:00.7;-0.3730308778706801;-0.08805630496910713;-0.5031039452294792;0.632;0.01652581789844188
06:00.7;-0.37256657521856107;-0.08716913297353684;-0.501540953700839;0.632;0.016288197151259183
06:00.7;-0.3719441664611563;-0.0859806544276195;-0.4994466460860542;0.632;0.015972305161691736
06:00.7;-0.371163752982449;-0.08449094176751397;-0.4968212958089975;0.632;0.01558030343563838
06:00.7;-0.37023836947293465;-0.08272475200384777;-0.4937086540776377;0.632;0.015121248077535914
06:00.7;-0.36919516277989384;-0.08073378869498293;-0.49019992780728505;0.632;0.014611156039987977
06:00.7;-0.3680746083709248;-0.07859521422982449;-0.4864311547798782;0.632;0.014071919545645838
06:00.7;-0.3669270235427824;-0.07640499840095302;-0.48257148396324656;0.594;0.013528919854304888
06:00.7;-0.3658063953049194;-0.07426613803478423;-0.4788024214630867;0.594;0.013007638908965363
06:00.7;-0.3647630325189719;-0.07227463021116974;-0.47529312008370533;0.594;0.012530206370730754
06:00.7;-0.3638373953735261;-0.07050769189691246;-0.47217962772736805;0.594;0.012112982157786558
06:00.7;-0.36305661169472503;-0.06901710825743436;-0.4695531723192173;0.594;0.011765648998581187
06:00.7;-0.3624336978534176;-0.06782774390446862;-0.4674575431579903;0.594;0.011491536849767923
06:00.7;-0.36196874313107064;-0.06693980236591796;-0.4658930757741519;0.594;0.011288643329161276
06:00.7;-0.36165127878514436;-0.06633334707019901;-0.46482462065290236;0.594;0.01115092873440062
06:00.7;-0.3614632029837625;-0.06597388320893563;-0.46419138031536233;0.594;0.011069632719499716
06:00.7;-0.3613817844748635;-0.06581808931734665;-0.4639170093635777;0.594;0.011034478805313936
06:00.7;-0.3613824110994936;-0.06581906080172527;-0.4639188538447171;0.594;0.011034704682068122
06:00.7;-0.3614408764273712;-0.06593067040468534;-0.46411563405462797;0.594;0.011059893796719886
06:00.7;-0.3615351040388419;-0.06611085348971604;-0.46443323240116774;0.594;0.011100601811089987
06:00.7;-0.36164629207065385;-0.06632378479620733;-0.46480852769796616;0.594;0.011148781537221972
06:00.7;-0.36175952058316596;-0.0665410279652112;-0.46519141926506424;0.594;0.01119801824065739
06:00.7;-0.36186390281771597;-0.06674181295109982;-0.46554531426824725;0.594;0.011243595737634745
06:00.7;-0.3619523814035478;-0.06691263495438504;-0.46584641959677464;0.594;0.011282421813967845
06:00.7;-0.36202127562411635;-0.06704637854793803;-0.46608219726297023;0.594;0.011312847527041623
06:00.7;-0.36206967976949633;-0.0671411594559621;-0.4662493225515952;0.594;0.01133441757217046
06:00.7;-0.3620987990641704;-0.06719905096069381;-0.4663514392464147;0.594;0.011347587637644423
06:00.7;-0.36211129196378516;-0.06722482839251694;-0.4663969472019505;0.594;0.011353440002866347
06:00.7;-0.3621106685135441;-0.06722482879637018;-0.4663969934535371;0.594;0.011353421649647522
06:00.7;-0.3621007760887049;-0.06720598766625648;-0.4663637760213186;0.594;0.011349121189228652
06:00.7;-0.3620853877013923;-0.0671750834108742;-0.46630921451138985;0.594;0.011342093172712826
06:00.7;-0.3620678950811794;-0.06713819466298987;-0.4662439965519632;0.594;0.011333731737548989
06:00.7;-0.36205109933569446;-0.06710035643035275;-0.4661769753554823;0.594;0.011325190536549264
06:00.7;-0.3620370861743616;-0.06706538840566842;-0.46611487126609574;0.594;0.01131734262798531
06:00.7;-0.3620271701208991;-0.06703586194866508;-0.4660622180529739;0.594;0.011310772341112385
06:00.7;-0.3620218923152505;-0.0670131703993677;-0.46602149131828474;0.594;0.011305790781665765
06:00.7;-0.3620210587427318;-0.06699766935519917;-0.46599335973416417;0.594;0.011302467255287444
06:00.7;-0.3620238092892279;-0.06698885816290501;-0.46597700783519247;0.594;0.011300670115323501
06:00.7;-0.36202871215619625;-0.0669855800032524;-0.46597048978689226;0.594;0.011300112076490546
06:00.7;-0.36203388215943627;-0.06698622456591753;-0.4659710851572544;0.594;0.011300396623721837
06:00.7;-0.36203712462804666;-0.06698892357419621;-0.4659756387634771;0.594;0.011301063588757057
06:00.7;-0.3620361084558398;-0.06699173466435974;-0.46598087601154414;0.594;0.011301633120875032
06:00.7;-0.3620285718983872;-0.06699281289003053;-0.46598369199907286;0.594;0.01130164804512292
06:00.7;-0.3620125626642505;-0.06699057113913072;-0.4659814165555215;0.594;0.011300714927835076
06:00.7;-0.3619867096053877;-0.06698383093591335;-0.46597205820857274;0.594;0.011298544043895355
06:00.7;-0.3619505169644767;-0.06697196354337741;-0.46595452794466746;0.594;0.011294987894187746
06:00.7;-0.36190466402135707;-0.0669550182349109;-0.4659288389981073;0.594;0.011290077028583322
06:00.7;-0.3618512836996537;-0.06693383047323045;-0.4658962724263888;0.594;0.011284050804102266
06:00.7;-0.36179418413468534;-0.06691009806450124;-0.46585949080186684;0.594;0.011277379499946772
06:00.7;-0.3617389685343801;-0.06688640881483021;-0.46582257505776437;0.594;0.011270773097588277
06:00.7;-0.36169300230992574;-0.06686619957431099;-0.4657909536101785;0.594;0.011265171203759408
06:00.7;-0.3616651740265058;-0.06685362464426832;-0.4657711896734979;0.594;0.011261708231013457
06:00.7;-0.3616653999241344;-0.0668533121931443;-0.46577059354532757;0.594;0.011261648218191938
06:00.7;-0.36170383220908436;-0.0668699913648449;-0.4657966328127201;0.594;0.011266284706556037
06:00.7;-0.361789750364248;-0.0669079808110899;-0.46585612593928893;0.594;0.011276802995602889
06:00.7;-0.36193014318942107;-0.06697054181868413;-0.46595422413668586;0.594;0.011294104984611898
06:00.7;-0.36212802716355214;-0.06705911603302193;-0.46609321280240096;0.594;0.01131860077117629
06:00.7;-0.36238059291154573;-0.06717248848640568;-0.46627119630764563;0.594;0.01134997635375571
06:00.7;-0.3626773235528633;-0.06730594007209435;-0.46648076672916616;0.594;0.011386953281779816
06:00.7;-0.36299828237418036;-0.06745047787180528;-0.4667077952603829;0.594;0.011427063895218477
06:00.7;-0.36331281670657567;-0.06759225415822388;-0.46693052028110676;0.594;0.01146647453612983
06:00.7;-0.3635789624497209;-0.06771230197784578;-0.4671191329416808;0.594;0.01149989779496524
06:00.7;-0.36374385017668376;-0.06778672280143934;-0.46723607306631054;0.594;0.011520641508852297
06:00.7;-0.3637453988806785;-0.06778745514595473;-0.4672372378692055;0.594;0.011520843746601174
06:00.7;-0.3635155265172697;-0.0676837274920305;-0.4670742658119081;0.594;0.011491935327784038
06:00.7;-0.36298499749914626;-0.06744424969823944;-0.46669798076353664;0.594;0.011425350318681344
06:00.7;-0.36208985803761357;-0.06704012075014432;-0.46606296164750044;0.594;0.011313467642765956
06:00.7;-0.360779175840726;-0.06644832488620409;-0.4651330365223146;0.594;0.01115071423554219
06:00.7;-0.3590235011658288;-0.06565555291236266;-0.4638872875487858;0.594;0.010934698480490064
06:00.7;-0.3568231078521642;-0.06466192368678735;-0.46232589899511967;0.594;0.010667184703845313
06:00.7;-0.35421466936181367;-0.06348399848748353;-0.4604748940090148;0.594;0.01035468214990777
06:00.7;-0.3512745974958121;-0.062156287965031136;-0.4583885025799912;0.594;0.010008420203039659
06:00.7;-0.3481168490904945;-0.06073026062480904;-0.45614760334659127;0.594;0.009643520015610073
06:00.7;-0.34488311218077966;-0.05926990972065256;-0.4538527572255332;0.556;0.009277290861437228
06:00.7;-0.3417254219503943;-0.057843901352564696;-0.45161186869037645;0.556;0.008926890594405188
06:00.7;-0.33878546083751315;-0.05651622515298066;-0.4495254940191468;0.556;0.00860700861557814
06:00.7;-0.33617717448887646;-0.05533834257027367;-0.44767450294452543;0.556;0.008328307085034719
06:00.7;-0.33397695798539445;-0.05434475415046094;-0.4461131130334132;0.556;0.008096906460197026
06:00.7;-0.3322214627626736;-0.053552008639133654;-0.44486733263375566;0.556;0.007914691054653306
06:00.7;-0.3309109358542543;-0.05296021082107354;-0.44393733037056476;0.556;0.00778005184674011
06:00.7;-0.33001589692466604;-0.05255603707382123;-0.4433021738334816;0.556;0.007688778179173755
06:00.7;-0.3294853809203175;-0.05231645835373791;-0.44292567983588516;0.556;0.007634935042184854
06:00.7;-0.32925540150050925;-0.05221256331466453;-0.4427624218860651;0.556;0.007611647675264704
06:00.7;-0.32925669395142215;-0.05221305648566047;-0.44276322687512076;0.556;0.007611763288500419
06:00.7;-0.32942115456993964;-0.05228716821024559;-0.44287974721914203;0.556;0.0076283819052659655
06:00.7;-0.3296866928977599;-0.052406848216448865;-0.44306790711721683;0.556;0.007655256618176721
06:00.7;-0.33000044742553386;-0.05254822041591076;-0.4432901877562662;0.556;0.007687066885540649
06:00.7;-0.33032048448643997;-0.05269235282974156;-0.4435168362210196;0.556;0.007719571759649445
06:00.7;-0.33061620888599147;-0.05282544561092652;-0.443726160011448;0.556;0.007749654559591469
06:00.7;-0.33086777156546754;-0.05293856568541609;-0.44390410925442847;0.556;0.007775275784442561
06:00.7;-0.3310647743454503;-0.05302706312571986;-0.4440433590821493;0.556;0.007795355539149486
06:00.7;-0.33120455524188464;-0.053089796844667324;-0.44414209284265654;0.556;0.007809609154236977
06:00.7;-0.33129030031120993;-0.0531282802274476;-0.4442026601485624;0.556;0.007818359454485089
06:00.7;-0.33132917868697986;-0.053145835086770864;-0.44423024882098777;0.556;0.007822346452715666
06:00.7;-0.33133064409329804;-0.053146818309204;-0.4442316720109382;0.556;0.007822550828321456
06:00.7;-0.33130499457623974;-0.05313596244406349;-0.44421433539217586;0.556;0.007820042333904747
06:00.7;-0.33126223662380405;-0.053117851147505474;-0.4441854172661457;0.556;0.007815859140795014
06:00.7;-0.331211262743053;-0.05309653396188562;-0.44415126847313874;0.556;0.007810919740086672
06:00.7;-0.33115932400661235;-0.053075272862684646;-0.4441170199196855;0.556;0.007805965723886141
06:00.7;-0.33111176100735956;-0.053056405295177536;-0.4440863732433878;0.556;0.007801531677335257
06:00.7;-0.3310719471645154;-0.05304130460932064;-0.44406154396200975;0.556;0.0077979374127425324
06:00.7;-0.33104139594210413;-0.053030418175889174;-0.44404332529872165;0.556;0.00779529765223313
06:00.7;-0.33101998650210906;-0.05302336516932399;-0.44403124341122285;0.556;0.007793544746360686
06:00.7;-0.33100626875689265;-0.0530190791181751;-0.4440237795695211;0.556;0.007792460836078157
06:00.7;-0.33099781692038444;-0.05301598396272111;-0.4440186405585995;0.556;0.007791716787158315
06:00.7;-0.33099160889568147;-0.05301219571916017;-0.44401306399972823;0.556;0.007790916055439341
06:00.7;-0.3309844158733962;-0.05300574426401077;-0.4440041493696672;0.556;0.007789642231456156
06:00.7;-0.3309731913854593;-0.05299481072603791;-0.4439892074952081;0.556;0.007787509265951397
06:00.7;-0.33095545116932856;-0.052977975210459154;-0.4439661207572556;0.556;0.00778421324477967
06:00.7;-0.33092963433881467;-0.052954467006039355;-0.44393370302828744;0.556;0.007779584065343461
06:00.7;-0.3308954327071012;-0.05292440520010594;-0.4438920427105824;0.556;0.007773634522017085
06:00.7;-0.3308540692181744;-0.05288901215368948;-0.44384280471626825;0.556;0.007766603241533516
06:00.7;-0.3308084992224416;-0.0528507762164957;-0.44378945876087633;0.556;0.007758986772737669
06:00.7;-0.3307635010065193;-0.05281353426652032;-0.4437373931846899;0.556;0.007751555112391305
06:00.7;-0.33072561604309647;-0.052782440216930765;-0.44369386720613907;0.556;0.00774534423664489
06:00.7;-0.3307028965296862;-0.05276378376082875;-0.44366775178433154;0.556;0.007741618993636659
06:00.7;-0.33070441966230163;-0.05276462559836655;-0.4436690119390156;0.556;0.007741800155441784
06:00.7;-0.3307395363773582;-0.05279222242794548;-0.44370789317636655;0.556;0.007747350651605099
06:00.7;-0.330816838343553;-0.05285322809366115;-0.44379379303230987;0.556;0.00775961811473734
06:00.7;-0.33094285163251974;-0.052952677086923264;-0.4439338265562603;0.556;0.007779633976845736
06:00.7;-0.33112049881045136;-0.053092783133425546;-0.4441311318672252;0.556;0.007807873634959967
06:00.7;-0.3313474122047093;-0.053271618088401244;-0.444383007639613;0.556;0.00784398790806333
06:00.7;-0.33161422755506714;-0.053481773043332015;-0.44467902602344866;0.556;0.0078865234257611
06:00.7;-0.3319030354139733;-0.05370914148234009;-0.44499931793746117;0.556;0.007932658895321212
06:00.7;-0.3321862121634555;-0.0539319993254502;-0.44531327698543105;0.556;0.007977995127153628
06:00.7;-0.33242588642714616;-0.05412058332050748;-0.44557896576990724;0.556;0.008016448104655452
06:00.7;-0.33257431163503415;-0.054237380959016604;-0.44574352489851493;0.556;0.008040303710721529
06:00.7;-0.3325754022157532;-0.054238334577135484;-0.4457448701837453;0.556;0.008040495710793254
06:00.7;-0.3323676396770411;-0.05407512197648446;-0.4455149067363145;0.556;0.008007159518601285
06:00.7;-0.331888456584295;-0.05369859861611709;-0.4449843797754789;0.556;0.00793048714908944
06:00.7;-0.3310800537542108;-0.05306336637528207;-0.44408931283583003;0.556;0.0078018597209515
06:00.7;-0.32989639444724;-0.05213326761534641;-0.4427787497744666;0.556;0.007615164429511861
06:00.7;-0.32831084895519874;-0.05088739076976876;-0.44102321756164425;0.556;0.007368123060022846
06:00.7;-0.32632363939694975;-0.049325919409303795;-0.43882296853608593;0.556;0.007063388207043256
06:00.7;-0.3239678700711025;-0.047474870341028756;-0.4362146572561758;0.556;0.0067091265250608205
06:00.7;-0.32131254275714904;-0.04538846303497068;-0.4332746797416682;0.556;0.006318827006408364
06:00.7;-0.3184605748895964;-0.04314756294478294;-0.43011698054252523;0.556;0.005910150417176399
06:00.7;-0.31553993443633177;-0.04085271664732852;-0.4268832392382237;0.513;0.005502808204659772
06:00.7;-0.31268793714653387;-0.03861181460298562;-0.42372548677361555;0.513;0.0051158279095167925
06:00.7;-0.3100325490109905;-0.03652540084467034;-0.4207854060431959;0.513;0.004765000501172846
06:00.7;-0.30767668400192627;-0.03467433601865901;-0.4181769484092805;0.513;0.004461314386948968
06:00.7;-0.3056893399040705;-0.033112833081356194;-0.4159765205146764;0.513;0.004210614211201708
06:00.7;-0.30410361783838386;-0.031866901443767665;-0.41422079169687176;0.513;0.004014147424608236
06:00.7;-0.3029197392102396;-0.03093671746783583;-0.41291003346733296;0.513;0.0038695212988059595
06:00.7;-0.30211107786859404;-0.0303013638437816;-0.41201479632305194;0.513;0.003771739060123787
06:00.7;-0.30163160668896866;-0.02992468008165299;-0.4114841515008592;0.513;0.003714150318210971
06:00.7;-0.3014235437106372;-0.029761269585493997;-0.41125415262627446;0.513;0.00368925709729361
06:00.7;-0.3014243473873359;-0.029761995132798418;-0.4112555757866464;0.513;0.003689369641313855
06:00.7;-0.30157253407002127;-0.029878548827503196;-0.4114203549150386;0.513;0.0037071235490716676
06:00.7;-0.30181206122153764;-0.0300668950607234;-0.41168642887582063;0.513;0.0037358697306590334
06:00.7;-0.3020952314165735;-0.030289551259415248;-0.41200095103130296;0.513;0.0037699442491028017
06:00.7;-0.30238422492805817;-0.03051679124458664;-0.41232198135168274;0.513;0.003804823240643056
06:00.7;-0.3026514670485571;-0.03072693331604173;-0.4126188901662428;0.513;0.0038371705966937252
06:00.7;-0.3028790876529993;-0.030905915548911148;-0.41287175962262807;0.513;0.003864791596554507
06:00.7;-0.30305774398367435;-0.03104637137897948;-0.4130700838768959;0.513;0.003886511678307439
06:00.7;-0.3031850628953936;-0.03114640695852385;-0.4132110526504158;0.513;0.0039020037672930366
06:00.7;-0.3032639251575108;-0.031208255299636167;-0.4132976653485209;0.513;0.003911588799256588
06:00.7;-0.303300770190843;-0.031236947421324143;-0.41333687362651295;0.513;0.0039160321620810255
06:00.7;-0.3033040517349578;-0.031239103009349043;-0.41333789674848187;0.513;0.003916354464438988
06:00.7;-0.30328292870937956;-0.03122190665898036;-0.4133108021945309;0.513;0.003913669451496666
06:00.7;-0.3032462346520243;-0.031192303511187805;-0.41326539784655336;0.513;0.0039090561522113244
06:00.7;-0.3032017357951967;-0.031156421751835868;-0.4132104442049723;0.513;0.0039034673168673235
06:00.7;-0.30315566299101226;-0.031119209753193117;-0.413153166544728;0.513;0.0038976723742033125
06:00.7;-0.3031124862094056;-0.031084262523764398;-0.4130990276830889;0.513;0.0038922306450802674
06:00.7;-0.3030748913290132;-0.0310538049308678;-0.41305171127001744;0.513;0.00388748928038763
06:00.7;-0.30304391605503844;-0.03102879682059531;-0.4130132618681857;0.513;0.0038836000873975003
06:00.7;-0.30301920340239474;-0.031009126432827272;-0.4129843299424983;0.513;0.003880549764706334
06:00.7;-0.3029993355953427;-0.0309938621031338;-0.4129644755497441;0.513;0.003878198790673509
06:00.7;-0.30298221688121724;-0.030981536948192456;-0.41295249243232923;0.513;0.003876325063853529
06:00.7;-0.3029654792885946;-0.03097044600916585;-0.4129467230134184;0.513;0.0038746691991382626
06:00.7;-0.30294688974573647;-0.030958939375842334;-0.41294534337969324;0.513;0.003872979024850988
06:00.7;-0.30292473954661925;-0.030945697602708114;-0.41294660494282703;0.513;0.003871051243705274
06:00.7;-0.302898197635787;-0.03092997701343918;-0.4129490256143946;0.513;0.0038687684015116432
06:00.7;-0.3028676077026751;-0.030911812315017925;-0.41295152781156763;0.513;0.00386612927895905
06:00.7;-0.3028347061330144;-0.030892162617820188;-0.41295352347128395;0.513;0.0038632706440147493
06:00.7;-0.30280273430302607;-0.03087298503269914;-0.41295494771813285;0.513;0.003860478061445193
06:00.7;-0.30277641564758623;-0.03085721823348575;-0.4129562432747683;0.513;0.0038581832545803913
06:00.7;-0.3027617667128113;-0.03084865761216566;-0.41295829757900826;0.513;0.0038569454627583937
06:00.7;-0.3027657134344323;-0.03085170485421818;-0.41296233437013163;0.513;0.003857414443380493
06:00.7;-0.30279549053782917;-0.030870978832996457;-0.41296976170522426;0.513;0.0038602733276986087
06:00.7;-0.30285781439383197;-0.030910782435768062;-0.41298197937958364;0.513;0.003866160538670398
06:00.7;-0.302957838643155;-0.030974431799053043;-0.4130001508601274;0.513;0.003875571489923327
06:00.7;-0.30309792756552695;-0.03106347055970364;-0.4130249482533269;0.513;0.003888742870630538
06:00.7;-0.3032763138337636;-0.03117681170031317;-0.4130562834848095;0.513;0.0039055250336683905
06:00.7;-0.30348574324722377;-0.031309872302735714;-0.41309304450812684;0.513;0.00392525136318487
06:00.7;-0.30371224638433536;-0.03145379018038013;-0.4131328614794519;0.513;0.003946617438338908
06:00.7;-0.30393421167310636;-0.03159483327979918;-0.41317193367008986;0.513;0.003967587094210193
06:00.7;-0.30412196071093583;-0.03171412945911957;-0.41320495242892685;0.513;0.003985346574014266
06:00.7;-0.30423803821942197;-0.03178785159082886;-0.4132251575283958;0.513;0.003996330914805544
06:00.8;-0.3042384184579308;-0.03178798622334724;-0.413224562357714;0.513;0.003996347079333958
06:00.8;-0.30407478963081086;-0.03168378842024452;-0.4131943762432626;0.513;0.0039808143239492035
06:00.8;-0.30369800063693964;-0.03144397630909656;-0.41312563833805016;0.513;0.0039451320203260426
06:00.8;-0.3030626345906775;-0.031039642594904174;-0.4130100559379349;0.513;0.0038851673665905094
06:00.8;-0.30213250741800357;-0.030447754612089525;-0.412841010095531;0.513;0.003797830323376492
06:00.8;-0.3008866774749865;-0.02965497938511723;-0.41261465299078776;0.513;0.0036816731641884045
06:00.8;-0.2993252979813156;-0.028661408460226905;-0.4123309754746399;0.513;0.003537422333310409
06:00.8;-0.297474357776624;-0.02748357511054756;-0.4119946712807326;0.513;0.00336832788264042
06:00.8;-0.29538805271827495;-0.02615596359339455;-0.4116155693673279;0.513;0.003180207398711794
06:00.8;-0.293147230359056;-0.02473001944223406;-0.411208351420926;0.513;0.002981070037528786
06:00.8;-0.29085242592199106;-0.023269717748402023;-0.4107912852841869;0.49700000000000005;0.0027802575430536606
06:00.8;-0.28861152546398405;-0.021843712308081575;-0.4103839810489236;0.49700000000000005;0.0025872030735472015
06:00.8;-0.2865250756062945;-0.020515987089523333;-0.41000471898968;0.49700000000000005;0.002410149088153228
06:00.8;-0.28467394629389287;-0.019338005069739535;-0.4096682052266474;0.49700000000000005;0.00225523420990231
06:00.8;-0.28311236589135147;-0.018344275840401866;-0.4093843042155922;0.49700000000000005;0.0021261338361127477
06:00.8;-0.28186636437749035;-0.017551364756661282;-0.4091577546621014;0.49700000000000005;0.0020241604381940285
06:00.8;-0.28093614248927895;-0.01695940045275169;-0.40898859943759863;0.49700000000000005;0.0019486296756529927
06:00.8;-0.2803008092812015;-0.016555089570903368;-0.4088730463364743;0.49700000000000005;0.0018973365304032624
06:00.8;-0.27992423028081387;-0.01631543827274113;-0.408804530980768;0.49700000000000005;0.0018670456546592575
06:00.8;-0.27976103169013705;-0.016211573087719658;-0.408774808298156;0.49700000000000005;0.0018539435357663885
06:00.8;-0.2797620924953481;-0.016212235912774087;-0.4087749510594774;0.49700000000000005;0.0018540270135734456
06:00.8;-0.2798791106755048;-0.01628668982037977;-0.4087961801943887;0.49700000000000005;0.0018634173707864998
06:00.8;-0.2800680422701715;-0.016406907602019807;-0.4088304902482462;0.49700000000000005;0.0018785967452801982
06:00.8;-0.280291378428568;-0.016549020840561417;-0.4088710635906398;0.49700000000000005;0.0018965679982789136
06:00.8;-0.2805193457241127;-0.016694083771351533;-0.4089124888363149;0.49700000000000005;0.0019149426879570763
06:00.8;-0.28073019242226616;-0.016828255449815276;-0.4089508130182031;0.49700000000000005;0.0019319651816286673
06:00.8;-0.280909763837761;-0.01694252948483225;-0.4089834644143326;0.49700000000000005;0.0019464839819910698
06:00.8;-0.2810505805399951;-0.01703214735976432;-0.4090090848716988;0.49700000000000005;0.0019578835037775753
06:00.8;-0.28115062153041226;-0.017095823962703007;-0.4090273083665715;0.49700000000000005;0.0019659903845753632
06:00.8;-0.2812119879196893;-0.017134897027612117;-0.40903851771874067;0.49700000000000005;0.0019709678275859842
06:00.8;-0.28123958759108164;-0.017152489894801216;-0.409043605021298;0.49700000000000005;0.001973209655170169
06:00.8;-0.28123994326696466;-0.017152752779972576;-0.4090437544423376;0.49700000000000005;0.0019732431135989384
06:00.8;-0.28122018947181415;-0.017140224251374986;-0.4090402593585204;0.49700000000000005;0.0019716464958669387
06:00.8;-0.2811872910288659;-0.01711933371345781;-0.4090343798229964;0.49700000000000005;0.0019689847755797077
06:00.8;-0.2811474887079101;-0.01709404850745588;-0.40902724147169833;0.49700000000000005;0.0019657639842949534
06:00.8;-0.28110595723897597;-0.017067656260503602;-0.409019773272478;0.49700000000000005;0.0019624031876314912
06:00.8;-0.28106664711785395;-0.017042664342008625;-0.409012679017985;0.49700000000000005;0.001959221664621416
06:00.8;-0.28103227388125906;-0.0170207933530983;-0.4090064360487395;0.49700000000000005;0.0019564382201929732
06:00.8;-0.28100441588271224;-0.017003039883055623;-0.4090013141941312;0.49700000000000005;0.0019541793589691516
06:00.8;-0.28098368292927445;-0.016989784598402724;-0.4089974081291182;0.49700000000000005;0.0019524931964827756
06:00.8;-0.280969922278863;-0.016980924343420245;-0.40899467704977777;0.49700000000000005;0.0019513663616524284
06:00.8;-0.28096243435356755;-0.016976010628767094;-0.4089929865722163;0.49700000000000005;0.0019507416488006636
06:00.8;-0.2809601771470285;-0.01697438106409901;-0.4089921488854552;0.49700000000000005;0.0019505347273412205
06:00.8;-0.2809619449317438;-0.016975274467989434;-0.4089919583047871;0.49700000000000005;0.0019506487531726357
06:00.8;-0.2809665129453299;-0.016977924210577536;-0.40899222038208854;0.49700000000000005;0.0019509862079084355
06:00.8;-0.2809727448889952;-0.016981627583451328;-0.40899277357641195;0.49700000000000005;0.0019514576965819013
06:00.8;-0.28097966411657205;-0.016985791531626875;-0.40899350314906874;0.49700000000000005;0.0019519877504444942
06:00.8;-0.2809864922817559;-0.016989956900919305;-0.4089943474282141;0.49700000000000005;0.0019525179078994817
06:00.8;-0.2809926610071238;-0.01699380449753154;-0.4089952969160843;0.49700000000000005;0.0019530074898185127
06:00.8;-0.28099780297803684;-0.016997146820035662;-0.4089963869290929;0.49700000000000005;0.0019534325569419415
06:00.8;-0.28100172892773234;-0.016999909428697738;-0.4089976846151921;0.49700000000000005;0.001953783551298927
06:00.8;-0.28100439646334496;-0.017002105693868837;-0.4089992713320945;0.49700000000000005;0.0019540620963544456
06:00.8;-0.2810058757786062;-0.017003808239090618;-0.40900122153516705;0.49700000000000005;0.0019542773772537503
06:00.8;-0.2810063161810971;-0.017005119874774956;-0.4090035795437332;0.49700000000000005;0.001954442456736162
06:00.8;-0.28100591617598486;-0.017006146290927317;-0.40900633584090423;0.49700000000000005;0.0019545708150060237
06:00.8;-0.28100489870830514;-0.01700697230177218;-0.40900940490637416;0.49700000000000005;0.00195467334080627
06:00.8;-0.2810034921544673;-0.017007643043047325;-0.4090126069531271;0.49700000000000005;0.0019547559504006365
06:00.8;-0.28100191682418085;-0.017008151219688485;-0.4090156562845562;0.49700000000000005;0.001954817972038861
06:00.8;-0.28100037611532236;-0.017008431270230925;-0.40901815923431606;0.49700000000000005;0.001954851403684314
06:00.8;-0.2809990510659264;-0.017008361118962676;-0.4090196247071451;0.49700000000000005;0.0019548411268746203
06:00.8;-0.28099809686479454;-0.017007771979906973;-0.40901949010517974;0.49700000000000005;0.001954766133496614
06:00.8;-0.2809976399006217;-0.017006466404931465;-0.40901716480134304;0.49700000000000005;0.0019546017881960386
06:00.8;-0.2809977741279413;-0.017004244380630657;-0.40901209222234347;0.49700000000000005;0.0019543231005795655
06:00.8;-0.28099855588091677;-0.017000936734086883;-0.4090038299695089;0.49700000000000005;0.001953908913077055
06:00.8;-0.28099999674350695;-0.016996444383221357;-0.40899214522157545;0.49700000000000005;0.001953346819453419
06:00.8;-0.281002054652955;-0.016990781066009923;-0.4089771199773155;0.49700000000000005;0.001952638515994349
06:00.8;-0.28100462403351983;-0.016984116139774637;-0.40895925763394597;0.49700000000000005;0.0019518051570588868
06:00.8;-0.28100752638244936;-0.016976812930325956;-0.40893957917822554;0.49700000000000005;0.001950892148520129
06:00.8;-0.2810105033055755;-0.016969457044748202;-0.40891969420950214;0.49700000000000005;0.0019499726811270778
06:00.8;-0.28101321446186467;-0.01696286819474589;-0.40890182953500626;0.49700000000000005;0.0019491492002180722
06:00.8;-0.28101524315306026;-0.01695808859790271;-0.4088887966808001;0.49700000000000005;0.0019485519514688275
06:00.8;-0.281016112309248;-0.016956341143939478;-0.4088838799092611;0.49700000000000005;0.0019483337596882392
06:00.8;-0.2810153132967771;-0.0169589514508891;-0.40889062880314664;0.49700000000000005;0.0019486603145058244
06:00.8;-0.28101234924213697;-0.016967229894106796;-0.4089125446981372;0.49700000000000005;0.0019496954762854752
06:00.8;-0.2810067933727151;-0.016982312824748453;-0.40895265862659136;0.49700000000000005;0.001951581495901142
06:00.8;-0.2809983612017195;-0.017004966577832077;-0.4090130101642672;0.49700000000000005;0.001954414573279513
06:00.8;-0.28098699325289156;-0.017035363457752806;-0.4090940515202544;0.49700000000000005;0.0019582168606734926
06:00.8;-0.28097294251186794;-0.017072845478192225;-0.40919401883088896;0.49700000000000005;0.0019629068309151097
06:00.8;-0.2809568580564404;-0.01711569882992465;-0.4093083318559925;0.49700000000000005;0.0019682708412725003
06:00.8;-0.2809398535879105;-0.017160969245995847;-0.4094291025054192;0.49700000000000005;0.001973939665724793
06:00.8;-0.2809235471725158;-0.01720435479976048;-0.40954484963181487;0.49700000000000005;0.0019793746435795723
06:00.8;-0.28091005679379916;-0.01724021717278272;-0.4096405295519228;0.49700000000000005;0.001983868760364005
06:00.8;-0.28090193576108924;-0.017261753872889495;-0.40969799562026854;0.49700000000000005;0.0019865682548055987
06:00.8;-0.2809020330919375;-0.017261370996184112;-0.40969699248544117;0.49700000000000005;0.001986520015819847
06:00.8;-0.2809132671471288;-0.01723128768179943;-0.4096167681347831;0.49700000000000005;0.0019827488683205425
06:00.8;-0.2809383064293144;-0.017164388378759582;-0.4094383467439875;0.49700000000000005;0.0019743666554542304
06:00.8;-0.28097915979451066;-0.01705531680366019;-0.4091474460239329;0.49700000000000005;0.001960711720631222
06:00.8;-0.2810366893709454;-0.01690177601064619;-0.4087379441857468;0.49700000000000005;0.0019415130722367018
06:00.8;-0.2811100729130443;-0.016705963171104444;-0.40821570609460167;0.49700000000000005;0.001917068528340239
06:00.8;-0.28119625741723386;-0.01647602739642472;-0.4076024707934773;0.49700000000000005;0.0018884211226021768
06:00.8;-0.28128946139668226;-0.01622739741849629;-0.40693939184667927;0.49700000000000005;0.0018575138713185996
06:00.8;-0.28138079754865847;-0.01598378771942211;-0.4062897200152467;0.49700000000000005;0.0018273005848852642
06:00.8;-0.28145809843665853;-0.015777662681797023;-0.4057400403882401;0.49700000000000005;0.0018017904642053145
06:00.8;-0.2815060325864529;-0.015649925619456807;-0.40539944220572965;0.49700000000000005;0.001786006892918448
06:00.8;-0.2815065940776034;-0.01564861110408676;-0.40539603044472694;0.49700000000000005;0.0017858454099038024
06:00.8;-0.28144003220501146;-0.015826403080587626;-0.40587030581295813;0.49700000000000005;0.0018078207757381197
06:00.8;-0.28128625617187075;-0.016236885642814794;-0.4069651648518335;0.49700000000000005;0.0018586964996300732
06:00.8;-0.2810267006814125;-0.016929564352366297;-0.4088126212710079;0.49700000000000005;0.001944991297881501
06:00.8;-0.2806465703078995;-0.017943877388381463;-0.411517833451399;0.49700000000000005;0.0020723575740288548
06:00.8;-0.280137293640208;-0.01930264762801895;-0.4151416412891791;0.49700000000000005;0.0022448333685390065
06:00.8;-0.2794989142158439;-0.021005704133222766;-0.41968355529075657;0.49700000000000005;0.002463992159468514
06:00.8;-0.2787420281474379;-0.02302471391712322;-0.4250679739460328;0.49700000000000005;0.002728067322036447
06:00.8;-0.27788875430584953;-0.025300595683616207;-0.43113728762862696;0.49700000000000005;0.003031218923770311
06:00.8;-0.2769721003009171;-0.027745214224802136;-0.4376563992479047;0.49700000000000005;0.003363236361020397
06:00.8;-0.2760331182750822;-0.03024897201600389;-0.44433297277735406;0.547;0.0037100550519817603
06:00.8;-0.275115865360255;-0.032694258811503916;-0.45085330538090646;0.547;0.004055294421207419
06:00.8;-0.2742614039884157;-0.034971465516911236;-0.4569250399468186;0.547;0.004382515751016082
06:00.8;-0.27350276716907607;-0.036992428415276;-0.4623130273974656;0.547;0.004677466634142913
06:00.8;-0.2728621233277108;-0.0386980106882336;-0.46685955680041685;0.547;0.004929673406597989
06:00.8;-0.2723501543766917;-0.04005978335042885;-0.4704888514053949;0.547;0.005133168954209428
06:00.8;-0.2719670393049621;-0.0410774240656017;-0.47320014525588366;0.547;0.005286452620589372
06:00.8;-0.2717044043072421;-0.04177353500529733;-0.47505387512532804;0.547;0.005391886871652265
06:00.8;-0.2715477227018138;-0.04218725435981656;-0.47615465135574003;0.547;0.005454757619036539
06:00.8;-0.27147877167484724;-0.042367705567668716;-0.4766337894615493;0.547;0.005482209752818812
06:00.8;-0.27147786996193596;-0.04236801597895498;-0.4766333513306817;0.547;0.005482226670196151
06:00.8;-0.2715257247828523;-0.04224035903444058;-0.4762929046472224;0.547;0.00546276721669929
06:00.8;-0.27160480380293756;-0.042032241592827015;-0.4757395897602439;0.547;0.005431118671427217
06:00.8;-0.2717002168509907;-0.04178407555069906;-0.4750815974311868;0.547;0.005393478988936269
06:00.8;-0.27180014262465607;-0.041527940317971385;-0.4744048086017868;0.547;0.005354749444203728
06:00.8;-0.2718958690768484;-0.04128735626967303;-0.47377211849811074;0.547;0.005318500239223785
06:00.8;-0.271981534931701;-0.041077842710343634;-0.47322484523118347;0.547;0.00528706422296479
06:00.8;-0.27205366663725583;-0.040908019498875535;-0.4727855870416396;0.547;0.005261714339180948
06:00.8;-0.2721106029408327;-0.040781021233632225;-0.4724619208144366;0.547;0.005242885497858948
06:00.8;-0.27215189089652303;-0.04069601912021302;-0.47225040676306584;0.547;0.005230408697951387
06:00.8;-0.27217772480818514;-0.04064968160842922;-0.4721404619888788;0.547;0.005223732729973487
06:00.8;-0.2721884851827182;-0.04063744513741095;-0.4721177740341441;0.547;0.005222115770930069
06:00.8;-0.2721844194678409;-0.040654506825182374;-0.47216703335800936;0.547;0.005224775327512276
06:00.8;-0.27216549090291803;-0.0406964890167057;-0.4722738633276412;0.547;0.005230990277601315
06:00.8;-0.2721314065132004;-0.04075975981408727;-0.4724259135671709;0.547;0.005240153320061177
06:00.8;-0.2720818201172241;-0.04084142357040071;-0.4726131557457612;0.547;0.005251776097203945
06:00.8;-0.2720166910397883;-0.040939021009010736;-0.4728274804355821;0.547;0.005265452700240385
06:00.8;-0.27193676389977184;-0.04105000064161527;-0.47306174098485404;0.547;0.005280790264184391
06:00.8;-0.27184411943438563;-0.04117104202845785;-0.4733084272557614;0.547;0.00529731793065459
06:00.8;-0.2717427312267811;-0.041297327424450817;-0.4735581800986536;0.547;0.005314387598383815
06:00.8;-0.2716389492666069;-0.04142187128289341;-0.4737983772700852;0.547;0.005331081545239971
06:00.8;-0.27154181984488684;-0.04153502613051433;-0.47401203266874;0.547;0.005346143090653257
06:00.8;-0.27146314422025847;-0.04162428701650167;-0.4741772514482855;0.547;0.005357946804767546
06:00.8;-0.27141717806876414;-0.041674513018159734;-0.4742674707104652;0.547;0.0053645241226578395
06:00.8;-0.27141988247013826;-0.041668670692974086;-0.4742526850951043;0.547;0.005363658296891395
06:00.8;-0.2714876576027706;-0.041589178327634584;-0.4741018042962705;0.547;0.005353059106223123
06:00.8;-0.27163552456105294;-0.0414198890763376;-0.47378621136571986;0.547;0.005330622342400702
06:00.8;-0.2718747701101649;-0.04114869413892906;-0.47328448398086415;0.547;0.005294771607469624
06:00.8;-0.27221013378933206;-0.040770653923555375;-0.4725881054483563;0.547;0.0052448702983059125
06:00.8;-0.2726366947771475;-0.040291477574108954;-0.4717078314404771;0.547;0.005181679996373211
06:00.8;-0.27313670323679423;-0.03973107378312529;-0.4706802003082568;0.547;0.0051078283629292665
06:00.8;-0.27367669063912575;-0.039126795944662285;-0.46957349278471844;0.547;0.005028236175327885
06:00.8;-0.2742052760323835;-0.03853591322287223;-0.46849228052947794;0.547;0.004950441143741327
06:00.8;-0.27465214765435714;-0.03803677011770669;-0.4675795778723807;0.547;0.004884748022276429
06:00.8;-0.27492872632419874;-0.037728067624696326;-0.46701555826608404;0.547;0.004844132691842527
06:00.8;-0.27493099150520267;-0.03772572823309042;-0.4670118511950292;0.547;0.004843833782794614
06:00.8;-0.27454485493988406;-0.0381569146609706;-0.46780063285794954;0.547;0.0049005786658207155
06:00.8;-0.2736542834891269;-0.03915097714354447;-0.46961809907433544;0.547;0.0050314096985278126
06:00.8;-0.27215208855290896;-0.04082742155309283;-0.4726824894690641;0.547;0.005252101841096091
06:00.8;-0.269952906068802;-0.04328142972505834;-0.47716763467575274;0.547;0.005575201703474695
06:00.8;-0.2670073885571942;-0.04656802413036301;-0.4831740231527409;0.547;0.006007788950946581
06:00.8;-0.2633160295095656;-0.05068663977462578;-0.49070060988607606;0.547;0.0065491870831943175
06:00.8;-0.25894036345262494;-0.05556862144511511;-0.4996219692465361;0.547;0.0071890400477547
06:00.8;-0.2540085682483748;-0.06107096404357187;-0.5096768552965985;0.547;0.007906386752743253
06:00.8;-0.2487117878395375;-0.06698040394410806;-0.5204756766526286;0.547;0.008670508537718677
06:00.8;-0.2432876719073808;-0.07303177057845811;-0.5315340294958567;0.627;0.00944415282386702
06:00.8;-0.2379912167804353;-0.07894050563777696;-0.5423321184718038;0.627;0.010188873227126439
06:00.8;-0.23306004402756514;-0.0844413914543939;-0.5523855197107825;0.627;0.010870899749292277
06:00.8;-0.22868524106200805;-0.08932108196084593;-0.5613046109749503;0.627;0.011465439892463422
06:00.8;-0.22499490049712875;-0.09343647704401742;-0.5688281224111558;0.627;0.011958320520387289
06:00.8;-0.22205044317836364;-0.09671884615359806;-0.574830636129074;0.627;0.012345328688112635
06:00.8;-0.21985222216585865;-0.09916760798642332;-0.5793111758932453;0.627;0.012630269115942973
06:00.8;-0.21835072682040954;-0.10083787088245164;-0.5823703909386608;0.627;0.012822644311739377
06:00.8;-0.21746041451826487;-0.10182504739739977;-0.5841823933490156;0.627;0.012935502257773632
06:00.8;-0.21707391417675395;-0.10224905594550418;-0.5849658467389196;0.627;0.012983669582839473
06:00.8;-0.2170750224607579;-0.10223986632956138;-0.584957523503055;0.627;0.012982384237192394
06:00.8;-0.21734951426558932;-0.10192547465863218;-0.5843903220291359;0.627;0.012946263186968898
06:00.8;-0.21779329097997183;-0.10142283224665517;-0.5834767106675061;0.627;0.012888541001436818
06:00.8;-0.21831778263890317;-0.1008318144774911;-0.5823977633895024;0.627;0.012820542202808373
06:00.8;-0.2188528034359992;-0.10023199947481433;-0.581297372995501;0.627;0.012751370610044076
06:00.8;-0.21934724238234404;-0.0996818238135557;-0.5802808549382108;0.627;0.01268780211255895
06:00.8;-0.21976806596775772;-0.09921957829174696;-0.579416960441347;0.627;0.012634357650369559
06:00.8;-0.22009813445234622;-0.09886568222220375;-0.5787422673433048;0.627;0.012593519832650191
06:00.8;-0.22033330588864491;-0.09862570983227832;-0.5782669745779893;0.627;0.012566047083258232
06:00.8;-0.2204792395075845;-0.09849371779854336;-0.5779812562913198;0.627;0.012551336922971777
06:00.8;-0.22054822820125203;-0.09845552121988826;-0.5778615028647168;0.627;0.012547794907033895
06:00.8;-0.22055630139068763;-0.09849167169553083;-0.5778759623812882;0.627;0.012553175737894079
06:00.8;-0.22052075448543498;-0.09857999396845829;-0.5779894770444698;0.627;0.012564875468177798
06:00.8;-0.22045818631418485;-0.0986976282868671;-0.5781671703963979;0.627;0.012580166083141733
06:00.8;-0.22038306541680333;-0.0988225985911029;-0.5783770740026972;0.627;0.012596374356907874
06:00.8;-0.2203068015898364;-0.09893497873567372;-0.578591782360721;0.627;0.01261101468346752
06:00.8;-0.2202372702587675;-0.09901775916412398;-0.5787892916491905;0.627;0.012621890169076567
06:00.8;-0.2201787223359821;-0.09905752536286823;-0.5789532137829964;0.627;0.012627177652274398
06:00.8;-0.22013200846353304;-0.09904504887428242;-0.5790725660660502;0.627;0.012625510782848967
06:00.8;-0.22009505065492033;-0.0989758644515221;-0.579141323533294;0.627;0.01261607128982671
06:00.8;-0.22006350291726037;-0.09885086664844302;-0.5791578911899213;0.627;0.01259869264198013
06:00.8;-0.22003155220812445;-0.09867690996878836;-0.5791246120672665;0.627;0.012573973074901972
06:00.8;-0.21999281924615327;-0.09846734346729347;-0.5790473792610886;0.627;0.012543387152169499
06:00.8;-0.2199413230677607;-0.0982423588093052;-0.5789353703929269;0.627;0.012509377497006365
06:00.8;-0.21987247239811922;-0.09802898621692024;-0.5788008752868954;0.627;0.012475402043538728
06:00.8;-0.2197840403592278;-0.09786054187033817;-0.5786591457531919;0.627;0.012445908123144462
06:00.8;-0.21967706719271796;-0.09777531983371508;-0.5785281635968447;0.627;0.012426203825354977
06:00.8;-0.21955661991931583;-0.09781433792682684;-0.5784282024807131;0.627;0.012422199954378892
06:00.8;-0.21943232052183864;-0.0980179959488161;-0.578381053992209;0.627;0.012440002653475774
06:00.8;-0.21931853851342537;-0.09842159059990849;-0.5784088007946013;0.627;0.012485346941029539
06:00.8;-0.2192341335273712;-0.09904975628524301;-0.5785320521495609;0.627;0.012562874131258863
06:00.8;-0.21920163318520855;-0.09991006325478535;-0.5787676105743342;0.627;0.0126752705596995
06:00.8;-0.21924574542106456;-0.10098619829571281;-0.579125612841436;0.627;0.012822301080862065
06:00.8;-0.21939113677404457;-0.10223136707445596;-0.5796062820354472;0.627;0.012999789820405548
06:00.8;-0.21965946211411708;-0.10356277370857464;-0.5801965357237432;0.627;0.01319862593876109
06:00.8;-0.22006570849755233;-0.10485822831269709;-0.5808668114669802;0.627;0.013403908458783783
06:00.8;-0.22061401576097558;-0.10595607716519806;-0.5815685847878387;0.627;0.013594395783132348
06:00.8;-0.2212932555149822;-0.1066597080495265;-0.5822331530762221;0.627;0.013742492212773922
06:00.8;-0.22207278127840527;-0.10674781796396265;-0.5827723256289614;0.627;0.013815075356622377
06:00.8;-0.22289889448525058;-0.10599140534914968;-0.5830816769161359;0.627;0.013775518653170091
06:00.8;-0.22369268872680337;-0.10417803325827169;-0.5830469682954359;0.627;0.01358724746805539
06:00.8;-0.22435001870654522;-0.1011432835611936;-0.5825542050036631;0.627;0.013219027320823005
06:00.8;-0.22474436875544387;-0.09680848294404813;-0.5815035563126749;0.627;0.012651866723223675
06:00.8;-0.22473334452709562;-0.09122275116529856;-0.5798270200407221;0.627;0.011886914273972059
06:00.8;-0.22416935735400448;-0.0846062538301701;-0.5775092612672154;0.627;0.010953115465079327
06:00.8;-0.22291479381283638;-0.07739032553169164;-0.5746105161715758;0.627;0.009912863703736388
06:00.8;-0.22086155039963945;-0.0702489943734881;-0.5712898598653297;0.627;0.008863734597571083
06:00.8;-0.21795426292828804;-0.06411555586268673;-0.5678265465748626;0.627;0.00793495507008557
06:00.8;-0.21421588561844201;-0.06017741960771928;-0.5646366180756944;0.627;0.007278707626484463
06:00.8;-0.20977350831963437;-0.059842719966003474;-0.562281640179668;0.627;0.0070585560775457325
06:00.8;-0.20488149684492132;-0.06467338729234118;-0.5614663851051355;0.627;0.007439643181360111
06:00.8;-0.1999382801162819;-0.07628175531132383;-0.5630226619443132;0.627;0.008587020619037461
06:00.8;-0.19549249179304987;-0.09619153041656626;-0.5678774469049426;0.627;0.010678777502377022
06:00.8;-0.19223382692363775;-0.12566919885054423;-0.5770051139141634;0.627;0.013939215120665658
06:00.8;-0.1909640333481522;-0.16553872265506028;-0.5913660312954404;0.627;0.018694228772863104
06:00.8;-0.19254406327018622;-0.21600056434419543;-0.6118371561334994;0.627;0.025446078696863147
06:00.8;-0.19781535321719068;-0.2764841179696975;-0.6391433630580975;0.7020000000000001;0.034956542335380376
06:00.8;-0.20749824938777212;-0.34556482726092463;-0.673795401576899;0.853;0.04831389063515238
06:00.8;-0.22207833350475303;-0.4209676366858606;-0.7160238609189835;0.9590000000000001;0.06693948921428738
06:00.8;-0.2416983705459224;-0.4996612841771203;-0.7656757593064883;0.863;0.09246860807022757
06:00.8;-0.2660786378073489;-0.5780360963543069;-0.8220445932711296;0.772;0.12643297153524344
06:00.8;-0.2944893783294809;-0.652157146998185;-0.8836607033809981;0.85;0.1697100008154086
06:00.8;-0.3257874856404042;-0.7180885506694017;-0.948141809727401;1.069;0.2218123372656979
06:00.9;-0.35850565501713433;-0.7722804300320357;-1.0122205088797336;1.38;0.2802503558529244
06:00.9;-0.390965546167137;-0.8119847498971038;-1.0720009442908596;1.6640000000000001;0.3403153414037022
06:00.9;-0.4213924618679987;-0.8356225575760976;-1.123399028139189;1.844;0.3955769352793029
06:00.9;-0.44802809764493423;-0.8429966364886351;-1.162651721179105;1.689;0.43911748650669724
06:00.9;-0.46924793909167534;-0.8352724383319219;-1.1867701851457038;1.689;0.46515442010499713
06:00.9;-0.48368272799253803;-0.8147317948891039;-1.19385412333892;1.534;0.47046412051485303
06:00.9;-0.4903300130836106;-0.7843784348355192;-1.1832482312611565;1.5719999999999998;0.45508234376633067
06:00.9;-0.48863314282856873;-0.7474996446134342;-1.15556320937464;1.5330000000000001;0.4220730451757394
06:00.9;-0.4785059885483674;-0.70727603392513;-1.1125844992424547;1.339;0.376538444861501
06:00.9;-0.460297414932823;-0.66650060153231;-1.057077890321928;1.339;0.32429934451620945
06:01.0;-0.4347124341665954;-0.627427940229953;-0.9925049663307175;1.25;0.2707064512780993
06:01.0;-0.4027157543024225;-0.5917368307741674;-0.922675933735628;1.14;0.21987528429788425
06:01.0;-0.3654357236092955;-0.560563856451527;-0.851374618661062;0.977;0.17440414044799352
06:01.0;-0.3240819269298968;-0.5345603845566963;-0.7819975721927936;0.75;0.13547432252262026
06:01.0;-0.27989213175461775;-0.5139481145487123;-0.7172635030042837;0.75;0.10317837885824825
06:01.0;-0.23411751122054916;-0.49858174691097895;-0.6590549713465171;0.868;0.07692932360680398
06:01.0;-0.188033319080422;-0.48803734017750294;-0.6084258820033792;0.868;0.05583358882596226
06:01.0;-0.14294139229169503;-0.4817292592464646;-0.565747836356975;0.75;0.03895685913061295
06:01.0;-0.10013205078209422;-0.4790459843753314;-0.5309236261020175;0.7959999999999999;0.025467268486877487
06:01.0;-0.060800731775182276;-0.4794944356971997;-0.5036020890202587;0.7959999999999999;0.014681820194007255
06:01.1;-0.025945485913527105;-0.4828353797798977;-0.483360141731054;0.825;0.006055245136054649
06:01.1;0.0037216026134162202;-0.48917558649031945;-0.4698384538657483;0.8270000000000001;0.0008553489588113551
06:01.1;0.027827687119898175;-0.49897407074675443;-0.46282457133624594;0.825;0.006426455392310368
06:01.1;0.04634580491190503;-0.5129318886633318;-0.46228191424529086;0.66;0.010989477188679105
06:01.1;0.05955148741419126;-0.5317711945944342;-0.46832575072880106;0.66;0.014830830099516506
06:01.1;0.06793967359843948;-0.5559606283785437;-0.4811472686251739;0.616;0.018173790522568886
06:01.1;0.07212507563830316;-0.5854747365506817;-0.5008918841547128;0.599;0.021151366786585333
06:01.1;0.07274750925793899;-0.6196587238196803;-0.5275167382989913;0.629;0.023779731204048984
06:01.1;0.07039018005036601;-0.6572251865868403;-0.5606764582524781;0.88;0.025938126008228982
06:01.1;0.06551563951401132;-0.6963655966474663;-0.5996891877971966;0.88;0.02735952230535848
06:01.2;0.05844174946814292;-0.7349294020249355;-0.6436058242593475;0.9890000000000001;0.02764323056470875
06:01.2;0.049391312071997436;-0.7706234583781433;-0.6913645338574204;1.103;0.02631478859791654
06:01.2;0.03862122032881246;-0.8012160386113975;-0.7419773313969139;1.308;0.022959702883456272
06:01.2;0.02658131546502975;-0.8247526265391781;-0.7946728382742138;1.35;0.017421620378883416
06:01.2;0.014017405056402867;-0.8397672486475826;-0.8489301607973541;1.35;0.009993060565873381
06:01.2;0.0019501428985041454;-0.8454326495270483;-0.9043888065281076;1.23;0.0014910789187372918
06:01.2;-0.008480538005597513;-0.8416021062462662;-0.9606699121337763;1.109;0.006856530424479574
06:01.2;-0.01625433835866495;-0.8287606528332269;-1.01716499828037;1.219;0.01370218500726722
06:01.2;-0.020708748851313394;-0.8079456076362895;-1.0728550123312905;1.385;0.017950519421901994
06:01.2;-0.021702892443301366;-0.7806576863096382;-1.1262242820793544;1.3780000000000001;0.019081088461755706
06:01.2;-0.019674733058295157;-0.7487177072767447;-1.1753115733173163;1.411;0.01731330443713333
06:01.3;-0.015596291986717225;-0.7140297261164965;-1.2178857803608656;1.548;0.013562639229989312
06:01.3;-0.01084307053713855;-0.6782980547146567;-1.2516721105098167;1.3419999999999999;0.009205840160241865
06:01.3;-0.006992285861953642;-0.6428131820614703;-1.2745384361883114;1.183;0.0057287106377892265
06:01.3;-0.00557176168830503;-0.608388136504741;-1.284619836924526;1.306;0.00435459624371414
06:01.3;-0.0077963427866929655;-0.575428545702959;-1.2804527561906591;1.663;0.005744416057296059
06:01.3;-0.01433562014980016;-0.5440565600502438;-1.2611845633577365;1.594;0.009836467982414498
06:01.3;-0.025158535966689287;-0.5142219699053397;-1.2268138212776156;1.594;0.01587137864411561
06:01.3;-0.03950754192442498;-0.48578199579840853;-1.1783370565931304;1.415;0.02261470672958354
06:01.4;-0.05604372970731562;-0.4585618240802079;-1.1177111906212243;1.12;0.02872463542280077
06:01.4;-0.07314397500202076;-0.43240511449639574;-1.0476383187777911;1.12;0.03313452548016575
06:01.4;-0.08925502379216566;-0.4072048666900394;-0.9712613027143594;0.95;0.035300569810903175
06:01.4;-0.10318976446276774;-0.38290180777271554;-0.8918760857188932;0.925;0.035239404196953476
06:01.4;-0.11429861602795788;-0.35946294291979103;-0.812721157475125;0.91;0.033391556474242384
06:01.4;-0.12250882099629373;-0.33687613688372187;-0.7368445241600546;0.8759999999999999;0.0304097933506888
06:01.4;-0.1282588603703982;-0.31518189522797324;-0.6670136780154773;0.794;0.026963941683118817
06:01.4;-0.13236754645431575;-0.29452746997867213;-0.6056309365870381;0.602;0.023611054148670905
06:01.4;-0.13587601112501113;-0.2752125858271608;-0.5546401920571855;0.602;0.020740652605468195
06:01.4;-0.13989001693394762;-0.25770683585314025;-0.5154438725095833;0.546;0.0185820678965619
06:01.4;-0.14543709930100412;-0.24263397474689832;-0.48886160598685097;0.528;0.01725093929788849
06:01.4;-0.15334455288831117;-0.2307271855587446;-0.47514669594423736;0.5329999999999999;0.016811049840196837
06:01.5;-0.16414360984440657;-0.22276585003557323;-0.4740530828408793;0.5589999999999999;0.017334031032737805
06:01.5;-0.1780116429550267;-0.21950786878664177;-0.4849298179355433;0.602;0.018948611475563065
06:01.5;-0.19476884123219748;-0.22162767501837016;-0.5068136324918163;0.605;0.021877201111602754
06:01.5;-0.2139368503624519;-0.2296618221499821;-0.5384952262680633;0.609;0.0264579542761093
06:01.5;-0.23484552748814053;-0.2439595912200922;-0.5785552445552382;0.555;0.03314706084177563
06:01.5;-0.25675615521315154;-0.26463924684621626;-0.6253943171008864;0.7440000000000001;0.04249414017368741
06:01.5;-0.2789684223010481;-0.2915563419367465;-0.6772928653470531;0.879;0.05508762381949468
06:01.5;-0.3008916903949504;-0.3242892704488243;-0.7325108884260078;0.879;0.07147544345185532
06:01.5;-0.3220765925991417;-0.36213899602690275;-0.7893999653667518;0.953;0.09207284423538575
06:01.5;-0.3422126566982719;-0.4041378173322536;-0.8464923225199436;1.016;0.11707079915003556
06:01.6;-0.36110125893040296;-0.449072039505402;-0.902551730757019;1.091;0.1463582208156272
06:01.6;-0.378615457716181;-0.4955308999268047;-0.9565845600139622;1.178;0.17947024212675858
06:01.6;-0.3946618258153286;-0.5419850042802548;-1.0078107497197115;1.187;0.2155715168998866
