Time;AccX;AccY;AccZ;Acc-old;Acc-trns
11:46.2;-0.25628636609612526;-0.10162250444176005;-0.5540639933628912;0.603;0.014430298829571378
11:46.2;-0.27359438290486643;-0.12261761645776444;-0.6656085601163938;0.603;0.02232949725193181
11:46.2;-0.2886477735636978;-0.14232007360710103;-0.7739726988756178;0.636;0.03179508668185013
11:46.2;-0.2994406321241764;-0.15965933904878024;-0.8760569468983171;1.011;0.04188296277195525
11:46.2;-0.30406573455901575;-0.17413234331870647;-0.9686343936123172;1.04;0.051286942826740844
11:46.2;-0.30085166074005515;-0.1859284263762927;-1.0485136538738464;1.04;0.058650578088062504
11:46.2;-0.2885371876566479;-0.19590718120220502;-1.1127767750319908;1.276;0.06290138428104346
11:46.2;-0.2664540470186287;-0.20541682393792757;-1.159064035307757;1.4040000000000001;0.06344037788790573
11:46.2;-0.2346763231687186;-0.2159934567610852;-1.1858681192371667;1.3780000000000001;0.060109935765099626
11:46.3;-0.19409210937421245;-0.22901413667086143;-1.1927766417485404;1.364;0.0530187271396739
11:46.3;-0.14636258350479864;-0.24538423198543904;-1.1806042947358704;1.348;0.04240148605860792
11:46.3;-0.09375586395529463;-0.2653261467562087;-1.1513876254448414;1.3030000000000002;0.028641782843907563
11:46.3;-0.03887249543163213;-0.2883058676805324;-1.1082393081540083;1.247;0.012420224691762467
11:46.3;0.015691135814419235;-0.3130951625740471;-1.0550687600407913;0.9840000000000001;0.005183361553935835
11:46.3;0.06767359242724384;-0.33793533812563553;-0.996198940430889;0.9840000000000001;0.022782370773786496
11:46.3;0.1154019942386079;-0.36075565112098146;-0.9359451240450373;0.9840000000000001;0.03896519400013418
11:46.3;0.1579199734495795;-0.3794092391777862;-0.8782295052270988;0.915;0.052620259849573185
11:46.3;0.19498113814932755;-0.39190957234881835;-0.8262714911808045;0.878;0.06313951490237349
11:46.4;0.22692900267019767;-0.39665912651596524;-0.7823614874843988;0.853;0.07042306444380472
11:46.4;0.2544936769530067;-0.3926537221633651;-0.7477250747957112;0.82;0.07471858866749286
11:46.4;0.2785381973296457;-0.3796364146139157;-0.7224929841805936;0.79;0.07639875087934485
11:46.4;0.29979373831333067;-0.35817576623707814;-0.7057900246896167;0.7809999999999999;0.07578692255725611
11:46.4;0.3186299023956497;-0.32965249736631647;-0.6959458617447492;0.784;0.07310016504231504
11:46.4;0.3349065500875014;-0.2961517852512813;-0.6908137175017396;0.919;0.0685170962470299
11:46.4;0.3479393478133148;-0.2602761370565614;-0.68815580119659;0.919;0.062319602257199076
11:46.4;0.3565833018852586;-0.22490997318940137;-0.6860255288609126;0.919;0.055018658027338484
11:46.4;0.35941574316091174;-0.1929665788488751;-0.6830707060376767;0.9159999999999999;0.04737452342496063
11:46.4;0.35499369893939187;-0.16713122697911495;-0.6787082479189982;0.893;0.04026812174325496
11:46.5;0.3421537480784584;-0.1496054503916295;-0.6731590999943476;0.862;0.03445771215928802
11:46.5;0.3203047208956495;-0.1418689352864224;-0.66736156596791;0.805;0.030325770267594816
11:46.5;0.2896532187120026;-0.1444921931081283;-0.6627997204636005;0.762;0.027739910677608802
11:46.5;0.2513141294235458;-0.15704028374546203;-0.6612907268274212;0.7490000000000001;0.02609879224370804
11:46.5;0.20728261593265296;-0.17810393172607614;-0.6647674577043566;0.779;0.024541784541259815
11:46.5;0.16026540653628638;-0.20547737976922933;-0.6750741094849362;0.708;0.022230808660048968
11:46.5;0.11339102615676297;-0.2364646291101921;-0.6937777271458159;0.708;0.018602239264848715
11:46.5;0.06984390315960155;-0.26824803024118543;-0.7220025344997811;0.708;0.013527070865769581
11:46.5;0.032476051849866634;-0.29823659694333615;-0.7603102893116511;0.7;0.007364021183022532
11:46.5;0.0034375682824174607;-0.32434434999522527;-0.8086575344267891;0.9490000000000001;0.0009016174487567216
11:46.6;-0.016134635025753477;-0.3451897098641834;-0.8664440763843894;1.1520000000000001;0.004825668933397759
11:46.6;-0.026314841177495746;-0.36021302633371993;-0.9326256840900434;1.156;0.008840310902046039
11:46.6;-0.028419018493286048;-0.36969232253726786;-1.0058275900667404;1.159;0.01056751931945207
11:46.6;-0.024843943159784946;-0.37463433837512966;-1.0844034564322136;1.168;0.010092970449852657
11:46.6;-0.018734763163828962;-0.3765456175869222;-1.1664276397141242;1.1640000000000001;0.008228555579558117
11:46.6;-0.013541397749816459;-0.3771302437782535;-1.2496429628292336;1.23;0.006381764950465411
11:46.6;-0.012547958506164903;-0.3779841270141878;-1.3313988157402352;1.23;0.0063147302424831
11:46.6;-0.018457043740680086;-0.3803440523738203;-1.4086215206251702;1.23;0.009888560841581327
11:46.6;-0.03308765149977483;-0.38491897464656316;-1.477867544140428;1.368;0.01882221693915918
11:46.6;-0.05721786591746892;-0.39180450618975615;-1.535507617974191;1.61;0.034423344061328645
11:46.7;-0.0905814825418656;-0.4004632019955218;-1.5780555361247022;1.791;0.05724325530042468
11:46.7;-0.13200480166939818;-0.40974361805617565;-1.6025910570882234;1.899;0.0866811454786567
11:46.7;-0.17964051183312593;-0.4179221531109827;-1.6071701904683846;1.92;0.12065950660942337
11:46.7;-0.23123620851679116;-0.4227816666332084;-1.5911056672231898;1.885;0.15555035581414337
11:46.7;-0.28438461081226446;-0.4217621896211887;-1.5550346571950298;1.8090000000000002;0.18651501829113637
11:46.7;-0.33673122142825523;-0.4122096622118694;-1.500748584491343;1.391;0.20830970098090804
11:46.7;-0.38613354279690104;-0.3917145383884994;-1.4308343480223737;1.391;0.2164195937143569
11:46.7;-0.4307640096540901;-0.3584962678628644;-1.348249861962003;1.391;0.2082065721433888
11:46.7;-0.46914777529106555;-0.31177310803782904;-1.2559719168244816;1.33;0.18370807333923048
11:46.7;-0.500141578861892;-0.25206045542243727;-1.1567887138721507;1.335;0.1458316266853213
11:46.8;-0.5228771570679013;-0.1813465185013286;-1.0532281533922871;1.253;0.09986914944617827
11:46.8;-0.5366988470846109;-0.10309520350349802;-0.9475745364707211;1.088;0.05243031950830635
11:46.8;-0.5411255196985091;-0.022042222814136887;-0.8419238082319055;1.014;0.010042138224423902
11:46.8;-0.535861534859781;0.05620347958651153;-0.7382390516848332;1.021;0.02223375431994254
11:46.8;-0.5208564611560837;0.12568435530126282;-0.6383819281267891;1.0170000000000001;0.04179072079406991
11:46.8;-0.4963746905575175;0.18064786821106052;-0.5441066924073152;0.69;0.048789519152266876
11:46.8;-0.46302527696804624;0.21604809150857918;-0.457018195355309;0.69;0.045718147611598
11:46.8;-0.4217410384965552;0.22795508784881277;-0.378512814541521;0.69;0.03638947082374529
11:46.8;-0.37373815123904097;0.21386800562309172;-0.3097188686707276;0.56;0.024756025234420567
11:46.8;-0.320485911786774;0.17294446889167883;-0.25142866421566573;0.527;0.013935751972865458
11:46.9;-0.2636886231642029;0.1061515298228959;-0.20400608798602027;0.57;0.005710324360654576
11:46.9;-0.20526018893534265;0.016310254479647783;-0.16728414451599163;0.45799999999999996;0.0005600415400421338
11:46.9;-0.14726573673155585;-0.09203564672421906;-0.14050882183515115;0.191;0.0019044140420006784
11:46.9;-0.09181901774373727;-0.2130003596574809;-0.12239663441979258;0.25;0.0023937701951838755
11:46.9;-0.04095355455463163;-0.3399936867723471;-0.11133494221640888;0.598;0.00155022216861423
11:46.9;0.0034933240629615417;-0.46652012816266564;-0.10568834523180604;1.037;0.0001722409292516508
11:46.9;0.03994830053942882;-0.5869615690084703;-0.10412578248798565;1.037;0.002441553547555334
11:46.9;0.06711681293365362;-0.6971485516030602;-0.1058773029573613;1.037;0.004954040183695476
11:46.9;0.08397680834106186;-0.7945885349581775;-0.11085778624968265;0.9309999999999999;0.007397208513017849
11:46.9;0.08980028362335575;-0.8783375318950933;-0.11963582034656287;0.7979999999999999;0.00943627048233738
11:47.0;0.08424428920363979;-0.9486101540945401;-0.13326803192607622;0.779;0.010650113193885315
11:47.0;0.06752901646376738;-1.0062755281271363;-0.15305473806775008;0.888;0.010400497500805392
11:47.0;0.040675980037550866;-1.0523771687062007;-0.18028241030746095;1.016;0.0077172540762464855
11:47.0;0.005722514332129318;-1.0877630090600952;-0.21598924050571414;1.093;0.0013444767373621002
11:47.0;-0.03420971533252344;-1.1128525078424845;-0.26074771951984194;1.1;0.0099267615070054
11:47.0;-0.07510134931664084;-1.1275312409643574;-0.31444627635790096;1.126;0.02662703321241989
11:47.0;-0.1125006305270938;-1.1311521966007392;-0.3760787091913568;1.126;0.04785802225226398
11:47.0;-0.14216548140828617;-1.1226236970890346;-0.4435838839546583;1.126;0.0707952507922417
11:47.0;-0.16071445870041118;-1.1005682314118355;-0.5137936757149313;1.155;0.09087840090562592
11:47.0;-0.16615926497553343;-1.0635401571664707;-0.5825414359116156;1.301;0.10294500451537579
11:47.1;-0.1582641745470477;-1.0102840966812496;-0.6449531426105072;1.4;0.1031227050980802
11:47.1;-0.1387126883124445;-0.9399958268201736;-0.695890559637341;1.351;0.09073671644838349
11:47.1;-0.11107400035064238;-0.8525310744474526;-0.7304697968933919;1.296;0.06917113387368076
11:47.1;-0.080577739653733;-0.7485183711792949;-0.744570308674869;1.212;0.04490795286945865
11:47.1;-0.05371991388518215;-0.6293645535685928;-0.7352714004583099;1.117;0.0248590919600329
11:47.1;-0.03772860348997144;-0.4971712128680946;-0.7011794859820817;0.892;0.013152427187277205
11:47.1;-0.03992411461142267;-0.3546026765600294;-0.6426269010413785;0.892;0.009097796214227735
11:47.1;-0.0670235762462188;-0.2047597864335331;-0.5617283245947556;0.892;0.007709009634134093
11:47.1;-0.12445004219338472;-0.05109251404490992;-0.46227281278624643;0.6759999999999999;0.0029393457449357996
11:47.1;-0.21569731891031518;0.10267137553906207;-0.3494244013825862;0.35600000000000004;0.007738331978719093
11:47.2;-0.3417890703518554;0.2526372776070063;-0.22923190449684797;0.275;0.01979386783974927
11:47.2;-0.5008746415067321;0.3949240150612497;-0.10801214173956021;0.575;0.021365603568580836
11:47.2;-0.6880246846766415;0.5258881784365369;0.008270041444828607;0.779;0.0029922998738863065
11:47.2;-0.8953144172913906;0.6423284494339517;0.11448813282429177;0.9059999999999999;0.06584051335629963
11:47.2;-1.1122966311083833;0.7416063508216024;0.20660686817267526;0.981;0.17042716380780362
11:47.2;-1.3269397204029971;0.8216577302812647;0.28167424968316546;2.1790000000000003;0.307106696242171
11:47.2;-1.5269787657204945;0.8809228832443174;0.3376159897568594;2.1790000000000003;0.4541443299047999
11:47.2;-1.7014231852508166;0.9182683087492439;0.3729710228511771;2.1790000000000003;0.5827161227386586
11:47.2;-1.841869526349562;0.9329861416039285;0.38672073272327917;2.7460000000000004;0.6645558897273528
11:47.2;-1.9433759037572949;0.9249149346787072;0.37830277856598143;2.963;0.6799831276692846
11:47.3;-2.004796681958998;0.8946349623483464;0.3477983747799849;2.73;0.6237976718476229
11:47.3;-2.0285404043260518;0.8436181403624865;0.2962000780401325;2.244;0.5068911873779628
11:47.3;-2.019800909385665;0.7742314046629969;0.22564756222261065;1.8219999999999998;0.35286614488493584
11:47.3;-1.9854614470938643;0.6895939718164869;0.13954711661742203;1.5490000000000002;0.19106264349769575
11:47.3;-1.9329765784049102;0.5933845856210072;0.04252422238029116;1.446;0.0487752195386617
11:47.3;-1.86951125537605;0.4897143637767116;-0.05980723313431603;1.989;0.054755107723245926
11:47.3;-1.8014680258930513;0.38312010628920556;-0.16122312980992204;1.989;0.11127275749527715
11:47.3;-1.7343403891313782;0.2786328195777839;-0.2553326743186471;1.989;0.12338802186573332
11:47.3;-1.6727112761450846;0.18180014909244166;-0.3360133831964942;1.9369999999999998;0.10218138737444353
11:47.3;-1.6202295396692303;0.09853776707682879;-0.3978125640331313;1.689;0.06351228792983482
11:47.4;-1.5794919389719941;0.03475287381152875;-0.4363145993779;1.4480000000000002;0.023950130394630564
11:47.4;-1.5518621682481883;-0.004214041875206782;-0.44845678271758627;1.3319999999999999;0.002932733430188194
11:47.4;-1.5373385324467177;-0.014198597220585012;-0.43276495937847204;1.328;0.009446415437234025
11:47.4;-1.5346067540612154;0.007278891020017138;-0.3894931220291933;1.4880000000000002;0.004350729829130452
11:47.4;-1.5413632558331791;0.060718832533548976;-0.32066140423044714;1.73;0.030010629444078004
11:47.4;-1.5548849601184604;0.1446063812626709;-0.22998101699059018;2.1069999999999998;0.05171037783418231
11:47.4;-1.5726987196786526;0.25559117164685874;-0.12265613032251137;2.1069999999999998;0.04930382815942653
11:47.4;-1.5931270935729136;0.3887603279932661;-0.005073316613107349;2.1069999999999998;0.0031421313064183315
11:47.4;-1.6155105059446309;0.5378800862409239;0.1156029342371005;1.82;0.10045327724618536
11:47.4;-1.6400249493853212;0.6955756884437314;0.23192547207063655;1.595;0.26457164551895
11:47.5;-1.6671646071100428;0.8535298830224741;0.33673906071838955;1.5930000000000002;0.479171201647714
11:47.5;-1.6970655661848186;1.0028241598351313;0.4237744186005912;1.879;0.7212040330637123
11:47.5;-1.7288680070000653;1.1344996214965255;0.4881572408261328;2.205;0.9574716607568365
11:47.5;-1.7602671995792014;1.2402985256449135;0.5267125777557327;2.1830000000000003;1.149948823551004
11:47.5;-1.7873520662082658;1.31343810173767;0.5379675620522733;2.004;1.2629199015204224
11:47.5;-1.8048020931301136;1.3492511246833754;0.5218473557952537;2.502;1.2707668059073478
11:47.5;-1.8064559178233814;1.3456013251970316;0.4792080713164058;2.502;1.1648443528559291
11:47.5;-1.7861479365863946;1.303059364290093;0.41145244548406484;2.502;0.9576377899692237
11:47.5;-1.7386210981155517;1.2248464852950125;0.32044284805547724;2.6;0.6823971256051604
11:47.5;-1.660342530704697;1.1165351738731812;0.20879971786597754;2.358;0.38707935557177336
11:47.6;-1.550112883628603;0.9854877141275232;0.08052922134244166;2.778;0.12301782381269438
11:47.6;-1.4093874044164942;0.8400553908198386;-0.058249910220628934;2.115;0.06896576681256325
11:47.6;-1.242235052706176;0.6886653050974494;-0.19889357478386185;1.379;0.1701503070444275
11:47.6;-1.0549176489240653;0.5390233565023765;-0.33053610339787304;1.14;0.1879511750753833
11:47.6;-0.8551822577508345;0.39763374015966363;-0.44119484018756905;1.0090000000000001;0.15002800524666032
11:47.6;-0.6514530273871826;0.2696607090885299;-0.5193846332236682;1.0490000000000002;0.09124096608507949
11:47.6;-0.45211733322387615;0.1590128061941436;-0.5558229873729894;1.0490000000000002;0.039959474041319026
11:47.6;-0.2650305076139287;0.06853812940076473;-0.5449118463798553;1.0490000000000002;0.009898157614523631
11:47.6;-0.0972554785256642;0.0002848917843073068;-0.4858301111598732;1.274;1.346103423124764e-05
11:47.6;0.04504091305303407;-0.04421032056471499;-0.3831442040462225;1.321;0.0007629447870158393
11:47.7;0.15665122737817758;-0.0636681377369403;-0.24683194599198593;1.198;0.0024618257856774324
11:47.7;0.23345128385659253;-0.056909814865635365;-0.09158054647337201;1.006;0.0012167088588268366
11:47.7;0.27264607411177594;-0.022842700417809184;0.0647419696154893;0.779;0.0004032112122543765
11:47.7;0.27313133752949664;0.039404002770673616;0.20334278092410368;2.362;0.00218847016881641
11:47.7;0.2358516341004602;0.13023535461556643;0.3070363471884351;1.416;0.009430996357826522
11:47.7;0.1639449679823564;0.24931337674158602;0.36237275275074077;0.586;0.014811505605680191
11:47.7;0.0625258246712992;0.39529577463795756;0.3609140322136982;0.586;0.00892042134518329
11:47.7;-0.061839386985241246;0.5655794091566752;0.29973460175412264;0.586;0.010483242860186388
11:47.7;-0.20177673803437504;0.756023882504366;0.18150301789545514;0.741;0.027687928343153492
11:47.7;-0.34972528319561835;0.9607036176916867;0.014367875470681326;1.3459999999999999;0.004827352489920698
11:47.8;-0.49848218382144455;1.1718370353479408;-0.1884345878285001;1.9409999999999998;0.11007215836298981
11:47.8;-0.6416433811450305;1.3800755734421672;-0.40955960466441377;2.449;0.3626717291701436
11:47.8;-0.77389151764452;1.5752376771422498;-0.6293232434714382;3.105;0.7671847293712724
11:47.8;-0.8910887596486433;1.7473630247313663;-0.8279607440913859;2.426;1.2891808720708133
11:47.8;-0.9901940835962567;1.8877946136461747;-0.9877021341887111;2.585;1.8462948652731517
11:47.8;-1.0691007271470534;1.9900169012995041;-1.0942630174732924;2.972;2.328075773913055
11:47.8;-1.1264990481144423;2.0501303328939673;-1.1378451529101037;2.972;2.627819095682409
11:47.8;-1.1618122603319436;2.0669690217855403;-1.113832942994109;2.972;2.674791789980245
11:47.8;-1.17520200586155;2.041915768437884;-1.0231730116020419;2.9789999999999996;2.4552709371541903
11:47.8;-1.1676249126386062;1.9784748493651518;-0.8723268604442195;2.737;2.0151766938977187
11:47.9;-1.14090407335193;1.8816662570305176;-0.6727277454190501;2.401;1.4442123929822173
11:47.9;-1.0977520746925347;1.7573212464323125;-0.43974255270035706;2.03;0.8483086970663754
11:47.9;-1.0416812136354585;1.611380699194995;-0.19120897413115492;1.776;0.3209528679354174
11:47.9;-0.9767720905418944;1.4493081630449711;0.05433648224973681;1.46;0.07692110226849398
11:47.9;-0.9073163352157639;1.275725514387496;0.2796128048525347;1.369;0.3236480743733083
11:47.9;-0.8373921918985497;1.0943628787908024;0.4705593879594554;2.369;0.4312257662474725
11:47.9;-0.7704705974267989;0.9083574068665259;0.6180083609175993;2.369;0.43252098399247285
11:47.9;-0.7091495626201306;0.7208122073981625;0.7186385292028973;2.369;0.36734190195969474
11:47.9;-0.6550576057889708;0.5354027336232238;0.7748498297464129;1.445;0.2717550477793782
11:47.9;-0.6088978318163724;0.35680145015009124;0.7935023664641964;0.679;0.17239285604492616
11:48.0;-0.5705773280230867;0.19079672539006048;0.7838685318793135;0.539;0.08533528785953454
11:48.0;-0.5393901685988568;0.04412218575286183;0.7554137759743094;0.49700000000000005;0.017978147759906627
11:48.0;-0.514260523855239;-0.07590926627535792;0.7159888736486166;0.49700000000000005;0.02795015721188043
11:48.0;-0.4940605954042552;-0.16188075788703124;0.6707571861412267;0.531;0.053646424346942584
11:48.0;-0.47799236149811225;-0.20680800379086178;0.6219279843905796;0.625;0.061479226946061914
11:48.0;-0.4659882069135373;-0.20471658505402213;0.5692416310429615;1.48;0.05430309820827054
11:48.0;-0.4590481384736546;-0.15125497399052473;0.5110568407653552;1.48;0.035484370222036106
11:48.0;-0.4593923538322118;-0.0443243445423023;0.44572507337823164;1.48;0.009075972048505632
11:48.0;-0.4703028184358019;0.11533799569142132;0.3728181210019579;1.51;0.020223065793346484
11:48.0;-0.4955839566286012;0.3237206156797781;0.2938508037038863;0.8009999999999999;0.04714270293416233
11:48.1;-0.5386786091178966;0.5733435558640263;0.21234783846792768;0.42100000000000004;0.06558318593810865
11:48.1;-0.6016053178170195;0.8533634152553872;0.13331290375273974;0.608;0.06844124085220332
11:48.1;-0.6839891027137358;1.1499783208183563;0.06231149850835458;0.738;0.04901251987141059
11:48.1;-0.7824687062332099;1.4471199329049125;0.004427928179169275;1.137;0.005013858476451547
11:48.1;-0.890659167643133;1.7274529472036937;-0.036686134826895124;1.879;0.05644425264603954
11:48.1;-0.9996896778700087;1.9736998065659408;-0.05949481098436148;2.95;0.11738845738738168
11:48.1;-1.0991898661443844;2.1701961234410407;-0.0648548652574939;2.95;0.1547085303455282
11:48.1;-1.1785085646703155;2.3044275724624073;-0.05586550561669772;2.95;0.15171884914273914
11:48.1;-1.2279580574389881;2.3682674036349907;-0.037408296036152415;3.417;0.10878830169018207
11:48.1;-1.2399532550661594;2.3587441296641245;-0.01551577689753794;3.677;0.04537949635677111
11:48.2;-1.2099522465880634;2.2782582130423426;0.0033718280861458885;3.325;0.009294726149878911
11:48.2;-1.1370758518945316;2.1341859290660974;0.013262585943466082;2.8310000000000004;0.03218473220771273
11:48.2;-1.024274660476718;1.9378843595914936;0.00955043031445909;2.388;0.01895689595691961
11:48.2;-0.877970082664414;1.7032711678195214;-0.01011750283551361;1.859;0.015129927502932367
11:48.2;-0.7071954802865743;1.445263679073423;-0.04530409156186803;1.3259999999999998;0.04630458447701874
11:48.2;-0.522380000893722;1.1783424628508994;-0.0927952700252139;0.615;0.05711943591409795
11:48.2;-0.334027563310122;0.9154183474179919;-0.14717831836020118;0.615;0.045003444409076665
11:48.2;-0.15158631263176647;0.6671080355375916;-0.20178358131094293;0.615;0.020405253120999278
11:48.2;0.01727735394342619;0.44144886902900826;-0.2497257770590718;0.524;0.0019046755724190126
11:48.2;0.1669514383400131;0.2439893762791578;-0.284880716029317;0.57;0.011604438574935325
11:48.3;0.2937811564285807;0.07813628971340955;-0.3027453499087986;0.6970000000000001;0.006949510288876654
11:48.3;0.39573336522740016;-0.05435027212961714;-0.30114873612039617;0.7809999999999999;0.006477172091972389
11:48.3;0.4719600808977245;-0.15279641431695232;-0.2807421577248831;0.737;0.020245386077058974
11:48.3;0.522395875770107;-0.217067599712122;-0.24517650656462273;0.531;0.02780184361949198
11:48.3;0.5475057272911753;-0.2471118119683028;-0.20091456956627282;0.37200000000000005;0.02718276327728664
11:48.3;0.548253021082515;-0.24265148225611252;-0.1567108323318928;0.8190000000000001;0.020847932840476893
11:48.3;0.5262740975216765;-0.20306094871389624;-0.12285580355212158;0.8190000000000001;0.013129073598867776
11:48.3;0.48414819590264313;-0.12745454949444984;-0.11026624496569733;0.8190000000000001;0.0068041870705692975
11:48.3;0.4256027163585276;-0.014997813751859192;-0.12943500923434365;0.8190000000000001;0.0008261979370299952
11:48.3;0.35552251412560815;0.1345774073073964;-0.189214796289516;0.725;0.009053038350513657
11:48.4;0.2796914135182772;0.3203145312711232;-0.29543043443015854;0.556;0.02646738337298124
11:48.4;0.20424083278972552;0.539324678709119;-0.44938341692735556;0.509;0.0495005367520734
11:48.4;0.1348264032425688;0.7861548272234157;-0.6464345714355411;1.011;0.06851846247474537
11:48.4;0.07562725711949668;1.0523971094609175;-0.8750249374213729;1.6540000000000001;0.06964315320743154
11:48.4;0.02837534794351317;1.3267450652437935;-1.116675985240865;2.279;0.04203933650713045
11:48.4;-0.00826352712986977;1.5956956490031455;-1.347563887582627;2.8960000000000004;0.017769077527540197
11:48.4;-0.03863740875567979;1.8449459810581783;-1.5419096698392685;5.489;0.10991338405850123
11:48.4;-0.06928126317548491;2.061212905110352;-1.6765487145986477;5.489;0.23941691327649361
11:48.4;-0.10752318802857376;2.233933266325019;-1.7351968119147219;5.489;0.41679362636597306
11:48.4;-0.1598781854154925;2.356351741548253;-1.7109138946915605;4.527;0.6445512923464991
11:48.5;-0.23052776461657404;2.4257916321300694;-1.6061207099396009;2.7289999999999996;0.8981624922287988
11:48.5;-0.3201430703152538;2.4431917834200356;-1.4306679781724367;1.6130000000000002;1.1190268871466686
11:48.5;-0.42535778077180353;2.4122265853842917;-1.1992642029099798;3.51;1.2305162450116014
11:48.5;-0.5391284468697934;2.338419320591012;-0.929429550460754;3.27;1.1717396195772474
11:48.5;-0.6519374248901627;2.228457008068224;-0.6401346341048116;2.595;0.9299968933066025
11:48.5;-0.7535090852412756;2.0896206619669284;-0.3505160773154212;2.441;0.5519044423090488
11:48.5;-0.8346110775123546;1.9292145639268115;-0.07827938697315198;2.441;0.1260410731996754
11:48.5;-0.8885584508606299;1.7540426509967764;0.16196007317428832;2.441;0.25242601742591286
11:48.5;-0.912151306304996;1.5700415732133015;0.3599143721338992;2.273;0.5154389409136052
11:48.5;-0.9059275974772003;1.3821019177049825;0.5101877105925609;2.0140000000000002;0.6387980070655196
11:48.6;-0.8737575230904631;1.194048344225973;0.6121856617820528;1.724;0.6386986414619804
11:48.6;-0.821919850223948;1.0087608952112752;0.6694638300993754;1.318;0.5550662551037632
11:48.6;-0.7578859665087522;0.828432316658921;0.6886183832347085;1.014;0.4323540285576803
11:48.6;-0.6890707927738503;0.6549248744335474;0.6779000991801788;0.846;0.3059292662484761
11:48.6;-0.6217722917517524;0.49014934657153697;0.6458352109535519;0.747;0.19682556718575137
11:48.6;-0.560442092425291;0.3363829328787489;0.6001281323024755;0.513;0.11313804876112252
11:48.6;-0.5073505235003831;0.19647780802209955;0.5469820973557593;0.513;0.054524881368240435
11:48.6;-0.46264944303930206;0.07395814235146322;0.49081519508790283;0.513;0.01679407303024884
11:48.6;-0.4247966282010602;-0.02698523738758958;0.43427240918190807;0.588;0.004978167919644384
11:48.6;-0.3912726837917727;-0.10162120427120727;0.378434317633528;0.742;0.015047154465574161
11:48.7;-0.3594744352707458;-0.144956513240541;0.3231449692093952;0.8;0.01683848999657997
11:48.7;-0.32761352753905154;-0.15216564511474623;0.2674105841548709;0.825;0.013330825091356033
11:48.7;-0.2954259199426663;-0.11913384412834126;0.20986571130409507;0.895;0.007386271033629304
11:48.7;-0.2645302081896124;-0.043052466556738465;0.1493234389608673;0.995;0.001700596555417219
11:48.7;-0.23834030016204008;0.07701707430420772;0.08536613751276252;0.792;0.0015670040916137115
11:48.7;-0.22152325224547428;0.23971187973373453;0.018836712657089173;0.441;0.0010002625042987749
11:48.7;-0.21910500436100838;0.4411352577134954;-0.04792597658528928;0.441;0.00463228251422794
11:48.7;-0.23544002054017846;0.6748081477362609;-0.11117947322923692;0.441;0.01766384384244429
11:48.7;-0.2732918850653511;0.9317576744961066;-0.16618977990694567;0.588;0.04231886657291725
11:48.7;-0.3331912141853813;1.2007601980415232;-0.20793664682632104;0.9640000000000001;0.0831918651409933
11:48.8;-0.41312451578939746;1.468817086270493;-0.23205919720978976;1.525;0.1408145297555595
11:48.8;-0.5085373306739728;1.721917384510341;-0.23588577947612663;2.128;0.20655556954436435
11:48.8;-0.6126131674288864;1.9460699126704888;-0.2192550171971168;2.391;0.26139321211514144
11:48.8;-0.7168049218234606;2.128514547256779;-0.18480300714305065;2.73;0.2819594373213476
11:48.8;-0.8116228789203209;2.2589452009557496;-0.13757960196901536;3.012;0.25224003918086396
11:48.8;-0.8876627861531489;2.3305204116764413;-0.0841718722727446;3.105;0.17412771927464596
11:48.8;-0.9367551592904769;2.340467004049743;-0.0316825522036665;3.105;0.06946223862998209
11:48.8;-0.9530046417071353;2.290195340767093;0.013179298631213678;3.105;0.028764699510181613
11:48.8;-0.9334818621326962;2.1849485027821913;0.04481757562650089;2.6460000000000004;0.0914103663274446
11:48.8;-0.8784411248842625;2.0330577167776465;0.05928736463937513;2.171;0.10588257964317335
11:48.9;-0.7910730250416221;1.8449248641500808;0.0546463547125998;1.751;0.07975473133786279
11:48.9;-0.6768987482310219;1.6319150810444707;0.03107602679662066;1.4469999999999998;0.034327861880525376
11:48.9;-0.542967664271565;1.405352027077524;-0.009263180413262634;1.216;0.007068369000970659
11:48.9;-0.397029304540647;1.175738576950334;-0.06261415503099317;1.0759999999999998;0.02922845471872025
11:48.9;-0.24681713193308025;0.9522298594966361;-0.12414193085452548;0.963;0.02917666124714562
11:48.9;-0.09952789413914898;0.7423226162094148;-0.18846005960440684;0.493;0.013923769706271443
11:48.9;0.03847265788511669;0.5517210101311542;-0.2500638937666946;0.493;0.005307899637890064
11:48.9;0.16173675091147696;0.38437458609387143;-0.30363394143026157;0.493;0.018876162048159284
11:48.9;0.26568044629202353;0.24269263186665932;-0.3442343741272479;0.409;0.02219578037659743
11:48.9;0.3464877145232089;0.12789239041491118;-0.3674625823053196;0.385;0.01628342161134648
11:49.0;0.40107688151818655;0.040393250929407445;-0.3696057940798917;0.45;0.005987909222422416
11:49.0;0.4272069074737342;-0.019830245545874804;-0.3478429757521447;0.539;0.0029467927707612944
11:49.0;0.423749198840448;-0.0529952456043648;-0.3005006620976757;0.639;0.006748251075118459
11:49.0;0.39108260488944924;-0.059377524019883644;-0.22734523817929944;0.778;0.00527930125995582
11:49.0;0.3314984878718066;-0.03927451634557985;-0.12989543421562597;0.847;0.0016911661732128642
11:49.0;0.24945834658165203;0.006984330694948836;-0.011754696124862832;0.7390000000000001;2.0480202205321328e-05
11:49.0;0.15156801618609247;0.07900360423443956;0.1210697836943458;0.7390000000000001;0.0014497403866441045
11:49.0;0.046215298898825675;0.17623062033973433;0.26000057934826176;0.7390000000000001;0.0021175879250041807
11:49.0;-0.05711436955450887;0.29775019858112073;0.3941078266302064;0.531;0.006702124741128136
11:49.0;-0.14881926858222058;0.44195486412160107;0.5109268104488097;0.34;0.03360437142912022
11:49.1;-0.22041569753541013;0.6061524805005228;0.5979625285859835;1.308;0.07989109564997808
11:49.1;-0.26589315266379704;0.786227964599787;0.644747594145037;2.42;0.13478618167345333
11:49.1;-0.28293871259737874;0.9765114981822512;0.6450247405180306;3.27;0.17821576008491016
11:49.1;-0.27369511478696257;1.1700082665919742;0.598354420226711;4.075;0.19160837141320308
11:49.1;-0.24471754639699184;1.3590476832276182;0.510430752579821;3.438;0.1697604962880889
11:49.1;-0.20594974162084084;1.5361905293491867;0.39190725034756435;2.105;0.12399084874565089
11:49.1;-0.168879850144507;1.6950438755486885;0.25638792225138524;2.105;0.07339328759788928
11:49.1;-0.14437311978894904;1.8306769015500362;0.11855122052854941;2.105;0.031333151082007384
11:49.1;-0.1407389246103969;1.939574930995465;-0.007208942650694812;2.434;0.0019678516762834733
11:49.1;-0.16240583096029718;2.0193190871211355;-0.10794001584852014;2.2680000000000002;0.03539884123218318
11:49.2;-0.20939946600991804;2.068297887256994;-0.17348559538786587;3.327;0.07513669344564256
11:49.2;-0.2776810886342714;2.085657354959744;-0.19793763835805434;2.775;0.11463510916340582
11:49.2;-0.3602076739434546;2.071431535083799;-0.18056463543883586;2.3569999999999998;0.1347274965089999
11:49.2;-0.4483941290389498;2.0266352477752148;-0.12568513989030985;2.208;0.11421402644599711
11:49.2;-0.5336265751599439;1.9531812783743439;-0.04155384419365072;2.497;0.04331030176154644
11:49.2;-0.6085540622906083;1.8536320001778173;0.061264578119165254;1.9280000000000002;0.06910860575941806
11:49.2;-0.6679827609716943;1.7308676591576928;0.1715846105891593;1.9280000000000002;0.19838436936628276
11:49.2;-0.7092968372437504;1.5877889441470465;0.27905975225020674;1.9280000000000002;0.3142809094874244
11:49.2;-0.7324247034407494;1.4271780421172555;0.37522342313833323;1.7730000000000001;0.3922212146535708
11:49.2;-0.7394276581337722;1.2517716098097482;0.4540306170699127;1.565;0.4202482646748707
11:49.3;-0.7338179582285924;1.0644995558152954;0.5119498631652374;1.3980000000000001;0.3999090676459631
11:49.3;-0.7197371438585478;0.8688020839682314;0.5477285415915804;1.338;0.34249965808918564
11:49.3;-0.7011347029066701;0.6689467676303115;0.561945899381519;1.119;0.26356487339967266
11:49.3;-0.6810758589553321;0.47027194083306606;0.556436208088796;0.853;0.17822143498781873
11:49.3;-0.661288388813736;0.27927056205434236;0.5336812760755457;0.665;0.09855939351478492
11:49.3;-0.6420297083724434;0.10343924190633519;0.4963143715932583;0.8009999999999999;0.032960766645161496
11:49.3;-0.6222933215261115;-0.04911208550809801;0.44684534372943824;0.8009999999999999;0.013656542275669729
11:49.3;-0.6002845476070348;-0.1701973069134109;0.3875966608703216;0.8009999999999999;0.03959951571957507
11:49.3;-0.5740386340813612;-0.25211778791529926;0.3207440175128087;0.866;0.04641979038819971
11:49.3;-0.5420604122111136;-0.2881980047463938;0.24836135995060776;0.9;0.038799192769316315
11:49.4;-0.5038860859278654;-0.2733050738864468;0.17244669957165787;0.917;0.023748432382044448
11:49.4;-0.460468619180992;-0.20436728268121662;0.09498027658952174;0.887;0.008938092377859558
11:49.4;-0.4142950307463287;-0.08087654463846693;0.01808111031819934;0.8490000000000001;0.0006058392530564544
11:49.4;-0.36918141760362;0.09467574578923844;-0.05574448287106894;0.784;0.0019484104893130222
11:49.4;-0.3297535084898847;0.3165224433691104;-0.12338711859908344;0.517;0.012878454770833289
11:49.4;-0.30069616005385624;0.5756175422311189;-0.18114174590920298;0.763;0.03135309744440363
11:49.4;-0.28592414592536286;0.8599647536945838;-0.225058176502385;0.763;0.05533835944948068
11:49.4;-0.2878492705163305;1.1552325742251648;-0.2515807759956929;0.763;0.08365887339486887
11:49.4;-0.30687771445247436;1.4455835521902924;-0.25829767418946586;1.351;0.11458533659192789
11:49.4;-0.3412055139045585;1.7147220514157324;-0.24461165202397223;2.0580000000000003;0.14311557982808856
11:49.5;-0.38693759380810205;1.9471933079541432;-0.2121546781628951;2.509;0.15984630724067994
11:49.5;-0.43853399622987765;2.1298517677384234;-0.1647725903352618;2.887;0.1538996437204378
11:49.5;-0.48955088454802664;2.253256315941309;-0.10802749881325635;3.248;0.11916336472945306
11:49.5;-0.5335765509364166;2.312676764286623;-0.04837736028142882;3.4739999999999998;0.05969718323144518
11:49.5;-0.5651759602371587;2.308440529485;0.007707202669368386;3.282;0.010055395358673202
11:49.5;-0.5806012515759937;2.2454883339817657;0.05450129926188287;1.722;0.07105516076347662
11:49.5;-0.5780868959317221;2.132241529183316;0.08758700690622494;1.722;0.10796157414087508
11:49.5;-0.5577355401551315;1.9791395879217926;0.10420512264056053;1.722;0.11502541651462787
11:49.5;-0.5211574384954559;1.7972819025886382;0.10339992361355356;1.722;0.09685127894294752
11:49.5;-0.47102129861104947;1.5974234554794022;0.08596471582057086;1.521;0.06468161191823772
11:49.6;-0.4105883923391671;1.389329431843289;0.0542085359892314;1.298;0.030922854842831547
11:49.6;-0.34327009975101935;1.1813873104431494;0.011587793966954857;1.0859999999999999;0.004699255329967352
11:49.6;-0.27227035097016206;0.9803903980812929;-0.0377264758089379;0.9;0.010070374884506914
11:49.6;-0.20037790687637402;0.7914500741661465;-0.08926299663233478;0.69;0.014156139125672118
11:49.6;-0.12993465129681853;0.6180244908420887;-0.1385816598202354;0.506;0.011128494856342569
11:49.6;-0.06294957692289116;0.4620680523799249;-0.18150381606632762;0.41;0.005279399393729488
11:49.6;-0.0012867579772465549;0.3243096081197068;-0.214271173182959;0.41;8.941706945593635e-05
11:49.6;0.05315539006217215;0.20465091188139634;-0.23367887112177121;0.41;0.002542028641176349
11:49.6;0.09834462467747879;0.10263998660019891;-0.2372122739720873;0.423;0.0023944422700887275
11:49.6;0.13214372492243812;0.01793748547140874;-0.22319413950256065;0.37799999999999995;0.000529042904482175
11:49.7;0.1524823572588109;-0.0493139840211941;-0.19092968170257069;0.304;0.0014356981337920632
11:49.7;0.1576462519040463;-0.0982805853241713;-0.14082645252352932;0.242;0.002181903924226654
11:49.7;0.1466325771976219;-0.12740590696638845;-0.07447275016613036;0.259;0.0013912892309211153
11:49.7;0.11951865376669607;-0.13453334032293524;0.005326620937294135;0.358;8.564803626617418e-05
11:49.7;0.07778995249597213;-0.11713388457526783;0.09455319617844393;0.486;0.0008615535304658413
11:49.7;0.0245526874466982;-0.07259418626707442;0.18802184451753293;0.285;0.0003351268200650608
11:49.7;-0.035460058891595314;0.0014516166669099385;0.2794985705076229;0.285;1.4387024710532756e-05
11:49.7;-0.09615831898311596;0.10673154967899476;0.36194076221951954;0.285;0.003714643791824711
11:49.7;-0.15067003559832445;0.2438741590549292;0.4279256138519727;0.278;0.015723924796948105
11:49.7;-0.19221904937562265;0.4119055398540901;0.47031674377774724;0.5760000000000001;0.03723784144682042
11:49.8;-0.21525646262088563;0.6077876135746343;0.48316109913936484;1.02;0.06321206889665554
11:49.8;-0.2166929473882214;0.8261161769746325;0.4627245584465116;1.5590000000000002;0.08283396554362615
11:49.8;-0.19695525632001243;1.0591168772621813;0.4084885048285822;2.318;0.0852101449428201
11:49.8;-0.16051837006960576;1.2970600214108656;0.323820922688246;3.1310000000000002;0.06742015096086801
11:49.8;-0.1155986245436132;1.529101399817592;0.21596354463129205;2.424;0.0381741520944696
11:49.8;-0.07287251158156083;1.7443706296828827;0.09518874704829135;2.569;0.012100076442885703
11:49.8;-0.04342765519284162;1.9330243460011396;-0.02654433235688866;2.569;0.0022283094973230473
11:49.8;-0.03650937877002599;2.087031604627749;-0.1369309322352592;2.569;0.010433620444991312
11:49.8;-0.057714171990138285;2.200587215490734;-0.2245141360429362;2.032;0.028514433347271557
11:49.8;-0.10804496434657249;2.2701950183786623;-0.27990488336380165;3.253;0.06865594864256104
11:49.9;-0.1839357029111835;2.2945660487173964;-0.2970501111679883;2.7119999999999997;0.1253707774066434
11:49.9;-0.2781453152429266;2.2744534248896833;-0.27421468364822943;2.387;0.17347604178301557
11:49.9;-0.3812719759916208;2.212449847477873;-0.2142703631905383;2.665;0.1807467203292665
11:49.9;-0.483526384408282;2.112722475394041;-0.12420146887699704;2.557;0.12687888736701247
11:49.9;-0.5763780511648765;1.980655517281813;-0.014047922829612855;2.519;0.01603719814653244
11:49.9;-0.6537597194010133;1.822389353646505;0.10448744784637826;1.9809999999999999;0.12448684193861152
11:49.9;-0.7126548693652601;1.6443081798675971;0.21961416594551725;1.9809999999999999;0.25734920115211557
11:49.9;-0.7530645073230777;1.452598834903065;0.3209651592229261;1.9809999999999999;0.3511039885802879
11:49.9;-0.7774748131870131;1.2529919849986044;0.4007122513553279;1.649;0.39036173748052927
11:49.9;-0.7899828466254889;1.0506958235648765;0.45409570337587;1.2770000000000001;0.3769138184809602
11:50.0;-0.7952399284915775;0.8504464634251204;0.47942230112547934;1.1079999999999999;0.32423760974552757
11:50.0;-0.7973878351982694;0.6566042473960759;0.47771118477451113;0.9490000000000001;0.2501144039603588
11:50.0;-0.7991622139085309;0.4732729217761996;0.4521410535108117;0.728;0.1710096193670576
11:50.0;-0.8013069927856576;0.3044309185610036;0.4073894567650523;0.563;0.09937965301742704
11:50.0;-0.8024147386150061;0.15404086338988265;0.34892891399897574;0.532;0.04312923947649914
11:50.0;-0.7992772033761264;0.02609427678115249;0.2823332144325787;1.169;0.005888499787668723
11:50.0;-0.7877295616892365;-0.07542364119012819;0.21263453481026615;1.169;0.012633347435614097
11:50.0;-0.763790915429816;-0.14662658080054702;0.14378890625938145;1.169;0.016103214433309684
11:50.0;-0.7247862377387816;-0.18385146384536402;0.07832940413195949;1.169;0.010437628933441469
11:50.0;-0.6701929649737456;-0.1838246292755779;0.017260418912829673;1.2570000000000001;0.0021264486288770468
11:50.1;-0.6020921132236137;-0.14391169959388517;-0.039784508896628615;1.099;0.0034472520785145564
11:50.1;-0.5251884952885617;-0.06248579887961906;-0.09408823807504282;0.897;0.0030876770261693684
11:50.1;-0.44640226655795257;0.06060181781499642;-0.14709961610794334;0.857;0.003979454851563809
11:50.1;-0.37407436730614835;0.2235404088109499;-0.1995367546976281;0.657;0.016685410485069736
11:50.1;-0.31688231291427216;0.42221042972985423;-0.25064564059550715;0.499;0.033534135289549474
11:50.1;-0.282619476042778;0.650079342577873;-0.2979092756111158;0.818;0.05473340644341172
11:50.1;-0.27702833715730013;0.8983532228490767;-0.33732271714034934;0.818;0.0839492683221055
11:50.1;-0.30287090076552203;1.1563136649654961;-0.3641274526669782;0.818;0.12752244478219885
11:50.1;-0.35936682521604413;1.4117969610447014;-0.3737884317609829;1.2690000000000001;0.1896426791318472
11:50.1;-0.44206454266268347;1.6518672816534161;-0.36301662778850013;1.745;0.26508634159098887
11:50.2;-0.5431701683169252;1.863761601441604;-0.3306659750850033;2.3480000000000003;0.33474629492962343
11:50.2;-0.6523454074733533;2.036080611850197;-0.27830977047301564;2.9339999999999997;0.36965878428046095
11:50.2;-0.7579460783679172;2.160038618322642;-0.2103103944476987;3.4130000000000003;0.3443186635298845
11:50.2;-0.8485481450494867;2.2304731769021653;-0.1333181791145206;3.4130000000000003;0.25232650173653376
11:50.2;-0.9144496155711632;2.246319499261594;-0.055333710851022976;3.142;0.11366352095087383
11:50.2;-0.9488008495343192;2.2103980014821882;0.015409840792442425;2.217;0.03231794190542297
11:50.2;-0.9481662833465011;2.1286061809914014;0.07152252046243247;2.217;0.14435194414326113
11:50.2;-0.9125340644446555;2.0088144127443703;0.10735468591310504;2.217;0.19679311799794996
11:50.2;-0.8449089417826272;1.8597888880133153;0.11962365237863462;1.9180000000000001;0.187970896671379
11:50.2;-0.7506245846558485;1.6903186162868624;0.10771362848548516;1.6580000000000001;0.13666648194042172
11:50.3;-0.6364902784447743;1.5085773151640927;0.07363290932651109;1.44;0.07070193630431734
11:50.3;-0.5099012838947862;1.3216986964045874;0.021646972630014923;1.248;0.0145886711638351
11:50.3;-0.37805181099843854;1.1355367349713732;-0.042344107788351064;1.097;0.0181779748266904
11:50.3;-0.2473596427893774;0.954575419097071;-0.1115549708628176;0.898;0.026340742876131945
11:50.3;-0.12315748326028877;0.7819555195099877;-0.179039117089265;0.728;0.01724212473038192
11:50.3;-0.009645961723478425;0.6196066357241228;-0.23827758889884318;0.539;0.001424114116347195
11:50.3;0.08995256110481337;0.4684929937836013;-0.2835998857169859;0.539;0.011951507406749452
11:50.3;0.17313616296811357;0.32897689306237266;-0.3104702196951185;0.539;0.017683699738622945
11:50.3;0.23786645311604154;0.20126648210083956;-0.3156969456457833;0.5670000000000001;0.015113847387111932
11:50.3;0.2824024307525435;0.08586723450855087;-0.2976075108599658;0.5429999999999999;0.007216718978083394
11:50.4;0.3052821436401218;-0.016063522910832108;-0.256194112232259;0.47700000000000004;0.0012563520256875474
11:50.4;0.3054660854315277;-0.10253695047288185;-0.19320467584877096;0.36700000000000005;0.006051472015552788
11:50.4;0.2826160924284674;-0.17075544909957097;-0.1121515959525628;0.447;0.005412238385489624
11:50.4;0.23745265238382124;-0.21731374295307343;-0.01823066448276663;0.528;0.000940733729075348
11:50.4;0.17210572360187085;-0.23852615562666749;0.08184273181763232;0.59;0.0033597846333375475
11:50.4;0.09035181803663317;-0.23083179665419676;0.1800783307374971;0.396;0.0037557267194457443
11:50.4;-0.002362458919735509;-0.1912443282942749;0.2675540512174124;0.396;0.00012088275822970958
11:50.4;-0.09916613225083266;-0.11781322547051667;0.3349019723713;0.396;0.003912687170984292
11:50.4;-0.19229467468532765;-0.01005049193241476;0.3730038162446776;0.31;0.0007208880920495258
11:50.4;-0.2739070270353539;0.13073172663509616;0.37394364276188297;0.6970000000000001;0.013390300570535819
11:50.5;-0.33714841698468667;0.3012236850510685;0.3321792227094328;1.234;0.03373515474289905
11:50.5;-0.37731013638405964;0.4961009044217831;0.24576953046258126;1.656;0.04600409919045508
11:50.5;-0.39281265335813376;0.7082188706581285;0.1174056618865287;1.6840000000000002;0.032661942102990726
11:50.5;-0.3856965251088275;0.9290501477971848;-0.045032610722895154;2.043;0.01613659906101016
11:50.5;-0.36141191728656025;1.149382525359125;-0.2286912623614171;2.392;0.09499847437806708
11:50.5;-0.3279189893317317;1.3602242831816602;-0.41702007517278555;3.205;0.18600904060742254
11:50.5;-0.29432765932004945;1.55372667772106;-0.5921132987433881;3.205;0.27077621592780543
11:50.5;-0.26940834943846675;1.7238567141824757;-0.737458153194172;3.205;0.34249134207497073
11:50.5;-0.26026859900763527;1.8666461315654108;-0.8400527729239413;1.982;0.40812231238123975
11:50.5;-0.27137368232980064;1.9800344637930714;-0.8913446956844178;1.557;0.47894557110065267
11:50.6;-0.30399159297627715;2.0634749640717005;-0.8873623957216157;3.1289999999999996;0.5566238329580682
11:50.6;-0.35610985981348614;2.1175094658806057;-0.8287216598192897;3.722;0.624910826344741
11:50.6;-0.422865690642667;2.1434231824899848;-0.7206010212220794;2.051;0.6531384432602914
11:50.6;-0.4974732010179748;2.142961449468269;-0.5722022163836658;2.358;0.610005266170571
11:50.6;-0.5724840123748963;2.1180759928816304;-0.39546873703559227;2.571;0.47953140790951443
11:50.6;-0.641069040737511;2.070722195934565;-0.2034806358585331;2.186;0.2701156385466022
11:50.6;-0.6980026979766377;2.0027246927228886;-0.009087745877865478;2.186;0.012703825747270288
11:50.6;-0.740178582086804;1.9157045100629257;0.17602188581102313;2.186;0.2495926001202579
11:50.6;-0.7666565744224744;1.8110715313646357;0.34193380549318275;2.0469999999999997;0.47476479544435196
11:50.6;-0.7783349919136054;1.690086558735929;0.4809476478504381;1.919;0.6326642705422039
11:50.7;-0.7773781768949153;1.553978893899136;0.5878939524352119;1.8259999999999998;0.7101931077665418
11:50.7;-0.7665463036061902;1.4040991590617546;0.6603008207305296;1.85;0.7106864088458432
11:50.7;-0.7485576272097236;1.2420870533610047;0.6983740381080128;1.829;0.6493298395510145
11:50.7;-0.7255694256565237;1.0700267810907533;0.7047544889891009;1.504;0.5471563859564977
11:50.7;-0.6988313870704835;0.8905532316454445;0.6840231711691752;1.196;0.4256994607867258
11:50.7;-0.6685524889914715;0.70687262688806;0.642001192192246;0.861;0.30339785694396654
11:50.7;-0.6339984209961762;0.5226952184987498;0.5850000513863308;0.861;0.1938619637952288
11:50.7;-0.5937880721550219;0.342134305390038;0.5191878634763082;0.861;0.10547575038570174
11:50.7;-0.546316946955021;0.16963502163721803;0.4501391357974241;0.812;0.041716413541538204
11:50.7;-0.49023139303841357;0.009934161458150353;0.38253713564974856;0.741;0.0018629703144572042
11:50.8;-0.4248940821856893;-0.13199660220798998;0.31995899355082946;0.6729999999999999;0.01794476421769389
11:50.8;-0.35079143519844763;-0.25104955738484874;0.26468494499714124;0.645;0.02330975350859196
11:50.8;-0.26983259781637847;-0.34210584996670546;0.21752820434993841;0.667;0.020080313554368307
11:50.8;-0.18548435782376177;-0.40016982898287834;0.17776736113518948;0.61;0.013194825710935281
11:50.8;-0.10269014024417536;-0.42052730519959747;0.14332123982991576;0.48200000000000004;0.0061891855598537274
11:50.8;-0.02754907064926706;-0.39896112242356996;0.11126435806853018;0.642;0.0012229074661085106
11:50.8;0.033214076146332094;-0.3320449963253454;0.07862706159811045;0.642;0.0008671438791172645
11:50.8;0.07290168166829993;-0.21751067935328663;0.043254900900369396;0.642;0.0006858883917793426
11:50.8;0.08552163240415367;-0.05466265222990261;0.0044538791539181265;0.353;2.0821169084570292e-05
11:50.8;0.06643059967743148;0.15519521724009055;-0.03674757072397972;0.281;0.0003788568469165167
11:50.9;0.012910174547749776;0.4083498812216427;-0.07772952520619685;0.34700000000000003;0.0004097798154876786
11:50.9;-0.07536493877895108;0.6983095765214907;-0.11470444211412535;0.38;0.006036672087876191
11:50.9;-0.1960231813192304;1.0155291872997543;-0.1433118614473509;0.456;0.028528699872888166
11:50.9;-0.3439101169962566;1.3473490613398078;-0.15929398725114885;0.767;0.07381157274066656
11:50.9;-0.5112609016993479;1.678318601651652;-0.15917964693118977;0.87;0.1365854779863884
11:50.9;-0.6881604766471838;1.9910631801394563;-0.1408886618224984;2.815;0.19304155683763208
11:50.9;-0.8632844070364584;2.2677070378795623;-0.10417082214198714;2.815;0.203932731484019
11:50.9;-1.0248412197682444;2.491619530715367;-0.05082945674292566;2.815;0.12979374968929122
11:50.9;-1.1615981157985982;2.649125384329295;0.0153002061872535;3.784;0.04708208602409789
11:50.9;-1.2638972056937594;2.7309068092300985;0.08866271508451759;4.175;0.30602694046378776
11:51.0;-1.3245711283236175;2.7329233491573564;0.16261571974808003;3.805;0.5886609965449183
11:51.0;-1.3396245293125317;2.656694632814679;0.2303036014966747;3.3169999999999997;0.8196443679322416
11:51.0;-1.3085587911239913;2.508893799171965;0.28554551940056444;3.1889999999999996;0.9374559448227026
11:51.0;-1.2342934963419163;2.300389523668055;0.3235091374076927;2.823;0.9185575547474931
11:51.0;-1.122700545346841;2.0449658502389187;0.34108837630421185;2.338;0.7830994396372524
11:51.0;-0.9818122480016529;1.757914997192226;0.3370215948550759;1.139;0.5816798856163541
11:51.0;-0.8208436411817928;1.4546764786218953;0.3118090200610455;1.139;0.37231928260957076
11:51.0;-0.6492458399327256;1.149715665046734;0.26750058388197984;1.139;0.19967530596802047
11:51.0;-0.4759805391130925;0.8557841349360982;0.20744233624866137;0.7809999999999999;0.08449885468053554
11:51.0;-0.30907712113095337;0.583562183315782;0.1360387664507428;0.522;0.02453673000712378
11:51.1;-0.1554221310686471;0.3415842432607668;0.05852954927267258;0.33399999999999996;0.003107319198612201
11:51.1;-0.020699470650999557;0.1363548249531769;-0.01925262477443127;0.203;5.434000777604767e-05
11:51.1;0.09059315291275381;-0.027406297088330648;-0.09117777402662015;0.107;0.00022637826194121184
11:51.1;0.1751174927401483;-0.14645437945378367;-0.15119872269206544;0.048;0.003877751869327329
11:51.1;0.23071307454755036;-0.21872139535509216;-0.1938461860923715;0.131;0.009781844064981338
11:51.1;0.2564975066971328;-0.24309518218210924;-0.21485559164838416;0.7609999999999999;0.013396956907312825
11:51.1;0.25304556852849613;-0.21931796643502724;-0.2118867591297132;0.7609999999999999;0.011759172596725556
11:51.1;0.22257947839374437;-0.14802329629027722;-0.18521088138752936;0.7609999999999999;0.00610213329263196
11:51.1;0.1690591908550416;-0.03090937681282749;-0.13819037447977098;0.903;0.0007221157688196052
11:51.1;0.09807539740212388;0.12898022726693203;-0.0773972819133063;0.9359999999999999;0.000979059134159627
11:51.2;0.016490277810925578;0.3269282406340377;-0.012247502921803158;0.731;6.60279724336439e-05
11:51.2;-0.06819272452139942;0.5562538443653541;0.04595323852338253;0.28300000000000003;0.001743119619864475
11:51.2;-0.14870969372791215;0.8081724971936964;0.08558507595420611;0.537;0.010285878418509623
11:51.2;-0.21908217678926373;1.071945488328244;0.09677571044633003;1.8130000000000002;0.02272720955548521
11:51.2;-0.27563994116796575;1.3354715597938585;0.07355025069634519;3.9389999999999996;0.027074531458486026
11:51.2;-0.3177275503826054;1.5863944853128944;0.015397368874588922;3.1039999999999996;0.007760908804189303
11:51.2;-0.3478096582155781;1.8135547223187753;-0.07238315190425837;3.1039999999999996;0.04565725449975739
11:51.2;-0.3708687872516965;2.008307710117541;-0.17959420904695064;3.1039999999999996;0.13376511541055972
11:51.2;-0.3932183256864787;2.165184837021045;-0.2927455240111265;2.9019999999999997;0.2492407160267777
11:51.2;-0.4210264551726378;2.281739737736531;-0.3968928710552895;2.641;0.38128418311951545
11:51.3;-0.45896358796564474;2.3579001607528496;-0.477721626939517;3.843;0.5169857192985802
11:51.3;-0.5093352979058822;2.3952725690362966;-0.5237431627478215;3.1719999999999997;0.6389650179352071
11:51.3;-0.5717872622962245;2.39657774465102;-0.5279451660716578;2.013;0.7234604865957662
11:51.3;-0.6434385762369692;2.3651584448013105;-0.4883250965871836;2.037;0.7431498240602505
11:51.3;-0.71931849642217;2.30455176111786;-0.4074369838851996;2.423;0.675411021165553
11:51.3;-0.7930718667802095;2.21822549182683;-0.2915101578448069;2.479;0.5128282353577863
11:51.3;-0.857866158462449;2.109518320763142;-0.14953283926465696;2.479;0.27060724322110125
11:51.3;-0.9073397213960986;1.9817087692282342;0.00764104437280198;2.479;0.013739232619823627
11:51.3;-0.9364146712011592;1.8381050399279724;0.1682545091900399;2.292;0.28960446094653197
11:51.3;-0.9418727509598285;1.6820757822731758;0.32074312575006547;2.189;0.5081537653240799
11:51.4;-0.9226725323180135;1.5169919799499754;0.45490314353816325;2.1109999999999998;0.6367219396849924
11:51.4;-0.8800227655253461;1.346110891904542;0.5629288195339762;1.954;0.6668501124102103
11:51.4;-0.8172373135314133;1.172465327020705;0.6400788709876758;1.8319999999999999;0.6133123177937745
11:51.4;-0.7393935731607076;0.998803459194613;0.6848440023520834;1.7069999999999999;0.5057633624818344
11:51.4;-0.6528007355030623;0.8275881725526653;0.6986305992656427;1.4169999999999998;0.3774352984387762
11:51.4;-0.5642889054272843;0.6610452271634771;0.6850555344477203;0.505;0.2555397495434675
11:51.4;-0.48038822937817455;0.501252816766193;0.6490135012133599;0.505;0.15627982461055923
11:51.4;-0.40654464019772246;0.35027889830061165;0.5957692946813136;0.505;0.08483993581016777
11:51.4;-0.34653054475464806;0.2103665561253757;0.530339434518594;0.7390000000000001;0.038660916010879974
11:51.4;-0.3021412684011049;0.08413404075153309;0.4572679916740886;0.987;0.011623919611672527
11:51.5;-0.27320076913910535;-0.025261780352523945;0.3806583696568757;0.6459999999999999;0.0026271281354982912
11:51.5;-0.25786699721859124;-0.11403221249187351;0.3041929246332896;0.355;0.008944836819993168
11:51.5;-0.2531863096360142;-0.17775207986208164;0.23096713159656662;0.452;0.010394535590574223
11:51.5;-0.2557920240725831;-0.21147032940359128;0.16319611804813966;0.596;0.008827673545612306
11:51.5;-0.2626182679093497;-0.2099720151551547;0.1020193933440468;0.562;0.005625603064027831
11:51.5;-0.27151687186603657;-0.16821590408128784;0.047611972593179244;0.72;0.002174603338843849
11:51.5;-0.28169005716769613;-0.08193955606345182;-0.000368652520614016;0.72;8.509074621855722e-06
11:51.5;-0.2938687452430501;0.05161519071261761;-0.04217515419247812;0.72;0.0006397165906566773
11:51.5;-0.3101875894536249;0.23293687542909428;-0.07745998880129974;0.72;0.005596803936758591
11:51.5;-0.33374234224806515;0.459545530812667;-0.10505392387319058;0.332;0.01611209948516501
11:51.6;-0.3678697590878405;0.7254825183222317;-0.12311067135564642;0.242;0.032856155058407936
11:51.6;-0.41527066840299476;1.0211070131876805;-0.12959828641756452;0.701;0.05495431200703042
11:51.6;-0.477166893287121;1.333288545291584;-0.12302365874026572;1.249;0.07826779353832293
11:51.6;-0.5526837609422113;1.6460452363816005;-0.10316843677228028;1.475;0.09385670869378981
11:51.6;-0.6385856572815157;1.9416419155083917;-0.07155174695828996;1.63;0.08871734583134758
11:51.6;-0.7294130624052748;2.202115050771881;-0.031420109900550657;3.265;0.05046859812228263
11:51.6;-0.8179891534769966;2.4110733341471184;0.01271055046868259;3.265;0.025068152281954498
11:51.6;-0.8961875818207882;2.555451428489267;0.055753405603883685;3.265;0.12768443325667853
11:51.6;-0.9558301082601791;2.6268432537709554;0.09278037094459853;3.483;0.23295442794382634
11:51.6;-0.9896170197022846;2.6221963955585217;0.11967102569280083;3.4219999999999997;0.3105427433277623
11:51.7;-0.9920027964902849;2.5438483454151455;0.13361953662590273;3.214;0.33718952501261795
11:51.7;-0.9598932377499755;2.398985809761911;0.1334344045266921;2.8960000000000004;0.3072687779043112
11:51.7;-0.8930361680162399;2.1986470210881994;0.11958829827885717;2.488;0.2348081927459902
11:51.7;-0.7940376363137791;1.95641673324791;0.09404203678565129;2.011;0.14609134356334094
11:51.7;-0.6680090552201422;1.6869827670817303;0.059918930944297115;1.581;0.06752382754350196
11:51.7;-0.521907951807666;1.4047317196913243;0.02110669770890597;0.628;0.01547417817608895
11:51.7;-0.3636976825243464;1.1225686707593716;-0.018156504164689436;0.628;0.0074128580680349635
11:51.7;-0.2015114130499757;0.8511340878232886;-0.05366667671525841;0.628;0.009204545213431772
11:51.7;-0.04298979397360956;0.5985129956280597;-0.08157869552671525;0.426;0.0020990157873620476
11:51.7;0.10514654313823843;0.37039750908909114;-0.098673594508603;0.355;0.0038429435550706935
11:51.8;0.2373290925550111;0.1705699858282121;-0.10260563576915736;0.41;0.004153601310063636
11:51.8;0.34923994944259035;0.0015612207448605676;-0.09217412134432627;0.526;5.025707820400865e-05
11:51.8;0.43781982284481175;-0.13465171601540307;-0.06762846730923751;0.603;0.0039869139132322085
11:51.8;0.5012172622268491;-0.23604447248324165;-0.03094705219319603;0.634;0.00366133226016517
11:51.8;0.5387124042631686;-0.3001674271328282;0.014026668338772537;0.639;0.0022681672037531417
11:51.8;0.5506522166858193;-0.32407856986286243;0.061711519753491116;0.6809999999999999;0.011012703516213508
11:51.8;0.5384221359464444;-0.3046088276824463;0.10523113471012296;0.6809999999999999;0.017258762213923542
11:51.8;0.50444385339622;-0.23890186501527708;0.13710756585735268;0.6809999999999999;0.01652318613865023
11:51.8;0.45215488435707146;-0.12511898560853707;0.15007101340070167;0.6809999999999999;0.008489991522818648
11:51.8;0.38591713477939926;0.03680215317869896;0.13788083072120344;0.693;0.001958263736768767
11:51.9;0.31081001573532097;0.24443546859237264;0.09611551628669007;0.57;0.007302183334494756
11:51.9;0.23227361878876143;0.4923109049678548;0.022903617231367943;0.466;0.002619047765601627
11:51.9;0.15558366080846642;0.7716392202708341;-0.08045633935954707;0.509;0.009659141950024718
11:51.9;0.08517125303846716;1.0704400298051877;-0.20907722285118482;0.872;0.0190617206588158
11:51.9;0.02386084956145548;1.3741871426980459;-0.35444675602491044;2.4219999999999997;0.011622051334269128
11:51.9;-0.02779876896711248;1.6670399201924686;-0.5050763561603977;3.7060000000000004;0.02340607555923478
11:51.9;-0.07185225646813914;1.9335443540339998;-0.6480261846743633;3.7060000000000004;0.09002996990680238
11:51.9;-0.11269038658263879;2.160383756463874;-0.770960344653928;3.7060000000000004;0.18769375033472938
11:51.9;-0.15618675698180748;2.3376390230476503;-0.863884180689822;3.361;0.31541124832881595
11:51.9;-0.20834049120091858;2.459285825404422;-0.9198636272943399;2.734;0.4713094383969045
11:52.0;-0.27371215949667727;2.5230625480201136;-0.9347420556171219;2.7260000000000004;0.6455262255980889
11:52.0;-0.3541002402785682;2.5300351087381943;-0.9065682864250271;3.175;0.812181872040028
11:52.0;-0.4479190658267485;2.484105681787039;-0.8355190616230986;3.489;0.9296639260973254
11:52.0;-0.5504823327902852;2.3915212698641177;-0.7244085555030559;3.034;0.9536767695869414
11:52.0;-0.6550113467460056;2.2603116178954887;-0.5791798421477447;2.596;0.8574929908983309
11:52.0;-0.7539644630132435;2.0996026469007223;-0.40880642388615646;2.2119999999999997;0.6471511089455456
11:52.0;-0.8403153176250348;1.9188521006407966;-0.2245336980109234;2.2119999999999997;0.36204729843762085
11:52.0;-0.9085463871159116;1.7271212634321649;-0.038707954805326135;2.2119999999999997;0.060739353081046804
11:52.0;-0.9552467199614614;1.5324712452098004;0.13658005643333218;2.048;0.19993792346511072
11:52.0;-0.9792955241217952;1.3415108231769408;0.2908784053558768;2.191;0.38213730030112425
11:52.1;-0.9816827153254971;1.159123809265129;0.41652765456217666;1.517;0.47396340613078214
11:52.1;-0.9650637785081565;0.98844373552722;0.5092482158507924;1.41;0.485777600233132
11:52.1;-0.9331704073428374;0.8311105503870777;0.568025602196827;1.3559999999999999;0.44054235008245296
11:52.1;-0.8901893865778141;0.6877426081936019;0.5944805452078595;1.273;0.36395357523334465
11:52.1;-0.8401845454003908;0.5584910602567108;0.592022843204393;1.11;0.27779816892635445
11:52.1;-0.7866055392955889;0.4435478939866844;0.5650002623303253;0.725;0.19712702667566645
11:52.1;-0.7319270052341436;0.34352279693337556;0.5179707954764423;0.725;0.1302352680115105
11:52.1;-0.6774749833311999;0.25965935110526933;0.45519136591122794;0.725;0.0800739488225525
11:52.1;-0.6234877058354672;0.1938926334222326;0.3803679225830841;0.7340000000000001;0.04598255385334207
11:52.1;-0.5694142414953154;0.14874578768139798;0.2966416917735457;0.71;0.025124949071495498
11:52.2;-0.5144002435740621;0.12706377442214348;0.2067313404728883;0.713;0.013512298731666776
11:52.2;-0.4578667337422353;0.13161238018908303;0.11314749088358741;0.725;0.006818373099910972
11:52.2;-0.4000634805148339;0.1646018168207082;0.01843654599027111;0.7390000000000001;0.001214068229976783
11:52.2;-0.34247895269207534;0.2272102652391914;-0.07457073464094743;0.858;0.0058027018564077906
11:52.2;-0.28800912651861105;0.3191994058393781;-0.16258225412460456;0.866;0.014946567399241155
11:52.2;-0.24082048664974526;0.43872301967759847;-0.24188241431439975;1.005;0.025555721508788185
11:52.2;-0.20590611513908433;0.5823734969458666;-0.3086801482428359;1.005;0.03701515288552027
11:52.2;-0.18842643872287831;0.7453836150096392;-0.3596737657674178;1.005;0.05051617322965384
11:52.2;-0.19297732229990064;0.9218299116151969;-0.39259191809749344;1.005;0.06983906669291562
11:52.2;-0.22289071517543432;1.104765087237085;-0.406518862200971;0.946;0.10010196904445379
11:52.3;-0.27960831855509577;1.2863439066331483;-0.4019668240644397;1.085;0.1445763951702995
11:52.3;-0.36215084363576344;1.4580617645616214;-0.3807669362953997;1.4080000000000001;0.20105952501761654
11:52.3;-0.4667334443604163;1.6111804137359769;-0.34588116568119487;1.713;0.2600997948288081
11:52.3;-0.5866202008095415;1.737328288005235;-0.3012048849624946;1.946;0.30697352151619367
11:52.3;-0.7123453538572991;1.829190264582232;-0.2513472704953396;2.262;0.3275093104895155
11:52.3;-0.8324162413053651;1.8811704257055069;-0.20130361097022947;2.481;0.31522470934264596
11:52.3;-0.934490529028041;1.8899158359096273;-0.1559595236559574;2.481;0.2754414324803438
11:52.3;-1.0068212655994022;1.8546218797621372;-0.11949576361838365;2.481;0.2231311829288165
11:52.3;-1.0396634331610546;1.777087152492046;-0.09486027575460355;2.478;0.17526123967112936
11:52.3;-1.026417793194017;1.6615222722801848;-0.08344379409592025;2.316;0.14230638355925657
11:52.4;-0.9644099073368214;1.5141408122003486;-0.08499690607290318;2.079;0.12411693611859845
11:52.4;-0.8552494990759659;1.3425882825344742;-0.09774403404238657;1.764;0.11223438731041976
11:52.4;-0.7047390922034048;1.1552895041352673;-0.11860974668505665;1.365;0.09656940795163402
11:52.4;-0.5223524430287247;0.960801272624018;-0.14349422148868254;0.982;0.07201643390360732
11:52.4;-0.3203571358175615;0.7672507806169574;-0.16760197067955784;0.6679999999999999;0.041195602782131475
11:52.4;-0.11268834999936143;0.5819280087079313;-0.18587154579743514;0.544;0.012188806746337159
11:52.4;0.08629235489961336;0.411078875452836;-0.19352642081264224;0.544;0.006864955799623319
11:52.4;0.2629982099175154;0.2599097106713737;-0.18669771442424113;0.544;0.012761869508014834
11:52.4;0.4056576424476839;0.1327624211442637;-0.16302776611193012;0.7190000000000001;0.00878003816927001
11:52.4;0.5051662923758197;0.03337124515557144;-0.12217040016389373;0.902;0.002059552049604981
11:52.5;0.5557808751759588;-0.0349042991165515;-0.06611183161030378;1.037;0.0012825128033647803
11:52.5;0.5556530373958289;-0.06895547645425501;0.0007752209258306353;1.133;2.9702837794967717e-05
11:52.5;0.507129660345623;-0.06596068738572393;0.0720157416123639;1.1909999999999998;0.0024089712779951497
11:52.5;0.4166942243597719;-0.023595258598384097;0.13964847485615872;1.026;0.0013730249192115697
11:52.5;0.29442162879279976;0.059620905849985785;0.19506911285315578;0.733;0.0034241816062379007
11:52.5;0.15289600142759155;0.1839168718492434;0.22995443742881191;0.644;0.00646635426265647
11:52.5;0.005707033559729768;0.3478830671469375;0.23715690500025238;0.644;0.0004708466564620261
11:52.5;-0.1341848078981137;0.5481343617502218;0.21151829229739325;0.644;0.015557446225477585
11:52.5;-0.2558948325226053;0.7790366275474393;0.1505830699604567;0.644;0.030018952940798822
11:52.5;-0.3517034552645683;1.0325633177363196;0.055192117161870155;1.0390000000000001;0.020043353281180756
11:52.6;-0.41777304751249156;1.2984176696670415;-0.07010505178654303;2.062;0.03802805817756954
11:52.6;-0.4544815204176897;1.5645469630482876;-0.21700602590774418;2.833;0.15430380187723677
11:52.6;-0.46627317930237716;1.8180490645443252;-0.37408252197987785;2.457;0.31711256603004295
11:52.6;-0.46090884303035146;2.0463060549469474;-0.5281972982411697;3.0180000000000002;0.498174857630298
11:52.6;-0.4481363452830954;2.238116108971162;-0.6663304447115811;3.052;0.6683168913046733
11:52.6;-0.43801979539828856;2.3846320926943165;-0.7771790686652411;2.833;0.8117760197597835
11:52.6;-0.43929138796047346;2.4799636020175186;-0.8521974975813525;2.833;0.9284066673331081
11:52.6;-0.45804194387985675;2.5213872752301114;-0.8861485403601785;2.833;1.023413949564463
11:52.6;-0.49692195388643645;2.5092387042672883;-0.8773209983007794;2.833;1.0939278677628086
11:52.6;-0.5549059480213447;2.4466085446438197;-0.8274792455502784;2.826;1.1234169650324723
11:52.7;-0.6276065427388009;2.338914724243113;-0.7415627353554362;2.625;1.0885534236886703
11:52.7;-0.708060115760617;2.193367511486511;-0.6271486156408429;2.481;0.9739844113620552
11:52.7;-0.7878381292225229;2.01833535675986;-0.49369251051502927;2.307;0.7850311008400541
11:52.7;-0.8583036933536979;1.8226406657390217;-0.3515723933503707;2.155;0.549992544746375
11:52.7;-0.9118265634184964;1.614838297561738;-0.2110006053245026;2.103;0.31068835938877437
11:52.7;-0.9427706192881;1.4025507904952828;-0.08095150972570277;1.537;0.10704085996618552
11:52.7;-0.9481067997272402;1.1919611930159137;0.031686922721447776;1.537;0.03580959771621484
11:52.7;-0.9276046104145128;0.9875722911046741;0.1225793077948492;1.537;0.11229203678330357
11:52.7;-0.8836529797177082;0.7922847134523784;0.19000225920268216;1.3119999999999998;0.1330214837656512
11:52.7;-0.8207904248952561;0.607743845562944;0.2345769986742158;1.119;0.11701412147776072
11:52.8;-0.745017744121662;0.4348381733457809;0.25878439338718806;0.884;0.08383634975277994
11:52.8;-0.6629776234187453;0.27423584517941324;0.26635778719235403;0.631;0.0484271029725234
11:52.8;-0.5811082214147157;0.12688152262577987;0.26162617308836633;0.431;0.019290193770236545
11:52.8;-0.5048909646266794;-0.005602899537604012;0.24887035655763262;0.313;0.0007040177424230313
11:52.8;-0.43831130515533256;-0.12067065162115315;0.23176682285047565;0.23;0.012258451061906449
11:52.8;-0.3836226597608867;-0.21481143863676938;0.21300603817947064;0.415;0.017553089633510217
11:52.8;-0.3414366188872681;-0.28374139252325437;0.19414323944911968;0.415;0.018808539125194604
11:52.8;-0.3110808605884171;-0.3227774744573159;0.17566614284184864;0.415;0.01763861887572285
11:52.8;-0.29111957819294504;-0.327320187713192;0.1572033669381236;0.608;0.014979801148256307
11:52.8;-0.27992969120081207;-0.29339058842247884;0.13779987479562475;0.67;0.01131732965068856
11:52.9;-0.2762310999239889;-0.2181915682269292;0.11623272359891185;0.6709999999999999;0.007005496991836178
11:52.9;-0.2794680557625008;-0.10065420308473365;0.09137849325981602;0.745;0.0025704436111144975
11:52.9;-0.2899583895316363;0.05809074414485301;0.06262547771880056;0.764;0.0010548571976579063
11:52.9;-0.3087751954327293;0.25438888542155313;0.03024603550604353;0.506;0.0023757951718637936
11:52.9;-0.3373849659512511;0.4819581544450859;-0.004413775885976749;0.321;0.0007177039502595107
11:52.9;-0.37712683277573456;0.732047988389702;-0.03902750694405099;0.9009999999999999;0.010774516610658225
11:52.9;-0.42866240004451966;0.9938417029139074;-0.07064886948610079;0.9009999999999999;0.030098012920305228
11:52.9;-0.4915281075885961;1.2550270789509688;-0.09623373443788392;0.9009999999999999;0.05936477052222902
11:52.9;-0.5638845560290627;1.502480988744808;-0.11320909327687412;1.436;0.09591366748075375
11:52.9;-0.6425054171686281;1.7230875892777873;-0.12000964843196835;2.031;0.13286185495659925
11:53.0;-0.7229915480058534;1.9047157638992478;-0.11650135434268412;2.397;0.16043324599940573
11:53.0;-0.8001454030512145;2.0372877606245594;-0.10417135462291238;2.4619999999999997;0.16981247908185074
11:53.0;-0.8684274299163529;2.1137859839305144;-0.08598601495148041;2.7510000000000003;0.15784192479971493
11:53.0;-0.9224382977900107;2.1310345126081396;-0.06594179125592418;3.193;0.12962493427715144
11:53.0;-0.9573842998777272;2.090096929805006;-0.048446651417136;3.375;0.09694300841155329
11:53.0;-0.9694713953061498;1.996124869774225;-0.037677609320519646;1.75;0.07291318066536492
11:53.0;-0.9561762426775325;1.8575936171653713;-0.03700583808239861;1.75;0.06572928428086082
11:53.0;-0.9163863586572478;1.6851221530590708;-0.048540919260850364;1.75;0.07495800171797645
11:53.0;-0.8504430602501151;1.4902515072538849;-0.07283014404515607;1.75;0.0923030347932979
11:53.0;-0.7601139680014272;1.2844392404084095;-0.10873702994138731;1.393;0.1061621596552704
11:53.1;-0.6484934678180522;1.0782976778947213;-0.15350592092547455;1.071;0.10734193189302697
11:53.1;-0.5198299518565853;0.8810164139517526;-0.20299465463711056;0.833;0.09296723210757409
11:53.1;-0.3793033506089667;0.6999533862362123;-0.25203320325779854;0.655;0.066913470784506
11:53.1;-0.23278711062098859;0.540419465322529;-0.2948595506757336;0.545;0.037094123425233126
11:53.1;-0.0866137874606662;0.4056720233919618;-0.32559792358279627;0.40299999999999997;0.011440465999774769
11:53.1;0.05265739715758432;0.2971005245764349;-0.3387681149755758;0.409;0.005299871433306137
11:53.1;0.17848058272415368;0.21456305154034178;-0.3298335242555364;0.409;0.012631086450116355
11:53.1;0.2845795505292979;0.1568254919813709;-0.2957932936413951;0.409;0.013201055927918072
11:53.1;0.36523980464193057;0.12205362459225884;-0.23579934848805786;0.649;0.010511661900403898
11:53.2;0.415675176108285;0.10830132520682326;-0.15174156665781674;0.847;0.006831128012312671
11:53.2;0.4324980199598549;0.11392931047553223;-0.048691262929684245;0.983;0.0023992230860874824
11:53.2;0.4142714750041493;0.1378900140688752;0.0649633772929762;1.02;0.003710961436746573
11:53.2;0.36206527900870017;0.17983184546367065;0.17787644105056516;1.002;0.011581689349476015
11:53.2;0.2798968262484801;0.24000580034195249;0.2767335161286298;1.205;0.01859008916755392
11:53.2;0.17490140571307664;0.3189949999305293;0.3478459700163155;2.0069999999999997;0.019407256773694703
11:53.2;0.0570441677291754;0.417337804486929;0.3790512618412961;1.217;0.009023955020102463
11:53.2;-0.061764560164915445;0.5351544150310946;0.36141770105514187;0.955;0.011946147834375791
11:53.2;-0.1690994444425094;0.6718559372500946;0.29038666507624006;0.955;0.03299096426236867
11:53.2;-0.25371740090619815;0.8259212297030677;0.16637152142016626;0.955;0.034863250099042085
11:53.3;-0.30717650822140663;0.9946863364584246;-0.0049526209681382966;1.558;0.0015132449860749781
11:53.3;-0.32513550921936935;1.174174956797219;-0.21260431225288703;2.418;0.08116509202298128
11:53.3;-0.3081732253307748;1.3591027037981942;-0.4407737598090006;2.4930000000000003;0.18461326889951357
11:53.3;-0.2619535685904718;1.5431396586325439;-0.6701945828092698;2.356;0.27091338646820506
11:53.3;-0.19659578112413106;1.7193394350814548;-0.8803890425514583;2.381;0.2975845959175347
11:53.3;-0.12525512305187406;1.880583926496324;-1.052239435518601;2.073;0.24785791492096423
11:53.3;-0.06208283812517798;2.0200159713479837;-1.1702640433054439;3.437;0.14676085296312796
11:53.3;-0.019884787850913934;2.131505612169061;-1.2243034938963302;3.437;0.051891536615089634
11:53.3;-0.007952634692551868;2.2101216445097176;-1.2105223037068693;3.437;0.021276491139968098
11:53.3;-0.030576031294801728;2.2525165330740817;-1.131592267920295;3.12;0.07793617238224693
11:53.4;-0.0865551180373612;2.257164489944686;-0.9959684370892277;2.481;0.19458149588277748
11:53.4;-0.169744607935983;2.224440979337276;-0.8164299811791935;2.391;0.3082732345662354
11:53.4;-0.27043174791179314;2.156540965033179;-0.6083267721037223;2.6489999999999996;0.354774435268501
11:53.4;-0.37720333854094823;2.057226057860768;-0.3879486566701995;2.5340000000000003;0.30104526237674606
11:53.4;-0.47888805688981806;1.9313948646563641;-0.17112297958462314;2.145;0.15827539719883665
11:53.4;-0.5661916018965745;1.7845061191911418;0.02807078769127875;2.137;0.028361948518119965
11:53.4;-0.6327660309272254;1.6219559759479096;0.19847527807349588;1.67;0.20369887850587431
11:53.4;-0.6756289966837825;1.4485697669559914;0.3327270859275961;1.67;0.3256385810059771
11:53.4;-0.6950130121723578;1.2683535988338324;0.4276211428223928;1.67;0.37695755420275256
11:53.4;-0.6938083030580262;1.0845614278881304;0.4839046372861875;1.531;0.3641274600232734
11:53.5;-0.6767490710659024;0.9000208831085681;0.5055726032684511;1.273;0.3079383557241356
11:53.5;-0.6494561915355831;0.7175849358956068;0.4988163100831249;1.041;0.2324683429603554
11:53.5;-0.6174520062894042;0.5405615527689717;0.47083860029113034;0.804;0.15715218348451981
11:53.5;-0.5852833247699892;0.373005498713286;0.4287835274600891;0.614;0.09360940346855347
11:53.5;-0.5558867670371676;0.21981003581840453;0.378967180429531;0.534;0.04630580656914168
11:53.5;-0.5303054907297516;0.0865910855115638;0.32644351021282564;0.5579999999999999;0.014990197227360667
11:53.5;-0.5078238535331788;-0.020599696511872417;0.2747954038970702;0.706;0.002874639464310132
11:53.5;-0.4865009460921878;-0.0956707405423453;0.22602782200728072;0.706;0.0105202176527909
11:53.5;-0.46395951079273906;-0.13293662065969386;0.1805636020790982;0.706;0.011136659111288317
11:53.5;-0.4382153542798803;-0.12758939449733495;0.13745784307053707;0.706;0.007685492297686454
11:53.6;-0.4083737328847386;-0.07620410167470622;0.09492515847981388;0.912;0.0029540475292357386
11:53.6;-0.37509687929924074;0.022719522122635637;0.05113825260703378;1.27;0.00043580130595350297
11:53.6;-0.34077472659253044;0.16823358024405527;0.005091699313930871;0.951;0.0002919058605115299
11:53.6;-0.3093357784154484;0.3565547611757127;-0.042768171946317275;0.474;0.0047171217089266556
11:53.6;-0.28568662864018896;0.5809384019894406;-0.09036668263689347;0.322;0.014997826988886106
11:53.6;-0.2748772516544644;0.8318804211004842;-0.1342986174334793;0.58;0.030709393873451177
11:53.6;-0.28119254069761956;1.097640351695653;-0.17048845421711406;1.682;0.05262096802875224
11:53.6;-0.30738174117422556;1.3650077538067418;-0.19506769482168157;1.682;0.08184620300491645
11:53.6;-0.35413780885303914;1.620162096887847;-0.2052784954603701;1.682;0.11778072400836505
11:53.6;-0.41982635977356064;1.8494807024348707;-0.20016847963630727;1.682;0.15542296797983332
11:53.7;-0.5004356719897779;2.0402757055146954;-0.18089754310555894;2.112;0.18470122938648909
11:53.7;-0.5897470498859133;2.181553566736459;-0.15060377383713192;2.364;0.19376151117666832
11:53.7;-0.6797368627627036;2.2648522525339585;-0.11389333772280001;2.7110000000000003;0.17533919942649157
11:53.7;-0.7612128043976845;2.2850768873351495;-0.0761124804040347;2.987;0.13239231547620925
11:53.7;-0.8246696201077112;2.24115134996165;-0.04259364772012261;3.2489999999999997;0.07872198147566341
11:53.7;-0.8612999464273375;2.136271962484203;-0.018005506087549722;3.1430000000000002;0.03312960772416574
11:53.7;-0.8640197385836319;1.9775958535327314;-0.005838264761669047;1.8430000000000002;0.009975737047731926
11:53.7;-0.8283340010289791;1.7753644609601966;-0.008011319088544223;1.8430000000000002;0.01178140377001112
11:53.7;-0.7529153571721576;1.5417046640515832;-0.024609311133651432;1.8430000000000002;0.02856582681123284
11:53.7;-0.6398420885746285;1.2894502502399567;-0.05378131021040646;1.368;0.044371976409110864
11:53.8;-0.4944890963020808;1.0311902830105428;-0.09183566364895994;0.9840000000000001;0.04682813917170595
11:53.8;-0.325101694146279;0.7785757759816578;-0.13353789895406906;0.691;0.03380061939952249
11:53.8;-0.14212671677760524;0.541863135402841;-0.17259671793796152;0.451;0.013292230455784712
11:53.8;0.042600895122810775;0.3296770713068133;-0.2023058637539264;0.381;0.0028412924597242383
11:53.8;0.21673446632432933;0.14896025431068396;-0.21628600337915369;0.455;0.006982754951822232
11:53.8;0.36831020557648947;0.00505561463422491;-0.20924720069745187;0.55;0.00038962549945508753
11:53.8;0.4866402697814229;-0.09814274095917541;-0.1776872915348243;0.9159999999999999;0.00848638234692212
11:53.8;0.563170980433252;-0.15803232838439554;-0.12045850335734022;0.9159999999999999;0.01072071299974099
11:53.8;0.5922297094643805;-0.1731881670346391;-0.039158073820035666;0.9159999999999999;0.004016333121590453
11:53.8;0.5715664190054273;-0.14332448947642712;0.06169137622948596;0.9309999999999999;0.005053724548530679
11:53.9;0.5026288593793046;-0.0693474045549336;0.17470971006538247;0.847;0.0060896828512130565
11:53.9;0.3905479519502146;0.046513406546003666;0.2900115169957488;0.6890000000000001;0.005268266757253221
11:53.9;0.2438212307897317;0.20053781897660722;0.39586265670472537;0.524;0.01935585417341823
11:53.9;0.07369030945681462;0.38738082280302466;0.4796398044738226;0.445;0.013691899882687925
11:53.9;-0.10677385772349336;0.600057571882139;0.5290683956875264;0.52;0.03389765643868496
11:53.9;-0.2838498184224922;0.8301551569557901;0.5336861075626591;0.636;0.12575746913874997
11:53.9;-0.44455739162228175;1.0683624305315362;0.48643856683712045;2.906;0.23103322652057773
11:53.9;-0.5781275444856231;1.3052816514939574;0.385221862966156;2.906;0.2906958433464319
11:53.9;-0.6772830892957918;1.5322705682759719;0.234035008585442;2.906;0.24287707216669094
11:53.9;-0.7390218256405814;1.741973012483796;0.043312421560533575;2.906;0.05575850905799893
11:54.0;-0.7647230408065616;1.928375803977426;-0.1708967097279209;1.635;0.25201683345905024
11:54.0;-0.7595796594143316;2.0865378787771034;-0.38891944741622836;2.6639999999999997;0.616395216358207
11:54.0;-0.7314765975109325;2.21231587695581;-0.5901732173215306;3.342;0.9550521114674524
11:54.0;-0.6895154554866049;2.3023175129854803;-0.7558095706267545;2.596;1.1998352290429857
11:54.0;-0.642460210275416;2.3540636575425418;-0.8706168983119532;2.401;1.3167142344262468
11:54.0;-0.5974148133022553;2.366208353803928;-0.9240810395679244;2.6239999999999997;1.3062882780311447
11:54.0;-0.5589974359582393;2.3387231511330944;-0.9109981952385948;3.138;1.1909846036662939
11:54.0;-0.5291277482364585;2.273026549831094;-0.8319752961019259;3.138;1.0006345095274813
11:54.0;-0.5073401405730175;2.172037741823297;-0.6936998849594759;3.138;0.7644308663367141
11:54.0;-0.4914108811182693;2.040103226061721;-0.5085815079748571;2.64;0.5098676719010045
11:54.1;-0.4781152265936698;1.8827362577271662;-0.29348373227841523;2.045;0.264183746441161
11:54.1;-0.46401768383022857;1.7061444290799046;-0.06758483205751367;1.883;0.05350564001657702
11:54.1;-0.44622669170482987;1.5166025310716875;0.15026724161136798;2.055;0.10169313487836075
11:54.1;-0.4230113052257591;1.3198254644256286;0.3441143203307213;2.035;0.1921194009431689
11:54.1;-0.3941518917016425;1.120543577941981;0.502758024567372;1.932;0.22205030667567496
11:54.1;-0.3609326387632133;0.9224173102420913;0.6205569918107007;1.744;0.2066023581421908
11:54.1;-0.32577656225461527;0.7282715330328716;0.6970981465302397;0.6859999999999999;0.1653891817411899
11:54.1;-0.29162921290600397;0.5405112832829183;0.7359913490383757;0.6859999999999999;0.11601349212001741
11:54.1;-0.2612638141734798;0.36158344527722963;0.743237994988947;0.6859999999999999;0.07021270492103734
11:54.1;-0.23667237338802413;0.19439818354678146;0.7256524025318669;0.506;0.03338630880367682
11:54.2;-0.21864838290957606;0.042632455450838214;0.6896607328457577;0.41600000000000004;0.006428684551518943
11:54.2;-0.2066262335363849;-0.08915747245252735;0.6405965751608054;0.499;0.011801244813986434
11:54.2;-0.19883199740856283;-0.19563655798846208;0.5824654521401463;0.74;0.022657211551193913
11:54.2;-0.19276218962377817;-0.2709636093873176;0.518052297629078;0.826;0.027058668608334936
11:54.2;-0.1859169469642163;-0.3091709283522708;0.449191854658948;0.687;0.0258195995029934
11:54.2;-0.17661815402283906;-0.30460517142259824;0.37705973541179033;0.649;0.020285362455747052
11:54.2;-0.1647038740639993;-0.2524199226476254;0.30246149159290797;0.78;0.01257469712389889
11:54.2;-0.15192827130337686;-0.14913148296568546;0.22617551308695513;0.78;0.005124523829907941
11:54.2;-0.141974088793272;0.006766357091119384;0.1493468869209745;0.78;0.0001434696959994181
11:54.2;-0.1400502742024297;0.21417736798880724;0.07381679933770117;0.521;0.0022141791208703694
11:54.3;-0.1520940492281243;0.4688549630060123;0.0022492021836883654;0.251;0.0001603907197837121
11:54.3;-0.1836641116347688;0.763022797440921;-0.062008230302307225;0.494;0.008689827457219176
11:54.3;-0.2387099636304229;1.0852371325803996;-0.1153034654871917;0.637;0.029870160224955408
11:54.3;-0.31847180874442743;1.4205629257524461;-0.1542288562386661;0.7709999999999999;0.0697745603155583
11:54.3;-0.42074684737713;1.7511640880320636;-0.17625816645691825;1.371;0.12986644760459232
11:54.3;-0.5396744776544727;2.0574212385764254;-0.18035542184411632;2.086;0.2002554300882972
11:54.3;-0.6661073112143121;2.319613929315919;-0.1673629492796711;3.4360000000000004;0.25859446739840425
11:54.3;-0.7885417787708487;2.5200021504607704;-0.1399884478166809;3.4360000000000004;0.27817482129716714
11:54.3;-0.8944596726027948;2.6449113978908034;-0.10240631725564865;3.4360000000000004;0.24226944325364075
11:54.3;-0.9718618527549129;2.6863712465106313;-0.059687444131452785;4.027;0.15583088905594142
11:54.4;-1.0108057752291075;2.6430132371035246;-0.01724922663669921;4.104;0.046082568913680906
11:54.4;-1.00477371691781;2.520101776129965;0.019652020417730377;3.5060000000000002;0.04976151032669721
11:54.4;-0.9516441987533533;2.3286793908124723;0.04645477862024242;2.716;0.10294723790111543
11:54.4;-0.8540407866572289;2.083973744969367;0.059857179342340326;2.1069999999999998;0.10653372258839769
11:54.4;-0.7189631622649834;1.8034163295633023;0.05830059080963021;1.609;0.07559195762658073
11:54.4;-0.5567818297065059;1.5046855641752621;0.04222651003633657;1.2209999999999999;0.035376592361767684
11:54.4;-0.3798098316340991;1.2040679367236917;0.014047924215530822;0.5589999999999999;0.0064243523153441106
11:54.4;-0.200740391316903;0.9152747946336084;-0.022115901363382956;0.5589999999999999;0.004063412510826069
11:54.4;-0.03125463138666875;0.648772388464291;-0.06086658834048883;0.5589999999999999;0.0012342004460282458
11:54.4;0.11897775329120586;0.41163166529800865;-0.09608780294282633;0.537;0.004705901179250997
11:54.5;0.2428347889097379;0.2078226817155458;-0.1216477326679703;0.556;0.006139144673043794
11:54.5;0.3358650573188718;0.038816781019635684;-0.13222313151835127;0.635;0.0017238194607527189
11:54.5;0.3960915136879172;-0.09564616161433614;-0.12415343162498095;0.6829999999999999;0.004703507184393038
11:54.5;0.4236082413664203;-0.19676205609555295;-0.0961733812087823;0.628;0.008016054069528787
11:54.5;0.42009664318703993;-0.2659687504870295;-0.049868490824324534;0.509;0.005571935104216437
11:54.5;0.3883888945620342;-0.30444608158184383;0.010258048994114123;0.54;0.0012129473811140256
11:54.5;0.3321873243883056;-0.31284489134711935;0.07715753947885903;0.557;0.00801845126237855
11:54.5;0.25598592782088253;-0.29124197207950825;0.14201721158925737;0.557;0.010587929385110759
11:54.5;0.16512973634909914;-0.23929827499234768;0.1953179954499301;0.557;0.007718041579584049
11:54.5;0.06585906784972906;-0.1565809338369561;0.22798102010133614;0.615;0.00235100282486151
11:54.6;-0.03481287342463403;-0.042994577527339095;0.23245812783688122;0.616;0.0003479351398273875
11:54.6;-0.12947110014420327;0.10074844379012375;0.20368279148027388;0.672;0.0026568407467941267
11:54.6;-0.21091918746892432;0.27270621533264583;0.1398000801294518;0.7340000000000001;0.00804115708408887
11:54.6;-0.27298029329639273;0.4694251411007523;0.04257199016637499;0.769;0.005455337134077398
11:54.6;-0.31135981316614053;0.6858687972607339;-0.08263772576993365;1.006;0.01764745000810106
11:54.6;-0.32441143591065597;0.9155914068111091;-0.22735576436907143;1.464;0.06753110141289348
11:54.6;-0.31361607390783347;1.151143343459576;-0.3809659550998474;2.202;0.13753520750101306
11:54.6;-0.28360802189566786;1.3846287677869207;-0.5320256825170993;2.202;0.20892213668901582
11:54.6;-0.24170775291196622;1.6082610423205739;-0.6696107662391907;2.202;0.26029723245165015
11:54.6;-0.19705218505984415;1.8147687333383618;-0.7842700330184215;2.202;0.28045821404404675
11:54.7;-0.1594299941382429;1.9976290594526327;-0.8683472116391787;2.045;0.27655294731291247
11:54.7;-0.13789534679073087;2.151227218674855;-0.9158161215971959;2.1;0.2716715621178733
11:54.7;-0.13929814162587542;2.271046641289336;-0.9221354511170803;3.503;0.2917199260063641
11:54.7;-0.16702438681635468;2.35389886418936;-0.8845980877093631;3.8489999999999998;0.3477872700216498
11:54.7;-0.2203188374996074;2.3980814367855023;-0.8030949363213497;2.501;0.42430919794345007
11:54.7;-0.29443336880054777;2.403331699703405;-0.6807075300778743;2.5180000000000002;0.4816829762840819
11:54.7;-0.3815569617391676;2.3705730780388445;-0.5236950796102271;2.398;0.4736867353547387
11:54.7;-0.4722187275819855;2.301581143513519;-0.3409456507415333;2.398;0.3705566847083827
11:54.7;-0.5567707519986095;2.198696309975035;-0.14316533324610012;2.398;0.17525867706922368
11:54.7;-0.6266630858264557;2.0646373919794234;0.05806068205991006;2.165;0.07512077066520415
11:54.8;-0.6753930144401091;1.902421971894644;0.2513140326616298;2.2680000000000002;0.3229090051686922
11:54.8;-0.6991113247662543;1.7153946319190614;0.4263874689728502;2.229;0.511345945469618
11:54.8;-0.6968779491473174;1.5073682670167166;0.5750944546919853;2.05;0.6041089513461898
11:54.8;-0.6705476165232218;1.2828504019240559;0.6916745686872202;1.9269999999999998;0.5949869573099512
11:54.8;-0.6242897965552737;1.047262998475272;0.772840782648398;1.68;0.50527990648683
11:54.8;-0.5638040824697949;0.8070329087277373;0.8176440374735282;1.525;0.3720349450209047
11:54.8;-0.49535297135757217;0.5694744714281496;0.8272722488211499;0.8320000000000001;0.23336594966602955
11:54.8;-0.4247837418290744;0.34249029119927826;0.8047880620956592;0.8320000000000001;0.11708403384655337
11:54.8;-0.3567361077318901;0.13420376390384028;0.7547866544726447;0.8320000000000001;0.03613565893822914
11:54.8;-0.29419934125403163;-0.047378079028491046;0.6829960969858422;0.8009999999999999;0.009520009151611646
11:54.9;-0.23849187670303423;-0.1946682991412953;0.595847173233721;0.705;0.027663282307155125
11:54.9;-0.18964169174557818;-0.3008239887981389;0.5000037148146632;0.632;0.028524597002273843
11:54.9;-0.1470750921776815;-0.3601153442394989;0.4018365375552499;0.653;0.021282869349839275
11:54.9;-0.11046057255144762;-0.36831396122865234;0.30687120972304316;0.8340000000000001;0.012484800782399157
11:54.9;-0.08050526384385256;-0.32304847289145056;0.21931818644947962;1.011;0.005703830564860974
11:54.9;-0.05948266525976818;-0.22406539387217433;0.14185224935281804;1.038;0.0018906077468062255
11:54.9;-0.05130146527515454;-0.07333553019843651;0.07577651951690123;0.56;0.0002850879490712038
11:54.9;-0.061042200284918455;0.12500357823637626;0.02155209963098005;0.56;0.00016445315526269306
11:54.9;-0.09407722191610862;0.3647803844535539;-0.020517874826197945;0.56;0.0007041226859651645
11:54.9;-0.15501789920616024;0.6378713137396333;-0.04974052068417135;0.56;0.004918415854541229
11:55.0;-0.24670675972353182;0.9342108963490582;-0.0648367477207844;0.633;0.01494332354821312
11:55.0;-0.3693834730214668;1.2418521437599004;-0.06417204819959614;0.853;0.02943697999308683
11:55.0;-0.5201192783283163;1.5472417318135399;-0.04635812468861251;1.276;0.037306712569463045
11:55.0;-0.6926181234629636;1.8358156106285572;-0.011046684926699381;1.9609999999999999;0.014046071574766764
11:55.0;-0.8774692931282566;2.092922975947872;0.04035453751066529;2.407;0.07411012527439402
11:55.0;-1.0628980160260073;2.3049819885711536;0.10432036974031775;2.842;0.255580814693027
11:55.0;-1.235986159757183;2.460685120318523;0.17535704716123568;3.623;0.533326145148418
11:55.0;-1.384196513752554;2.55204089083353;0.2466063896231839;3.623;0.8711435087683702
11:55.0;-1.496883948945505;2.575075764477493;0.3106987474078395;3.623;1.1976161540178563
11:55.0;-1.56645794655139;2.5301035861041163;0.3606579462301738;3.565;1.4293959513635248
11:55.1;-1.589007350867839;2.421561107676488;0.3907459440664512;3.384;1.5035428783241145
11:55.1;-1.5643650107358789;2.2574771290743243;0.397152516240776;3.042;1.4025513524895301
11:55.1;-1.4956819555373986;2.0486767337092506;0.3784008874943584;2.589;1.159484202183727
11:55.1;-1.3886397807848878;1.8078207851974208;0.3353744446357406;2.129;0.8419279829704428
11:55.1;-1.2504784244621725;1.548364821693225;0.2709893057652799;1.706;0.5246886273950221
11:55.1;-1.0890237871990067;1.283514290637436;0.1896417264446804;1.383;0.2650769560576191
11:55.1;-0.9118681684431045;1.0252533910048556;0.09659287362930144;0.655;0.09030428460131774
11:55.1;-0.7258166039141059;0.7835340800603948;-0.0025582257397146592;0.655;0.0014548682098507138
11:55.1;-0.536665654724431;0.5657286622476123;-0.10220450985556595;0.655;0.03103001923093978
11:55.1;-0.3493079867594813;0.3764229412379959;-0.1968286140420683;0.5489999999999999;0.02588051021750336
11:55.2;-0.1680655467078373;0.21753799043342145;-0.2809177426060611;0.495;0.010270532819955342
11:55.2;0.0029116091180116264;0.08870082133720267;-0.3488109131773562;0.35100000000000003;9.008464597928712e-05
11:55.2;0.15935308840288925;-0.012208523900445802;-0.39462995674173695;0.063;0.000767739158835549
11:55.2;0.29680268581042707;-0.08837953574923949;-0.41243774213994244;0.358;0.010818771373602015
11:55.2;0.41080587288820647;-0.14332002217449513;-0.3967013556296906;0.621;0.023356469407233297
11:55.2;0.49728762420637684;-0.18012422746516346;-0.3430329881726954;0.7979999999999999;0.03072668222209684
11:55.2;0.5530178814336341;-0.20087641793886699;-0.24908686513011646;0.972;0.027670624213938184
11:55.2;0.5760688035589714;-0.2062883712717388;-0.11544155236157277;0.972;0.013718646397861418
11:55.2;0.5661907799296376;-0.19561939402076017;0.05371300117081509;0.972;0.005949139065739308
11:55.2;0.5250573798176027;-0.1668800883459491;0.2502527804363135;0.782;0.021927554514485654
11:55.3;0.45634871112577763;-0.11728924645425738;0.4622918285798608;0.774;0.024744076024455934
11:55.3;0.3656458326563082;-0.04392003552992971;0.6749036098046386;0.809;0.010838397176803091
11:55.3;0.26009400470259614;0.055561645458209866;0.8713595910492654;0.894;0.01259223605267017
11:55.3;0.1477815383949996;0.18217294937674988;1.0347980894382547;1.2109999999999999;0.027858625872298943
11:55.3;0.03680091144980361;0.33500049081098227;1.1501931987373546;2.197;0.01417995372418625
11:55.3;-0.0659689417476056;0.5108065020604665;1.2063701467070853;3.8939999999999997;0.04065149440920471
11:55.3;-0.15617159492840468;0.7040103501342256;1.1975947871761132;2.7060000000000004;0.1316712585344158
11:55.3;-0.23297806359784556;0.9071725632492297;1.1242504066883012;3.59;0.23761179300051494
11:55.3;-0.2992990601398856;1.1118642718808958;0.9926191192718982;4.075;0.3303237225933941
11:55.3;-0.3609566255018667;1.3095266695386056;0.8142539926103206;4.075;0.38488347251831156
11:55.4;-0.42503503175835555;1.4920378560439103;0.6050025089153872;1.056;0.38367344737936704
11:55.4;-0.49795539881735884;1.652124061251332;0.3831195307603521;4.52;0.3151863447530924
11:55.4;-0.5838458548961342;1.7838584455824327;0.16646465183011222;2.698;0.17337266174166033
11:55.4;-0.6836063936719159;1.883152420775991;-0.03011139324050834;1.6540000000000001;0.03876345147421625
11:55.4;-0.7948077242755053;1.947946100205792;-0.19611397699214375;2.169;0.3036320149909636
11:55.4;-0.9123169875104592;1.9780275195023773;-0.32545390057934975;2.638;0.5873102386243088
11:55.4;-1.0293678347494202;1.9746492695160793;-0.4158151308158243;2.254;0.845202651687326
11:55.4;-1.1387174718745352;1.9400903022584337;-0.4678149902612579;2.254;1.0335037646847918
11:55.4;-1.2336063984651626;1.8772321657870352;-0.4841530801524821;2.254;1.1211850535347019
11:55.4;-1.308411949783462;1.7892180402730677;-0.46887220454243433;2.239;1.0976458965811813
11:55.5;-1.3590261370638461;1.6792462352996598;-0.42682193622408293;2.28;0.9740672105115821
11:55.5;-1.3830306486323118;1.5504911940881485;-0.3633237549946927;2.1919999999999997;0.7791030463076614
11:55.5;-1.379729244259203;1.406103929933995;-0.2839577653932505;2.0269999999999997;0.5508901934367105
11:55.5;-1.350077318332821;1.2492401342739636;-0.1943821901938373;1.902;0.32783932027393187
11:55.5;-1.2965354848268393;1.0830831091305164;-0.1001345675566814;1.7369999999999999;0.1406145356567819
11:55.5;-1.22286669303303;0.9108498098793023;-0.006395452243191303;1.565;0.007123561017736258
11:55.5;-1.133887844813906;0.7357801181280171;0.08228949730113165;1.413;0.06865348017757557
11:55.5;-1.0351766547599233;0.5611195621981772;0.16230832665664996;1.22;0.09427806911875107
11:55.5;-0.9327302943171758;0.3901218385736443;0.23123591208572905;1.22;0.08414176696496997
11:55.5;-0.8325749356560619;0.2261040702678482;0.2879374608697509;1.055;0.05420381864281673
11:55.6;-0.740325732150112;0.07256110978500022;0.33244058107044394;0.7390000000000001;0.01785832794483194
11:55.6;-0.660701993614686;-0.06670314072577294;0.36558882385694275;0.499;0.016111827787299256
11:55.6;-0.597032408897588;-0.18749784361367158;0.38859555494116965;0.41100000000000003;0.04350027600696035
11:55.6;-0.550832778079776;-0.28528022918226376;0.4026434580724149;0.636;0.06327207796715596
11:55.6;-0.5215721544191507;-0.3553265708265641;0.4085931305359996;0.488;0.07572392954785842
11:55.6;-0.5067426853662396;-0.3930252692148345;0.4067682460665667;0.45299999999999996;0.08101305416329518
11:55.6;-0.5023006010695521;-0.3942598705627577;0.3968039424899599;0.968;0.07858185043940047
11:55.6;-0.5034375779186344;-0.3558447348640879;0.3776428989383489;0.968;0.06765306803442478
11:55.6;-0.5055123960014213;-0.275963285353986;0.34776972654507454;0.968;0.04851487202661586
11:55.6;-0.504919483313256;-0.1545406478660418;0.30566825480749055;1.1059999999999999;0.023851472454719403
11:55.7;-0.4997218083071339;0.006518374066607827;0.25040731817553075;1.088;0.0008156702064495411
11:55.7;-0.4899471404367515;0.20326885071163436;0.18224893281339724;1.078;0.01815035203644143
11:55.7;-0.4774917102319939;0.42984026094419836;0.10316059384648023;0.986;0.02117321272638422
11:55.7;-0.4656359815396476;0.6786795005167707;0.01708931631777205;0.884;0.0054005246493273725
11:55.7;-0.4582737048489635;0.9408608469067161;-0.07013516042617604;0.919;0.030240302386508055
11:55.7;-0.4590499246072689;1.206426489095573;-0.15133901761680132;1.013;0.08381305966097904
11:55.7;-0.47064176473377733;1.4647640056991624;-0.21896081171555365;1.973;0.15094701094189758
11:55.7;-0.49434112112057355;1.7050418056319967;-0.26627465550969776;1.973;0.22443552539750566
11:55.7;-0.5299242510148624;1.916699311365138;-0.2885900477873266;1.973;0.293122483486387
11:55.7;-0.5756643717435446;2.0899821851165936;-0.2840953912613573;2.327;0.34180319988464947
11:55.8;-0.6283815028720007;2.2165407569298634;-0.25413369413370057;2.374;0.35396584948189386
11:55.8;-0.6835601462770745;2.2900959809439443;-0.20290173391872768;2.616;0.31762609624949495
11:55.8;-0.7356449793484043;2.3071001654450414;-0.13673863281863707;2.87;0.23207371741896965
11:55.8;-0.7785825326514768;2.2672527245444685;-0.06324678658765397;3.05;0.11164597059879329
11:55.8;-0.8065563510122337;2.1737142471626933;0.009573769642929;2.943;0.01678495343467751
11:55.8;-0.8147488343896573;2.032890783475002;0.07412650409412493;2.658;0.12277538747326178
11:55.8;-0.7999275030202732;1.8537492599575947;0.12396462336591399;1.5859999999999999;0.18382280330310488
11:55.8;-0.7607296187928267;1.6467804602545424;0.1544513138478517;1.5859999999999999;0.19348960498312517
11:55.8;-0.6976599637532834;1.4228714875357629;0.16324102131335969;1.5859999999999999;0.16204617382915135
11:55.8;-0.6129058393586835;1.1923519241373601;0.15048067046186822;1.187;0.10997119224362134
11:55.9;-0.5100605212868411;0.9643297202929214;0.11868619599998123;0.871;0.05837776617777874
11:55.9;-0.3938069366474393;0.7462969318222685;0.07233353719762552;0.6709999999999999;0.021258602966891027
11:55.9;-0.2696070664668601;0.543957477245672;0.017269630789021734;0.496;0.00253267389926013
11:55.9;-0.14343650702614413;0.36124510687615097;-0.039933023267783384;0.32899999999999996;0.0020691590037285666
11:55.9;-0.021567454045865096;0.2005028354366642;-0.0925911560803159;0.205;0.0004003952407559073
11:55.9;0.08964012287669544;0.06279429005721954;-0.13446970472269043;0.179;0.0007569148906948313
11:55.9;0.18399972503056267;-0.05168525247398609;-0.16030152575348716;0.289;0.0015244790906346769
11:55.9;0.2558564820214694;-0.14314642207783854;-0.16628044603285586;0.603;0.006090011353605435
11:55.9;0.30053350197299;-0.21175895672959041;-0.150502113576803;0.603;0.009578053965858124
11:55.9;0.31479431720723394;-0.25728859492034883;-0.11329074746312354;0.603;0.009175756100301843
11:56.0;0.2972274790689538;-0.2788718744020488;-0.05734269247413462;0.562;0.004753043125532575
11:56.0;0.24849226542406172;-0.27496855972158074;0.012361378251911652;0.479;0.0008446228182151399
11:56.0;0.17140276675867008;-0.24351213997967905;0.08888657076281606;0.49;0.0037100058695892675
11:56.0;0.07083232880525306;-0.1822462445483022;0.16387775715799024;0.504;0.002115485826656903
11:56.0;-0.04659440695428162;-0.08919840263389692;0.22821446226324604;0.315;0.0009484927778366688
11:56.0;-0.17305789731499313;0.03678116795909914;0.2727067620644308;0.10099999999999999;0.0017358526043672819
11:56.0;-0.3003513706374937;0.19549109478805923;0.28881512890873895;0.927;0.016958074384796615
11:56.0;-0.4208544172752118;0.38492168873204347;0.26943015434354123;0.927;0.043646605399157656
11:56.0;-0.5284799575872172;0.6009187583689771;0.2097212420065113;0.927;0.0666019130293995
11:56.0;-0.61938005671594;0.8370370072709415;0.1079920702365141;1.162;0.05598784399744524
11:56.1;-0.6922928907015348;1.0846776912817637;-0.03357870278856187;2.108;0.025214739998898228
11:56.1;-0.7485185110653005;1.333560248440178;-0.20851456559972642;1.936;0.2081380991360746
11:56.1;-0.7915273978320273;1.5724741567003921;-0.4062106682723257;2.22;0.5055926988376046
11:56.1;-0.8261685253457774;1.7902190727420073;-0.6128096508167723;3.236;0.9063593545380763
11:56.1;-0.8574693084834859;1.9766441009436955;-0.8124868180401135;2.783;1.3770933736553626
11:56.1;-0.8892064137103423;2.12360677022235;-0.9886869641558836;2.588;1.866962074582034
11:56.1;-0.9227047215256917;2.2256067924393124;-1.1252561834539698;3.301;2.3108012252771313
11:56.1;-0.9563782091711326;2.279994563723838;-1.207788045105961;3.301;2.633626662757394
11:56.1;-0.9861631543294622;2.2868548115124927;-1.2252443977262113;3.301;2.7631858128317512
11:56.1;-1.00654524967834;2.2487003673601547;-1.1714334024592097;3.125;2.6514442369697657
11:56.2;-1.0117807341227298;2.1700417242927497;-1.0459076378936898;2.927;2.2964015128578863
11:56.2;-0.9970611564948073;2.056864638225855;-0.8541693692295058;2.763;1.7517474848164032
11:56.2;-0.959470139504042;1.9160610384693932;-0.6072839841294942;2.57;1.116432911965785
11:56.2;-0.8985996134622213;1.7548701624117302;-0.32101902714659186;2.253;0.5062231379233805
11:56.2;-0.8167252662407252;1.580373433783598;-0.014584205604344357;1.9269999999999998;0.018824285021881236
11:56.2;-0.7185132785461908;1.3990613333980444;0.29099159190565754;1.489;0.29251759416657397
11:56.2;-0.6103301566589043;1.2164842993808749;0.5748183283508801;2.083;0.4267779220859586
11:56.2;-0.4993250618787731;1.0370288839634325;0.8182900464087347;2.083;0.42372246077338116
11:56.2;-0.39250664043435946;0.8638956321738065;1.0070352916348324;2.083;0.34147033253231135
11:56.2;-0.2959985547907477;0.6993339403440523;1.1322013378536167;2.039;0.23436775527009504
11:56.3;-0.21453904275685262;0.5451009372207433;1.190808878919604;1.732;0.13925966029559164
11:56.3;-0.1511833896368593;0.40302103228160935;1.1852251619242657;1.1520000000000001;0.07221587075536089
11:56.3;-0.10715155662997389;0.2754820811406626;1.1220190724349108;0.843;0.03312013353016937
11:56.3;-0.08181735697702058;0.1657198333216463;1.01057268371076;0.794;0.01370211122894056
11:56.3;-0.072895595031109;0.07780798792632658;0.8618139235087818;0.8170000000000001;0.0048880875565612695
11:56.3;-0.07690196640550495;0.016362992822427192;0.687271144245098;0.9420000000000001;0.0008648251181746412
11:56.3;-0.08990621684710341;-0.013949079182054878;0.49842706348312465;0.731;0.0006250818351352796
11:56.3;-0.10846582627407649;-0.008983359108150606;0.30623208207819963;0.731;0.00029838870319361956
11:56.3;-0.1304905403078547;0.03433656409905798;0.12067693539467635;0.731;0.000540704690756441
11:56.3;-0.15577058738068306;0.11755246460115815;-0.04959395867526266;0.605;0.0009081257123599157
11:56.4;-0.18602230220801033;0.24030789072892875;-0.19761971814188334;0.745;0.008834120562199278
11:56.4;-0.2244573606137863;0.4000876573035659;-0.31837651978013576;0.691;0.028591045486635696
11:56.4;-0.2749823752369267;0.5920576973621624;-0.40886616231355843;0.496;0.0665656321439174
11:56.4;-0.3411899781897888;0.8090272746806866;-0.46798175873739467;0.555;0.12917793998695323
11:56.4;-0.4253407132339928;1.0415935044683737;-0.4962028249900225;0.794;0.2198337915350225
11:56.4;-0.5275545021358874;1.2785424201301108;-0.4952569570666517;1.036;0.3340512186556888
11:56.4;-0.6453951083180937;1.5075457445879534;-0.46787043066692435;2.1919999999999997;0.45522045366792696
11:56.4;-0.7739107813915673;1.7160968246308197;-0.41764985842895663;2.1919999999999997;0.5546832137549339
11:56.4;-0.9060366995795275;1.8925130919121185;-0.3490585472771791;2.1919999999999997;0.5985259143967798
11:56.4;-1.033199672218758;2.0268125189592747;-0.2674098095874375;2.1919999999999997;0.5599834251625023
11:56.5;-1.1460428103924796;2.1113905692813306;-0.1787975550821437;2.431;0.4326443078804683
11:56.5;-1.2352794834608145;2.1415451841989452;-0.08991166374702099;2.992;0.2378529292782
11:56.5;-1.2926639883977604;2.11588288584795;-0.007720881695764662;3.2039999999999997;0.021117581259431754
11:56.5;-1.3119705720163963;2.0365246045736938;0.06098534582743879;3.065;0.16294432747103482
11:56.5;-1.2898136301571952;1.9089598470963185;0.11021587980272965;2.824;0.27137380709775266
11:56.5;-1.2261489725139447;1.7414655798620637;0.13553103238614334;2.611;0.28939890269408836
11:56.5;-1.1243323427063703;1.5441646484902225;0.13477067227067957;2.072;0.23398267634933195
11:56.5;-0.9906792236492834;1.3279248018018648;0.10850173121082474;1.0390000000000001;0.14273918251102916
11:56.5;-0.8336027644513845;1.1033273497264708;0.060011648899085064;1.0390000000000001;0.055194917649947266
11:56.5;-0.6625516987459245;0.8798801787507046;-0.005114317538443024;0.7659999999999999;0.0029814737859828796
11:56.6;-0.48700271927812677;0.6655522745585645;-0.07965164691592136;0.556;0.02581715119179202
11:56.6;-0.3156686698630373;0.4666114642497177;-0.15546355867823808;0.414;0.02289894584017614
11:56.6;-0.1559817710996826;0.28769738542914236;-0.22420980194419532;0.32899999999999996;0.010061537666435267
11:56.6;-0.013860607811330477;0.1320577555037552;-0.27801447016949143;0.37200000000000005;0.0005088778967892273
11:56.6;0.10626558649180001;0.00188469039635284;-0.3100991819267504;0.446;6.210596033158696e-05
11:56.6;0.20124843230266568;-0.101309777019807;-0.3153806697952294;0.47700000000000004;0.006430117908603687
11:56.6;0.268943323494485;-0.17634293259311154;-0.29100406683007957;0.5539999999999999;0.013801232895127228
11:56.6;0.3079856440005057;-0.22209654737766005;-0.23676268175796228;0.5539999999999999;0.016195170744848546
11:56.6;0.31769866541419617;-0.23738010078768815;-0.15534729023231997;0.5539999999999999;0.011715568899872507
11:56.6;0.2981517513004098;-0.2209404011019453;-0.05236400629771887;0.547;0.003449414377353435
11:56.7;0.2503450769765808;-0.17162398419232408;0.06393646112585676;0.45;0.002747044088477425
11:56.7;0.17646084786464045;-0.08868805883303785;0.18324755684049177;0.48100000000000004;0.002867818777599034
11:56.7;0.08008582500031375;0.027773575452017113;0.2940838120060793;0.573;0.0006541217132711698
11:56.7;-0.033699082951453276;0.1763685349623805;0.3848494909889627;0.55;0.0022873367435744417
11:56.7;-0.15844648165336173;0.35402614660354764;0.44497716748311344;0.501;0.024960637045762003
11:56.7;-0.28674839998289325;0.5558333806697188;0.46605339237949794;0.452;0.0742816088836522
11:56.7;-0.4109494237630369;0.7751905281777046;0.44289750126938326;2.261;0.1410912442655497
11:56.7;-0.5240996435658849;1.0042806891312732;0.3745122819101909;2.261;0.19712197462888148
11:56.7;-0.620924849439168;1.234685034001075;0.2646662587756043;2.261;0.20290549241185546
11:56.7;-0.6985195240243013;1.457919719962394;0.1217613232081523;2.036;0.12399995248268425
11:56.8;-0.7565633907803835;1.6658110485044308;-0.042226322974552345;2.0269999999999997;0.05321748247697042
11:56.8;-0.7970219558636128;1.8508123780140422;-0.21354698213202863;3.3369999999999997;0.3150112897950386
11:56.8;-0.8234235531774526;2.006383943505099;-0.3785743032909662;2.765;0.6254440434590268
11:56.8;-0.839903883469258;2.1273948762240122;-0.5250505577059275;2.753;0.938164126435791
11:56.8;-0.8502427069618048;2.2103905067445386;-0.6424736630329231;2.117;1.207444705210036
11:56.8;-0.8570827044806932;2.253651900277946;-0.7221469220544182;3.1069999999999998;1.3948744890526645
11:56.8;-0.8614725810767241;2.2571051116409637;-0.7574839060308668;2.517;1.4728775872988036
11:56.8;-0.8628100453826262;2.2221438913424265;-0.7445795220136513;2.517;1.42757343601558
11:56.8;-0.8591501780390133;2.151390817632105;-0.6826729663054059;2.517;1.2618307315801718
11:56.8;-0.8477606295781809;2.0484299591218256;-0.5742724886053783;2.29;0.9972691257999765
11:56.9;-0.8258032279124189;1.9175491945210057;-0.4249583861992337;2.1830000000000003;0.6729293874537797
11:56.9;-0.7910423487003616;1.7635077350457982;-0.2429693339584303;2.09;0.3389444806524928
11:56.9;-0.742471033325789;1.5913304207733363;-0.03868450047473438;1.949;0.04570638496194458
11:56.9;-0.680736992432489;1.4061272692113256;0.1759256144991501;1.768;0.16839649927348005
11:56.9;-0.6082738255182;1.2129301046458558;0.3878947712999423;1.5759999999999998;0.2861862932524757
11:56.9;-0.5290870049756494;1.0165306551219713;0.5840064550212659;1.3780000000000001;0.31409803703858435
11:56.9;-0.44819964884111857;0.8213071972338789;0.7518155299307551;1.702;0.2767505120350423
11:56.9;-0.37085180537153795;0.6310643960307495;0.8809482762541048;1.702;0.20616953249628897
11:56.9;-0.30165985411121304;0.44897707482243165;0.9644333168340554;1.702;0.1306212656910502
11:56.9;-0.24398110103822374;0.27774050486526886;0.999658052836357;2.491;0.06774026266582389
11:57.0;-0.1996302340949877;0.11994067525625353;0.9886147118578008;1.242;0.023671178186578434
11:57.0;-0.16894218433657984;-0.02145617033259355;0.9373038070105809;0.599;0.0033975878451624956
11:57.0;-0.1510727102404141;-0.14265709495683523;0.8544385499906835;0.442;0.018414512701845666
11:57.0;-0.14439725209530946;-0.23880470219726674;0.74986713116302;0.371;0.02585747540661333
11:57.0;-0.14690292291806725;-0.3040610646278202;0.6331740556913209;0.466;0.02828227626072414
11:57.0;-0.15653904922975762;-0.33203209658909033;0.5126935826519363;0.451;0.026647755865564598
11:57.0;-0.17154036457009528;-0.316464763330081;0.3949266264167063;0.574;0.02143917675209003
11:57.0;-0.19072523647359751;-0.2521064934747077;0.2842876141359264;0.574;0.013669421416794888
11:57.0;-0.21372220809753345;-0.13561009121621545;0.18316625896224645;0.574;0.005308687193616097
11:57.0;-0.24105192285983185;0.03362327119722886;0.09232375382749597;0.67;0.0007482797940293376
11:57.1;-0.2740092427428322;0.2527615109026011;0.011577645807450012;0.732;0.0008018560574820076
11:57.1;-0.31432138160083356;0.5151136177922635;-0.05939222864577239;0.562;0.00961626843766123
11:57.1;-0.3635968476995756;0.8100435548655056;-0.12036350427035467;0.534;0.035450576617947344
11:57.1;-0.42265204511454085;1.1232967612778284;-0.17023794110948434;0.674;0.08082279027738194
11:57.1;-0.49088272895310286;1.4377828114351632;-0.20716406219385172;1.04;0.14621282154103282
11:57.1;-0.5658695813803873;1.7348238233283935;-0.2290788018439582;1.756;0.22488300153650503
11:57.1;-0.6433465956138418;1.995818081540776;-0.23448762537702916;3.071;0.30108276009833246
11:57.1;-0.7175496685117471;2.2041394871622093;-0.22321533001205565;3.071;0.3530328030611878
11:57.1;-0.7818595172339042;2.3469391194653344;-0.19689083919463515;3.071;0.3612900997907683
11:57.1;-0.8296191736145418;2.416494682394919;-0.1590479016367526;3.3289999999999997;0.31885451289064337
11:57.2;-0.8550335021107648;2.4109059443794902;-0.11483233328475076;3.3989999999999996;0.2367159865171675
11:57.2;-0.8540551721382327;2.334089836161377;-0.07037642718775544;3.201;0.14029129035322205
11:57.2;-0.8250961284030085;2.195095764999259;-0.031956395935412774;2.68;0.0578783063932043
11:57.2;-0.7693676052009981;2.0068285719430246;-0.005077614559238567;2.093;0.00783978047958006
11:57.2;-0.6907257285391913;1.7843791266448141;0.006374093339231683;1.626;0.007856175673619537
11:57.2;-0.5950459737125697;1.543252472677525;0.0007766294945486411;1.31;0.0007131836568722338
11:57.2;-0.4892758798277761;1.2977901963690037;-0.020942702285499333;0.6809999999999999;0.013298143487285767
11:57.2;-0.3803848134877515;1.060010041648049;-0.05547614794511597;0.6809999999999999;0.02236863314218001
11:57.2;-0.27444955621456024;0.8389675665177977;-0.09769209817685595;0.6809999999999999;0.022494023366841153
11:57.2;-0.17606608757136072;0.6406195810380864;-0.1413892106010519;0.563;0.015947484641022344
11:57.3;-0.08816266913825953;0.4680770326439982;-0.18008774665601474;0.518;0.007431666735121185
11:57.3;-0.012176571104909254;0.32210905414400326;-0.2077873001109956;0.5;0.0008149799826152647
11:57.3;0.05150632070631218;0.2017869453464209;-0.21965502976669748;0.43200000000000005;0.002282941306496606
11:57.3;0.10297968982391137;0.10518893430160328;-0.21260709232111663;0.527;0.0023030288720002168
11:57.3;0.14225558097073135;0.030099003889439382;-0.18575007309475025;0.657;0.000795335614149753
11:57.3;0.16885206306710726;-0.025370915042273637;-0.14064322983449826;0.7759999999999999;0.0006025059410015457
11:57.3;0.18164670755971535;-0.06231412910718664;-0.0813192123480771;0.23800000000000002;0.0009204648818169629
11:57.3;0.17905392482098487;-0.08078279850215286;-0.014008277933116807;0.23800000000000002;0.0002026224157919158
11:57.3;0.15948332117407985;-0.07978212085079446;0.05342344548482817;0.23800000000000002;0.0006797555184491834
11:57.3;0.12195623104156508;-0.0574828366271026;0.11224916426923712;0.45799999999999996;0.0007869104304448646
11:57.4;0.06674246915340745;-0.011613897286498462;0.1537919594892393;0.631;0.00011921032737557622
11:57.4;-0.00412043084555855;0.06001433834846921;0.1703987192048253;0.685;4.2137035505175826e-05
11:57.4;-0.08658096415109062;0.15892820557867177;0.1563864391301602;0.691;0.0021519019972956565
11:57.4;-0.17474284381272756;0.2854367487114094;0.10885188285097853;0.6579999999999999;0.005429317391151783
11:57.4;-0.2615148568195152;0.43818944053442344;0.02822901016409603;0.63;0.003234848339343353
11:57.4;-0.3396872440076033;0.6139199445649048;-0.08152080564226685;0.9590000000000001;0.017000411906602196
11:57.4;-0.40324515010966633;0.8074333136915413;-0.21316318942760099;1.62;0.06940456336575544
11:57.4;-0.44861014338572786;1.0118480108756138;-0.3568662794674901;1.62;0.16199062627359215
11:57.4;-0.4754613244280322;1.2190433137593824;-0.501158155578086;1.62;0.29047525042623923
11:57.4;-0.4868733674761205;1.420250014026875;-0.6339897308030633;2.37;0.43839242806604944
11:57.5;-0.4886848525995688;1.6067439800396004;-0.7437526326838855;2.499;0.5839882044174687
11:57.5;-0.48820998979203595;1.7705622286095624;-0.8201229502071846;1.983;0.7089193363130165
11:57.5;-0.4925932521206695;1.9051006294528903;-0.8547240132079854;1.7790000000000001;0.8021069590844769
11:57.5;-0.5072317015515999;2.005512014615963;-0.8418372679323817;3.1460000000000004;0.8563667660296301
11:57.5;-0.5346774357004995;2.068936015327972;-0.77935712826549;3.535;0.8621353012477759
11:57.5;-0.57426609776108;2.094573690306112;-0.6697217887197263;3.21;0.805569937539131
11:57.6;-0.6224842666117448;2.083534358679815;-0.5201914392993541;2.095;0.6746713162782039
11:57.6;-0.6738864178324917;2.0384270263869326;-0.3420914205150433;2.095;0.4699201355563714
11:57.6;-0.7222512858060679;1.962813353837243;-0.1492469434792783;2.095;0.2115791038797914
11:57.6;-0.7616737151099096;1.860693970153688;0.043830873969569736;2.095;0.062118941851892
11:57.6;-0.7874144554923125;1.7361218406461993;0.22361306813402582;2.066;0.3056896709614019
11:57.6;-0.796462863558428;1.59294699901813;0.37896294410808884;2.144;0.4807990519717744
11:57.6;-0.7878170308616252;1.4346826332059932;0.5022196763470644;2.1180000000000003;0.5676425340015286
11:57.6;-0.7624837420000947;1.2645039948784542;0.5897920458553898;1.916;0.5686561034501494
11:57.6;-0.7232086186642457;1.0853790659114897;0.6421140137472088;1.65;0.5040309234977054
11:57.6;-0.6739778849421769;0.9002861653276487;0.6629627708308251;1.389;0.40226788650641837
11:57.6;-0.6193709774125451;0.7124504044798146;0.6582949842448249;0.6809999999999999;0.29048655404764556
11:57.6;-0.5638757510546405;0.5255527017420146;0.6348604996483788;0.6809999999999999;0.1881386390722121
11:57.6;-0.5112929164299965;0.3439018433410818;0.5989140662961914;0.6809999999999999;0.10530980117564884
11:57.6;-0.4643329576752445;0.172558733421317;0.5553234597096939;0.44799999999999995;0.04449512953401452
11:57.7;-0.4244564092003435;0.01736338825574909;0.5072298719961996;0.539;0.0037382848822482867
11:57.7;-0.39196918697013194;-0.1151935203454667;0.45621895707436033;0.8290000000000001;0.020599340012212974
11:57.7;-0.36635983715589837;-0.21826469432218243;0.4028047282312927;0.977;0.032209642803069836
11:57.7;-0.3468138775601041;-0.2850647743656311;0.3469674106156222;0.841;0.03430273172390198
11:57.7;-0.33276927086204927;-0.30936339779497507;0.2885488573506876;0.7140000000000001;0.029705133122779278
11:57.7;-0.3243485922274833;-0.2860246302472815;0.22747762348888617;0.713;0.021103482695436996
11:57.7;-0.32254785602942465;-0.21158510881269982;0.16396079477094364;0.764;0.01118972139457346
11:57.7;-0.32914770257695153;-0.0848584021036425;0.09878622839064989;0.764;0.002759193017854423
11:57.7;-0.34638806546453677;0.09248250856821885;0.033699544509699454;0.764;0.0010795594231692797
11:57.7;-0.37647951014237185;0.3154414618198237;-0.028358569193884766;0.597;0.003367785607020142
11:57.8;-0.4210232459652292;0.5754839471127495;-0.08336830623486952;0.21100000000000002;0.02019948360962628
11:57.8;-0.48041823093383773;0.8606945740088283;-0.12676390623323047;0.6709999999999999;0.052416034100711384
11:57.8;-0.5533602630948857;1.1563791277664348;-0.15427186080055755;1.022;0.09871767795560829
11:57.8;-0.6365533812427053;1.446103428681749;-0.16282566116154493;1.5730000000000002;0.14988460768512163
11:57.8;-0.7247338690343623;1.7130822116325437;-0.1513191581617967;2.21;0.18786707759822757
11:57.8;-0.8110574005214823;1.9417558626326668;-0.12102998935542435;2.806;0.19060716044968892
11:57.8;-0.8878317307865367;2.119312858878043;-0.0756282756337206;3.2939999999999996;0.1423016494305702
11:57.8;-0.9474882603571174;2.2368688806474646;-0.02077360282241408;2.9619999999999997;0.044027719327858844
11:57.9;-0.9835916888767217;2.290077076043171;0.036599202810136566;2.9619999999999997;0.08243973283633561
11:57.9;-0.9916553572747469;2.2791185442602204;0.08914037383650468;2.9619999999999997;0.20146616909483456
11:57.9;-0.9696017612907462;2.208179718785373;0.12994184452547353;2.531;0.27821262872921493
11:57.9;-0.9178255940215185;2.084573357687395;0.15331091635328328;2.117;0.2933259098035523
11:57.9;-0.8389114615844164;1.9176645889427226;0.15542622142125717;1.848;0.25004205854024825
11:57.9;-0.7371194463119924;1.7177830967397278;0.13482410848451984;1.632;0.17071581306674058
11:57.9;-0.6177766514734528;1.4952925518094735;0.0926286113359886;1.432;0.08556631197025259
11:57.9;-0.4866940041593621;1.2599166056025488;0.0324437611154254;1.229;0.019894315036261885
11:57.9;-0.3496859222794075;1.0203325295872658;-0.04010754182292018;0.767;0.01431020734943985
11:57.9;-0.21223821916431387;0.7839987399758122;-0.11811021464895127;0.767;0.019652889686152916
11:57.9;-0.07934768563200624;0.5571855409645727;-0.1941761818450388;0.767;0.008584797572826191
11:57.9;0.044479360445126556;0.34517113595871207;-0.2611835103615278;0.604;0.004009948180974638
11:58.0;0.15513386792213008;0.15252212742307508;-0.31284875062406386;0.478;0.007402423025623285
11:58.0;0.24881420025802486;-0.016641695783654317;-0.34413341853247137;0.41200000000000003;0.0014249498830210198
11:58.0;0.3220287138778429;-0.15846143766657725;-0.35151913913062516;0.48700000000000004;0.017937716892548767
11:58.0;0.37173454954996;-0.2692479150049727;-0.333184524838327;0.617;0.033348023410601196
11:58.0;0.39559785455759966;-0.3454804688030928;-0.2891053438740385;0.672;0.03951241250787577
11:58.0;0.3923143707852405;-0.383888858672711;-0.22108190117116777;0.78;0.033296065380592044
11:58.1;0.3619112042799501;-0.38161437763060024;-0.13268352457439822;0.525;0.01832499043891104
11:58.1;0.3059625148536223;-0.3364499322867822;-0.029109062019779988;0.525;0.0029965179154685245
11:58.1;0.22768159755029732;-0.24715924312951817;0.08300640857781684;0.525;0.004671070373796448
11:58.1;0.13187042595693543;-0.11386449843028568;0.19579886359815066;0.525;0.002939990406772773
11:58.1;0.024696630387892687;0.06153673913706269;0.30040486477277256;0.379;0.000456540323802876
11:58.1;-0.08674790359676361;0.27499912286194284;0.3872983255881691;0.134;0.009239232928624306
11:58.1;-0.19513141409788273;0.5200939802480984;0.4468681652854965;0.336;0.04535116373516442
11:58.1;-0.29376742108976667;0.7880020212615025;0.4703496828772713;0.895;0.10888092900380658
11:58.1;-0.3775701446609402;1.0678174106245188;0.45111219319670903;1.742;0.1818775979660194
11:58.1;-0.44386640535184035;1.3472262137272186;0.3861244793967878;2.563;0.23089798152196206
11:58.1;-0.4928092041949427;1.613549409289669;0.2772416237734996;2.8960000000000004;0.2204547765482883
11:58.1;-0.5272073510652934;1.8549782495920024;0.13190721932586244;2.8960000000000004;0.12899974272292827
11:58.1;-0.5517735607629684;2.061655353445171;-0.03699407105420077;2.8960000000000004;0.042083231298565074
11:58.2;-0.5719735882520075;2.2262739782031375;-0.21221934314900137;1.946;0.27023372710508614
11:58.2;-0.5927424644566819;2.344164900262277;-0.37420388412279404;3.612;0.519951088098364
11:58.2;-0.6173704284967411;2.413144997109341;-0.5038999991164296;3.864;0.7507124161362049
11:58.2;-0.6468416580795842;2.4333631210317073;-0.5858076845084056;3.034;0.9220616679418003
11:58.2;-0.6797643423507743;2.407109171949835;-0.6102914385473648;2.7289999999999996;0.9985997310472635
11:58.2;-0.7128270035947317;2.3384699541390335;-0.5746184579773539;2.807;0.957845603226082
11:58.2;-0.7415811150567977;2.2328530770454105;-0.48276150757729097;2.658;0.799376623155296
11:58.2;-0.7613229201147759;2.096469311834959;-0.3443018030592243;2.052;0.5495367125020908
11:58.2;-0.7678980412440719;1.9358270369359016;-0.17276707469482938;2.052;0.25682133003427576
11:58.2;-0.7583290480302397;1.7572858091359702;0.016289341692941016;2.052;0.02170719098926356
11:58.2;-0.731224538665499;1.5667200262388667;0.2071989470433054;2.064;0.2373721131128198
11:58.3;-0.6869585866044653;1.3693088799313267;0.38587156260923905;1.848;0.36297336249166096
11:58.3;-0.6276256032322777;1.1694547428368134;0.5410784220503734;1.536;0.39714059868437934
11:58.3;-0.5567922710911575;0.9708502659391262;0.6651547785337967;1.5590000000000002;0.3595573471491252
11:58.3;-0.4790882162937291;0.7766924783818541;0.7540950084582035;1.4680000000000002;0.280601930461516
11:58.3;-0.3996908930354191;0.5899804782387644;0.8071616952820699;1.122;0.19033665748215955
11:58.3;-0.3237566758495681;0.4137997440765803;0.8261688764583803;0.799;0.1106821993092392
11:58.3;-0.25583717766288155;0.2515106983581935;0.8146187261599506;0.659;0.05241728321889979
11:58.3;-0.1993301745324567;0.10680582653813311;0.7769036211500335;0.659;0.01653998601342845
11:58.3;-0.15605830970486587;-0.016342224911571453;0.7177285958676799;0.659;0.001830451944685037
11:58.3;-0.12609137292817615;-0.11379828349635418;0.6417727466528279;0.71;0.009208785463334694
11:58.4;-0.1078862546968783;-0.18143966514876012;0.5535153736291702;0.664;0.010834978156660078
11:58.4;-0.09874780579227603;-0.21540852346537834;0.45713631456990644;0.648;0.009723800965253696
11:58.4;-0.09554678698417235;-0.21243835005058434;0.3564157323833618;0.591;0.00723445588703141
11:58.4;-0.09555794835856936;-0.17021199948280805;0.25460285630887347;0.647;0.004141143325823521
11:58.4;-0.09722195058400705;-0.08769310581171816;0.15430622349766254;0.6859999999999999;0.001315567767248478
11:58.4;-0.10063306403952492;0.03462293042865906;0.057521380121993655;0.8340000000000001;0.0002004166584346642
11:58.4;-0.10761359511986872;0.1945805061689572;-0.03413764710531273;0.546;0.0007148255281454934
11:58.4;-0.12134327621217424;0.38835971281761134;-0.11907791140436398;0.546;0.0056115275108080615
11:58.4;-0.14564893541980892;0.6105245443664242;-0.19539806100962057;0.546;0.01737523521784026
11:58.5;-0.1841474793618155;0.8540293063386614;-0.26071911116630736;0.546;0.04100260215969139
11:58.5;-0.23941126256796458;1.1101833047931626;-0.31224808841371127;0.7240000000000001;0.08299254016032258
11:58.5;-0.31225643663769836;1.368696000722691;-0.3471150085697309;1.0659999999999998;0.14835144803920983
11:58.5;-0.4012332084264039;1.6179560368299917;-0.36296306914916315;1.6740000000000002;0.2356275274208098
11:58.5;-0.5024114615578421;1.8456340756402931;-0.3586491924815836;2.146;0.33256381664071866
11:58.5;-0.6095510435604573;2.039597257168962;-0.33479546699542356;2.362;0.41623065991064045
11:58.5;-0.7146995456152744;2.18902164290372;-0.29395391817155;2.673;0.4598887807288344
11:58.5;-0.8091717321885958;2.2855165623020155;-0.24034757041474403;3.202;0.4444928831325634
11:58.5;-0.8847447054678647;2.3240530120928224;-0.17936318235574839;3.202;0.36880542721864107
11:58.5;-0.9348012566953285;2.303518441597285;-0.11699615430760327;3.202;0.25193155522879646
11:58.5;-0.955156497334931;2.2267874344045704;-0.05931722724614484;2.8360000000000003;0.12616361898402767
11:58.6;-0.9444239715685496;2.100288549959553;-0.011929027705852116;2.4130000000000003;0.02366197623919282
