Time;AccX;AccY;AccZ;Acc-old;Acc-trns
56:43.9;-0.11720044176469836;-0.01426753083385296;-1.0641006510010254;1.0759999999999998;0.0017793475199527724
56:43.9;-0.09921016114396278;-0.022610113217151975;-1.0454354698584665;1.12;0.0023450716851748216
56:43.9;-0.0820653841782168;-0.031056142693761057;-1.0264880160366365;1.097;0.002616142546970479
56:44.0;-0.06645634132100724;-0.03959141117408005;-1.00732443444786;1.053;0.0026503716562898028
56:44.0;-0.05285825827217989;-0.04814332388533555;-0.9882286731956327;1.005;0.0025148169022382364
56:44.0;-0.04146928137765264;-0.05657525743686921;-0.9697033688654643;0.983;0.0022750552748059703
56:44.0;-0.03220119903410042;-0.06469021416992671;-0.9524282766708843;0.963;0.0019840056880538175
56:44.0;-0.024727949519331903;-0.07224305938028039;-0.9371918660398196;0.932;0.0016742208476263586
56:44.0;-0.018581519196358573;-0.07896047844780117;-0.9248088715577291;0.932;0.001356884797849497
56:44.0;-0.013267973458804682;-0.0845670883438353;-0.9160320594988353;0.935;0.0010278190092530936
56:44.0;-0.008367842843838407;-0.08881621291054378;-0.9114622973204528;0.9129999999999999;0.0006773988811062759
56:44.0;-0.0035919298799609502;-0.09152470728201904;-0.9114580555075201;0.868;0.0002996421372957588
56:44.0;0.00121665938543709;-0.09260973818356896;-0.9160492045920665;0.8390000000000001;0.00010321539264698262
56:44.1;0.006119948300150115;-0.09212082029023907;-0.9248715678991991;0.843;0.0005214191514642599
56:44.1;0.011133155367314249;-0.09025648051200981;-0.9371482203150757;0.877;0.000941683474574503
56:44.1;0.01625772902697952;-0.08735579453102629;-0.951739557076838;0.943;0.0013516670254537003
56:44.1;0.021489941801567186;-0.08386194042259419;-0.9672655572717775;1.008;0.0017431945920061383
56:44.1;0.026811374417374557;-0.08026491301094145;-0.9822796325118587;1.06;0.002113878180577456
56:44.1;0.03217279309908157;-0.07703749524928356;-0.9954563580789954;1.06;0.0024672499272482768
56:44.1;0.037478457343294996;-0.07457841247676168;-1.0057538966007267;1.06;0.0028111664742084966
56:44.1;0.04257245291151171;-0.07317103319110736;-1.0125255913389197;1.054;0.0031540884633992367
56:44.1;0.04722754528023652;-0.07295965417410477;-1.015574140518713;1.036;0.0034993692707741167
56:44.1;0.0511377998002114;-0.07394112729374892;-1.0151555931585943;1.026;0.0038384926897787374
56:44.2;0.05391575819681217;-0.07596768806590934;-1.0119465211224279;1.021;0.004144786724783945
56:44.2;0.05509445883645648;-0.07875748700152263;-1.0069880384355605;1.021;0.004369422931110098
56:44.2;0.05413547972424568;-0.08191256875744116;-1.00161606101073;1.032;0.004441542427621354
56:44.2;0.05044530070106527;-0.08494754140145384;-0.9973801550988991;1.0270000000000001;0.004273977699256086
56:44.2;0.04340249153903015;-0.08733199501880873;-0.9959472142690896;1.0270000000000001;0.003775064389774804
56:44.2;0.03239778546497202;-0.08854551939426884;-0.9989841936892088;1.0270000000000001;0.0028657647192510773
56:44.2;0.01688745614693964;-0.08814057600283189;-1.0080164051199854;1.016;0.0015004022914407165
56:44.2;-0.0035428488322650407;-0.08580816288400189;-1.0242628029477214;1.008;0.000311381371566549
56:44.2;-0.029109447967243653;-0.08144126767727135;-1.048456574432064;1.0;0.0024855868460709374
56:44.2;-0.0597631653522055;-0.07518999970302365;-1.080667505945379;1.005;0.004856079275523965
56:44.3;-0.09512870725123904;-0.06750291139165002;-1.1201494863429031;1.028;0.007193000381222059
56:44.3;-0.13445900844436867;-0.05915171834557173;-1.1652396199411104;1.041;0.009267711639696818
56:44.3;-0.17662010226837196;-0.05123652512106887;-1.2133353514031007;1.0590000000000002;0.010979957301188992
56:44.3;-0.2201290312868002;-0.04516270265762379;-1.2609737833358825;1.249;0.012536124688580735
56:44.3;-0.26325965613775953;-0.04257330029162631;-1.304027927864226;1.249;0.014615326454453154
56:44.3;-0.30420686545115017;-0.04521972325325408;-1.3380167548438713;1.249;0.018405959539985937
56:44.3;-0.34128362378550015;-0.054761118425456286;-1.3585142683364966;1.4180000000000001;0.025389372249323156
56:44.3;-0.3731305891515879;-0.07250140246998435;-1.361640045624927;1.608;0.036835755103937995
56:44.3;-0.39891951686877447;-0.0991050219122079;-1.344593236641874;1.7409999999999999;0.0531583960744983
56:44.3;-0.4185157529966278;-0.13436576461686145;-1.3061472873305402;1.7469999999999999;0.07345013362081082
56:44.4;-0.4325554482040044;-0.1771063467454591;-1.2469911812518888;1.686;0.09552989346029614
56:44.4;-0.44240653431049276;-0.22524397133006266;-1.1698154756934949;1.57;0.11657141579734254
56:44.4;-0.45001089389260773;-0.27599375818788685;-1.079087083809424;1.395;0.1340228292859115
56:44.4;-0.4576359222401969;-0.32614356667968497;-0.9805169775462826;0.7879999999999999;0.14634707317159437
56:44.4;-0.46758365686930836;-0.372339598511361;-0.8803080906406207;0.7879999999999999;0.1532615602940225
56:44.4;-0.48190350798246345;-0.411352411270574;-0.7843618467504687;0.7879999999999999;0.15548575095309022
56:44.4;-0.5021374165925553;-0.4403217135081307;-0.6976398170776482;0.758;0.154249564200757
56:44.4;-0.5291141891403508;-0.4569920095665113;-0.6237891214027211;0.8140000000000001;0.1508328062627467
56:44.4;-0.56281012126458;-0.4599391470992615;-0.5650371624916821;0.953;0.1462646198649962
56:44.4;-0.6022954555039158;-0.44875201891809874;-0.5223142481916847;1.045;0.14117177486771315
56:44.5;-0.645780355490083;-0.4241044854588696;-0.4955380501835428;1.042;0.1357171412593635
56:44.5;-0.6907601513592652;-0.38766642921428823;-0.4839605707265747;1.03;0.1295971497702381
56:44.5;-0.7342429632770611;-0.3418596921312347;-0.48646457042456764;1.038;0.12210653458767282
56:44.5;-0.7730273337964438;-0.2895235692622065;-0.5017294829544138;0.9690000000000001;0.11229189135398909
56:44.5;-0.8039881524662572;-0.2335790073707022;-0.5282544940023097;0.9690000000000001;0.09920342306268963
56:44.5;-0.8243327432861998;-0.17676841371168034;-0.5642930286336564;0.9690000000000001;0.08222651810819503
56:44.5;-0.8318057287157291;-0.121512412690318;-0.6077838165359488;1.01;0.0614315796761021
56:44.5;-0.8248390220461451;-0.06988158443974567;-0.6563501726458623;1.072;0.037832718217723625
56:44.5;-0.8026488834738416;-0.02364919686068425;-0.707400668453621;1.169;0.013427880518053594
56:44.5;-0.7652770904712732;0.015623017782928128;-0.758319678430186;1.208;0.00906642275108278
56:44.6;-0.7135669717337488;0.046516293269976194;-0.8066979979039788;1.26;0.026776315651912554
56:44.6;-0.6490609581078242;0.06774359712196609;-0.8505382313149523;1.2229999999999999;0.03739793132800118
56:44.6;-0.5738094597069985;0.07820907800787563;-0.8883803401430113;1.1179999999999999;0.03986794117672023
56:44.6;-0.49010073513223784;0.07711771961253425;-0.9193204165222687;0.9209999999999999;0.034746129823835674
56:44.6;-0.40016202908296017;0.06409491832625379;-0.9429337632757097;0.9209999999999999;0.024184697611916158
56:44.6;-0.30592436255799066;0.03928130315259028;-0.959145875728839;0.9209999999999999;0.011526159219013515
56:44.6;-0.20894071677855786;0.0033861639057663636;-0.9681017979380632;0.9329999999999999;0.0006849392959713376
56:44.6;-0.1104847101691412;-0.04230461782798184;-0.9700685692749094;0.9209999999999999;0.004534113530067097
56:44.6;-0.011786127271560006;-0.0959626292932136;-0.965386064135175;0.953;0.0010918784397424893
56:44.6;0.08567316941903476;-0.15528251198747225;-0.9544676993291381;0.976;0.012697803948331166
56:44.7;0.17988336993500875;-0.21756900388865383;-0.9378416193613103;0.981;0.03670435023461404
56:44.7;0.2681240162971846;-0.27984571474932823;-0.916212826474653;1.011;0.06874652408049377
56:44.7;0.34692859814130456;-0.3389967860235427;-0.8905192027117843;1.072;0.10473189720335699
56:44.7;0.412219057615047;-0.3919517623667691;-0.8619525103830805;1.077;0.13926565513299285
56:44.7;0.45959131710909407;-0.4359042876156455;-0.8319270853155775;1.077;0.16666646339540425
56:44.7;0.4846933756671434;-0.46852706809824174;-0.8020064119819129;1.077;0.18212921302440901
56:44.7;0.4836286410098064;-0.4881383646255783;-0.7738170021554466;1.077;0.18268093337613775
56:44.7;0.45334668519167287;-0.4937999684274965;-0.7489677690786453;1.032;0.16766585624976166
56:44.7;0.3920145755230467;-0.4853553326399354;-0.7289710797186613;1.0070000000000001;0.13869867731146554
56:44.7;0.2993633801235604;-0.46342387533820434;-0.7151576260018607;0.995;0.09921534628431442
56:44.8;0.17698509718443162;-0.429357796443834;-0.7085862867089686;0.9540000000000001;0.05384542326875231
56:44.8;0.028534975765692232;-0.38515464811063005;-0.7099546000284481;0.889;0.00780266980754168
56:44.8;-0.14021898931875346;-0.33331087061150655;-0.7195139936992948;0.855;0.033627575412403105
56:44.8;-0.3215583689532922;-0.2766050837684679;-0.7369938440272403;0.775;0.06555168131000826
56:44.8;-0.5062205726120431;-0.2178210987031699;-0.7615418738071801;0.775;0.08397181171664911
56:44.8;-0.6840337011641332;-0.15945152154821296;-0.7916938512675776;0.775;0.08635021812927819
56:44.8;-0.8447447244596136;-0.10343489491857509;-0.8253921404543574;1.248;0.07211953118760812
56:44.8;-0.979005528610004;-0.050966684699129704;-0.8600795612012502;1.681;0.04291510268071188
56:44.8;-1.0794157170376368;-0.002417123458020442;-0.8928988540703608;1.8869999999999998;0.002329645480264244
56:44.8;-1.141408533401878;0.0426149426505722;-0.9210136051246871;2.1590000000000003;0.04479907728331819
56:44.9;-1.1637457963501805;0.08511213321542731;-0.9420053189114995;2.167;0.09330457861974019
56:44.9;-1.1485015380555978;0.1263471293793807;-0.9542038844400487;1.724;0.13846440393484055
56:44.9;-1.100573069074657;0.16753671457174543;-0.9567760512211969;1.126;0.1764164879966943
56:44.9;-1.026885056912937;0.20950927974767927;-0.9495189105583913;1.0390000000000001;0.20428134870466363
56:44.9;-0.9355053996521209;0.2524875591862618;-0.9325014417574127;1.15;0.2202600809517914
56:44.9;-0.8348425404041554;0.29605757687491185;-0.9057804929576133;1.15;0.22387402870225456
56:44.9;-0.7329841254126975;0.3392923343668539;-0.8693257191765199;1.225;0.21619773774680204
56:44.9;-0.6371641615649487;0.3809359990805648;-0.8231339926236705;1.162;0.1997900673242656
56:44.9;-0.5533469975645009;0.41957972024786677;-0.7674220510649047;1.008;0.17817481679923272
56:44.9;-0.48594125198881805;0.453815272933996;-0.7027849546829309;0.924;0.15498345259706728
56:45.0;-0.4376568126648883;0.4823898531067038;-0.6302624160440677;0.95;0.13306176110230025
56:45.0;-0.4095033697589841;0.504382395431849;-0.5513117370198393;1.0190000000000001;0.11387139423270745
56:45.0;-0.4009216278434673;0.5193672530106073;-0.4677097346763876;1.141;0.09738912353711063
56:45.0;-0.4100237516033522;0.5274713185354712;-0.38140762505012543;0.637;0.08248922736787409
56:45.0;-0.4338910799471861;0.5292518398097562;-0.29436972244056336;0.637;0.0675983719809606
56:45.0;-0.4688670637947561;0.5254345479505825;-0.20843911719471203;0.637;0.05135084282514128
56:45.0;-0.5108093707970183;0.5166454498328564;-0.12526347291863454;0.637;0.033057949580652085
56:45.0;-0.5553050407466472;0.5032585433266311;-0.04627322598886735;0.43700000000000006;0.01293160855468738
56:45.0;-0.5978823673409458;0.48541546397135005;0.02732615347632821;0.845;0.007930633063208462
56:45.0;-0.634258183317915;0.4632155110571766;0.09457160828103678;1.0190000000000001;0.027784970981994044
56:45.1;-0.6606284744810892;0.4370087292985988;0.1547603143344586;1.079;0.04467936622662114
56:45.1;-0.6739619702237732;0.40765972999989175;0.20745000967926597;1.1;0.05699629992502104
56:45.1;-0.6722315915525495;0.37665315357812357;0.25243559639901836;0.903;0.0639162257229594
56:45.1;-0.6545350553019597;0.3459945436136646;0.28970038258749464;0.706;0.06560715871968927
56:45.1;-0.6211000168915721;0.31796025453811505;0.31934184930853443;0.706;0.06306526326070129
56:45.1;-0.5732094604912491;0.29480676871211003;0.34148667730451043;0.706;0.05770647750035629
56:45.1;-0.5130868254396403;0.27854030759806103;0.3562265210130975;0.691;0.05091024226958812
56:45.1;-0.44375067796347223;0.2707937227851983;0.36360430870674065;0.669;0.04369247469507973
56:45.1;-0.36882295217526645;0.27280626244514466;0.3636608800394362;0.659;0.036590543530982594
56:45.1;-0.29227492255070964;0.28547612569186154;0.3565264109680478;0.575;0.029747676881233576
56:45.2;-0.2181121438164938;0.30945071703161503;0.3425250728415956;0.495;0.02311871584975395
56:45.2;-0.1500208295922536;0.34522288609673124;0.32226669070390834;0.696;0.016690392930709442
56:45.2;-0.09101849737451248;0.39319253596751047;0.2967164981579486;0.83;0.010618828853917113
56:45.2;-0.04316146940079851;0.45362830407448457;0.2672365167485247;0.55;0.005232294356126712
56:45.2;-0.007352318048185959;0.5264688721534918;0.2355808048095814;0.55;0.0009118783086299766
56:45.2;0.01672913978407168;0.6109704339845335;0.20383172738097724;0.55;0.0020833660819015846
56:45.2;0.030564295759385386;0.7052857048323949;0.17428240477510157;0.55;0.003756929268387854
56:45.2;0.03661035063759593;0.806089208496866;0.14927104778259778;0.451;0.004405169024313819
56:45.2;0.038008839201089814;0.9083612555802885;0.13096170387442324;0.29600000000000004;0.004521551951158642
56:45.2;0.03821033672624563;1.005459413269155;0.12107348946055023;0.113;0.004651515459593404
56:45.3;0.040538272543497046;1.0896448073388674;0.12059275243123993;0.304;0.005326861430053158
56:45.3;0.047722916606527443;1.1532293113405654;0.12954271235409;1.413;0.0071294435741256195
56:45.3;0.061470323572260226;1.1903177741099364;0.1469063026117148;5.542000000000001;0.010749019388369786
56:45.3;0.08218931854235345;1.1986349717213534;0.17076792395473164;1.489;0.016823200578036157
56:45.3;0.1090037219654414;1.1805342784020172;0.1986507090248103;1.489;0.02556289573905643
56:45.3;0.14004813410031725;1.1426117841751742;0.2279316952945854;1.489;0.036473777666199504
56:45.3;0.17289008651613264;1.0941485042136279;0.25619818450848497;0.9109999999999999;0.04846435202012547
56:45.3;0.2049114880554306;1.0450028593267378;0.28147570034431446;0.6940000000000001;0.06027326173551989
56:45.3;0.23358515679515243;1.0035243121455129;0.30234487628142004;1.068;0.07087217379941636
56:45.3;0.25666763174288176;0.9750412106542222;0.3180058044874268;1.295;0.07958461548796233
56:45.4;0.2723676111656529;0.9613678771282499;0.32831492083120783;1.466;0.0859677754572356
56:45.4;0.27953452639671256;0.9613059876998082;0.33374586204397333;1.3980000000000001;0.08968359197634106
56:45.4;0.2778343138129328;0.9716502685072756;0.3352175105304336;1.295;0.09049457684279592
56:45.4;0.26781477289130357;0.9881961305679681;0.33382817895033934;1.192;0.0883488033955673
56:45.4;0.2507974033028918;1.0065332272358607;0.3306153977825796;1.192;0.08345920201575958
56:45.4;0.22863084857632407;1.0226185208215557;0.3264247686921606;1.192;0.07631880952971788
56:45.4;0.2033968634807523;1.0331727462698241;0.3218839577983604;1.206;0.0676420133365106
56:45.4;0.1771399873128192;1.0359325434082975;0.3174405421322052;1.18;0.058251951316176255
56:45.4;0.1516536801084849;1.0297763028317057;0.31343100597825563;1.175;0.048948321492421495
56:45.5;0.1283415590980679;1.0147374964818199;0.3101528773622321;1.1640000000000001;0.04039213731221125
56:45.5;0.10816813226040822;0.991919826142434;0.30790634245944554;1.166;0.033036538500414145
56:45.5;0.0916975554580768;0.963323749894615;0.3069782038650567;1.092;0.027116745575652124
56:45.5;0.0791925626358535;0.9315869188597059;0.30757063618197084;0.884;0.022690948459479634
56:45.5;0.07072404991955981;0.8996510045508451;0.30971485416674377;0.823;0.019706215429115586
56:45.5;0.06624513550862102;0.8703993311239562;0.3132211453968373;0.823;0.01806024405437875
56:45.5;0.06561449266082173;0.8463323365827534;0.31768727071153907;0.823;0.017641703691496684
56:45.5;0.06858389037182915;0.8293321466035223;0.3225505862315019;0.8170000000000001;0.018346298355808175
56:45.5;0.07477069159519892;0.8205304227446123;0.3271610870459152;0.83;0.02007186504139468
56:45.5;0.08362854418654045;0.8202695470320931;0.3308628650618926;0.85;0.022696513632116985
56:45.5;0.09442692546497305;0.8281425380433948;0.3330754252750903;0.871;0.026046149764423352
56:45.6;0.10625220870578395;0.8430979107314512;0.33336359790968706;0.9279999999999999;0.02986304952162299
56:45.6;0.1180415995919275;0.8635932362560002;0.33148630449234523;0.935;0.03379168968291714
56:45.6;0.1286543572723191;0.8877775937768974;0.32742047281614517;0.976;0.037396805937889535
56:45.6;0.13697533772195059;0.913684243631824;0.32135907717960766;1.041;0.040218798019318616
56:45.6;0.1420372043302543;0.9394185590945396;0.313680284321621;1.082;0.04185510872478639
56:45.6;0.14313963351280753;0.9633243987262295;0.30488820515288273;1.082;0.0420410045427789
56:45.6;0.13993876601127234;0.9841077984357556;0.29553844197054513;1.103;0.04070002657081705
56:45.6;0.13248487271447817;1.0009015652110487;0.2861684618521209;1.087;0.03794717327822963
56:45.6;0.12120159687213479;1.0132679568445266;0.27724388046702564;1.053;0.03404823624244399
56:45.6;0.10681642303412503;1.0211503804073818;0.26911991070000413;1.031;0.029354424078317554
56:45.7;0.09026075516073702;1.0247947455548103;0.2620161165830688;1.0270000000000001;0.024236162639805273
56:45.7;0.07255947246443857;1.0246641962245489;0.25600779673335433;1.045;0.019033947624057718
56:45.7;0.05472683435210694;1.0213645897565204;0.2510378097277063;1.062;0.014032022144352356
56:45.7;0.037679790953569055;1.0155858315205386;0.2469461595235838;1.032;0.009449903954454003
56:45.7;0.022174252278587388;1.008055150382804;0.2435083913206298;1.032;0.005443111224022428
56:45.7;0.008766793828961617;0.9994977271790972;0.2404740948718319;1.032;0.0021071279260109817
56:45.7;-0.0021987252302641544;0.9906031858677765;0.23760109226353515;1.02;0.000517510437204456
56:45.7;-0.01058460087697059;0.9819968966696636;0.23468357955951888;1.014;0.002439311736848057
56:45.7;-0.016440317896634696;0.9742137719026437;0.23157299915351956;0.997;0.003708962103799042
56:45.8;-0.019977334387769212;0.9676730619531034;0.2281911455553879;0.9790000000000001;0.004411283596482005
56:45.8;-0.021540975951351456;0.9626557232450219;0.22453651976353026;0.966;0.004656111373150164
56:45.8;-0.02158086947055968;0.9592893898311943;0.22068592517620958;0.9590000000000001;0.004568706031579294
56:45.8;-0.020620004724814775;0.9575480793064646;0.21679254440605814;0.9570000000000001;0.004280492027293036
56:45.8;-0.01922154428367746;0.9572726478541096;0.21307981451305105;1.0;0.003920723687835398
56:45.8;-0.017952959528346676;0.9582120505137792;0.20982937743629818;1.0;0.003609640678143613
56:45.8;-0.0173490573249844;0.9600764307428544;0.20736207010296265;1.0;0.0034539099459766336
56:45.8;-0.017876822459008936;0.9625879414112761;0.20601175966293556;1.014;0.0035450531887784623
56:45.8;-0.01990428685838478;0.965517786109915;0.20609161432308465;1.014;0.003960656893047834
56:45.8;-0.023674300043198288;0.9687032834930924;0.2078524895264548;1.0;0.004766758502148162
56:45.9;-0.029283755340693916;0.9720429965032279;0.21143521511618157;0.9840000000000001;0.006018518048677961
56:45.9;-0.03666909536448927;0.9754733938391302;0.21682201791209124;0.975;0.00775566436753503
56:45.9;-0.04559883489316006;0.978936874192717;0.22379474986368578;0.981;0.009989835287195355
56:45.9;-0.05567357260238772;0.9823537082774528;0.23190759300320996;0.981;0.012683290751725687
56:45.9;-0.0663340370789876;0.9856075353338613;0.2404800341090644;1.014;0.01572242273748869
56:45.9;-0.0768778053374532;0.9885476923339288;0.24861329431315726;1.014;0.018893958269557577
56:45.9;-0.086485390630028;0.991005346798311;0.25523118853053567;1.014;0.021875223143651458
56:45.9;-0.09425774966897453;0.9928176744687885;0.25914615643581607;1.014;0.02425109422551352
56:45.9;-0.09926991226789199;0.9938559672200237;0.25915282763808667;1.04;0.025568016594228343
56:45.9;-0.10064577516910041;0.9940553160694134;0.2541511995669183;1.0490000000000002;0.025427183966889595
56:46.0;-0.09765391687380785;0.9934419095483512;0.2432955632265605;1.056;0.02360295257912425
56:46.0;-0.08981636467653359;0.9921516749258835;0.22615508613546437;1.061;0.02015300915424173
56:46.0;-0.0770172625671861;0.9904343461746468;0.20286283433021987;1.068;0.015474486973615453
56:46.0;-0.05959614116352865;0.9886391907171213;0.17422457089517268;1.064;0.010265151564651943
56:46.0;-0.03840733470839276;0.9871817830877491;0.14175515371965683;0.997;0.005374649652972818
56:46.0;-0.014826378408515847;0.9864976736789286;0.10760904029274385;0.997;0.0015739100332769996
56:46.0;0.009309635529926743;0.9869977680937714;0.07437399032648978;0.997;0.000683392065828781
56:46.0;0.031835380193034904;0.9890425310468872;0.04470685820066852;1.07;0.0014076645026762642
56:46.0;0.0504707764668296;0.9929327199647934;0.02084193485978758;1.942;0.0010444745025464236
56:46.0;0.06310256442225368;0.9988751017045566;0.004123807891930619;0.8440000000000001;0.00025993012892158864
56:46.1;0.0680807096053357;1.0068798802440928;-0.005221340162889815;0.743;0.00035791815190889777
56:46.1;0.06446073339870455;1.0166289644529463;-0.008016442176396936;1.047;0.0005253386885127662
56:46.1;0.05215652930298553;1.027426104893543;-0.005900485373781976;1.1079999999999999;0.0003161891902195652
56:46.1;0.0319963892075642;1.0382861952770246;-0.0010411066261410656;1.1;3.458702926131973e-05
56:46.1;0.0056634674726782006;1.0481162625712812;0.004201834182161066;1.161;2.4941971569373982e-05
56:46.1;-0.0245002092453359;1.0559111068160085;0.0076319203546402125;1.161;0.00019743810821622448
56:46.1;-0.055800641090472614;1.0609131679249175;0.007510415784486255;1.161;0.0004446138724754132
56:46.1;-0.0855370548170352;1.0627067484201234;0.0027420089159263658;1.099;0.0002492508188553598
56:46.1;-0.11131916958199797;1.0612342414494271;-0.007045422045250358;1.075;0.0008323159672001764
56:46.1;-0.13132221545634035;1.056747630517996;-0.02151356312965815;1.077;0.0029855326761072196
56:46.2;-0.1444584950083255;1.0497255461465653;-0.03970837978312902;1.073;0.006021449096121997
56:46.2;-0.15044633161021617;1.040783298140742;-0.06022169030884523;1.05;0.009429634470801786
56:46.2;-0.149766566612933;1.0305909555210166;-0.08139525668641291;1.033;0.012563200694552199
56:46.2;-0.1435114309527059;1.019806895886953;-0.10153603039974148;1.018;0.014860198804015063
56:46.2;-0.13314717362801085;1.0090324767109204;-0.11911075701383063;1.0170000000000001;0.01600250904751346
56:46.2;-0.12023322923933183;0.9987906345588762;-0.1328953787246821;1.0170000000000001;0.015959116761266382
56:46.2;-0.1061619963865882;0.989524835499958;-0.14206730364997447;1.0170000000000001;0.01492416058938548
56:46.2;-0.09198378393570643;0.9816085816729428;-0.14624119123170026;1.036;0.013204420122144449
56:46.2;-0.07835091700369864;0.9753527647689385;-0.14545603896366452;1.0090000000000001;0.011115719009532891
56:46.2;-0.0655725125253092;0.9709996266257254;-0.14012366348152014;0.9620000000000001;0.008921797688390732
56:46.3;-0.05373975701335667;0.9687002045513564;-0.13095136900276844;0.95;0.006817028864564106
56:46.3;-0.04286845234842917;0.9684851118222758;-0.11885491450732726;0.953;0.004934553905262588
56:46.3;-0.03301204308969238;0.970245833622547;-0.1048754606558685;0.971;0.003359139743105598
56:46.3;-0.02431893287346544;0.9737382058366947;-0.09010464719950817;0.981;0.0021337027401308033
56:46.3;-0.01703130344382196;0.9786074147283945;-0.07561421585508188;0.992;0.0012602590984312097
56:46.3;-0.011440611725335897;0.9844250656808196;-0.06238829800356481;0.992;0.0007026435239698884
56:46.3;-0.00782366124715507;0.9907277429642172;-0.051263139411707515;0.992;0.00039734665540078467
56:46.3;-0.006380635504931391;0.997050991136237;-0.04288038909484305;0.997;0.000272797272110084
56:46.3;-0.007186834185823833;1.0029582364882115;-0.0376549961230618;1.005;0.00027142077199402456
56:46.3;-0.010162398960130367;1.0080668021840264;-0.03575562115913934;1.015;0.0003662940638192095
56:46.4;-0.0150627424741499;1.0120719965486755;-0.03709811819447801;1.0270000000000001;0.0005655452250749131
56:46.4;-0.02149221660155723;1.014767395681666;-0.04135594770529254;1.0290000000000001;0.0009019567047069166
56:46.4;-0.028940670442881105;1.016057509038011;-0.04799092359882726;1.0270000000000001;0.0014111916098884015
56:46.4;-0.036837705459642774;1.0159595219358626;-0.05630477724699865;1.023;0.00210724106387548
56:46.4;-0.044615592423841124;1.0145935457806394;-0.06550844901083146;1.0190000000000001;0.002965350792265755
56:46.4;-0.05177024296462722;1.012164000884702;-0.07480100811315214;1.0190000000000001;0.003919571048294819
56:46.4;-0.057909925498187964;1.008936398473597;-0.08344527433953058;1.0190000000000001;0.00487549306449178
56:46.4;-0.06278426132646117;1.0052129966312162;-0.09082797814368444;1.013;0.005732294980774913
56:46.4;-0.06629137673139812;1.001308797707949;-0.09649902961407955;1.002;0.006405425975354219
56:46.4;-0.06846589486130814;0.9975286236854526;-0.10019026360808883;0.9990000000000001;0.006842663361674626
56:46.5;-0.06945273890365652;0.9941470304236133;-0.10181541513384888;0.996;0.007029970991971176
56:46.5;-0.06947252124032958;0.991393342260884;-0.10145342575051111;0.997;0.0069875636127434025
56:46.5;-0.06878448125282763;0.9894427078632211;-0.09931877338334097;0.996;0.00675946721122271
56:46.5;-0.06765221762617672;0.988412000894918;-0.09572377367464593;0.998;0.006400882548942101
56:46.5;-0.06631581915095561;0.9883582468411276;-0.09103748893288303;0.991;0.005966941761224846
56:46.5;-0.06497210342941546;0.98927753560253;-0.08564534724345024;0.991;0.005504892580453881
56:46.5;-0.0637632606205335;0.9911037372431184;-0.0799138942962228;0.991;0.0050502389354215044
56:46.5;-0.06277336203800239;0.9937079421299777;-0.07416442174898714;0.988;0.004626257106162489
56:46.5;-0.06203156202331544;0.9969005301447782;-0.06865637480121398;0.9990000000000001;0.004245661956858528
56:46.5;-0.06152029934256017;1.000437727243459;-0.06357907731775342;0.998;0.003913115996545387
56:46.6;-0.061186606022207296;1.0040336541030372;-0.05905042299807433;0.998;0.0036276689427678917
56:46.6;-0.06095470531277904;1.0073781947233944;-0.055121941499846644;1.01;0.003384732004516138
56:46.6;-0.06073822365684034;1.010160777694637;-0.051789130882826453;1.0170000000000001;0.0031775413517709165
56:46.6;-0.06045074037986307;1.0120990841003312;-0.0490048899091282;1.0190000000000001;0.0029982239847105097
56:46.6;-0.060014124776062154;1.0129698639970492;-0.04669361155930336;1.02;0.002838621371955008
56:46.6;-0.05936470947997477;1.0126382922347197;-0.044764053005447176;1.036;0.0026909900628135012
56:46.6;-0.0584576935968065;1.0110822436146467;-0.043119992771548515;1.036;0.0025486302850093656
56:46.6;-0.05727051839343697;1.008406775940534;-0.04166848290452708;1.034;0.002406437341729129
56:46.6;-0.05580605739686505;1.0048432150878501;-0.04032575912217855;1.023;0.0022613209041279034
56:46.6;-0.05409591936400631;1.0007290919583163;-0.03902081508784111;1.008;0.002112405882567102
56:46.7;-0.05220322001342798;0.9964695569795154;-0.037696911162225843;0.991;0.001960952587888532
56:46.7;-0.050223414770207364;0.9924857132424453;-0.036311643963714745;0.975;0.0018099909904245794
56:46.7;-0.048281607426989136;0.9891589852670573;-0.03483609391263378;0.966;0.0016637086459582533
56:46.7;-0.04652501524703433;0.9867822255223814;-0.033253496322455715;0.956;0.0015266699477907506
56:46.7;-0.045109772886869494;0.9855271213767522;-0.03155842961254672;0.982;0.001402990095215324
56:46.7;-0.044182779721662076;0.9854330449664593;-0.02975763753280086;0.982;0.0012956228737447714
56:46.7;-0.043861966560634756;0.9864157514749395;-0.027872161201811036;0.982;0.001205920681107055
56:46.7;-0.04421970564421982;0.9882895270998518;-0.025938584523922552;0.9890000000000001;0.001133564700197033
56:46.7;-0.045272239156015165;0.9907966332036723;-0.02400684781740969;0.991;0.0010768411340371655
56:46.7;-0.04697506018311962;0.9936405315355735;-0.022133699194887696;0.9990000000000001;0.0010331197098322209
56:46.8;-0.049223371868423536;0.9965206322685554;-0.0203734976152127;1.005;0.0009993629576181761
56:46.8;-0.05185803885190099;0.9991659859597541;-0.01876990347312401;1.014;0.0009725585789894513
56:46.8;-0.054678199534163294;1.0013645409242269;-0.017351402903093296;1.02;0.0009500380694245851
56:46.8;-0.05746073498884921;1.0029838721770215;-0.016131271821282635;1.022;0.0009296805302445151
56:46.8;-0.05998506657739095;1.003979567531721;-0.01511050742059683;1.008;0.0009100118927300374
56:46.8;-0.062059857860165504;1.0043898572147743;-0.014281483694036527;1.008;0.0008901976085957445
56:46.8;-0.06354655046140055;1.0043189566287498;-0.013630468248895782;1.008;0.0008699101857647417
56:46.8;-0.06437481889220888;1.0039140532859663;-0.013138011163352363;1.001;0.0008490674275589141
56:46.8;-0.06454734465484022;1.003340484142367;-0.012777131500021275;0.9990000000000001;0.0008274849078202911
56:46.8;-0.06413389115798972;1.0027583431578126;-0.012510270437641484;1.001;0.0008045454304770641
56:46.9;-0.06325638542418566;1.0023028987444214;-0.012286860410061728;0.9990000000000001;0.0007790122421898939
56:46.9;-0.06206802511882393;1.0020701904289078;-0.012043216311171587;0.995;0.0007490461170692825
56:46.9;-0.060730217635126704;1.0021083740326675;-0.011705309060607766;0.993;0.0007123647380821058
56:46.9;-0.05939099656377719;1.0024156576917251;-0.011194006004187436;0.995;0.0006664291573389892
56:46.9;-0.05816787443941213;1.0029459241852605;-0.010432271663774273;1.01;0.0006086107230092092
56:46.9;-0.057137188413290886;1.003621588480842;-0.009353960414204868;1.01;0.0005363945891496887
56:46.9;-0.05633067769474854;1.0043504322997518;-0.007913280496563337;1.01;0.0004476997038334285
56:46.9;-0.055738682512882345;1.0050418442098077;-0.006093164256942509;1.01;0.0003413372840942247
56:46.9;-0.05531861641137383;1.005619339719202;-0.003910837955735774;1.012;0.0002175578447271533
56:46.9;-0.05500705464532633;1.006028515962912;-0.0014198498844366267;1.01;7.857259788935069e-05
56:47.0;-0.054733468751349074;1.0062408147168027;0.0012914374676312585;1.0090000000000001;7.112598334527415e-05
56:47.0;-0.05443347986127031;1.0062538576970161;0.004104735174700725;1.011;0.0002248323502842022
56:47.0;-0.054059812703385786;1.0060891564153835;0.006879862565162311;1.013;0.00037418878560581506
56:47.0;-0.05358975892268542;1.0057874719914575;0.009465533250067352;1.011;0.0005101913727834048
56:47.0;-0.05302851228362981;1.0054014904338344;0.011712283954066554;1.002;0.0006244397781787158
56:47.0;-0.05240825002224038;1.0049860237874801;0.013486291157844811;1.002;0.0007103170051793842
56:47.0;-0.05178351531430586;1.0045875857854212;0.014681967670519477;1.002;0.0007637717653125101
56:47.0;-0.05122390438760943;1.0042361015085512;0.01523131089562272;1.0;0.0007835122499673687
56:47.0;-0.050804939686305964;1.0039407171387997;0.015109143704260995;1.002;0.0007706441044865246
56:47.0;-0.050597874962475614;1.0036902289572252;0.014334442435941478;1.004;0.0007279688207745425
56:47.1;-0.050659500836142644;1.00345756247575;0.012968304003383719;1.005;0.0006592393147417669
56:47.1;-0.051023505529092364;1.0032070168725247;0.011109200411816391;1.006;0.0005686481831280438
56:47.1;-0.051695133114946064;1.0029026606723577;0.008886125228566005;1.006;0.00046070282013537905
56:47.1;-0.052650441612487726;1.0025164025917792;0.006449761633470214;1.0070000000000001;0.0003404373253312464
56:47.1;-0.0538402957237356;1.0020345746817476;0.0039611053684611335;1.0090000000000001;0.00021370099224125722
56:47.1;-0.055197782099899464;1.001462052989127;0.0015770977181731184;1.006;8.717957126783504e-05
56:47.1;-0.0566469139283696;1.000823137041199;-0.0005653165768342949;1.006;3.204979914942737e-05
56:47.1;-0.05811088902457343;1.0001589104335722;-0.0023628219587127006;1.002;0.00013732750393345507
56:47.1;-0.05951927519743395;0.999521563899881;-0.003752984994629213;0.9990000000000001;0.00022326807606880945
56:47.1;-0.06081409359142087;0.998966896622296;-0.004713979045287306;0.9990000000000001;0.00028638019652933277
56:47.2;-0.06195436409114708;0.9985465887000319;-0.0052588966667827895;1.0;0.0003253380605522073
56:47.2;-0.06291814047950012;0.9983015202417734;-0.005427741575076524;0.998;0.0003409233702830909
56:47.2;-0.06370148165470554;0.9982566880538174;-0.005279168753718634;0.996;0.0003357046116233944
56:47.2;-0.06431506789609039;0.9984180198890131;-0.004882851938451995;0.996;0.00031354414740491533
56:47.2;-0.06478004794835668;0.998771677885566;-0.004313134084920906;1.002;0.0002790618334481599
56:47.2;-0.06512432610654496;0.9992862522783283;-0.0036448094859396324;1.002;0.00023719634228704583
56:47.2;-0.06537948252835223;0.9999172247789332;-0.0029512925443737777;1.002;0.00019293800753264592
56:47.2;-0.065578027798709;1.0006123468396038;-0.0023042750558891155;1.003;0.00015120234528780268
56:47.2;-0.06575088939899294;1.0013168886976018;-0.0017735103809188915;1.006;0.00011676344714322229
56:47.2;-0.06592533309907088;1.0019782688333945;-0.0014257623830996888;1.006;9.417980514979191e-05
56:47.3;-0.06612355869554047;1.002549652076497;-0.001322507527459935;1.003;8.767186839726116e-05
56:47.3;-0.06636192834201642;1.0029922891924066;-0.0015164092106718617;1.003;0.00010093295894115591
56:47.3;-0.06665048365606535;1.0032770890376288;-0.002046985072273991;1.006;0.00013687964670174287
56:47.3;-0.06699252216428887;1.0033863188023049;-0.0029362387273350822;1.0070000000000001;0.00019737214737571506
56:47.3;-0.06738443408649762;1.0033156999634592;-0.00418520711389632;1.008;0.0002829528993566304
56:47.3;-0.06781615660736874;1.0030761801093708;-0.005772149179267522;1.008;0.00039264912794124117
56:47.3;-0.06827227282989828;1.0026942725369055;-0.007652438107708074;1.008;0.0005238569632182484
56:47.3;-0.06873341778047899;1.0022101113156212;-0.009759776466402923;1.005;0.0006723053863556288
56:47.3;-0.06917762691285868;1.0016729679744605;-0.012008614874143658;1.001;0.0008321172599724294
56:47.3;-0.06958142627853853;1.001134852275815;-0.014298045485041056;1.001;0.000996007437858528
56:47.4;-0.06992068760208753;1.0006436541881676;-0.01651734093789878;0.9990000000000001;0.0011556471944267944
56:47.4;-0.07017160050073054;1.0002374852089508;-0.018552825389138324;1.0;0.0013021906289549321
56:47.4;-0.07031232536859545;0.9999413997215733;-0.020295371838554295;1.001;0.0014269311647251521
56:47.4;-0.07032569932044748;0.9997669439824339;-0.02164793641848024;1.004;0.001522051461532391
56:47.4;-0.07020286957648;0.9997141570602393;-0.022532879011419402;1.004;0.0015814205992593987
56:47.4;-0.06994714747251997;0.9997748970356944;-0.022898674790730236;1.004;0.0016013364357738006
56:47.4;-0.06957682772102629;0.9999361644598376;-0.02272513135299619;1.004;0.0015810416159964143
56:47.4;-0.06912551002749383;1.0001825748811577;-0.02202615203786468;1.003;0.0015228469764135724
56:47.4;-0.06863895245054065;1.0004978272041964;-0.020849579340842334;1.003;0.0014318057221588624
56:47.4;-0.06816854924361737;1.0008655088694083;-0.019274206170693108;1.002;0.0013150318599710253
56:47.5;-0.06776269977763108;1.0012697903369658;-0.01740426319426241;1.002;0.0011808574014398497
56:47.5;-0.06745820323366185;1.0016964571546572;-0.015361704551249347;1.008;0.0010380309803576955
56:47.5;-0.06727403303431949;1.0021341656985683;-0.013276782683396474;1.008;0.0008950889167491129
56:47.5;-0.06720922305010554;1.0025749944558895;-0.011277702611778151;1.003;0.0007599173876236045
56:47.5;-0.06724521915699093;1.0030132768731055;-0.009480325011101154;1.004;0.0006394275167434959
56:47.5;-0.06735146788687921;1.0034428202611836;-0.007979064096055562;1.004;0.000539251856622494
56:47.5;-0.06749217460999928;1.003853724849798;-0.006840314440006084;1.004;0.00046344683684681933
56:47.5;-0.0676324934598497;1.0042300140355715;-0.006099407910058809;1.004;0.00041426312321636496
56:47.5;-0.0677432358554923;1.0045487228621588;-0.005761149178267605;1.006;0.00039205415808062045
56:47.5;-0.06780364595977954;1.0047807370967612;-0.005803169259798167;1.005;0.00039535713940815526
56:47.6;-0.06780188965895671;1.0048934458947254;-0.006181163359958686;1.008;0.00042114537263093424
56:47.6;-0.06773316387836144;1.0048548928257135;-0.006835229088789464;1.0090000000000001;0.0004652193699632022
56:47.6;-0.06759591996078522;1.00463857806134;-0.007696604740073146;1.01;0.0005226723403251146
56:47.6;-0.06738733159588406;1.0042276446651153;-0.00869407194577048;1.0090000000000001;0.0005883471606149431
56:47.6;-0.06709951446888596;1.0036172857013634;-0.009759259221997255;1.004;0.0006572103043669193
56:47.6;-0.06671785581360509;1.0028150150063613;-0.01083029030371442;1.004;0.0007246078028434377
56:47.6;-0.0662220735135449;1.0018395036848962;-0.011853755164861798;1.004;0.000786424219994016
56:47.6;-0.06558976623501493;1.00071909185633;-0.012785544021142565;1.003;0.0008392038745715306
56:47.6;-0.06480177014166436;0.999490552373642;-0.01359125458025684;1.002;0.0008802886656915713
56:47.6;-0.0638484422422626;0.9981979788474773;-0.014246589131596894;1.001;0.0009079833642901802
56:47.7;-0.06273561832206954;0.9968914356056131;-0.014737772857765232;1.0;0.000921709166218093
56:47.7;-0.061488622255259265;0.9956250771260843;-0.015061857671626712;0.998;0.0009220811169259911
56:47.7;-0.06015291090274929;0.9944545262878923;-0.015226647692024049;0.9990000000000001;0.0009108479318560791
56:47.7;-0.05879086525865943;0.9934333212008432;-0.015249793184803559;0.996;0.0008906611900841428
56:47.7;-0.05747539617151021;0.9926083134847524;-0.015156754688337423;0.99;0.0008647012830448283
56:47.7;-0.05628188695068559;0.9920144221185933;-0.014977879949499057;0.99;0.0008362516369158064
56:47.7;-0.05528027616713207;0.9916700819973492;-0.014745125170562624;0.99;0.0008083247538372763
56:47.7;-0.05452865932413357;0.9915750892974535;-0.01448875938777755;0.991;0.0007833965018721766
56:47.7;-0.05406896027387293;0.9917117253184535;-0.014234242149877027;0.993;0.0007632517629064828
56:47.7;-0.05392466659488516;0.9920487320314738;-0.013999724709868861;0.996;0.0007489278327969274
56:47.8;-0.054100421840090354;0.9925468309244609;-0.013794913289530598;0.996;0.000740748248916145
56:47.8;-0.05458302792944709;0.9931643061289672;-0.01362171383670988;0.997;0.0007384319500592247
56:47.8;-0.055343273593942297;0.9938615744104832;-0.01347622359048415;0.997;0.0007412401788643266
56:47.8;-0.05633829898238575;0.9946042673392806;-0.013351090817658381;0.998;0.0007481191961942438
56:47.8;-0.05751466239336877;0.995364820201851;-0.01323754427244936;0.996;0.0007578238822133788
56:47.8;-0.05881238752876065;0.9961228675077385;-0.013127034918506964;1.0;0.0007690389933521425
56:47.8;-0.060169836009759656;0.9968648589151489;-0.013012688666412293;1.0;0.0007805166174780591
56:47.8;-0.06152857584865249;0.99758308016886;-0.01289052813652294;1.0;0.0007912188924411624
56:47.8;-0.06283723798345302;0.998273966223161;-0.012760141596579453;0.9990000000000001;0.0008004280995185836
56:47.8;-0.06405385757864109;0.998935755438962;-0.012624491223566124;1.0;0.0008077867642794117
56:47.9;-0.06514666096914985;0.9995660021248961;-0.01248883163759325;1.0;0.0008132525774585292
56:47.9;-0.06609340479774733;1.0001596594234499;-0.01235908260521241;1.0;0.0008169842679697643
56:47.9;-0.06687966722353451;1.0007082884446787;-0.012240248706796408;1.002;0.0008192035819937627
56:47.9;-0.06749687817091844;1.00120066334241;-0.012135463479857807;1.004;0.0008200893704753313
56:47.9;-0.06794086018865807;1.0016246080957898;-0.012046004151224927;1.005;0.0008197454889410263
56:47.9;-0.06821124129905277;1.0019693955829059;-0.011972238205993992;1.005;0.0008182495187883191
56:47.9;-0.06831166554568203;1.002227855793826;-0.011915018200464091;1.005;0.0008157480675032924
56:47.9;-0.06825049181951828;1.002397619236248;-0.011876819310623425;1.0070000000000001;0.0008125422663795414
56:47.9;-0.0680415782169762;1.0024813177345324;-0.011862072359247867;1.005;0.0008091168308374814
56:47.9;-0.06770462841939968;1.0024858599167663;-0.011876478585763324;1.002;0.000806091431068152
56:48.0;-0.06726459105067209;1.0024212547042355;-0.011925428656711;1.004;0.0008041013131477369
56:48.0;-0.06675002626300827;1.002299735405278;-0.012012004415255245;1.005;0.000803645541740621
56:48.0;-0.06619089124828727;1.0021356226525537;-0.012135276230685244;1.006;0.0008049601769352624
56:48.0;-0.06561633164204743;1.0019455860006725;-0.012289484152356742;1.004;0.0008079597706342865
56:48.0;-0.0650528336863478;1.001748576642954;-0.012464284196495777;1.004;0.0008122548175054406
56:48.0;-0.06452288857701051;1.0015650412629546;-0.012645864265620477;1.004;0.0008172246827754105
56:48.0;-0.0640442713460472;1.0014155076009548;-0.012818541138119153;1.004;0.0008221161937168483
56:48.0;-0.0636299501769975;1.0013187525759235;-0.01296643666076834;1.002;0.0008261417604146915
56:48.0;-0.06328843570065983;1.0012897616125933;-0.013074994587762536;1.001;0.0008285632267704577
56:48.0;-0.06302420710860462;1.0013379260325423;-0.013132311345801577;1.002;0.0008287608492495279
56:48.1;-0.06283786615969014;1.0014661337275492;-0.013130293079368261;1.004;0.0008262892761870882
56:48.1;-0.06272596161601939;1.001671093855069;-0.013065503059134204;1.004;0.0008209157820724953
56:48.1;-0.06268089638719113;1.001944583381206;-0.012939451448808257;1.004;0.000812633582396778
56:48.1;-0.06269146844363882;1.0022749692138528;-0.012758180764825855;1.006;0.0008016486733651711
56:48.1;-0.06274408464827495;1.0026484808876546;-0.012531240499147216;1.005;0.0007883436124260263
56:48.1;-0.06282410434039623;1.0030499174455527;-0.012270322595220658;1.005;0.0007732231230559379
56:48.1;-0.06291680814402309;1.003462685782352;-0.011987855202787829;1.005;0.0007568492736171766
56:48.1;-0.06300790795901537;1.0038683784444327;-0.011695776038814014;1.005;0.0007397770902870066
56:48.1;-0.06308369949680186;1.0042463311735088;-0.011404657158827722;1.005;0.0007225029793933388
56:48.1;-0.06313087707859591;1.0045736105524838;-0.01112336243858824;1.006;0.0007054393424954144
56:48.2;-0.06313602917181692;1.0048257312568827;-0.010859282130197545;1.0070000000000001;0.0006889205323905504
56:48.2;-0.06308497577921615;1.004978136012342;-0.010618872914771761;1.0070000000000001;0.000673226150838102
56:48.2;-0.06296222185280703;1.0050081981215206;-0.010408098663421008;1.0070000000000001;0.0006585989745663198
56:48.2;-0.06275083681668626;1.004897414747069;-0.010232541647829402;1.008;0.0006452451838712552
56:48.2;-0.06243304415388084;1.0046335019678425;-0.010097182644066897;1.008;0.0006333187995246169
56:48.2;-0.061991700045409895;1.0042120926302;-0.010006035825965164;1.006;0.0006229038954391927
56:48.2;-0.0614126710989783;1.0036377740033018;-0.009961938373810679;1.006;0.0006140147958695741
56:48.2;-0.060687872270755276;1.0029244322829711;-0.009966676770533468;1.006;0.0006066252684166877
56:48.2;-0.05981844579896551;1.0020950184603377;-0.010021375657451983;1.006;0.0006007190028919246
56:48.2;-0.05881744325750222;1.0011806709470017;-0.010126948260516373;1.003;0.0005963444609497907
56:48.3;-0.05771145346934959;1.0002189966366346;-0.010284361530173808;1.001;0.0005936554319883201
56:48.3;-0.056540734304677064;0.9992516428747404;-0.010494408914603124;1.0;0.0005929175397543776
56:48.3;-0.05535753600971699;0.9983217642871677;-0.010756877109807418;1.001;0.0005944748658696855
56:48.3;-0.05422250759696054;0.9974719278577783;-0.011069487277817916;1.001;0.0005986979702900063
56:48.3;-0.0531992895214865;0.9967423952511406;-0.011427233032632293;0.997;0.0006059403132431822
56:48.3;-0.05234778393972234;0.9961693168464515;-0.011822410093092681;0.997;0.0006165062476199747
56:48.3;-0.05171733913024496;0.9957826089176449;-0.012245144489768094;0.997;0.0006306154743229984
56:48.3;-0.05134151049943681;0.9956036721335859;-0.012684080428437168;0.997;0.0006483568725252192
56:48.3;-0.05123545285054505;0.9956430734319233;-0.013127114553089425;0.998;0.000669643304705727
56:48.3;-0.05139588441576572;0.9958980531376583;-0.013562279515518966;0.995;0.0006941861074059618
56:48.4;-0.05180281240022534;0.9963498419401683;-0.013978753512040818;0.991;0.000721495524893921
56:48.4;-0.05242205826178068;0.9969615984690126;-0.014367660988133886;0.991;0.0007508938909654608
56:48.4;-0.05320803554415561;0.9976787733177481;-0.01472232258985871;0.997;0.0007815275403335826
56:48.4;-0.05410694501229148;0.9984335752449869;-0.015038036945358891;1.002;0.0008123876974233693
56:48.4;-0.05506089986123008;0.999153469897612;-0.015311861029332588;1.006;0.0008423711501234482
56:48.4;-0.056013008935414596;0.9997715916933477;-0.015542759616939147;1.006;0.0008703978817789826
56:48.4;-0.05691256253732341;1.0002362107523433;-0.015732061727508337;1.006;0.0008955634386648415
56:48.4;-0.05771917449219222;1.0005171391476833;-0.015883868557608486;1.0070000000000001;0.0009172778960134909
56:48.4;-0.0584052419204402;1.0006081790777772;-0.016005094748340085;1.005;0.0009353499452448382
56:48.4;-0.058956638456716615;1.0005256179487618;-0.016104974273119414;1.002;0.0009499942172658002
56:48.5;-0.05937181940474101;1.0003034596602902;-0.01619392109832672;1.0;0.000961754324005986
56:48.5;-0.05965976852488795;0.9999868057808324;-0.01628168443977338;0.9990000000000001;0.0009713487085152995
56:48.5;-0.05983737355854514;0.9996251905014221;-0.01637500178577662;1.001;0.000979469846625641
56:48.5;-0.05992662469523897;0.9992672248913109;-0.01647543059026867;1.002;0.000986593464393312
56:48.5;-0.05995173394851018;0.998956835360203;-0.016578336036184336;1.0;0.000992863190023851
56:48.5;-0.05993624470608557;0.998730561877003;-0.016673698447431048;1.0;0.0009980902460521915
56:48.5;-0.05990038150337014;0.9986153976197123;-0.016748570088224352;1.0;0.0010018566414838341
56:48.5;-0.05985896688109312;0.9986271205356831;-0.016790362582222853;0.9990000000000001;0.0010036739400662996
56:48.5;-0.05982007825826689;0.9987693345715898;-0.016790183860665622;1.0;0.0010031540443275972
56:48.5;-0.05978446692324523;0.9990334001480514;-0.016745723068821924;1.002;0.0010001664308149534
56:48.6;-0.05974586117471306;0.9993992052951526;-0.016663119581821952;1.001;0.0009949543066452718
56:48.6;-0.059692399103537394;0.9998364884993491;-0.0165571515252946;0.9990000000000001;0.0009881744925472821
56:48.6;-0.05960919791453247;1.0003066019789328;-0.016449482559663834;1.0;0.0009808410971365686
56:48.6;-0.05948163340954441;1.0007651570924925;-0.01636535214188548;1.003;0.0009741827096172089
56:48.6;-0.059298728225409006;1.0011660753998282;-0.01632940730868543;1.005;0.000969442212148754
56:48.6;-0.05905612809516256;1.0014668086623628;-0.016361422212875294;1.005;0.0009676595385190083
56:48.6;-0.05875818219655193;1.0016337048018455;-0.016472753887571086;1.005;0.0009694903519071393
56:48.6;-0.058418624161329064;1.0016464728794803;-0.016664364697965662;1.006;0.0009751121147692885
56:48.6;-0.05805948577360704;1.0015011580308324;-0.016926815143520575;1.006;0.0009842374643611446
56:48.6;-0.057708220903412474;1.0012113065736403;-0.017241977133597867;1.006;0.0009962090799115594
56:48.7;-0.0573934705056384;1.0008070156852427;-0.01758580203458752;1.004;0.0010101247395611552
56:48.7;-0.05714034138754856;1.000331715132394;-0.017931511401134515;1.002;0.0010249525625873578
56:48.7;-0.05696630121921758;0.9998369945003176;-0.01825283237642072;1.001;0.001039626854735917
56:48.7;-0.05687860558259163;0.9993762833606542;-0.018527052936189357;1.001;0.0010531356683763499
56:48.7;-0.05687366130531468;0.9989983312634141;-0.018737642831389564;0.998;0.0010646108953639003
56:48.7;-0.056938187191846686;0.9987412898828674;-0.018876100914571;0.998;0.0010734181422358583
56:48.7;-0.057051639029770874;0.9986281358576709;-0.01894272541778997;0.998;0.001079230940632074
56:48.7;-0.05718925281726455;0.9986641381982021;-0.018946182137364282;0.9990000000000001;0.0010820705698676724
56:48.7;-0.05732525124974294;0.9988367589502612;-0.01890191583943831;0.9990000000000001;0.0010822966365283905
56:48.7;-0.05743593105915462;0.9991179083390517;-0.018829573182560552;1.0;0.001080540090288824
56:48.8;-0.05750224612961651;0.999468187035259;-0.01874979916456687;1.002;0.0010775821893335609
56:48.8;-0.05751139065260797;0.9998425748656223;-0.01868100810494093;1.004;0.0010742016219473308
56:48.8;-0.05745711692608807;1.0001967319850982;-0.018636781490974523;1.005;0.0010710263969577543
56:48.8;-0.057338987231318694;1.0004927811415392;-0.018624330713760198;1.005;0.0010684265020978125
56:48.8;-0.0571610851002703;1.0007034960118504;-0.018644201988018;1.004;0.0010664725482148459
56:48.8;-0.0569306830861152;1.0008143256938118;-0.01869118418091644;1.004;0.001064968408612212
56:48.8;-0.05665708204261779;1.0008233132038793;-0.018756091829244162;1.004;0.0010635403400511224
56:48.8;-0.05635057375483524;1.0007393150532025;-0.0188278715015921;1.003;0.001061745746402595
56:48.8;-0.05602141149544249;1.0005789793557682;-0.018895535675535657;1.001;0.0010591674607544849
56:48.8;-0.05567877226544884;1.0003630344236807;-0.01894965018490851;1.0;0.0010554762923279822
56:48.9;-0.055329834850177284;1.000112698931974;-0.018983313423273942;1.001;0.0010504619692204454
56:48.9;-0.05497920043072332;0.9998470770151248;-0.018992672916973607;1.001;0.0010440422885352417
56:48.9;-0.05462888321207554;0.9995819671594857;-0.018976949877508024;1.002;0.001036256208290532
56:48.9;-0.05427894824344944;0.9993298777941009;-0.018937876538719416;1.002;0.0010272391830933932
56:48.9;-0.053928680617896;0.9991006458892491;-0.01887864975635991;1.002;0.0010171850401822459
56:48.9;-0.05357804289156017;0.9989020530106049;-0.018802780757945732;0.9990000000000001;0.0010063101043526256
56:48.9;-0.053229082694606404;0.9987402232796929;-0.018713293147646592;0.9990000000000001;0.0009948365756516399
56:48.9;-0.05288695267364482;0.9986201459221837;-0.018612653854505692;1.002;0.0009830082613450138
56:48.9;-0.05256037968802106;0.9985467579541308;-0.01850356787219237;1.003;0.0009711411957772571
56:48.9;-0.05226161356195908;0.998526348559092;-0.018390169525816746;1.002;0.0009596836067958858
56:49.0;-0.052005910991366026;0.9985673785278999;-0.018278705758339325;1.001;0.000949238893667305
56:49.0;-0.05181050221238832;0.9986799982954057;-0.0181771782546172;1.001;0.0009405255978413756
56:49.0;-0.05169297095421171;0.9988742818465725;-0.018094181799354823;1.0;0.0009342890827092331
56:49.0;-0.051669228313812994;0.999157651534139;-0.018037495124324916;0.9990000000000001;0.0009311983989555265
56:49.0;-0.05175157487946709;0.9995320251816199;-0.018012817291694964;1.0;0.0009317554206371885
56:49.0;-0.051947280783635516;0.9999912341452187;-0.018022839782912102;1.0;0.0009362293117992816
56:49.0;-0.052257684535487646;1.0005193311082952;-0.018066695881877332;1.0;0.0009446140067981089
56:49.0;-0.05267755186832772;1.0010903976486938;-0.01813968542309235;1.0;0.0009565961538245103
56:49.0;-0.05319457749450221;1.0016703191960032;-0.018233173817374233;1.005;0.0009715260301717442
56:49.0;-0.05378914988012801;1.0022205680352636;-0.01833478501526749;1.006;0.0009884024511578626
56:49.1;-0.054434620224133326;1.0027032674925116;-0.01842922401326869;1.006;0.0010058996951839239
56:49.1;-0.05509837797426679;1.003086263760151;-0.018499971998201768;1.0070000000000001;0.0010224643352615434
56:49.1;-0.05574395051706095;1.0033471233447757;-0.018531771871741543;1.008;0.001036491867012278
56:49.1;-0.056333997119896256;1.0034754941013062;-0.018513545505124837;1.0070000000000001;0.0010465667580003824
56:49.1;-0.05683370404992797;1.003473600371668;-0.01844109280818227;1.005;0.0010517162068494528
56:49.1;-0.057214005694388004;1.0033549859537565;-0.018318681249109528;1.005;0.0010516014442007947
56:49.1;-0.05745420751193397;1.0031420938488487;-0.018158952006381717;1.005;0.0010465863690414417
56:49.1;-0.057543799555210016;1.0028634484236139;-0.017981293776786495;1.005;0.0010376748091793478
56:49.1;-0.057483403224298325;1.0025509049285417;-0.01780913814349773;1.004;0.001026341306548188
56:49.1;-0.05728481778082363;1.0022370723161267;-0.017666471322793344;1.004;0.0010142845538028467
56:49.2;-0.056970083969700734;1.0019529198538726;-0.01757392084070363;1.004;0.0010031429853983218
56:49.2;-0.056569465132863504;1.0017256075304126;-0.01754520782170444;1.003;0.0009942357273198294
56:49.2;-0.05611833514751354;1.0015765777505432;-0.01758498811179042;1.003;0.0009883960868141122
56:49.2;-0.05565319849702415;1.0015199729646556;-0.01768872489029123;1.003;0.0009859304307226816
56:49.2;-0.055207379377706325;1.0015614970344453;-0.017844551478350498;1.003;0.0009866892335355052
56:49.2;-0.054807150660326064;1.0016978170621464;-0.018036529995982525;1.003;0.0009902091613666598
56:49.2;-0.05446907283378722;1.0019165474208553;-0.0182482972561085;1.003;0.0009958728188210492
56:49.2;-0.0541990117343661;1.002196871196678;-0.01846594946384;1.003;0.0010030349199229007
56:49.2;-0.05399286929287212;1.0025108959303484;-0.018679416434301134;1.005;0.0010110876673775518
56:49.2;-0.05383870610020962;1.0028257754804566;-0.01888222906714379;1.004;0.0010194674498692424
56:49.3;-0.05371968029734856;1.0031064500482196;-0.01907000280745772;1.006;0.001027616808545462
56:49.3;-0.05361712822377768;1.0033187289526035;-0.019238147516078503;1.005;0.0010349174718970486
56:49.3;-0.05351328737745514;1.003432471568506;-0.019379573209023174;1.005;0.0010406243653826926
56:49.3;-0.05339341730031098;1.003424714250525;-0.019483414143104963;1.0090000000000001;0.0010438487442779765
56:49.3;-0.05324712278871618;1.0032825092351825;-0.019535519609981643;1.006;0.001043624711039563
56:49.3;-0.053068716237798054;1.0030049736944262;-0.01952060938896214;1.006;0.001039046633910656
56:49.3;-0.052856742785089283;1.0026040423029552;-0.01942530442151413;1.006;0.0010294320414284766
56:49.3;-0.05261305278468473;1.002103794905777;-0.019241221883312974;1.006;0.0010144691771087355
56:49.3;-0.05234171367558057;1.0015384508866818;-0.018967652233660776;1.004;0.000994326795463812
56:49.3;-0.052047848218478035;1.0009490850503315;-0.018613510885537667;1.001;0.00096971265651636
56:49.4;-0.05173653462907833;1.0003793110844605;-0.018198220481233734;1.0;0.0009418699903804726
56:49.4;-0.05141211380801461;0.9998705914896372;-0.017751191156100906;1.001;0.0009125081583404648
56:49.4;-0.05107821036559887;0.9994579683107904;-0.017309729260787166;1.0;0.0008836707552400704
56:49.4;-0.0507383456424632;0.9991667588804803;-0.016915387297413674;0.998;0.0008575436308761435
56:49.4;-0.0503966441677371;0.9990105020593487;-0.01660897824186513;0.9990000000000001;0.0008362085202883179
56:49.4;-0.050058267432523715;0.9989903409797197;-0.016424943818150763;0.9990000000000001;0.0008213740842956208
56:49.4;-0.04972961368430465;0.9990958897312218;-0.01638638152345109;0.9990000000000001;0.0008141516738538476
56:49.4;-0.04941844762447482;0.9993074271483429;-0.016502166699526807;1.0;0.0008149466596330006
56:49.4;-0.049133891378782865;0.9995991215082675;-0.01676688470843048;1.003;0.0008234920393867162
56:49.4;-0.04888601372034052;0.9999427785633992;-0.017163098946378262;1.003;0.0008389874797600799
56:49.5;-0.048684899436485254;1.000311281653403;-0.017664584085755698;1.002;0.0008602662015572966
56:49.5;-0.04853939238866893;1.0006809086323665;-0.018239232333910206;1.002;0.0008859240780087966
56:49.5;-0.048455821754018316;1.0010323001859152;-0.018851334879682925;1.001;0.0009143998845064098
56:49.5;-0.04843695673551198;1.0013505129867486;-0.019463816012416063;1.003;0.0009440412345478973
56:49.5;-0.04848144198792173;1.0016247532686842;-0.020040926501988528;1.003;0.0009731916470133366
56:49.5;-0.04858393125805569;1.0018480713204119;-0.020551197761940143;1.003;0.0010003032008930567
56:49.5;-0.0487358202459885;1.0020169512885277;-0.0209699388049703;1.003;0.0010240484665041075
56:49.5;-0.04892616191528286;1.0021306891457753;-0.021280635925714587;1.003;0.001043398269543373
56:49.5;-0.049142419435376915;1.00219059223048;-0.021475089180225948;1.004;0.0010576496547794194
56:49.5;-0.04937102841130251;1.0021990755778931;-0.02155256994931097;1.002;0.001066412519247103
56:49.6;-0.049597982887542184;1.0021587392025926;-0.021518512340974932;1.001;0.0010695787748185332
56:49.6;-0.0498097008085433;1.0020717253041849;-0.021383249820481308;1.002;0.0010672998565634533
56:49.6;-0.04999423159311357;1.0019398867654512;-0.021161116022638746;1.003;0.0010599860068561955
56:49.6;-0.0501426146126289;1.0017661067177621;-0.0208699619285813;1.003;0.0010483226435352682
56:49.6;-0.050250120088480094;1.001556588197118;-0.0205309003720263;1.006;0.0010332861104558127
56:49.6;-0.050317141845069226;1.0013235097184803;-0.020167924848133702;1.006;0.001016135422822254
56:49.6;-0.05034954111899307;1.001087166011022;-0.019807045458301656;1.006;0.0009983598539385506
56:49.6;-0.05035831360826918;1.000876555188881;-0.01947472794966363;1.006;0.0009815741078714401
56:49.6;-0.05035857292194999;1.0007274819753205;-0.01919563583854947;1.005;0.0009673680583967244
56:49.6;-0.0503679544487795;1.0006776440826044;-0.018989993665351215;0.9990000000000001;0.000957135293766764
56:49.7;-0.05040461752145154;1.0007590361116487;-0.01887123257482407;0.9940000000000001;0.0009519192531620759
56:49.7;-0.05048503277306497;1.0009895049934225;-0.01884464566713149;0.995;0.0009523139419948192
56:49.7;-0.050621735368754285;1.001366491816996;-0.018907392012640085;0.9990000000000001;0.0009584328984506434
56:49.7;-0.0508212984317586;1.00186546992743;-0.019049559704585925;1.002;0.0009699293637521373
56:49.7;-0.051082916964973205;1.0024434677711171;-0.019255675041586186;1.006;0.0009860395322387149
56:49.7;-0.05139801346287114;1.0030460187971009;-0.019506319350566466;1.006;0.001005639960589936
56:49.7;-0.051751003007600195;1.0036151539697016;-0.01977995409439383;1.006;0.0010273330527942963
56:49.7;-0.05212098643777864;1.004096581575135;-0.02005513235306282;1.0090000000000001;0.0010495754105789641
56:49.7;-0.05248403121113909;1.004445168185078;-0.020312986709462612;1.0070000000000001;0.0010708464552737144
56:49.7;-0.052815702378307045;1.0046285453026613;-0.020539496475089215;1.0070000000000001;0.001089829015490382
56:49.8;-0.053093378926010425;1.004629057778378;-0.02072693015882152;1.008;0.0011055568625798857
56:49.8;-0.0532979306754229;1.0044444451697925;-0.02087422396800877;1.008;0.0011174976224991714
56:49.8;-0.053414742495130695;1.0040874912122861;-0.02098647204490688;1.0070000000000001;0.0011255690246722008
56:49.8;-0.053434446789177484;1.0035845769939353;-0.021073748477819988;1.0070000000000001;0.0011301005551233386
56:49.8;-0.05335367049304084;1.0029730396599579;-0.021149350393321477;1.004;0.0011317502365175913
56:49.8;-0.053175765561701234;1.0022975164461356;-0.02122755126485987;1.003;0.0011313847060610849
56:49.8;-0.0529112404992414;1.0016058196461755;-0.02132112012928389;1.003;0.0011299384832370405
56:49.8;-0.052577577145819725;1.0009450363975918;-0.02143908809858548;1.003;0.0011282805679338013
56:49.8;-0.05219819776250979;1.0003582639635002;-0.021585324018610647;1.002;0.0011271186732771867
56:49.9;-0.05180051764462233;0.9998819481863483;-0.02175830453777866;1.001;0.0011269583829378476
56:49.9;-0.05141334762888606;0.9995436632497744;-0.021952105941917235;1.001;0.0011281162180592828
56:49.9;-0.05106424644686523;0.9993603354215702;-0.022158212012351863;1.001;0.001130768623412209
56:49.9;-0.05077745279430457;0.9993370184097029;-0.02236742449189268;1.0;0.001135007852738512
56:49.9;-0.05057265789318646;0.9994663173784922;-0.022571197620599948;1.0;0.001140876264555798
56:49.9;-0.05046434711985069;0.99972861163773;-0.022762045736187037;1.0;0.0011483600410364628
56:49.9;-0.05046118315831931;1.000093283681087;-0.022933118409257908;1.0;0.001157340239328726
56:49.9;-0.050565171482969226;1.00052107057338;-0.023077443178940883;1.0;0.0011675229167329231
56:49.9;-0.050770805088081905;1.000967527353084;-0.02318746539158837;1.003;0.0011783853038658863
56:49.9;-0.051064565497840844;1.001387483988487;-0.02325527362035502;1.005;0.001189168108557433
56:50.0;-0.05142511764691151;1.0017400427951237;-0.023273524508189113;1.006;0.0011989262952114312
56:50.0;-0.05182447511391272;1.0019932080470444;-0.02323687243219349;1.004;0.0012066390153888371
56:50.0;-0.05223024290608221;1.0021272474810616;-0.0231436830498302;1.008;0.0012113716045878348
56:50.0;-0.05260877612551077;1.0021363289679135;-0.022997682354090474;1.0070000000000001;0.0012124646238978155
56:50.0;-0.05292889209093645;1.0020281841109324;-0.022808903399431552;1.004;0.0012096985119821378
56:50.0;-0.05316560547341367;1.0018216455584323;-0.02259333438598888;1.002;0.0012033764416301109
56:50.0;-0.05330318828122286;1.0015425304015229;-0.022371301779402233;1.002;0.0011943011192851614
56:50.0;-0.053336896795125946;1.0012190841539024;-0.02216523043709077;1.002;0.001183665839549582
56:50.0;-0.05327302471231898;1.0008781687550037;-0.021997414600734875;1.002;0.0011728979102074138
56:50.0;-0.053127323200083974;1.0005427225976036;-0.021888049803898517;1.001;0.0011634846030213147
56:50.1;-0.05292212632627556;1.0002305013939472;-0.021853539238549102;1.002;0.0011568023473645269
56:50.1;-0.05268271282102055;0.999953946237258;-0.02190507787743173;1.002;0.001153965780224956
56:50.1;-0.052433530942965115;0.9997209165230989;-0.022047510737469505;1.002;0.0011557062079213835
56:50.1;-0.05219499739623093;0.9995358397739054;-0.022278486042961055;1.0;0.0011622857836475814
56:50.1;-0.05198160929914977;0.999400815692521;-0.022588211452039597;1.001;0.0011734680372800013
56:50.1;-0.05180181137600488;0.9993165057180577;-0.02296041322629296;1.002;0.0011885780531194362
56:50.1;-0.051659388334883434;0.9992829070100594;-0.023374724465710255;1.002;0.0012066580614221055
56:50.1;-0.051555510475594556;0.9993000171675493;-0.0238097931270404;1.002;0.0012266667918291963
56:50.1;-0.05149040166501099;0.9993681625488761;-0.024245939750172304;1.002;0.0012476443696459011
56:50.1;-0.05146393446624639;0.9994877510844039;-0.024666646974985433;1.002;0.0012687924327744455
56:50.2;-0.05147496882165714;0.9996583881375821;-0.025058816403303104;1.001;0.0012894611473137918
56:50.2;-0.05151977873194624;0.9998775033369143;-0.025412031553029162;1.0;0.0013090618673853253
56:50.2;-0.05159040727860774;1.000138845438544;-0.025717257677780207;1.001;0.0013269480127869168
56:50.2;-0.05167395254358193;1.0004313311130046;-0.025965682259150948;1.001;0.0013423281710973254
56:50.2;-0.05175336027035465;1.0007387008745494;-0.026148472200351408;1.001;0.0013542709649986542
56:50.2;-0.05180956398920452;1.00104028508957;-0.02625784409388708;1.004;0.0013618226653907277
56:50.2;-0.051824286752089894;1.0013128950267296;-0.026289139540307257;1.004;0.0013642046150699162
56:50.2;-0.05178270253848381;1.0015334238025624;-0.0262429954322297;1.004;0.0013610170467410665
56:50.2;-0.05167535353051467;1.0016814976612878;-0.02612662732757106;1.004;0.0013523728982510305
56:50.2;-0.051499074679347105;1.0017417256210044;-0.025953689947453677;1.004;0.001338918991627317
56:50.3;-0.0512570186349043;1.0017054395533143;-0.025742720978356073;1.006;0.0013217454480839719
56:50.3;-0.05095806484670817;1.0015718577439199;-0.025514550037770884;1.004;0.0013022157809358282
56:50.3;-0.05061592639063162;1.001348473854585;-0.02528931674033716;1.002;0.001281768298030455
56:50.3;-0.05024820590208206;1.0010506498933707;-0.025083862903303594;1.003;0.0012617433671862032
56:50.3;-0.04987550344568398;1.000700820569197;-0.02491008823501604;1.003;0.0012432738933097422
56:50.3;-0.04952044904173685;1.0003277578567662;-0.024774464842786448;1.004;0.0012272447310924682
56:50.3;-0.04920643004873476;0.9999658327417743;-0.02467854348229758;1.004;0.0012143015327946744
56:50.3;-0.04895598527085336;0.9996536897846805;-0.024620059970422936;1.004;0.0012048818858217715
56:50.3;-0.048789077009355586;0.99943160450852;-0.024594190395017198;1.004;0.0011992458155856808
56:50.3;-0.04872141413814867;0.99933698150755;-0.02459463572284601;1.0;0.001197490947228619
56:50.4;-0.04876287213550382;0.9993979917305058;-0.024614457482000036;0.9940000000000001;0.0011995490694249103
56:50.4;-0.04891612141213501;0.9996264303925422;-0.02464676005817436;0.993;0.0012051735229715796
56:50.4;-0.04917571852442538;1.0000121352218672;-0.024685293858186814;0.996;0.0012139317936158025
56:50.4;-0.04952794080563161;1.0005215445926061;-0.024724915324545453;0.9990000000000001;0.001225212812640669
56:50.4;-0.049951594022651535;1.001101597122252;-0.02476180549790876;1.002;0.001238254211787635
56:50.4;-0.05041991880015309;1.0016881537523936;-0.02479348220307109;1.0090000000000001;0.0012521956957422561
56:50.4;-0.050903415023220495;1.0022166715448988;-0.024818769288479283;1.0090000000000001;0.0012661605678714802
56:50.4;-0.05137296639175906;1.0026323219493198;-0.02483783723552048;1.0090000000000001;0.0012793522029192724
56:50.4;-0.05180251676292095;1.0028971944752914;-0.024852267326089108;1.0070000000000001;0.0012911398718805666
56:50.4;-0.05217088117901564;1.0029935325011687;-0.024865022980772672;1.006;0.0013011134600871743
56:50.5;-0.05246272034878059;1.0029233614754651;-0.024880254007148498;1.005;0.0013091016304297748
56:50.5;-0.05266903355467782;1.0027056634158904;-0.02490287161394638;1.003;0.0013151589563244503
56:50.5;-0.052787641129299664;1.0023723958016058;-0.02493786278337363;1.004;0.0013195339989541188
56:50.5;-0.05282383412049065;1.0019644026374297;-0.024989489272342513;1.005;0.0013226337273850276
56:50.5;-0.05279082975152419;1.0015276842118495;-0.025060602943551242;1.005;0.0013249911038811547
56:50.5;-0.05270941464548764;1.0011097980140986;-0.025152052733131702;1.002;0.001327221291387138
56:50.5;-0.052606364523953376;1.0007559496330978;-0.02526196909505531;1.002;0.0013299449667809496
56:50.5;-0.052511654059046564;1.000504778151122;-0.025385029850792475;1.002;0.0013336827800790637
56:50.5;-0.05245480482895907;1.000384315536126;-0.025512240300711895;1.0;0.0013387538919871988
56:50.5;-0.052460873379171435;1.000408675079365;-0.025631745019469205;1.0;0.0013452132605101402
56:50.6;-0.05254674726949535;1.0005759776855805;-0.025730773218712144;1.001;0.0013528471986216707
56:50.6;-0.0527185782051219;1.000867988705814;-0.025798300850207737;1.001;0.0013612302487454127
56:50.6;-0.05297097057469998;1.001251709440285;-0.025827656979482836;1.002;0.001369828541658676
56:50.6;-0.05328795351841952;1.0016828262442048;-0.02581829837147546;1.004;0.001378119523099108
56:50.6;-0.053645306345566364;1.0021106564575797;-0.025776263271959317;1.004;0.0013856941037904123
56:50.6;-0.054013770252924836;1.0024840305921243;-0.02571323900021075;1.006;0.0013923189768601817
56:50.6;-0.054362817401415145;1.0027574197952553;-0.025644632955429236;1.0070000000000001;0.001397958657597832
56:50.6;-0.0546646223376797;1.0028965666091112;-0.02558730765805081;1.0070000000000001;0.0014027719968894323
56:50.6;-0.054897701613587264;1.0028828893496018;-0.02555755885096598;1.0070000000000001;0.0014070960812481107
56:50.6;-0.055049654037857214;1.002716090303273;-0.025569611254095754;1.0070000000000001;0.0014114214173874908
56:50.7;-0.055118627694545806;1.002414684294357;-0.025634617690813277;1.006;0.0014163567645681108
56:50.7;-0.05511331386395976;1.0020144178916908;-0.025760000042082093;1.005;0.001422578874744101
56:50.7;-0.05505138316781997;1.0015647401911494;-0.02594896309503548;1.005;0.0014307615826840276
56:50.7;-0.05495655041864527;1.0011236311684655;-0.026200015700181385;1.003;0.0014414803581614137
56:50.7;-0.05485482816097726;1.0007511774378106;-0.02650632831129886;1.002;0.001455092296752943
56:50.7;-0.054770697125799066;1.0005024152068347;-0.02685495870728673;1.0;0.0014716037945302247
56:50.7;-0.05472376401216528;1.0004202071288648;-0.027226336296652397;1.0;0.0014905536806138825
56:50.7;-0.054726169040199654;1.0005290958012611;-0.0275945097985654;1.0;0.001510940817507561
56:50.7;-0.054780798932253016;1.0008309715793293;-0.0279284799621832;1.0;0.0015312157856438055
56:50.7;-0.054880361483247965;1.0013030735203519;-0.028194736329657955;1.001;0.0015493536159874473
56:50.8;-0.05500746823938503;1.001898592388187;-0.028360920777778558;0.998;0.001563024371613991
56:50.8;-0.05513585390107763;1.0025502109379651;-0.028400251745522655;1.0;0.0015698654352308801
56:50.8;-0.055232725377674756;1.003177102591144;-0.02829603886363439;1.008;0.0015678327337188304
56:50.8;-0.05526211266057152;1.0036953563909035;-0.028045347189794536;1.012;0.0015555723661355239
56:50.8;-0.055188979712294355;1.0040301225063049;-0.027660670643133725;1.013;0.0015327164316556393
56:50.8;-0.054983661602621206;1.0041263563606688;-0.027168733910550146;1.008;0.0015000005731353604
56:50.8;-0.05462601620671183;1.0039555677547456;-0.026606605016195255;1.008;0.0014591619097719217
56:50.8;-0.054108705507996374;1.0035180045269745;-0.026016517491219596;1.008;0.0014126724489017157
56:50.8;-0.053439226562835396;1.0028411992671606;-0.02544103181969888;1.0070000000000001;0.0013634118132078085
56:50.8;-0.05264046768979952;1.001975858847857;-0.02491940429829782;1.005;0.001314360967389882
56:50.9;-0.05174958874403158;1.0009896061706773;-0.024485261717531494;1.002;0.0012683561563521547
56:50.9;-0.05081502401987698;0.9999591115471661;-0.024165313896180436;1.0;0.0012279107966565968
56:50.9;-0.04989155453660773;0.9989615888326303;-0.02397863386390462;0.997;0.001195089035332683
56:50.9;-0.049033895663339135;0.9980669106646806;-0.023936055596290425;0.996;0.0011714092281736158
56:50.9;-0.04829001153452029;0.9973314740567526;-0.02403963297057048;0.996;0.0011577763306391976
56:50.9;-0.047695789261000036;0.9967945020873644;-0.024282484604506934;0.997;0.0011544597496411157
56:50.9;-0.047272246623972045;0.9964768511967678;-0.024649251455473874;0.997;0.0011611202310951353
56:50.9;-0.04702543238601138;0.9963818315637767;-0.02511698254465776;0.997;0.001176863411911003
56:50.9;-0.04694843476769346;0.9964973087821711;-0.025656082813865794;0.998;0.0012002938935183115
56:50.9;-0.04702468047823089;0.996798453084688;-0.026231218653546495;0.998;0.001229565520632534
56:51.0;-0.0472316388703417;0.9972506999262084;-0.02680250511848812;0.998;0.0012624458314647845
56:51.0;-0.04754414697021158;0.9978126572558585;-0.027327477163369796;1.0;0.0012964196601674566
56:51.0;-0.047937068673163115;0.9984388434328945;-0.0277640488243019;0.9990000000000001;0.001328849329529481
56:51.0;-0.048387478637288636;0.9990823187713241;-0.028074153452010565;0.998;0.0013571908878246602
56:51.0;-0.04887643118196596;0.9996976340043837;-0.028227601221375433;1.0;0.0013792472449260336
56:51.0;-0.04938993638897487;1.000244788029979;-0.028205856497244736;1.0070000000000001;0.001393426468840375
56:51.0;-0.049918779192180206;1.0006942746321486;-0.02800531581684985;1.0070000000000001;0.001398961766278389
56:51.0;-0.05045739645454316;1.0010319161305339;-0.027639249342726126;1.0070000000000001;0.0013960436767349329
56:51.0;-0.05100257622691429;1.0012614737161603;-0.02713748163174138;1.006;0.0013858274579317805
56:51.0;-0.051552730039878494;1.0014037576403556;-0.026543350735433686;1.005;0.001370303071778525
56:51.1;-0.0521079167502379;1.001492233766686;-0.025908245048879654;1.004;0.0013520392285593973
56:51.1;-0.05267007829409586;1.0015659732322968;-0.025284789826021607;1.0;0.0013338373475508035
56:51.1;-0.05324262249879547;1.0016613285444904;-0.02472020454284312;0.997;0.001318355106896861
56:51.1;-0.053828826007554245;1.0018043005353312;-0.024251232929649327;0.9990000000000001;0.0013077707595399138
56:51.1;-0.05442929604993139;1.002005780574429;-0.023901487157323275;1.002;0.0013035505229475955
56:51.1;-0.05503943460319498;1.002260967157483;-0.023681405059953142;1.006;0.0013063581149008506
56:51.1;-0.055647970772241186;1.0025524937934405;-0.02359044339488872;1.006;0.0013161111170725988
56:51.1;-0.05623700643337294;1.0028554480513978;-0.023620562225771274;1.006;0.0013321427434411527
56:51.1;-0.056783314799832264;1.0031423962222246;-0.02375975220884669;1.0070000000000001;0.0013533970766383282
56:51.1;-0.05726048308642652;1.0033873483662803;-0.023994639207839674;1.006;0.0013785986616317548
56:51.2;-0.05764164052077128;1.0035683814845409;-0.02431174604262224;1.006;0.001406369544749026
56:51.2;-0.05790256219499516;1.0036690652369031;-0.024697336881242853;1.005;0.0014352859915104266
56:51.2;-0.05802485333547165;1.0036790949973766;-0.025136008200792273;1.005;0.0014638791978685095
56:51.2;-0.057998697295059715;1.0035946501185777;-0.02560852545978093;1.0070000000000001;0.0014906001103625435
56:51.2;-0.05782454921637897;1.0034187923976245;-0.0260897565637997;1.006;0.001513786099814164
56:51.2;-0.057513497143527825;1.0031617699799567;-0.026547746027493976;1.0070000000000001;0.001531681275560259
56:51.2;-0.05708645400567648;1.00284078067555;-0.026944798455939733;1.005;0.001542552638282686
56:51.2;-0.05657237586112023;1.0024788352980947;-0.02724074938284608;1.005;0.0015448939812370307
56:51.2;-0.05600550758745671;1.0021027109620737;-0.027397705836651954;1.003;0.0015376488689609479
56:51.2;-0.05542173536135685;1.0017403343228946;-0.027385128546880418;1.003;0.0015203727071183442
56:51.3;-0.05485453055305304;1.0014181171211227;-0.027184390429709715;1.003;0.0014933016531732336
56:51.3;-0.05433132793696887;1.0011586739967173;-0.026792300411976822;1.004;0.0014573478967187378
56:51.3;-0.053871209652937395;1.0009790022671021;-0.026223108635020673;1.003;0.0014140535907324055
56:51.3;-0.05348444725060453;1.0008888938474727;-0.025508440889212492;1.001;0.0013655175833814331
56:51.3;-0.05317382960200523;1.0008894718469894;-0.024694808498352587;1.001;0.001314285520228409
56:51.3;-0.05293703569276543;1.000972229978751;-0.023838820890127628;1.001;0.0012631834242872995
56:51.3;-0.05276909578933794;1.0011192263724646;-0.023000754981811627;1.003;0.0012150874804161074
56:51.3;-0.05266432592360586;1.00130478905113;-0.022237563814068623;1.003;0.001172654381235851
56:51.3;-0.05261760356077206;1.001498535044128;-0.02159663511397798;1.003;0.0011380660647290334
56:51.3;-0.05262509486543152;1.0016692013159356;-0.021111452548655145;1.005;0.0011128466627507833
56:51.4;-0.05268448183378554;1.0017887738792084;-0.02079979709593561;1.006;0.0010977867181242722
56:51.4;-0.052794607652379054;1.0018363301866358;-0.020664481683931528;1.006;0.0010929765898681297
56:51.4;-0.052954577601105196;1.001800846908328;-0.02069600044186208;1.006;0.0010979215959291244
56:51.4;-0.053162690180992955;1.0016823050485117;-0.020876085721874823;1.005;0.0011116959481473562
56:51.4;-0.05341575086741977;1.0014908323646292;-0.021181177186538204;1.003;0.0011330952240598785
56:51.4;-0.05370911812768194;1.0012441627894353;-0.02158515859417618;1.002;0.0011607622153363062
56:51.4;-0.05403737382558634;1.0009641685327226;-0.022061179592890407;1.002;0.00119327762120021
56:51.4;-0.054395096765450096;1.0006733892385726;-0.022582740816536596;1.002;0.0012292175568018213
56:51.4;-0.0547771635636348;1.0003922247196788;-0.02312439872305408;1.001;0.0012671857978900757
56:51.4;-0.05517833613340711;1.0001370616666851;-0.023662456447576252;1.001;0.0013058339308535411
56:51.5;-0.05559230380357613;0.9999194029532609;-0.02417588010072438;1.002;0.001343884549422037
56:51.5;-0.056010625078109395;0.9997459487298379;-0.02464744903122565;1.003;0.001380168304207544
56:51.5;-0.05642217459246729;0.9996193013077344;-0.02506486284237353;1.002;0.0014136756779825914
56:51.5;-0.056813601726205414;0.9995387476242349;-0.025421348081076215;1.0;0.001443612168403501
56:51.5;-0.05717078893810701;0.999500819872416;-0.025715442514741282;1.001;0.001469438255745649
56:51.5;-0.057480705456384805;0.9994998532061726;-0.025950026247109213;1.002;0.0014908797834264293
56:51.5;-0.057732952188284385;0.999528882844489;-0.026130974334477714;1.002;0.0015079075559272632
56:51.5;-0.05792068611656728;0.999580838132961;-0.026265793106406282;1.002;0.0015206950734395742
56:51.5;-0.0580410085861115;0.9996496802347178;-0.026362402458832052;1.002;0.0015295644030409907
56:51.5;-0.05809503564786441;0.9997312076971366;-0.02642811031630385;1.002;0.0015349293228165643
56:51.6;-0.05808783794966933;0.9998234516720165;-0.02646882656320829;1.003;0.001537245462082171
56:51.6;-0.058028356786930815;0.9999266167289727;-0.02648852472150313;1.003;0.001536972766932337
56:51.6;-0.05792926000632144;1.0000424271193333;-0.026488864274004504;1.002;0.001534545409380015
56:51.6;-0.057806516229419534;1.0001727822819855;-0.02646887563209873;1.0;0.0015303378583904033
56:51.6;-0.05767841581019212;1.0003180163097407;-0.026424744633602275;1.0;0.001524622109209293
56:51.6;-0.05756396610721762;1.0004755267328156;-0.026349901360955066;1.003;0.0015175261101151366
56:51.6;-0.05748086634189864;1.0006394726230312;-0.026235627006713887;1.003;0.0015090109238641946
56:51.6;-0.057443404442840094;1.0008015446461584;-0.026072208268038917;1.003;0.0014988768587624304
56:51.6;-0.05746058370316744;1.0009522199605518;-0.025850494120620696;1.003;0.0014867988939382426
56:51.6;-0.05753467413266917;1.001081982728992;-0.025563669306863625;1.003;0.0014723887605721908
56:51.7;-0.05766033085371039;1.0011823670639903;-0.025209057047439334;1.004;0.0014552812143734696
56:51.7;-0.05782447210060295;1.0012468255476457;-0.024789706363355604;1.004;0.00143523894817091
56:51.7;-0.05800714546839752;1.0012713271694063;-0.024315425135022842;1.003;0.0014122615697354374
56:51.7;-0.05818353118963239;1.0012545602457186;-0.023802950489166984;1.003;0.0013866772024973555
56:51.7;-0.0583269651679284;1.0011978024296613;-0.02327521916905137;1.003;0.0013591990018645248
56:51.7;-0.058412437707759744;1.0011047025556779;-0.022759934280210788;1.003;0.001330931904818155
56:51.7;-0.05841979521072585;1.00098117931515;-0.022287590780501562;1.003;0.0013033140204080748
56:51.7;-0.05833613995476071;1.000835476882703;-0.02188911017819756;1.003;0.0012779930371572172
56:51.7;-0.05815737320393655;1.0006783037136908;-0.02159334423645556;1.003;0.0012566640015456584
56:51.7;-0.05788899010598415;1.0005229359872854;-0.021424624874853082;1.003;0.001240898468709372
56:51.8;-0.05754613362130608;1.0003851308356033;-0.021400357943061377;1.004;0.0012319821493854907
56:51.8;-0.057152857335626084;1.000282590101606;-0.021528743114164115;1.005;0.0012307768909272385
56:51.8;-0.05674065306362266;1.0002335295510905;-0.021806935783909732;1.003;0.001237628733098352
56:51.8;-0.05634637259835704;1.0002538959394494;-0.022220042768725762;1.001;0.0012523366914897697
56:51.8;-0.05600950125147369;1.0003533152591908;-0.02274130017675952;0.997;0.001274178908559978
56:51.8;-0.05576855199446536;1.0005308389621017;-0.023333671693224037;1.0;0.0013019758558682315
56:51.8;-0.055656605744511804;1.000772172788559;-0.0239527595122621;1.0;0.0013341586988305052
56:51.8;-0.05569663296436283;1.0010496871694772;-0.024550500929799803;1.0;0.0013688155608713802
56:51.8;-0.055897561296230865;1.0013255355920063;-0.025079111099267127;1.004;0.0014037193667755462
56:51.8;-0.05625187682424635;1.0015573940234945;-0.02549508822734894;1.006;0.0014363800938735156
56:51.9;-0.05673524773454055;1.0017057007700731;-0.025763281365111083;1.0070000000000001;0.0014641793498971108
56:51.9;-0.05730844654311737;1.0017407661910316;-0.025860812284787378;1.0070000000000001;0.0014846228686947575
56:51.9;-0.057921500347545195;1.0016481424598005;-0.025780267068410218;1.0070000000000001;0.0014956928066088698
56:51.9;-0.058519407695470024;1.0014312293257643;-0.025531306594716585;1.006;0.0014962153063451864
56:51.9;-0.05904832262317109;1.0011107461913527;-0.025139920899986828;1.006;0.0014861190295998466
56:51.9;-0.05946130082567197;1.0007211846229522;-0.02464507956511497;1.0;0.0014664853343868698
56:51.9;-0.059723209359472285;1.000304905420144;-0.024093366547338638;1.0;0.0014393719130053359
56:51.9;-0.059814494508886845;0.9999052390356945;-0.023532937468429042;1.0;0.0014074773724304383
56:51.9;-0.059733299328536736;0.999560215634509;-0.023008243711182194;1.0;0.0013737538873272535
56:51.9;-0.05949548645989214;0.9992979882040768;-0.022556295885290355;0.9990000000000001;0.0013410556981454172
56:52.0;-0.05913240446521502;0.9991342201135226;-0.02220442279809768;1.0;0.00131186414003511
56:52.0;-0.05868650089186518;0.9990713619544676;-0.021969133942606717;0.9990000000000001;0.0012880943134859412
56:52.0;-0.058205259321151316;0.9990997065373396;-0.021855854603127684;1.001;0.0012709803984226632
56:52.0;-0.05773443485379919;0.9992000112815332;-0.021859711481340686;1.002;0.0012610484562095067
56:52.0;-0.057311861362956025;0.999347191401671;-0.021967672120085224;1.004;0.0012581862876485724
56:52.0;-0.0569629880094978;0.9995142303962314;-0.02216174673834378;1.002;0.0012617860785113775
56:52.0;-0.05669884956002305;0.9996753963714975;-0.0224222052057755;1.002;0.0012709005668756395
56:52.0;-0.05651659920581685;0.999808324729645;-0.022729847524107342;1.002;0.0012843674538544024
56:52.0;-0.05640227565548606;0.9998951642403519;-0.02306714628766122;1.001;0.001300903148033215
56:52.0;-0.056335204488604185;0.9999232798965607;-0.02341857308436138;1.002;0.0013191888874656105
56:52.1;-0.05629319265193606;0.9998859176163937;-0.023770422223414234;1.003;0.0013379603025247776
56:52.1;-0.056257486089774336;0.9997829406520321;-0.024110460771702633;1.002;0.0013560994935040967
56:52.1;-0.05621653861738147;0.9996214243378275;-0.024427781075838827;1.003;0.0013727254209387474
56:52.1;-0.05616796778613435;0.9994157399250589;-0.024712965159775013;1.004;0.0013872660330039508
56:52.1;-0.05611846385022397;0.9991867131129676;-0.024958359577819594;1.003;0.0013994856899454881
56:52.1;-0.056081798078336825;0.9989594364540513;-0.02515837957699446;0.9990000000000001;0.0014094590040429178
56:52.1;-0.05607545433899112;0.998759685268506;-0.025309982878922048;0.9990000000000001;0.0014175084492603868
56:52.1;-0.05611671199106027;0.9986096711921377;-0.02541327271331503;0.9990000000000001;0.0014241265447526295
56:52.1;-0.05621903957737878;0.9985243116602018;-0.02547189326145404;0.9990000000000001;0.0014298921817414813
56:52.1;-0.056389357844888036;0.9985088557504926;-0.02549292881366225;0.9990000000000001;0.0014353863209657666
56:52.2;-0.05662634975313999;0.9985581203352385;-0.025486303235027822;0.9990000000000001;0.0014411154054739025
56:52.2;-0.05691981527498398;0.9986572857062459;-0.02546385472411925;1.001;0.0014474517797987143
56:52.2;-0.057251131441854;0.9987840418447101;-0.025438209180111093;1.001;0.0014545953769881232
56:52.2;-0.057594938926579346;0.9989116664816693;-0.02542147002759021;1.0;0.0014625545323038588
56:52.2;-0.05792199056799335;0.9990125662938095;-0.025423805855874414;1.001;0.0014711433506355972
56:52.2;-0.0582027990852966;0.9990620266356885;-0.02545215566158643;1.003;0.0014799972009900454
56:52.2;-0.058411525833202554;0.9990419786118104;-0.025509263251401747;1.003;0.0014886075040062264
56:52.2;-0.058529440665579704;0.998944283321326;-0.02559314295813923;1.003;0.001496370928942575
56:52.2;-0.058547317869909694;0.9987727966454758;-0.025697023077017045;1.003;0.0015026454610432148
56:52.2;-0.05846641279348579;0.9985436518104871;-0.025809823204063075;1.002;0.0015068101368308068
56:52.3;-0.05829802098364326;0.998283569278902;-0.025917229395444545;1.001;0.0015083297881647725
56:52.3;-0.058061843994211895;0.9980263641299534;-0.026003353403642297;0.9990000000000001;0.0015068228479845735
56:52.3;-0.05778343566705799;0.9978081967486458;-0.026052747909956295;0.998;0.0015021177043099423
56:52.3;-0.05749099943459153;0.9976624496100899;-0.02605232208869927;0.998;0.0014942729121929306
56:52.3;-0.057211900879104695;0.997615196490832;-0.025992712224419727;0.998;0.0014835460520088923
56:52.3;-0.056969376934703074;0.9976819521599596;-0.025868989763309463;0.9990000000000001;0.001470324028391927
56:52.3;-0.05677987677447971;0.9978659217391478;-0.025680967775479763;0.9990000000000001;0.0014550503535197383
56:52.3;-0.05665127466954535;0.9981576029106529;-0.025433420798711172;0.9990000000000001;0.0014381811159402736
56:52.3;-0.05658199028526505;0.9985355108308133;-0.02513628239984104;0.9990000000000001;0.0014201780008913662
56:52.3;-0.056560941262139584;0.9989679361873772;-0.024804728863572004;1.001;0.001401530848613768
56:52.4;-0.05656830744919648;0.9994157309925555;-0.024459048525518282;1.001;0.0013827985782312437
56:52.4;-0.05657724954619182;0.9998359594726811;-0.024124023803934053;1.003;0.0013646470206688602
56:52.4;-0.05655673563147149;1.0001859852958923;-0.023827395704486175;1.004;0.0013478503533776865
56:52.4;-0.05647527377955197;1.0004273896836164;-0.02359730104481575;1.003;0.0013332336038256024
56:52.4;-0.056304826609565706;1.0005291188682057;-0.02345912219470509;1.005;0.0013215607004901705
56:52.4;-0.05602396409512032;1.0004694598493726;-0.023432338613944895;1.002;0.0013133887911511333
56:52.4;-0.05561963073473083;1.000236765249408;-0.023527797808324608;1.002;0.0013089172588640417
56:52.4;-0.055087528408025103;0.9998292031676005;-0.023745880223019517;1.002;0.001307878431706481
56:52.4;-0.054431531720653355;0.9992540469808554;-0.02407624927131239;1.0;0.0013095295491786028
56:52.4;-0.053662544852001934;0.9985269946427022;-0.024499677843513035;1.0;0.0013127784788087413
56:52.5;-0.052797117491147856;0.9976718214782774;-0.024991722126095694;1.001;0.0013164188790492897
56:52.5;-0.05185617541725131;0.9967203813040267;-0.02552723658444106;1.001;0.0013194034798546669
56:52.5;-0.05086415878221285;0.9957124761228136;-0.026084403744222044;1.001;0.0013210727332305264
56:52.5;-0.049848625032973395;0.9946946755705819;-0.02664727368885442;0.998;0.0013212827329100226
56:52.5;-0.04884012621737203;0.9937173442214046;-0.02720640687155171;0.991;0.0013204161765339416
56:52.5;-0.04787194757963169;0.992830156070603;-0.027757650248945356;0.991;0.0013192853974241146
56:52.5;-0.04697925704807943;0.9920775994429882;-0.028299434384364212;0.991;0.0013189536784445131
56:52.5;-0.046197571584629976;0.991496205371594;-0.028829389564459205;0.991;0.001320522028078604
56:52.5;-0.0455608356991765;0.9911142464911101;-0.029341278052939627;0.992;0.0013249345564481656
56:52.5;-0.04509945231798988;0.9909535210418581;-0.029823087424522974;0.9940000000000001;0.0013328373506671409
56:52.6;-0.044838575068869485;0.9910322459023437;-0.03025683110562324;0.9940000000000001;0.0013445068812910025
56:52.6;-0.04479695699457266;0.9913678689220109;-0.030620295788262034;0.996;0.001359855413281495
56:52.6;-0.044986366192802725;0.9919787053239889;-0.030890561963285552;0.995;0.0013785073070882558
56:52.6;-0.04541120840627772;0.992883796646957;-0.03104848829477778;0.9940000000000001;0.0013999158862007268
56:52.6;-0.0460680076335882;0.9941011083712729;-0.031082774036814458;0.997;0.001423474722019243
56:52.6;-0.04694478150251314;0.9956446343155796;-0.030992311751995103;1.001;0.0014485905630043853
56:52.6;-0.048020564233124;0.9975207038524135;-0.030786413462697976;1.001;0.0014747156010109193
56:52.6;-0.04926500543019194;0.9997231530940137;-0.03048340188292723;1.001;0.0015013492003106345
56:52.6;-0.050637651661776986;1.0022270606051917;-0.03010830301414579;1.001;0.0015280091674009248
56:52.6;-0.05208686953722301;1.0049817216798913;-0.029690045408951895;1.001;0.0015541655626604251
56:52.7;-0.05354897369254544;1.0079046083557461;-0.029258304626280814;1.003;0.0015791367471319226
56:52.7;-0.05494824418745057;1.0108784896391554;-0.028840329828094088;1.0070000000000001;0.001601964905619352
56:52.7;-0.05619828627598125;1.0137535321459592;-0.028458441084688493;1.01;0.001621311857823547
56:52.7;-0.057205094949144074;1.0163552567143836;-0.028128807476374917;1.018;0.001635428527655446
56:52.7;-0.05787222590400393;1.018497944205478;-0.02786160554524853;1.024;0.0016422394582808046
56:52.7;-0.058108255311220935;1.0200016559361493;-0.027662216119355237;1.028;0.0016395538408293462
56:52.7;-0.057836021574943046;1.0207099135401791;-0.027532913400491774;1.028;0.0016253725191059541
56:52.7;-0.057002266499080474;1.0205049868663612;-0.027474370306309674;1.028;0.001598214266283909
56:52.7;-0.05558585281694193;1.0193187994125978;-0.027486322822278773;1.022;0.0015573669359848887
56:52.7;-0.053602933972026735;1.0171390378244838;-0.027567042352238783;1.02;0.001503000267605369
56:52.8;-0.05110780830217285;1.0140113919649976;-0.027711714483442385;1.0170000000000001;0.001436129115694991
56:52.8;-0.048188559938032664;1.0100393387475695;-0.027910239788531303;1.014;0.0013584567143800916
56:52.8;-0.04495757556467403;1.0053822540899906;-0.028145323470741203;1.014;0.0012721559177568792
56:52.8;-0.0415386960601121;1.0002513126994945;-0.02839184446711886;1.0090000000000001;0.001179656586100638
56:52.8;-0.0380540246536039;0.9949014453374226;-0.02861816495137739;1.005;0.001083483843217153
56:52.8;-0.03461334370092078;0.9896175537048599;-0.028789409524166875;0.98;0.000986151642674752
56:52.8;-0.03130803326610222;0.9846951201485749;-0.02887213470109421;0.98;0.0008900952174109609
56:52.8;-0.02821015734047055;0.9804184176243713;-0.02883932890544697;0.98;0.0007976311745777506
56:52.8;-0.02537618367320778;0.9770405151836006;-0.02867451817103292;0.98;0.0007109433743992
56:52.8;-0.022853600143330315;0.9747668055276312;-0.028374110049374367;0.973;0.0006320880862664939
56:52.9;-0.02068791015611133;0.9737411428210425;-0.02794774110133866;0.965;0.0005629980015533805
56:52.9;-0.018927591578320926;0.9740341725315725;-0.027416916608529813;0.963;0.0005054615920693298
56:52.9;-0.017625547897292152;0.9756358462856578;-0.02681256164715649;0.97;0.00046107192943172984
56:52.9;-0.016836905425175963;0.9784550526149807;-0.02617222098808601;0.975;0.0004311652300588769
56:52.9;-0.01661416454750414;0.9823276149335899;-0.025537341601174865;0.981;0.00041678352773604524
56:52.9;-0.017001256137517923;0.9870313501047423;-0.02495040240225013;0.995;0.00041868703395306
56:52.9;-0.01802767094119266;0.9923051523454858;-0.02445140144272315;0.995;0.00043740991641537483
56:52.9;-0.01970280058167158;0.9978684780507524;-0.02407387994674289;1.002;0.00047331182623957217
56:52.9;-0.022010065869642728;1.0034383858848168;-0.02384149838634603;1.002;0.0005265572530504588
56:52.9;-0.024900975615896298;1.0087432995949401;-0.02376631120244948;1.008;0.0005969786583408869
56:53.0;-0.02829027373651225;1.013534498140726;-0.02384944982567079;1.016;0.0006838392909509355
56:53.0;-0.03205383662527018;1.0175966840776403;-0.02408431999273227;1.022;0.000785579407908445
56:53.0;-0.03603078735697361;1.0207579570147371;-0.0244617494807468;1.026;0.0008996716609917632
56:53.0;-0.04003069469537521;1.0228982832014328;-0.024975966471777356;1.0290000000000001;0.0010226991131972387
56:53.0;-0.04384595529134512;1.0239550535787993;-0.025630092962565843;1.031;0.0011506960222878806
56:53.0;-0.04726853080424723;1.0239246035684693;-0.026439968364258257;1.025;0.0012796789132713867
56:53.0;-0.05010900713651011;1.0228594261344395;-0.027435405137189253;1.025;0.0014061871573285542
56:53.0;-0.0522148409193372;1.020861984632966;-0.02865839717829645;1.025;0.0015276113909921717
56:53.0;-0.053484812341829384;1.0180765856352236;-0.030158347919386982;1.021;0.0016421713570997302
56:53.0;-0.05387827368359566;1.0146801744370664;-0.031984865392413714;1.0170000000000001;0.0017485875193351196
56:53.1;-0.053419115026249395;1.0108721476583944;-0.03417887500404569;1.014;0.0018456556796401082
56:53.1;-0.05219446884480696;1.0068632003853608;-0.03676287519433849;1.008;0.0019319879815195235
56:53.1;-0.05034787426101959;1.0028635088521125;-0.0397314843518772;1.002;0.00200612392937102
56:53.1;-0.048066833301083835;0.9990708841867713;-0.04304400574619602;0.998;0.002067066718370649
56:53.1;-0.04556545949103633;0.9956598976612226;-0.04662118944435041;0.995;0.0021150961705619065
56:53.1;-0.04306388598434839;0.9927730569818302;-0.0503481486992647;0.99;0.0021525175716753868
56:53.1;-0.04076707023373528;0.9905148157649774;-0.05408371863255731;0.99;0.002183921492126647
56:53.1;-0.038846329666768736;0.9889488182025015;-0.05767385038422214;0.99;0.0022156581451304946
56:53.1;-0.037426521195857175;0.9880983192904641;-0.06096550316753185;0.9890000000000001;0.002254570313907374
56:53.1;-0.0365800496947145;0.9879491575735925;-0.06381910590716962;0.991;0.002306373300816998
56:53.2;-0.03632716860786496;0.9884543320883926;-0.06611943962702949;0.9940000000000001;0.002374200122005673
56:53.2;-0.036641240502958555;0.9895392196411255;-0.06778468953652932;0.992;0.002457733513468562
56:53.2;-0.03745734516492825;0.9911066787832555;-0.06877262821026989;0.991;0.0025531305209369995
56:53.2;-0.03868252462716565;0.9930420532792744;-0.06908286220513528;0.991;0.002653705800893239
56:53.2;-0.04020624606251651;0.9952192247882055;-0.06875461447219884;0.997;0.0027511491399857886
56:53.2;-0.04191025997440976;0.9975090390213797;-0.06786018752290914;1.008;0.002836953713066025
56:53.2;-0.043677367850459226;0.9997898040370343;-0.0664952228015255;1.008;0.0029037258268337315
56:53.2;-0.04539851435306143;1.0019574495510615;-0.06476795602611304;1.008;0.0029461246052122866
56:53.2;-0.046977722823047664;1.0039325661624616;-0.06278980832882142;1.011;0.0029613221895423846
56:53.2;-0.04833498332968114;1.005663062501405;-0.06066846125304471;1.012;0.002949015479108495
56:53.3;-0.049407591818381745;1.007122660512445;-0.05850323753798875;1.01;0.0029110921596048104
56:53.3;-0.050150291522684104;1.008306032225177;-0.05638218010263739;1.0090000000000001;0.002851068762429016
56:53.3;-0.050534419598918016;1.0092218319552622;-0.05438037089158026;1.01;0.002773422816971348
56:53.3;-0.05054639782796355;1.009885361617836;-0.05255912068028151;1.008;0.0026829364087924837
56:53.3;-0.05018612209858664;1.010312590863688;-0.05096563275819344;1.0070000000000001;0.0025841446778608382
56:53.3;-0.04946595968687625;1.0105167992709778;-0.0496328535425406;1.013;0.0024809569126782423
56:53.3;-0.04841088711467583;1.0105083961483259;-0.048579458090177066;1.013;0.002376488041492381
56:53.3;-0.04705955606532793;1.0102974124374104;-0.047809995734545405;1.013;0.002273085499851373
56:53.3;-0.045465231585166827;1.0098972849698422;-0.04731507903311882;1.014;0.0021724819763172497
56:53.4;-0.043695281913975356;1.0093285279203446;-0.04707147084334697;1.014;0.002075988115920022
56:53.4;-0.041828273795572135;1.0086213156393915;-0.047042295348694696;1.013;0.0019846621554430095
56:53.4;-0.03994845481773884;1.0078162886987594;-0.04717805520245311;1.012;0.001899421690970099
56:53.4;-0.03813824520936242;1.006963173613832;-0.04741909652437984;1.0090000000000001;0.0018210738989446935
56:53.4;-0.03647011985277833;1.00611730579232;-0.04769962888390142;1.0070000000000001;0.0017502529158909773
56:53.4;-0.034999704630333715;1.0053347317352888;-0.047952872040993605;1.006;0.0016872898318404004
56:53.4;-0.033761721664683324;1.0046669481442683;-0.048116640061832805;1.004;0.001632082069310853
56:53.4;-0.032769523223051746;1.0041563433803735;-0.0481386179398541;1.004;0.001584036105226334
56:53.4;-0.03201784416632368;1.0038331516270598;-0.047980640636687624;1.004;0.0015421253030158061
56:53.4;-0.03148772225079541;1.0037143816644178;-0.04762143814434464;1.004;0.0015050602979280645
56:53.4;-0.031152454489400856;1.0038047953930378;-0.047057524646979584;1.006;0.0014715350628915819
56:53.5;-0.030983643240708934;1.0040996226518115;-0.04630215094284975;1.0070000000000001;0.001440490682980453
56:53.5;-0.030956540545183615;1.0045883597196117;-0.04538252268360356;1.0070000000000001;0.0014113320253879478
56:53.5;-0.031054078891180132;1.0052588243445246;-0.04433573453458303;1.0090000000000001;0.0013840457756796965
56:53.5;-0.031269210430764985;1.006100684509244;-0.0432040187669145;1.0090000000000001;0.0013591973079000261
56:53.5;-0.03160527797771836;1.0071078095365034;-0.04203006393200302;1.0090000000000001;0.0013378136681240584
56:53.5;-0.032074195335985524;1.0082790242806552;-0.0408532557112701;1.01;0.0013211836015901558
56:53.5;-0.03269254599554304;1.0096172442070643;-0.03970743309981865;1.013;0.0013106215843220416
56:53.5;-0.03347627953585458;1.0111272027262683;-0.03862018724196188;1.013;0.0013072461012012572
56:53.5;-0.034435154085129545;1.012811866612631;-0.03761326563858388;1.014;0.0013118127658201604
56:53.5;-0.03556817627255923;1.01466763154612;-0.03670349757707705;1.013;0.001324624719519085
56:53.6;-0.03686097910816378;1.0166788143399443;-0.035903743059733186;1.0170000000000001;0.0013455206516801153
56:53.6;-0.03828558436774556;1.0188123823955815;-0.03522352386970749;1.0170000000000001;0.001373922693225155
56:53.6;-0.039802499297377135;1.0210138826097426;-0.03466910628894792;1.016;0.001408914494209661
56:53.6;-0.041364507052080376;1.0232055024115165;-0.03424289771237095;1.02;0.0014493097992926598
56:53.6;-0.04292095622927806;1.025287382361458;-0.03394216914822375;1.024;0.001493669782594153
56:53.6;-0.04442130028497559;1.027142988207291;-0.03375731857535655;1.033;0.0015402460899594933
56:53.6;-0.04581718559795517;1.0286479667447785;-0.03367014197294649;1.033;0.0015868655355121076
56:53.6;-0.047063091521902085;1.0296804135707547;-0.033652779339283394;1.033;0.001630811786819465
56:53.6;-0.04811603877712042;1.0301303570517049;-0.03366794005068759;1.033;0.0016687781205358665
56:53.6;-0.04893518941150327;1.0299075204986556;-0.0336706930745474;1.03;0.0016969598187301684
56:53.7;-0.04948216980095703;1.0289477397018991;-0.03361172921780836;1.032;0.0017113266315905643
56:53.7;-0.04972256553140305;1.0272188336698445;-0.03344169842731702;1.031;0.0017080667098222405
56:53.7;-0.04962858187378579;1.0247261926624107;-0.03311606743150515;1.033;0.0016841410471510622
56:53.7;-0.049182623376190455;1.0215172483637647;-0.03259981758085481;1.031;0.001637844113111288
56:53.7;-0.048381225750236366;1.0176830212199635;-0.03187105207307472;1.025;0.00156922708664054
56:53.7;-0.047238237968961254;1.013355020538667;-0.030922542049406622;1.0090000000000001;0.001480234431007587
56:53.7;-0.045786107390344916;1.0086974809228078;-0.029760926263366516;1.0090000000000001;0.0013744884749465301
56:53.7;-0.044074926774711976;1.003897142424845;-0.028404353677986254;1.0090000000000001;0.0012567987182382412
56:53.7;-0.04216961251500284;0.9991530650128418;-0.026879746428572597;1.001;0.0011325484833948352
56:53.8;-0.04014550508933004;0.994667041848954;-0.02522025927246097;0.996;0.0010070805332575087
56:53.8;-0.03808254245816878;0.990633746574826;-0.023462879344175645;0.99;0.0008851571069319475
56:53.8;-0.036058536927432626;0.9872302506791679;-0.02164616602279419;0.986;0.000770561916221008
56:53.8;-0.03414250602880311;0.9846056073320767;-0.019808486753115365;0.983;0.0006658999754649923
56:53.8;-0.03238909340261334;0.9828715632166769;-0.017987101761987943;0.981;0.0005726071329266986
56:53.8;-0.030835006493060646;0.9820952227115366;-0.016217948662391016;0.982;0.0004911267213935676
56:53.8;-0.029498133359279595;0.9822940006517549;-0.014535419312825091;0.982;0.00042117597604517733
56:53.8;-0.028379504879208175;0.9834326455268309;-0.012971436758449808;0.982;0.00036202412932840423
56:53.8;-0.02746766696814594;0.9854218297577934;-0.011553759856691584;0.982;0.00031272837526415354
56:53.8;-0.026744571546892703;0.9881181809647803;-0.010303875991184545;0.981;0.0002722984431259699
56:53.9;-0.026191864302068463;0.9913266001516263;-0.009234658874701849;0.983;0.0002397750714692897
56:53.9;-0.025796335558733167;0.9948066736150655;-0.008347779948077555;0.985;0.00021422379073147624
56:53.9;-0.025553380381950094;0.998285250990578;-0.007631119552438348;0.9940000000000001;0.00019466652306234457
56:53.9;-0.025467900138197875;1.0014763568345684;-0.007056803318681557;1.005;0.00017998729596232352
56:53.9;-0.02555314240711783;1.004107423086275;-0.006580678893971054;1.014;0.0001688477169594046
56:53.9;-0.025828847482164814;1.0059481044669956;-0.00614395585445496;1.02;0.0001596352111245527
56:53.9;-0.026320013983827;1.0068362540968303;-0.005677279447528846;1.015;0.00015044758906267847
56:53.9;-0.027056526509466272;1.0066962704327118;-0.005106839636748115;1.015;0.00013909858807596752
56:53.9;-0.02807260090366799;1.0055475303059562;-0.004361596588741;1.015;0.0001231206074957063
56:53.9;-0.029404639992001512;1.003502960373723;-0.003380559809801085;1.01;9.975235295667161e-05
56:54.0;-0.031086896004168946;1.0007586776531787;-0.002119192209518327;1.003;6.592908883706331e-05
56:54.0;-0.033145361561892725;0.9975759427370777;-0.0005542358684077948;0.998;1.8325817472850688e-05
56:54.0;-0.03559075466020674;0.9942574833569368;0.0013134646103038416;0.992;4.64787501451207e-05
56:54.0;-0.038411478960571975;0.9911210238756453;0.003458248670246308;0.99;0.00013165699440478013
56:54.0;-0.04156749350275368;0.9884727441443429;0.005830911708529755;0.985;0.00023958244996125517
56:54.0;-0.04498622647946183;0.9865825707828135;0.008361841023157911;0.9840000000000001;0.00037112047091263637
56:54.0;-0.04856175739032827;0.985662448026256;0.010965999099110156;0.9790000000000001;0.0005248930372235721
56:54.0;-0.05215800150935425;0.9858485385691336;0.013549352767452155;0.9790000000000001;0.0006967062229482306
56:54.0;-0.05561567175664334;0.9871885697762863;0.01601545335871989;0.9790000000000001;0.0008792989254935656
56:54.0;-0.058762534682241456;0.9896357854379559;0.018270687587275115;0.982;0.0010625045615085004
56:54.1;-0.061427207412028374;0.9930508311454701;0.02022776927426159;0.986;0.0012339007905384583
56:54.1;-0.06345671955229437;0.9972123869215789;0.02180807777222179;0.996;0.0013800113836337459
56:54.1;-0.0647362674727458;1.001836390195082;0.0229436351452783;1.0070000000000001;0.0014880128649265145
56:54.1;-0.06520744223131701;1.006602083735174;0.023579472006807947;1.016;0.0015477081391782215
56:54.1;-0.0648803783068615;1.011181352671966;0.02367729612670322;1.022;0.0015533686337250718
56:54.1;-0.06383589601836637;1.015267023434751;0.023221254407403906;1.025;0.0015049806475703985
56:54.1;-0.062215485434676164;1.0185965662755092;0.02222562917602632;1.028;0.0014084932367317996
56:54.1;-0.06020036038103142;1.0209693009103078;0.0207427732138486;1.028;0.0012749072590123233
56:54.1;-0.057985197644196455;1.022256696221993;0.01886840399838364;1.028;0.0011184389223393137
56:54.1;-0.05575414951301743;1.0224062783703083;0.01674127127027952;1.028;0.0009543092572910269
56:54.2;-0.05366429319259717;1.0214400586940822;0.014535140767952499;1.026;0.0007967416886651648
56:54.2;-0.05183771480759362;1.019448315804324;0.012442724794892134;1.023;0.0006575466300930055
56:54.2;-0.050360896535867214;1.0165793563005598;0.010653501522047686;1.018;0.0005454150422803207
56:54.2;-0.04928891423776184;1.013026001948741;0.009329729412201011;1.013;0.0004658422689408605
56:54.2;-0.04865170349855573;1.0090099475951493;0.008586085576419648;1.0090000000000001;0.000421491394270229
56:54.2;-0.04846026612195651;1.0047653072562377;0.008477317203271715;1.006;0.0004127706980678101
56:54.2;-0.048711615804150274;1.0005224381044817;0.008995731514761426;0.993;0.00043842554803454287
56:54.2;-0.049392033693359774;0.9964930687142206;0.010077608711888234;0.993;0.000496008001412045
56:54.2;-0.05047875450160057;0.9928581400531877;0.011615581859493726;0.993;0.000582152546166958
56:54.2;-0.05194056383336369;0.989759582243139;0.013473514950701766;0.988;0.0006926554940965058
56:54.3;-0.053738040184020446;0.9872960382481135;0.01550149959532882;0.986;0.0008224375513032629
56:54.3;-0.05582431072184743;0.9855217155871565;0.017549692832521998;0.986;0.0009655151376722338
56:54.3;-0.05814702607186177;0.984447804288435;0.019479857526594063;0.986;0.00111507987696875
56:54.3;-0.06065172478811223;0.9840461761751004;0.021173590867974414;0.9840000000000001;0.001263726669330616
56:54.3;-0.06328613048228893;0.9842549238573652;0.022536965471445184;0.986;0.001403820492221257
56:54.3;-0.06600462530317025;0.9849852814052884;0.02350203934316312;0.987;0.0015279518190738173
56:54.3;-0.06877213957694682;0.9861295858320874;0.024026006804162173;0.993;0.0016294015321530024
56:54.3;-0.0715664545271976;0.9875696983651587;0.024088905735505154;0.993;0.0017025282642430693
56:54.3;-0.07437750247956129;0.9891848384922239;0.023690870674121775;0.993;0.0017430107445460027
56:54.3;-0.07720267073696657;0.9908578308562439;0.022849729645630423;0.9940000000000001;0.0017479328179503012
56:54.4;-0.08003869790218243;0.9924795667966471;0.021599260511048195;0.995;0.0017157755373565712
56:54.4;-0.08287239932856223;0.9939523088037504;0.019987907296942706;0.996;0.0016464281623595858
56:54.4;-0.08567313495965187;0.9951926883598093;0.018077416187896888;0.997;0.0015413035980920804
56:54.4;-0.08838963665935812;0.9961350149764453;0.015940685198326223;1.001;0.0014035456422271456
56:54.4;-0.09095294492038931;0.9967350273527373;0.013658129946712543;1.004;0.0012381912378231477
56:54.4;-0.09328572050040239;0.9969734279865416;0.0113122211380675;1.01;0.0010520748526124542
56:54.4;-0.09531574706626447;0.9968577840468118;0.008980715392972767;1.001;0.0008533138487126266
56:54.4;-0.0969891020782357;0.9964215078764915;0.006730139017908233;1.001;0.000650414278973263
56:54.4;-0.09827874921497318;0.9957199267340413;0.004611364079489415;1.001;0.0004512593685810875
56:54.4;-0.09918724896283725;0.9948246913493359;0.002658206974928226;1.0;0.0002622957139114864
56:54.5;-0.09974475286847233;0.9938177177992613;0.0008887714718153711;0.9990000000000001;8.81022296977905e-05
56:54.5;-0.10000379120274008;0.9927850647080472;-0.000691236719043418;0.997;6.862755079535986e-05
56:54.5;-0.10003185692295208;0.9918107862396153;-0.0020839830557621702;0.996;0.00020675753291612436
56:54.5;-0.09990264017601069;0.9909709126005644;-0.003294584521907625;0.997;0.0003261658790338802
56:54.5;-0.09968690335119998;0.9903276981193269;-0.004326715447726902;0.996;0.0004271450377444235
56:54.5;-0.0994440736884757;0.9899240299742568;-0.00517969116573344;0.992;0.0005098995626996454
56:54.5;-0.09921565889512782;0.9897780002416969;-0.005847891749391222;0.988;0.0005742716039326926
56:54.5;-0.09902143242088421;0.9898785541531392;-0.00632273131960328;0.988;0.0006197490174249091
56:54.5;-0.09885874209261365;0.9901841875631645;-0.006596199600398543;0.988;0.0006456911823718629
56:54.5;-0.09870458411006469;0.9906267317706882;-0.006664371754309391;0.9940000000000001;0.0006516382686325675
56:54.6;-0.09851977096289392;0.9911209595802726;-0.006529782199993518;1.001;0.000637600647787653
56:54.6;-0.09825469652994942;0.9915785982044709;-0.006202462589386964;1.002;0.0006042888996857947
56:54.6;-0.09785675080419187;0.9919234717605672;-0.005700046451136761;1.002;0.0005532830344045378
56:54.6;-0.09727971385990135;0.9921041989387437;-0.005047554100941401;1.002;0.000487147585927054
56:54.6;-0.09649434957418583;0.9921022481407444;-0.004277077176132399;1.002;0.0004094542691646594
56:54.6;-0.09549725400054172;0.991934777080025;-0.003426621507496483;1.005;0.0003245937378212399
56:54.6;-0.09431427658142337;0.9916523627871814;-0.002537062750544652;0.995;0.00023728380499297673
56:54.6;-0.09299719784412933;0.991331916775308;-0.0016474433188701583;0.995;0.00015187959592821417
56:54.6;-0.0916156745534321;0.9910657739785488;-0.0007902599219294597;0.995;7.175335610665584e-05
56:54.6;-0.09024733614520292;0.9909487627856156;1.1823538167483774e-05;0.992;1.0573847657138045e-06
56:54.7;-0.08896754685226672;0.9910650521565058;0.0007475285389365369;0.992;6.5911554632871e-05
56:54.7;-0.08783949948369069;0.9914761075720195;0.0014169818942929542;0.9890000000000001;0.00012340603722061727
56:54.7;-0.0869058236495804;0.9922109935749046;0.002030357679178968;0.988;0.00017507553695754585
56:54.7;-0.08618341376908274;0.9932604322532902;0.00260530016818271;0.991;0.00022302040255807627
56:54.7;-0.08566259436406275;0.9945759694734864;0.00316333778531423;0.9940000000000001;0.00026950991925818696
56:54.7;-0.08531032341849697;0.9960749841490036;0.0037256363110886237;0.9990000000000001;0.0003165877302890045
56:54.7;-0.0850760183953505;0.9976510495646246;0.004308892957991943;1.0070000000000001;0.0003657223701878361
56:54.7;-0.08489841287969997;0.9991876790318988;0.004922518684082173;1.0070000000000001;0.00041757454332497186
56:54.7;-0.08471229316434062;1.0005725352957568;0.00556789419116222;1.0070000000000001;0.00047193913222886007
56:54.7;-0.08445448560516233;1.0017095533641251;0.006239806500479647;1.0090000000000001;0.0005278805481042886
56:54.8;-0.0840688512391575;1.0025278101103667;0.006929803350853351;1.011;0.000584053260168033
56:54.8;-0.08351028949531092;1.0029869847758899;0.007630882808889333;1.01;0.0006391607101268686
56:54.8;-0.08274785919318225;1.0030794013805775;0.00834232863586825;1.008;0.0006924355763639398
56:54.8;-0.08176708300599009;1.0028287865548593;0.00907301619032691;1.006;0.0007439726713379658
56:54.8;-0.08057135321271114;1.0022863900944854;0.00984175032464039;1.008;0.0007947761647102484
56:54.8;-0.07918216289497759;1.0015252892389144;0.010674240026327506;1.0070000000000001;0.0008464986013663381
56:54.8;-0.07763777417008516;1.0006332295346092;0.011597619577121583;1.001;0.0009009835379781365
56:54.8;-0.07599018910210427;0.9997041239711841;0.012634226954301948;1.001;0.0009597932315587839
56:54.8;-0.07430087939136795;0.9988288955076137;0.013796289261188305;1.001;0.0010238759528382714
56:54.8;-0.07263593161760219;0.9980868517977419;0.015082606098937959;0.997;0.0010934432164715108
56:54.9;-0.07106074138311876;0.9975385834674646;0.01647778166525174;0.997;0.0011680412513124377
56:54.9;-0.06963400365853796;0.9972210759167389;0.01795399461089605;0.997;0.0012467342918373381
56:54.9;-0.06840121260813764;0.9971455928345775;0.01947460484264094;0.997;0.001328284268804049
56:54.9;-0.06738871164490348;0.9972984997210964;0.020998492213252572;0.998;0.001411238548140769
56:54.9;-0.06659972713403028;0.997644667962135;0.022484192087854588;0.9990000000000001;0.0014939140869817983
56:54.9;-0.06601362210496432;0.9981328525574332;0.023893313071113868;1.0;0.0015743391178640773
56:54.9;-0.06558902267234328;0.9987023830706123;0.025193025034467114;1.004;0.0016502417262656086
56:54.9;-0.06527047857898613;0.9992903907222197;0.026357558589657278;1.004;0.0017191496724786057
56:54.9;-0.06499707264631856;0.9998386626214344;0.027368725889110178;1.004;0.0017786000638758662
56:54.9;-0.06471077326242654;1.0002993261543052;0.028215572482302966;1.006;0.0018263980384836986
56:55.0;-0.0643629637334468;1.0006388884615016;0.028893486263031877;1.006;0.0018608585304465382
56:55.0;-0.06391881374629038;1.0008403127524468;0.029403239911456196;1.005;0.001880999516212099
56:55.0;-0.06335986227552232;1.000902861504765;0.029750345155879356;1.004;0.0018866796455931972
56:55.0;-0.06268509765689634;1.0008398156697185;0.029944835923082662;1.003;0.001878671377922624
56:55.0;-0.061910514324735884;1.0006747459878267;0.030001352289771254;1.001;0.0018586524233220566
56:55.0;-0.06106703844327787;1.0004372456435473;0.029939267876006592;1.003;0.0018291018396169472
56:55.0;-0.06019681545290656;1.000158882718587;0.02978251577493694;1.001;0.0017930974527678883
56:55.0;-0.059348220511183145;0.9998698429947968;0.029558742748105035;1.001;0.0017540304535783723
56:55.0;-0.0585706176364618;0.9995964568835555;0.02929773114938168;1.001;0.0017152937343438296
56:55.0;-0.05791017095229014;0.9993596358031716;0.02902950337943908;1.0;0.0016800269848686847
56:55.1;-0.057407386990133015;0.9991742140033117;0.02878256802223263;1.0;0.0016509675483772964
56:55.1;-0.057096126309475116;0.9990492352887597;0.028582413673407327;1.001;0.0016303935055135106
56:55.1;-0.05700327402471045;0.9989891934660581;0.028450127070678566;1.001;0.0016201111135576464
56:55.1;-0.057148160626258465;0.9989960146915742;0.028400968238269014;1.003;0.0016214335633200133
56:55.1;-0.057541202087850234;0.9990712330006569;0.028442700346175607;1.004;0.001635107123239087
56:55.1;-0.058182090284099056;0.9992175266961496;0.028573630810167085;1.003;0.0016611727263566975
56:55.1;-0.05905846118257116;0.999438771478057;0.028780714136383927;1.002;0.0016987907434310267
56:55.1;-0.060145532143090784;0.9997382147582528;0.02903824640876564;1.002;0.0017460635693920736
56:55.1;-0.06140636763918579;1.000115047846483;0.029307573510201558;1.002;0.0017998786819257196
56:55.1;-0.062792361399196;1.0005600749393178;0.02953820798961929;0.9990000000000001;0.0018558126435097334
56:55.2;-0.064244121331658;1.0010514114687257;0.02967069619290176;0.997;0.0019081719729043102
56:55.2;-0.06569329982770945;1.0015515950788159;0.029641185898124072;0.998;0.001950248620769678
56:55.2;-0.0670656989766884;1.0020079151365002;0.029387125540710914;1.002;0.001974825451224233
56:55.2;-0.06828558232757503;1.0023573128981302;0.028853297544800947;1.0070000000000001;0.0019749087541876464
56:55.2;-0.0692808654346299;1.002535592495645;0.027997446663532245;1.011;0.0019446055914594457
56:55.2;-0.06998868413584822;1.0024887529880602;0.02679477963793577;1.012;0.0018799986051162736
56:55.2;-0.07036068826088222;1.0021832907744945;0.025240639376480512;1.0070000000000001;0.0017798261712146817
56:55.2;-0.07036739370267915;1.0016130245594228;0.023351228430891966;1.0070000000000001;0.0016458155500741539
56:55.2;-0.07000110397796351;1.0008017557846949;0.021163278661505854;1.0070000000000001;0.001482640633507042
56:55.2;-0.06927713966639366;0.9998023357678009;0.018733855943530067;1.0070000000000001;0.0012975714205238412
56:55.3;-0.06823321904043023;0.9986926547221264;0.016140455228063233;1.004;0.0010998754177403154
56:55.3;-0.06692691545975922;0.9975685774047831;0.01348033950416789;0.9990000000000001;0.0009000039188744432
56:55.3;-0.06543140379758121;0.9965340888833304;0.010867989655702168;0.996;0.0007086431831329772
56:55.3;-0.06383001529453791;0.9956897943588155;0.008430328337969929;0.995;0.0005357886306705381
56:55.3;-0.062210040389671165;0.9951215239469057;0.006300036606477516;0.993;0.00039001353242415704
56:55.3;-0.06065589339205263;0.9948906918553581;0.004607386714697698;0.992;0.00027803728377790435
56:55.3;-0.059241806629253387;0.9950275934501215;0.00347097406356231;0.9940000000000001;0.00020460431436940865
56:55.3;-0.05802489526171568;0.995528279528203;0.0029880082226515533;0.9940000000000001;0.00017260356234425817
56:55.3;-0.057040108482618514;0.996355017954476;0.0032253035318373937;0.9940000000000001;0.0001833010899355985
56:55.3;-0.05629836441647915;0.9974399413365926;0.004212245255797538;0.997;0.00023653541966372558
56:55.4;-0.05578799142152168;0.9986915378036654;0.005936602901494346;1.0;0.00033075780063973294
56:55.4;-0.055478489385431616;1.000003680709501;0.008343578208747596;1.003;0.00046289081885088584
56:55.4;-0.05532564825625905;1.0012664103243918;0.011338254609124855;1.006;0.0006280907008378288
56:55.4;-0.05527789646853049;1.002377001554422;0.014791412759603953;1.0070000000000001;0.0008195817103809874
56:55.4;-0.055283786850730605;1.0032496732532594;0.018548231617603952;1.008;0.0010287487517245237
56:55.4;-0.05529932288960227;1.0038228183013842;0.02243896830752736;1.0090000000000001;0.001245603335123585
56:55.4;-0.055293145147429223;1.004063360537422;0.026290633270884465;1.008;0.001459598675364493
56:55.4;-0.05524858846003775;1.0039682692638892;0.029938499279513774;1.008;0.0016606235805723692
56:55.4;-0.05516309161633222;1.003563422528577;0.03323564216903803;1.008;0.0018399138842514482
56:55.4;-0.055045966651305754;1.002900059696038;0.036058756494145035;1.0070000000000001;0.0019906454043659245
56:55.5;-0.05491523811755809;1.0020489987545793;0.03831006426030995;1.005;0.0021081169976448137
56:55.5;-0.054793946003686145;1.0010927995846706;0.039916818352228635;1.002;0.0021895901606710055
56:55.5;-0.05470626472707681;1.0001163917706384;0.04083018420188943;0.9990000000000001;0.0022339268462454
56:55.5;-0.05467390694102274;0.9991972780390993;0.04102451915425616;0.996;0.0022411702606673117
56:55.5;-0.05471341763437503;0.9983969197804354;0.040497246537282754;0.996;0.002212190749441853
56:55.5;-0.05483488575863903;0.9977549800066929;0.039268996443984176;0.9940000000000001;0.002148476707763947
56:55.5;-0.05504211612882369;0.997287608634924;0.03738341832471238;1.0;0.002052081266852212
56:55.5;-0.05533369352622547;0.9969899383835934;0.034906258773285535;1.0;0.001925678314498915
56:55.5;-0.055704149201568354;0.9968416976189831;0.03192390145916618;1.0;0.001772677380529691
56:55.5;-0.05614471212506154;0.9968140761293648;0.028541692215344163;1.001;0.001597359761200983
56:55.6;-0.056643572484029014;0.9968761871821543;0.024881695479745468;1.002;0.0014049854567534492
56:55.6;-0.05718589882229273;0.9970000872360919;0.021079095279295926;1.002;0.0012018108340343047
56:55.6;-0.0577539186974374;0.9971637030667575;0.01727683590780994;0.9990000000000001;0.000994974905174174
56:55.6;-0.05832722413129761;0.9973514558565881;0.013618678863859214;0.998;0.0007922358906128866
56:55.6;-0.058883283848912955;0.9975531486256731;0.010241219282396427;0.9990000000000001;0.0006015610809770866
56:55.6;-0.059398136729461495;0.9977622332610934;0.007265721587536499;1.0;0.00043060457057748723
56:55.6;-0.0598473078036651;0.9979743175948845;0.004790900510694563;1.0;0.00028614168880189623
56:55.6;-0.06020690652161802;0.9981860794889226;0.0028877142632772073;1.0;0.00017354497386856875
56:55.6;-0.06045476188234521;0.9983943851914052;0.0015967735969634632;1.0;9.637757346441676e-05
56:55.6;-0.06057155675606089;0.99859550782793;0.000928350749796361;1.0;5.6152673218390655e-05
56:55.7;-0.06054211869000403;0.9987845469487729;0.000864595916112207;1.0;5.228084632811712e-05
56:55.7;-0.06035705586077895;0.9989552408688824;0.001363643926029603;1.0;8.221954316083695e-05
56:55.7;-0.06001473448275485;0.9991003554649992;0.0023653808656420743;1.001;0.0001418299931289514
56:55.7;-0.05952322967492495;0.9992127410319552;0.003798238857802821;1.001;0.00022590545767449055
56:55.7;-0.058901525207677746;0.9992869875780278;0.005585900305500687;1.001;0.0003287834536969946
56:55.7;-0.058179196387482035;0.9993214885549341;0.007652881638334734;1.002;0.000444936404346242
56:55.7;-0.057394251687322796;0.9993206755603052;0.009928477296239592;1.003;0.0005694504202549852
56:55.7;-0.05658958468578581;0.9992970720002436;0.012348840328006419;1.003;0.0006983245283587745
56:55.7;-0.05580913429994778;0.9992726360074075;0.014856961513261113;1.003;0.0008285510635021741
56:55.7;-0.05509482325384199;0.999278833228298;0.017400603415996155;1.004;0.0009579917992679193
56:55.8;-0.05448466271079716;0.9993549902668798;0.019929075647356624;1.005;0.0010851285945333976
56:55.8;-0.0540117711307713;0.9995445013955557;0.02239036641224834;1.004;0.0012087924919859817
56:55.8;-0.05370391422272635;0.9998885134303707;0.02472994574626616;1.0;0.0013279468203472732
56:55.8;-0.05358329026579387;1.0004173394766558;0.026891750520613603;0.995;0.0014415498385833383
56:55.8;-0.05366632503182134;1.0011412433377593;0.02882101839108603;0.9940000000000001;0.001548483322497616
56:55.8;-0.05396319784133165;1.0020436154834242;0.030468166787494987;0.995;0.0016475197424613895
56:55.8;-0.05447686294917223;1.0030796071668673;0.03179284511762823;1.0090000000000001;0.0017373082672163477
56:55.8;-0.055201578748268476;1.0041812727390784;0.03276730996103745;1.0090000000000001;0.0018163703575909376
56:55.8;-0.056121325621805496;1.0052672415106492;0.03337827901672928;1.0090000000000001;0.0018831000374079506
56:55.8;-0.05720875305398445;1.0062534170861388;0.033626687128735636;1.01;0.0019357707938094148
56:55.9;-0.0584253127155451;1.0070622530105067;0.033525324266248636;1.011;0.0019725605837116566
56:55.9;-0.05972294933338586;1.0076299665906503;0.0330948467068501;1.011;0.00199160264877399
56:55.9;-0.061047187776060254;1.0079118405399783;0.0323589738546664;1.012;0.0019910535956273283
56:55.9;-0.06234102579082422;1.007885719280979;0.03133985649844949;1.013;0.001969165595707859
56:55.9;-0.06354905588470992;1.0075535772330753;0.030054587881856155;1.013;0.001924367569369957
56:55.9;-0.06462161214700693;1.0069408274978129;0.028513614155144477;1.0090000000000001;0.0018553848538480887
56:55.9;-0.06551905560917887;1.0060931880519384;0.02672146377637341;1.008;0.001761432811935985
56:55.9;-0.06621605577115806;1.0050715936435697;0.024679863001115188;1.008;0.0016424911993912562
56:55.9;-0.06670490204750244;1.0039461939874739;0.022392994862775115;1.008;0.001499617047734027
56:55.9;-0.06699644425604874;1.0027902371110682;0.01987424569420708;1.005;0.0013352190050819027
56:56.0;-0.06711789255130356;1.001674041680558;0.01715315448568669;1.001;0.0011532108763847668
56:56.0;-0.06710782063816108;1.0006592385557733;0.014280787004545244;1.0;0.0009589842757861271
56:56.0;-0.06700949159492067;0.9997939655169307;0.011331897353545794;0.9990000000000001;0.0007591882292782193
56:56.0;-0.06686388830869877;0.9991099065259789;0.008403045457253332;1.0;0.0005613601847266775
56:56.0;-0.0667037642907492;0.9986216069271282;0.005606871501267976;1.002;0.0003734839167985961
56:56.0;-0.06654978207256905;0.9983277194200335;0.0030634877226321973;0.9990000000000001;0.00020353350505585962
56:56.0;-0.06640932654926103;0.9982133588629075;0.0008902955602233471;1.0;5.901829534123444e-05
56:56.0;-0.06627783113832991;0.9982529299113023;-0.0008082612689172106;1.0;5.347621369490139e-05
56:56.0;-0.06614172506981113;0.9984132776901926;-0.0019494017304612936;1.0;0.00012873220642029004
56:56.0;-0.06598186245921563;0.9986571850234981;-0.0024779892639097854;1.002;0.00016328279338675004
56:56.1;-0.06577665922203399;0.9989470738767161;-0.0023695031858313527;1.001;0.00015569389661646056
56:56.1;-0.06550472325929049;0.9992486034983714;-0.001630369454740168;1.002;0.00010671665312615299
56:56.1;-0.06514700576631965;0.9995338629436623;-0.0002961978987608177;1.003;1.928741144855015e-05
56:56.1;-0.0646884399764846;0.9997839202825983;0.0015715003516314813;1.004;0.00010163593995790076
