Time;AccX;AccY;AccZ;Acc-old;Acc-trns
56:47.1;0.008456643112805438;-0.16852879034657345;-1.0245224147364997;1.0390000000000001;0.0014601368813412959
56:47.1;0.003961227942818875;-0.17425988824091268;-1.0159321610061065;1.05;0.0007012808407165709
56:47.1;-0.0003644266827172265;-0.17975367042034812;-1.0075559467231465;1.052;6.600200147504975e-05
56:47.2;-0.004393196323495353;-0.18484047098820613;-0.9995518070024194;1.016;0.0008116765267227339
56:47.2;-0.007998199007677816;-0.18937426143590882;-0.9920900691090734;1.016;0.0015026722291061922
56:47.2;-0.011064289373908562;-0.19324423380883501;-0.9853413026095369;0.998;0.0021067682134240464
56:47.2;-0.013503404125632374;-0.19638367916872929;-0.9794557978342171;0.9890000000000001;0.002597368078299221
56:47.2;-0.015268697333693737;-0.19877541861002518;-0.9745415721628654;0.99;0.0029577743139273392
56:47.2;-0.016363584864275377;-0.20045426896715612;-0.9706461456604951;0.983;0.0031838653833744747
56:47.2;-0.016844008212101885;-0.20150651368453523;-0.9677451690422244;0.975;0.0032846987539425264
56:47.2;-0.016814520302494383;-0.2020652064940145;-0.9657397767666926;0.975;0.003281225971304102
56:47.2;-0.016419656831661484;-0.20230010074344282;-0.9644643937407079;0.981;0.0032036596707611317
56:47.2;-0.015831203478824128;-0.20240241921906965;-0.9637058904947723;0.987;0.003087977616059454
56:47.3;-0.015231452093278003;-0.2025662597138449;-0.9632321283289804;0.996;0.0029719354878702743
56:47.3;-0.014793957771521368;-0.2029690514774313;-0.9628246137002323;0.996;0.002891088464978785
56:47.3;-0.014665457019041385;-0.20375350360117866;-0.9623085322051645;0.991;0.002875510932943045
56:47.3;-0.014953015608025378;-0.20501342569627307;-0.9615747245784709;0.992;0.002947773622898797
56:47.3;-0.015718598690178717;-0.20678538561237852;-0.9605911071735379;0.993;0.0031222827526382266
56:47.3;-0.01698076085511244;-0.20904723990323704;-0.9594032822627971;0.991;0.003405671723291261
56:47.3;-0.01872152070090941;-0.21172335348550575;-0.9581246618352821;0.986;0.0037977983855303063
56:47.3;-0.02089584627378473;-0.21469517304681693;-0.9569167540087533;0.981;0.004292955665172725
56:47.3;-0.02344114708713365;-0.21781526386677566;-0.9559615251485489;0.975;0.004880986247624853
56:47.3;-0.02628459990147631;-0.22092318009606893;-0.9554294778540503;0.968;0.005548061840130088
56:47.4;-0.02934700179268534;-0.22386197362471782;-0.9554484498020539;0.971;0.0062769884136037665
56:47.4;-0.032542999748359204;-0.22649389207585327;-0.9560785746109239;0.971;0.007047055040234216
56:47.4;-0.03577877313770777;-0.22871317520355233;-0.9572977899343798;0.977;0.007833641344322602
56:47.4;-0.038949171853841;-0.23045411254516981;-0.9589998649227459;0.983;0.008607979751301434
56:47.4;-0.041936504529067914;-0.23169386447349632;-0.961004224751989;0.988;0.00933753104528321
56:47.4;-0.044612555897061965;-0.23245075567517515;-0.9630749208795599;0.992;0.009987301050809003
56:47.4;-0.04684427974862416;-0.23277918245971135;-0.9649454238858658;0.993;0.010522124964487586
56:47.4;-0.04850241136618871;-0.23276230465635034;-0.9663464013195551;0.998;0.010909599636396995
56:47.4;-0.04947151527346749;-0.23250351607677944;-0.9670345240560573;1.0;0.011123122411678317
56:47.4;-0.04965996458955613;-0.232117213051086;-0.9668206930117107;1.006;0.011144476946013587
56:47.5;-0.049008773767786465;-0.23171882586411335;-0.9655955601301445;1.008;0.010965549904515714
56:47.5;-0.0474987121568529;-0.2314139206396532;-0.9633492221941459;1.008;0.010589002869532668
56:47.5;-0.045155356054087374;-0.231286619304902;-0.9601812561523723;1.005;0.010027969467826178
56:47.5;-0.042051455079462244;-0.23138841791827533;-0.9562975793376213;0.993;0.009304985509192199
56:47.5;-0.03830553327471027;-0.23172947752599513;-0.9519924292772742;0.976;0.00845038099224141
56:47.5;-0.034075706713868;-0.23227507470152023;-0.9476171351547749;0.9670000000000001;0.007500330230449368
56:47.5;-0.029548496068493385;-0.2329491370759297;-0.9435412091995443;0.96;0.006494674054843506
56:47.5;-0.024923545258143474;-0.23364467763575508;-0.9401133017894084;0.9590000000000001;0.005474518260600431
56:47.5;-0.02039612572117565;-0.23423895545846093;-0.9376284808202155;0.958;0.004479583061057633
56:47.5;-0.016139804228279923;-0.23461025591794227;-0.9363053949028447;0.9590000000000001;0.0035453799272555345
56:47.6;-0.012291676420248535;-0.23465303559815529;-0.9362741650073642;0.961;0.0027004760852109705
56:47.6;-0.008942350888594273;-0.23428881727123432;-0.9375741571630335;0.961;0.00196430487862038
56:47.6;-0.006132342247845785;-0.23347179032341472;-0.9401599871961632;0.971;0.0013460542463677742
56:47.6;-0.003855347196745185;-0.23218963818157112;-0.9439136099757017;0.98;0.0008449647232163286
56:47.6;-0.0020672768514781925;-0.23046064254968884;-0.9486596068856387;0.975;0.00045196605587885367
56:47.6;-0.0006987399945425351;-0.22832798139529384;-0.9541806091350807;0.977;0.000152231780143458
56:47.6;0.0003315753224608728;-0.22585225866034372;-0.9602314518703328;0.986;7.190888681849585e-05
56:47.6;0.0011046994125881887;-0.22310362848830784;-0.966552855983532;0.993;0.0002382189823665844
56:47.6;0.0016917840092701458;-0.2201546557025979;-0.9728857069922277;0.9990000000000001;0.00036235529577743344
56:47.6;0.0021479744862177796;-0.2170741625207382;-0.9789857728087735;1.002;0.00045647146398561584
56:47.7;0.002510016794758772;-0.21392169047657777;-0.9846379654548317;1.0190000000000001;0.0005286984369456001
56:47.7;0.002797144340084563;-0.21074277492344967;-0.989668816727683;1.0190000000000001;0.0005833879552501522
56:47.7;0.0030141550742128465;-0.20756643157453727;-0.9939548508498302;1.0190000000000001;0.0006218553414913354
56:47.7;0.003155449535186733;-0.20440637684310536;-0.9974245100539442;1.016;0.0006433328312190045
56:47.7;0.003209282426154992;-0.2012661233778905;-1.0000535710746226;1.018;0.000645954435356566
56:47.7;0.003162112035039884;-0.19814672630207558;-1.001856607038686;1.021;0.0006277254276375934
56:47.7;0.003003134813309664;-0.1950554123688654;-1.002877554039888;1.02;0.000587463306394824
56:47.7;0.002728718587006791;-0.1920129478985649;-1.0031812743332549;1.0190000000000001;0.0005256161263364054
56:47.7;0.0023459058644595193;-0.1890574532215;-1.0028469275993006;1.021;0.00044477363190508916
56:47.7;0.0018740825742887648;-0.18624330913305015;-1.001963408771067;1.0190000000000001;0.00034972063927253316
56:47.8;0.0013444301316571446;-0.1836355831541536;-1.0006265553723683;1.016;0.000247039898492334
56:47.8;0.0007974674659497552;-0.18130176563976774;-0.9989373798076844;1.016;0.00014442862358844238
56:47.8;0.00027939766653937325;-0.17930283510806075;-0.99700061675092;1.014;4.994653424913055e-05
56:47.8;-0.00016207767405187055;-0.17768514046288314;-0.9949229900539537;1.014;2.8652582514811302e-05
56:47.8;-0.00048204763196796644;-0.17647408620806268;-0.9928104082663112;1.0090000000000001;8.445730458963903e-05
56:47.8;-0.00064234133042903;-0.17567042918997536;-0.990763317385411;1.002;0.00011179810645259354
56:47.8;-0.0006145715220843384;-0.17524978110667827;-0.9888703538575971;0.9990000000000001;0.00010650482260125883
56:47.8;-0.00038188848894596085;-0.1751653881835076;-0.9872018849905192;0.997;6.603753284168416e-05
56:47.8;6.052547361370327e-05;-0.1753535791143016;-0.9858057125890005;1.0;1.0462709365860027e-05
56:47.8;0.0007059302059905147;-0.1757406957083077;-0.9847064265168763;1.001;0.00012216333461775178
56:47.9;0.001537251488568118;-0.17625006377692792;-0.9839082425025835;1.003;0.00026658076129679344
56:47.9;0.002528959872099742;-0.17680781384700817;-0.9833997433321144;1.003;0.0004397172297458609
56:47.9;0.0036493284132732002;-0.17734711228660532;-0.9831584223431062;1.001;0.0006362980229302924
56:47.9;0.004862595823253572;-0.1778111044352078;-0.9831533783256856;1.001;0.0008500575481908712
56:47.9;0.006130829370865396;-0.1781550042311919;-0.9833455526040903;0.998;0.0010740473133164811
56:47.9;0.007415771843240177;-0.1783474220734384;-0.9836860462198956;0.992;0.0013010072200911832
56:47.9;0.008681112221992113;-0.17837075034802724;-0.9841142029184294;0.993;0.0015238580351293516
56:47.9;0.009895327801273588;-0.17822037783641573;-0.9845580931392893;0.997;0.0017363164992361766
56:47.9;0.011034790347775767;-0.17790259819196227;-0.9849398125224664;1.0;0.001933552950159403
56:47.9;0.01208651283575903;-0.17743134266814425;-0.985186163444049;1.003;0.0021127575399984785
56:48.0;0.013049835978632605;-0.17682422077743434;-0.9852429641028962;1.015;0.0022734748182685746
56:48.0;0.013936443979663636;-0.17609847323456118;-0.9850894346211398;1.015;0.002417593198771164
56:48.0;0.014768303457473184;-0.175267162956776;-0.9847479453790966;1.011;0.0025489202511057908
56:48.0;0.015573528526625705;-0.17433566609908102;-0.9842847193197662;1.003;0.0026723541447609567
56:48.0;0.016380815290936955;-0.1732987810154068;-0.9837998347016901;0.991;0.0027927866924974294
56:48.0;0.017213622175687976;-0.1721392763442596;-0.9834090731150804;0.988;0.0029139792177887277
56:48.0;0.018085230221967702;-0.17082884303523255;-0.9832233580398263;0.99;0.0030376478725756455
56:48.0;0.018995247438343604;-0.16933204741442523;-0.9833317713661641;0.996;0.0031628907134731666
56:48.0;0.01992779235054566;-0.1676129929302148;-0.9837913700596622;0.997;0.003286017550934332
56:48.0;0.02085204728079303;-0.16564323052113517;-0.98462347568721;0.998;0.0034008899522963956
56:48.1;0.021726278278629416;-0.16340903235118664;-0.9858142840604158;0.997;0.0034999069868127146
56:48.1;0.02250545197016072;-0.16091706124425148;-0.9873179392321877;1.002;0.003575582967990823
56:48.1;0.02315057454554931;-0.15819855175740793;-0.9890611977408202;1.002;0.003622325234270552
56:48.1;0.023636672986089586;-0.1553117879035601;-0.9909492263489246;1.008;0.003637828063275394
56:48.1;0.02395681522135764;-0.15234117327303845;-0.9928719931914476;1.0;0.003623594898492149
56:48.1;0.02412094004928605;-0.14939052247270349;-0.9947110170093802;1.001;0.0035843813044926544
56:48.1;0.02414988774494826;-0.14657002480118642;-0.99634722642535;1.005;0.0035267201070335184
56:48.1;0.024066823996840184;-0.14397992230710932;-0.997671152140074;1.0090000000000001;0.0034570696666532067
56:48.1;0.023889489147092026;-0.1416962419906202;-0.9985954536978423;1.016;0.0033802963745854244
56:48.1;0.023626301689281554;-0.13976287806695747;-0.99906762777017;1.021;0.003299001154552097
56:48.1;0.02327734985187469;-0.13819139435409916;-0.9990792937964204;1.015;0.00321376777015464
56:48.1;0.022838930477563087;-0.13696755143902165;-0.9986686589137024;1.015;0.00312402769394987
56:48.2;0.022308891761641008;-0.13606217327388243;-0.997914660048102;1.01;0.0030290664632539183
56:48.2;0.021690294341751352;-0.13544314655004805;-0.9969237384040741;1.001;0.0029287642686504573
56:48.2;0.02099245747804628;-0.1350854021707232;-0.9958120460567663;0.998;0.0028238984677189357
56:48.2;0.020230104451023755;-0.13497675767458212;-0.994686993976649;0.997;0.00271608624434626
56:48.2;0.019421978172240523;-0.13511889837004284;-0.9936321659798472;0.997;0.002607565338931849
56:48.2;0.01858981149456737;-0.13552390022760843;-0.9926982953305905;1.0;0.0025009681081223163
56:48.2;0.017757559030534695;-0.13620733778628058;-0.9919009180915593;0.998;0.002399120512015778
56:48.2;0.016950169261283333;-0.13717947036792136;-0.9912237860038767;0.9940000000000001;0.0023048086553594236
56:48.2;0.016191421394498435;-0.13843644140606265;-0.9906267762874983;1.003;0.002220472839811026
56:48.3;0.015501220168638984;-0.13995345039992005;-0.9900571977822501;1.003;0.002147878843215448
56:48.3;0.014893334240409232;-0.14168127010847822;-0.9894628338622348;1.005;0.00208787196845299
56:48.3;0.014374325930371046;-0.14354680696154545;-0.9888040766255208;1.004;0.0020402870489891647
56:48.3;0.013943695614321985;-0.14545792147224654;-0.9880625663356669;1.002;0.002004009228275292
56:48.3;0.013594726315000989;-0.14731203710952512;-0.9872450284237668;1.003;0.001977122868948993
56:48.3;0.013315472334758455;-0.14900707068287938;-0.9863822765463955;1.003;0.001957080608693245
56:48.3;0.013089625599260553;-0.15045259284402063;-0.9855238529885191;0.995;0.0019408592484750433
56:48.3;0.012897308696782624;-0.15157944901265433;-0.9847290814002028;0.993;0.0019251128049066972
56:48.3;0.012716084363387949;-0.15234703967909022;-0.9840561902957116;0.992;0.0019063705392157362
56:48.4;0.012522632963923086;-0.1527482487390059;-0.9835519664808161;0.993;0.0018813482876531412
56:48.4;0.012295423718102334;-0.15281202347793946;-0.9832440191359515;0.993;0.0018474059568251997
56:48.4;0.012018195197906582;-0.15260298762007252;-0.9831365715516824;0.993;0.0018030847545526978
56:48.4;0.011683576187255927;-0.15221699916462378;-0.9832098437316367;0.993;0.0017485786395775298
56:48.4;0.011296084762439967;-0.15177178681581313;-0.983422828323148;0.993;0.001686006618235497
56:48.4;0.010873904757350328;-0.1513926193921287;-0.9837191947788686;0.996;0.0016194269917709201
56:48.4;0.010449073726290099;-0.1511942991561384;-0.9840356712238016;1.001;0.001554619287654941
56:48.4;0.010065909948321346;-0.1512623411825492;-0.9843113731888035;0.998;0.0014987057099074745
56:48.4;0.00977743377523317;-0.15163704884189433;-0.9844959013617018;0.9940000000000001;0.0014596344975500626
56:48.4;0.009639418581663338;-0.15230386717132155;-0.9845546996413584;0.995;0.0014454451616749827
56:48.4;0.009702244195458891;-0.15319246375674409;-0.9844717727917439;1.0;0.001463230922140258
56:48.5;0.010001896493924644;-0.15418548859575332;-0.984250603273287;1.0;0.0015178594081958438
56:48.5;0.010552172926582518;-0.15513563014373716;-0.9839134410012151;0.995;0.001610684009770688
56:48.5;0.01133973029348055;-0.1558875804547005;-0.9834986953156374;0.9940000000000001;0.0017385533806842611
56:48.5;0.01232258698344717;-0.15630102196646617;-0.9830569798207367;0.996;0.0018934001238357322
56:48.5;0.01343186749172258;-0.1562711413061127;-0.9826471711581327;1.0;0.0020625894449177143
56:48.5;0.014576148440627625;-0.15574375967551768;-0.9823331895499768;0.9990000000000001;0.002230037953167572
56:48.5;0.01564756388460393;-0.15472316352334015;-0.982180798897547;0.9940000000000001;0.0023778995765864185
56:48.5;0.016528859726284817;-0.15327201322137457;-0.982253334051231;0.996;0.0024884519970100583
56:48.5;0.017101036384323105;-0.15150373154327507;-0.982606071264348;0.9990000000000001;0.0025458054029805486
56:48.5;0.017251895978505637;-0.14956843907511325;-0.9832794978778924;0.991;0.0025371945863146513
56:48.5;0.01688596436332395;-0.1476342583334325;-0.9842916582762031;0.991;0.0024537867643973704
56:48.6;0.015935462067055386;-0.14586673043990714;-0.985630245877021;0.992;0.0022910519209160944
56:48.6;0.01437096972852279;-0.14440953263114348;-0.9872460966797663;0.991;0.002048836782342312
56:48.6;0.012210058714135701;-0.1433692738504492;-0.989049948890419;0.992;0.0017313786696431374
56:48.6;0.009522242912722006;-0.14280622477520757;-0.9909138147391501;0.996;0.0013474798439198782
56:48.6;0.006428701098483515;-0.1427317675774313;-0.9926777245461618;1.0;0.000910861098447068
56:48.6;0.0030956495836700843;-0.14311225420251855;-0.9941618648849637;0.998;0.0004404389480530842
56:48.6;-0.0002785603772769451;-0.14387789276766405;-0.995183522872731;1.004;3.9885642045222084e-05
56:48.6;-0.003481075944186811;-0.14493446345498512;-0.9955781019303507;1.015;0.0005022969033836877
56:48.6;-0.0063046178816499165;-0.1461755455420787;-0.9952226693205694;1.022;0.0009171782612989294
56:48.6;-0.008567802859941735;-0.14749352893777795;-0.994058211503951;1.022;0.0012561868677960291
56:48.7;-0.010133743604448733;-0.14878852057451272;-0.9921049082147994;1.011;0.001495880620040208
56:48.7;-0.010925036058691003;-0.14997500943436032;-0.9894659040907767;1.006;0.001621222455373498
56:48.7;-0.010933167418943839;-0.15098658440414517;-0.9863188120376915;1.006;0.0016281772255018739
56:48.7;-0.010220207847179811;-0.15177898645481852;-0.9828972347871925;0.998;0.0015246827602873815
56:48.7;-0.008911211242649944;-0.15233155488353373;-0.9794650894779298;0.987;0.0013295833722758127
56:48.7;-0.0071776946083878;-0.15264696711803621;-0.9762863477592848;0.973;0.0010696713712320944
56:48.7;-0.005214866668562532;-0.15274926764574667;-0.9735942220530561;0.9670000000000001;0.0007755330914682867
56:48.7;-0.0032163657910020235;-0.1526805881341222;-0.9715657595896828;0.9740000000000001;0.0004771132299339324
56:48.7;-0.0013501242137440527;-0.15249714759175026;-0.9703072186822207;0.982;0.00019977664202839692
56:48.7;0.0002611150042537558;-0.15226463552178823;-0.9698516010732828;0.982;3.855992339266819e-05
56:48.8;0.00155084079958812;-0.15205257153148752;-0.970165265948969;0.977;0.00022877402291788707
56:48.8;0.002508593242323877;-0.1519275837020862;-0.9711594756520652;0.975;0.00037013267909323484
56:48.8;0.0031690787549981934;-0.15194657461481684;-0.9727050476273881;0.985;0.00046838730503478987
56:48.8;0.0035948265183504903;-0.15215137804365206;-0.9746503018929845;0.99;0.0005330925932697357
56:48.8;0.003857970550067673;-0.15256587982763414;-0.9768416985360853;0.9990000000000001;0.0005749638184816897
56:48.8;0.004025246973440511;-0.1531951796730138;-0.9791442744930807;1.005;0.0006037877828647869
56:48.8;0.004147872414324592;-0.15402569269015098;-0.9814576389494611;1.001;0.0006270325981709952
56:48.8;0.004256539107686716;-0.15502555564502046;-0.9837238801285978;1.001;0.0006491321789834466
56:48.8;0.004361528355998085;-0.1561453004799301;-0.9859260201750385;1.001;0.000671447322879598
56:48.8;0.004457473841687952;-0.15731891557672734;-0.9880782377392517;1.001;0.0006928848753937726
56:48.9;0.004530730544475462;-0.15846557306804915;-0.9902103699865222;1.001;0.0007109362022736012
56:48.9;0.004566105958829189;-0.1594927091532274;-0.9923492898054718;0.996;0.0007226888987838064
56:48.9;0.004550594598090649;-0.16030148777220066;-0.9944999200495198;0.995;0.0007254549570370554
56:48.9;0.004474036916661899;-0.16079546866350158;-0.9966294291411812;0.996;0.000716980057766102
56:48.9;0.004328496733041273;-0.16089214981769445;-0.9986587272921341;1.002;0.0006954870541830989
56:48.9;0.004108512183251868;-0.16053541531293303;-1.0004645305211537;1.01;0.0006598680962013035
56:48.9;0.003813036712708348;-0.15970604389497298;-1.001892663659121;1.022;0.0006101175745544209
56:48.9;0.003447924751812304;-0.1584276833422386;-1.002779888935937;1.023;0.00054776523601114
56:48.9;0.003026955638393541;-0.1567664802058681;-1.0029791048449155;1.022;0.00047593884143652063
56:48.9;0.002570202067922066;-0.15482403421442545;-1.0023826563357308;1.022;0.00039887718108102117
56:48.9;0.002099999989161467;-0.15272554448125006;-1.0009402675708574;1.023;0.0003210252077948541
56:49.0;0.0016356245657328078;-0.15060634295016415;-0.9986697470459925;1.021;0.00024600774584533495
56:49.0;0.0011879789352766637;-0.14859949136311754;-0.995659194943841;1.01;0.0001757667699087687
56:49.0;0.0007558076026494619;-0.14682580006725543;-0.9920601533855852;1.003;0.00011009095485314525
56:49.0;0.00032496192173342474;-0.14538643660128217;-0.9880729914297675;0.996;4.668156364611886e-05
56:49.0;-0.00012861486164809124;-0.1443574337505024;-0.9839277361316945;0.991;1.8268105499846742e-05
56:49.0;-0.0006329928818539735;-0.14378537522189436;-0.979863902367834;0.9890000000000001;8.918242970736728e-05
56:49.0;-0.001213419138129708;-0.14368436121176612;-0.9761115728896278;0.987;0.00017018442191563772
56:49.0;-0.001886769713356808;-0.1440351117507019;-0.9728743438537385;0.9740000000000001;0.0002643893887245508
56:49.0;-0.0026588129339095708;-0.14478707693273543;-0.9703142582354803;0.9740000000000001;0.00037353387762853154
56:49.0;-0.0035244875012472514;-0.14586391135276228;-0.9685397760141372;0.9740000000000001;0.00049792197184497
56:49.1;-0.004470191182766187;-0.14717199840369422;-0.9675985721089864;0.9740000000000001;0.0006365704924078788
56:49.1;-0.0054765045090203945;-0.14861084935187718;-0.9674762714392914;0.975;0.0007873979650856185
56:49.1;-0.006519956851388531;-0.15008339677000337;-0.9681010375408852;0.978;0.0009473229473761704
56:49.1;-0.007573307838330241;-0.15150409880665328;-0.9693532590149746;0.981;0.0011122235013462667
56:49.1;-0.008604948425263877;-0.15280341022710806;-0.9710791946789163;0.985;0.0012768384960949075
56:49.1;-0.009578723459397647;-0.1539281654311735;-0.9731070525740176;0.988;0.0014347834174843494
56:49.1;-0.010455389633071875;-0.15483875103303976;-0.9752637182701601;0.99;0.001578853918908336
56:49.1;-0.011196203049836661;-0.15550525551961367;-0.9773903393676094;0.995;0.001701703450088209
56:49.1;-0.01176801254178433;-0.1559049803064949;-0.9793552295586821;0.995;0.0017968149732839203
56:49.1;-0.012148142888091929;-0.15602252477107798;-0.9810630275626468;0.996;0.0018594910915400518
56:49.2;-0.012327203240739396;-0.15585228057595096;-0.9824596514358408;1.001;0.0018875238216952035
56:49.2;-0.012309118913269468;-0.1554024492430824;-0.9835329888226674;1.001;0.001881368021136251
56:49.2;-0.012109142351242221;-0.15469926168995574;-0.9843092080873724;0.9990000000000001;0.00184388220723059
56:49.2;-0.01175125812737554;-0.1537896403172215;-0.9848446549378232;0.997;0.001779832691296871
56:49.2;-0.01126617451935991;-0.15274068557498552;-0.9852140741705722;0.995;0.0016953595511180655
56:49.2;-0.010690380449401184;-0.15163542252089696;-0.9854968179138287;0.993;0.0015975301128968494
56:49.2;-0.010065976654906068;-0.15056548545744572;-0.9857630877144624;0.9940000000000001;0.001494011358812392
56:49.2;-0.00944055024653305;-0.14962198405012528;-0.9860621409296582;0.99;0.0013928264393177345
56:49.2;-0.008866290209514573;-0.1488857436174349;-0.9864140767425609;0.99;0.0013021299199064084
56:49.2;-0.00839760681042856;-0.14841802116753663;-0.986806548489562;0.992;0.0012299124454507278
56:49.3;-0.008086741051065716;-0.14825283986314652;-0.9871973189295853;1.0;0.0011835334179968963
56:49.3;-0.00797756633523474;-0.14839209004008014;-0.9875222789815699;1.004;0.001169036519175744
56:49.3;-0.008098946881026088;-0.14880432249285017;-0.9877065807153464;1.0;0.001190342787206911
56:49.3;-0.008459849247370935;-0.14942760508016384;-0.9876756652155805;0.998;0.0012485553892686635
56:49.3;-0.00904810669949237;-0.15017627589473984;-0.987364312063421;0.9990000000000001;0.0013416414566712071
56:49.3;-0.009833360266516652;-0.15095126923775207;-0.9867238418585004;1.003;0.0014646516387269823
56:49.3;-0.01077314325898603;-0.15165339718644685;-0.9857280555175089;1.001;0.001610466502288265
56:49.3;-0.011820203268692155;-0.1521979973711298;-0.9843775758057779;0.9990000000000001;0.0017709063488867633
56:49.3;-0.012929045822783626;-0.1525283740113735;-0.9827017513378743;0.9990000000000001;0.0019379333889593551
56:49.3;-0.014059978292754231;-0.15262539642149703;-0.9807577176916596;0.997;0.002104617559187391
56:49.4;-0.01517953127939064;-0.15251136454049954;-0.9786266308975193;0.9940000000000001;0.002265570588381745
56:49.4;-0.016257037502369554;-0.15224724596139222;-0.9764070803204853;0.99;0.002416694606832957
56:49.4;-0.017258121710411748;-0.15192358829483613;-0.9742057977273173;0.985;0.0025542855515686452
56:49.4;-0.018136666059634682;-0.15164680420605345;-0.9721263292160616;0.978;0.002673704610146355
56:49.4;-0.018827338137150585;-0.15152348562357035;-0.9702571844873358;0.973;0.002767934074332682
56:49.4;-0.019240856454367915;-0.15164540247180291;-0.9686618305572489;0.972;0.00282634930432994
56:49.4;-0.019263840951674282;-0.15207721008926028;-0.967373135330422;0.975;0.00283400781232101
56:49.4;-0.018764589024242374;-0.15284813400389377;-0.9663938768375027;0.977;0.002771745606429634
56:49.4;-0.01760533104764275;-0.15394805524025332;-0.9657029942187726;0.982;0.0026173510797470457
56:49.4;-0.01566003868642693;-0.15532760136589974;-0.9652654292762801;0.982;0.0023479466176262896
56:49.5;-0.012835049398999822;-0.15690151480789266;-0.9650425186887277;0.983;0.001943439964850952
56:49.5;-0.009088734288043698;-0.15855479430994598;-0.965000130476076;0.983;0.0013906253997574402
56:49.5;-0.004446487528478176;-0.1601514086060039;-0.965112796179649;0.98;0.0006872676710260642
56:49.5;0.000991971785125536;-0.1615453820597219;-0.9653634621737563;0.976;0.00015469800913883277
56:49.5;0.0070546185907530996;-0.16259359576914317;-0.9657399187685725;0.975;0.0011077382636488257
56:49.5;0.013508309138296717;-0.16316884121633576;-0.9662302489975094;0.9740000000000001;0.002129702053734132
56:49.5;0.020077841142906182;-0.16317131894356005;-0.9668200344742128;0.982;0.0031674260126741552
56:49.5;0.026471103699301828;-0.16253749485458577;-0.9674928730809013;0.988;0.00416268344377402
56:49.5;0.032407240642423014;-0.16124609520979633;-0.9682333985731382;0.988;0.0050595433316068805
56:49.5;0.037642882541232825;-0.159320895870612;-0.9690301183445011;0.986;0.00581156216744347
56:49.6;0.04199183774853797;-0.15682928674578708;-0.969875643905843;0.98;0.006387164511079282
56:49.6;0.04533665546203536;-0.15387582961133095;-0.970763948542117;0.986;0.0067722584765316386
56:49.6;0.04763264935366684;-0.15059199240713986;-0.9716859403531829;0.985;0.006969996113983733
56:49.6;0.04890469344963074;-0.14712546090948614;-0.9726245784030576;0.978;0.0069981559686452775
56:49.6;0.04923693052189942;-0.1436319192235695;-0.9735503900684391;0.978;0.006884943322911566
56:49.6;0.04875684555816328;-0.14026894902894332;-0.9744190650829434;0.981;0.006664121641874275
56:49.6;0.04761648679084295;-0.13718932508800175;-0.9751734883783677;0.983;0.006370295152016554
56:49.6;0.04597397825047557;-0.13453149529826594;-0.9757513664863363;0.991;0.006034971500551395
56:49.6;0.04397791834760793;-0.1324073556170638;-0.9760971363674543;0.991;0.005683813502030562
56:49.6;0.041756012950332586;-0.13088985203563466;-0.9761748484142687;0.991;0.005335223459337014
56:49.7;0.03940813043268475;-0.1300039160861813;-0.975978321281475;0.99;0.005000143146463494
56:49.7;0.03700360975948337;-0.1297232667665739;-0.975536082595342;0.9890000000000001;0.004682796730947457
56:49.7;0.03458278307996092;-0.12997380565674171;-0.9749102862729577;0.9890000000000001;0.004382081278648755
56:49.7;0.03216254047567956;-0.1306429276660556;-0.9741899660423838;0.98;0.004093359630170746
56:49.7;0.029745070403181927;-0.1315933991533186;-0.973479929103522;0.976;0.0038104486043602954
56:49.7;0.027327960127153997;-0.13268000055387716;-0.9728878645169696;0.978;0.0035275685840513086
56:49.7;0.024913309197723926;-0.13376624093434286;-0.9725131357763542;0.9790000000000001;0.003240958104056797
56:49.7;0.022513855453059135;-0.1347377197857931;-0.9724399032349192;0.986;0.0029498629433141197
56:49.7;0.02015525286292326;-0.13550964419886435;-0.97273477836939;0.986;0.00265676352172203
56:49.7;0.017875086904287824;-0.13602858222109568;-0.9734469107518967;0.983;0.002366958288646003
56:49.8;0.01572009014664521;-0.1362705539653031;-0.9746079899876162;0.983;0.0020877909997288413
56:49.8;0.013742818116061484;-0.13623744663783102;-0.9762312190866513;0.982;0.0018277844833094342
56:49.8;0.011998263332890382;-0.13595238522481776;-0.9783101920111086;0.987;0.0015958122661392257
56:49.8;0.01054013224444918;-0.13545381448300703;-0.9808192213450674;0.986;0.0014003166985426287
56:49.8;0.009416280671487736;-0.13478818046949637;-0.9837161671921537;0.991;0.0012485358435366262
56:49.8;0.008663589896375733;-0.13400172488168569;-0.9869480491695796;1.002;0.0011457835103259942
56:49.8;0.008303734399285669;-0.13313245340452592;-0.9904586777942186;1.004;0.0010949486343777648
56:49.8;0.00834147975602218;-0.13220348607891755;-0.9941961575749325;1.011;0.0010963723838051172
56:49.8;0.008766076602750646;-0.13121880651139656;-0.9981173765920252;1.011;0.0011481085766360962
56:49.8;0.00955498052579385;-0.13016228488995515;-1.0021873394571956;1.0090000000000001;0.0012464184872374518
56:49.9;0.010678586730637428;-0.1290005072100768;-1.0063731403466907;1.0090000000000001;0.0013863223800778671
56:49.9;0.012104861009051268;-0.12768890933985222;-1.0106346631575274;1.013;0.0015620940361905369
56:49.9;0.01380281128206025;-0.1261797454620906;-1.0149154626294783;1.0190000000000001;0.0017676125091836902
56:49.9;0.015743764367546563;-0.12443036913228613;-1.0191368235716254;1.021;0.0019964914953162806
56:49.9;0.017900271311382943;-0.1224106250629799;-1.0231964814291166;1.0270000000000001;0.002242011145069742
56:49.9;0.02024379809642974;-0.12010836427967253;-1.0269723069327445;1.033;0.002497031277732846
56:49.9;0.022742841548932732;-0.11753266681420033;-1.0303305175905595;1.04;0.002754101105107674
56:49.9;0.025362427477672447;-0.1147151696239398;-1.0331370118950134;1.046;0.0030058658207581987
56:49.9;0.02806484056303404;-0.11171005394986729;-1.0352694009446015;1.046;0.0032456988288565866
56:49.9;0.03081072198935213;-0.10859260803193005;-1.0366271427235598;1.045;0.0034683643603629043
56:50.0;0.0335598221664938;-0.10545567474377426;-1.0371382455935418;1.043;0.003670508678753057
56:50.0;0.03627131499462231;-0.10240343547308468;-1.0367626314108684;1.042;0.003850854973490043
56:50.0;0.038903860080645176;-0.09954279648960238;-1.035493365613667;1.041;0.004010050599796274
56:50.0;0.041415617868604315;-0.09697343759604864;-1.0333570298417667;1.04;0.004150183832981032
56:50.0;0.04376457368821969;-0.09477797017797877;-1.0304137680209509;1.038;0.004274071259268702
56:50.0;0.04590947821576863;-0.09301379253334399;-1.0267566277250608;1.036;0.004384471226629964
56:50.0;0.04781130563646483;-0.09170805423428927;-1.0225092362715789;1.033;0.0044833776491653085
56:50.0;0.04943484070144054;-0.09085644282422568;-1.0178207865367968;1.018;0.004571515373143419
56:50.0;0.05074994350041675;-0.09042560943244204;-1.0128580612329856;1.018;0.004648101428668185
56:50.0;0.051732003232843694;-0.0903584953707239;-1.0077955885765246;1.012;0.0047108658763628415
56:50.1;0.052361335736028414;-0.09058170661788614;-1.0028056157507903;1.008;0.004756286128775416
56:50.1;0.05262199801417333;-0.09101412755719031;-0.9980488101307736;1.0;0.0047800003176644975
56:50.1;0.05250110733404352;-0.09157595757755123;-0.9936658328413531;0.997;0.00477738552097151
56:50.1;0.05198960423625835;-0.09219724704306578;-0.9897701201512573;0.993;0.0047442635188792905
56:50.1;0.05108465005360049;-0.09282482674823249;-0.9864425867125872;0.99;0.004677635570111351
56:50.1;0.0497931199413492;-0.09342641030017856;-0.9837288327020682;0.986;0.004576299106282542
56:50.1;0.04813510483613944;-0.09399078426785848;-0.9816391630891413;0.982;0.004441187123135018
56:50.1;0.04614594560792766;-0.09452359068499895;-0.9801517383399707;0.986;0.004275304729429998
56:50.1;0.04387574694197084;-0.09503950562961529;-0.9792190120875678;0.986;0.004083274048147292
56:50.1;0.0413867747273579;-0.09555323387972399;-0.9787767026024661;0.986;0.003870709660727576
56:50.2;0.03875004828699404;-0.09607239318594092;-0.9787535241548414;0.988;0.0036437132849169345
56:50.2;0.03604162716863807;-0.09659441362034496;-0.9790797892215619;0.986;0.003408587805369002
56:50.2;0.03333797793640837;-0.09710788150186837;-0.9796936245289777;0.99;0.003171640948793147
56:50.2;0.030710102785047887;-0.09759736680843073;-0.980544126004204;0.99;0.0029389115310655945
56:50.2;0.02821734970573187;-0.09804985422654439;-0.9815911992465948;0.98;0.0027157752669345224
56:50.2;0.025902598083973775;-0.09846016043621093;-0.9828028565274854;0.981;0.002506514816111392
56:50.2;0.02379028165561898;-0.09883268185001974;-0.9841524562769058;0.9890000000000001;0.0023139956845240747
56:50.2;0.021887667132395663;-0.09917864767512669;-0.9856186704677516;1.002;0.002139570391736435
56:50.2;0.020188663020096233;-0.0995108585019252;-0.9871881051786744;1.002;0.001983252205323668
56:50.2;0.01867915155853079;-0.09983882011723588;-0.9888568547869903;0.9940000000000001;0.001844123551273319
56:50.2;0.017343165037150263;-0.10016589376696998;-0.9906270939308379;0.991;0.0017209110740072692
56:50.3;0.016169048658815972;-0.1004889472501416;-0.9924985054191839;0.992;0.0016126221692666567
56:50.3;0.015154310715063695;-0.10080071438268033;-0.9944579350228909;0.997;0.0015190994796509079
56:50.3;0.014308086531616837;-0.1010944178243766;-0.9964710485480448;0.9990000000000001;0.0014413631638817896
56:50.3;0.013650738907570808;-0.10136897216095958;-0.9984779019536174;0.997;0.0013816551518166383
56:50.3;0.013210460713802984;-0.10163258383365283;-1.0003928934045123;0.998;0.001343140759869843
56:50.3;0.01301704980067361;-0.10190375003084605;-1.0021093808047095;1.012;0.0013292842535317635
56:50.3;0.013093696180417018;-0.1022104928616547;-1.003508844599606;1.011;0.001343009072814994
56:50.3;0.013448567772783238;-0.10258897726608926;-1.0044729943308088;1.011;0.0013858460911226813
56:50.3;0.014068635819229652;-0.10308108142767887;-1.004896298044107;1.013;0.0014573108557970418
56:50.4;0.014917858863227763;-0.10372955161599788;-1.0046972144389945;1.013;0.0015546913877241952
56:50.4;0.015940326198226003;-0.1045709810172766;-1.0038274611781721;1.012;0.001673275526283013
56:50.4;0.017067034604287983;-0.10562897201738644;-1.0022787398189181;1.016;0.001806881371986318
56:50.4;0.018224179021433348;-0.1069096632410621;-1.0000860021016604;1.008;0.001948508403433433
56:50.4;0.01934168202046635;-0.10839999912627954;-0.9973264047639988;1.002;0.002091032751911082
56:50.4;0.02036162533326388;-0.11006799984311716;-0.9941140246603413;1.003;0.0022279719416358635
56:50.4;0.021245948747342494;-0.11186443705565932;-0.9905915545498203;1.0;0.0023543053630142004
56:50.4;0.021981945589243646;-0.11372581870248363;-0.9869202071282281;0.992;0.00246721639156786
56:50.4;0.022583905365894042;-0.1155785316398271;-0.9832683977562299;0.985;0.002566541548075361
56:50.4;0.023089956484925244;-0.11734347871113267;-0.9798000609411108;0.985;0.00265472497483901
56:50.5;0.023554262999464667;-0.11894051012810088;-0.9766642262117217;0.981;0.002736179578449998
56:50.5;0.024035684557682898;-0.12029252019093041;-0.973987227241244;0.981;0.0028161020000946678
56:50.5;0.024584728423468604;-0.12132933814206316;-0.9718678139493383;0.981;0.0028989347698309058
56:50.5;0.025231151802306638;-0.12199127984754597;-0.9703745410537422;0.976;0.002986793915439384
56:50.5;0.02597455221972083;-0.12223204778455486;-0.9695445866182526;0.975;0.003078229124572948
56:50.5;0.02677956333153669;-0.12202062455737508;-0.969383679092103;0.9740000000000001;0.0031676153452071163
56:50.5;0.027576339622546058;-0.12134162580584686;-0.9698676413857217;0.9740000000000001;0.0032453302542460876
56:50.5;0.028266217687191793;-0.12019359036535589;-0.9709463125129256;0.982;0.0032987106635208557
56:50.5;0.028731657996434568;-0.11858548725391388;-0.9725498403031126;0.982;0.0033136306411548867
56:50.5;0.028848894468695457;-0.11653299336953858;-0.974596076613398;0.982;0.003276443898102385
56:50.5;0.028501628942995055;-0.11405651379678058;-0.9769973191365963;0.986;0.00317601940182659
56:50.6;0.027594523617380184;-0.11118204677017535;-0.9796654488912078;0.987;0.0030056288950937727
56:50.6;0.026065356140910493;-0.10794495060249398;-0.9825155235562085;0.99;0.002764428845842134
56:50.6;0.023894264164241064;-0.1043959305822841;-0.985468181732093;0.9940000000000001;0.002458214846309275
56:50.6;0.02110826501513748;-0.10060761673833703;-0.9884509956577201;0.997;0.0020991261677515876
56:50.6;0.017779775499920932;-0.09667932250411014;-0.991398576816255;0.995;0.0017041513480582089
56:50.6;0.014018994950221433;-0.092737796388644;-0.9942513001649943;0.995;0.0012926168680786946
56:50.6;0.009961384124238333;-0.08893288250973307;-0.9969533060084694;1.001;0.0008831955541882083
56:50.6;0.0057528781152516185;-0.08542841552021013;-0.999451133340471;1.001;0.0004911895164633733
56:50.6;0.00153630049959547;-0.08238983109160516;-1.0016939614616014;1.005;0.00012678995275210378
56:50.6;-0.0025583035792474894;-0.07997023162602868;-1.0036354972093808;1.006;0.00020533190937708799
56:50.7;-0.006418761911875821;-0.07829620937841579;-1.0052370096497971;1.01;0.0005051966629252943
56:50.7;-0.009952286797395439;-0.07745466952371256;-1.0064708390265045;1.013;0.0007758391381812493
56:50.7;-0.013084724828181127;-0.07748234331865587;-1.007323471325606;1.013;0.0010212599339539657
56:50.7;-0.015758580572988172;-0.07835969483532393;-1.0077971240223929;1.011;0.001244465746376983
56:50.7;-0.017930659715413272;-0.0800103078640453;-1.0079092326374062;1.0090000000000001;0.0014459844865963398
56:50.7;-0.019570084467076;-0.08230616068479256;-1.0076902275314523;1.011;0.0016231254624496953
56:50.7;-0.020657218459363517;-0.08507838687820898;-1.0071807237284658;1.008;0.0017701028225294555
56:50.7;-0.021183651368765096;-0.08813189023502647;-1.0064292225265075;1.008;0.0018789583078761196
56:50.7;-0.021153006171868178;-0.09126128801563571;-1.0054910653656957;1.012;0.00194105081901489
56:50.7;-0.020582177253139797;-0.09426600797603796;-1.0044288721272228;1.013;0.0019487925814153275
56:50.8;-0.019502681751336983;-0.09696343012130537;-1.0033137150466036;1.014;0.0018973133098037205
56:50.8;-0.017961822086071527;-0.09919964398218103;-1.0022251966729254;1.014;0.0017857712257852067
56:50.8;-0.016023185974691594;-0.10085762669648912;-1.00124827596335;1.01;0.001618077799013223
56:50.8;-0.01376587125205742;-0.10186289470785354;-1.0004654598297105;1.001;0.001402884176342563
56:50.8;-0.01128185815279276;-0.10218690642293252;-0.9999448387661962;0.996;0.0011527945902564385
56:50.8;-0.008671113755652006;-0.10184839857817551;-0.9997269232455976;0.9940000000000001;0.0008828978851569126
56:50.8;-0.0060345215426405195;-0.10091234032361955;-0.9998147801562808;1.002;0.0006088449005526837
56:50.8;-0.0034658632528181592;-0.0994856781905369;-1.0001709976317597;1.002;0.00034486271684801067
56:50.8;-0.0010451998078125923;-0.09770916791805308;-1.000722033387436;1.006;0.00010219934162493772
56:50.8;0.0011641120767401042;-0.09574543723167005;-1.0013679082181925;1.0090000000000001;0.00011161088466254452
56:50.9;0.003113987542640196;-0.09376453153688279;-1.001994346032294;1.011;0.0002925638954591996
56:50.9;0.004766805258490942;-0.09192908846256434;-1.002484670630929;1.008;0.000439296864994243
56:50.9;0.006089623109920975;-0.09038148245796342;-1.0027295174087423;1.006;0.00055189146109043
56:50.9;0.007050100277969912;-0.08923453188231939;-1.0026338486252862;1.006;0.0006307693848527515
56:50.9;0.007615785643957099;-0.08856608832559405;-1.0021221912574105;1.006;0.0006759317627446773
56:50.9;0.007756979313343936;-0.08841678678010734;-1.0011433472580615;1.0070000000000001;0.0006866313475052029
56:50.9;0.007452408680264738;-0.08878985643352656;-0.9996750862947434;1.005;0.0006614833019592966
56:50.9;0.00669626426272916;-0.08965207912374806;-0.9977284555566367;1.005;0.0005989703281231575
56:50.9;0.005504481511080302;-0.09093551044540445;-0.9953509226584685;1.003;0.0004982257270995361
56:50.9;0.003918221162344186;-0.0925402840127257;-0.9926275244245926;0.9990000000000001;0.0003599200889459332
56:51.0;0.002003686417237915;-0.09433930326585674;-0.9896793539144831;0.997;0.00018707550619084305
56:51.0;-0.00015109635083018004;-0.09618545862610658;-0.9866590368349156;0.995;1.4339383957562238e-05
56:51.0;-0.002441118605697114;-0.09792128619792165;-0.9837431256797712;0.991;0.0002351514714648856
56:51.0;-0.004749453122710661;-0.09939015543786833;-0.9811214676682547;0.987;0.0004631372939902264
56:51.0;-0.0069516231574712;-0.10044748182318303;-0.978983847158629;0.9840000000000001;0.0006835980278022597
56:51.0;-0.00891926154396516;-0.10097031814880437;-0.9775047129153283;0.98;0.0008803218549027318
56:51.0;-0.010524082716507243;-0.10086409600067159;-0.9768273816431897;0.976;0.0010369043066333196
56:51.0;-0.011643475159352169;-0.10006630978817072;-0.9770495549462449;0.976;0.0011383795791223184
56:51.0;-0.012168232680481329;-0.09854826363748916;-0.9782120605046652;0.98;0.0011730310158435523
56:51.0;-0.01201196537878038;-0.0963165580119041;-0.9802921625523145;0.98;0.001134150154841318
56:51.1;-0.011121298567208473;-0.09341505142101614;-0.983201853655888;0.983;0.0010214451390987884
56:51.1;-0.009485684517903402;-0.08992655818704631;-0.9867910376324925;0.986;0.0008417475182278269
56:51.1;-0.0071448782767389325;-0.08597285038905565;-0.990855634237033;0.992;0.0006086484822589295
56:51.1;-0.004191276743463023;-0.08171165811687463;-0.9951505600421356;1.003;0.0003408153547003201
56:51.1;-0.000764662402885326;-0.0773296505328791;-0.9994066551841317;1.001;5.90959912731207e-05
56:51.1;0.002961144610030894;-0.0730306155199752;-1.0033496864488305;1.006;0.00021697859732272416
56:51.1;0.006797665693341038;-0.06901883952553017;-1.006719693096337;1.016;0.00047231965587195675
56:51.1;0.010563135940859449;-0.0654796472232685;-1.0092895460537976;1.016;0.000698095719152901
56:51.1;0.014101238532300078;-0.06256119651083665;-1.0108814117648457;1.016;0.0008917898313716727
56:51.1;0.01729396573861486;-0.06036166366049982;-1.0113795890369495;1.018;0.0010557716114116317
56:51.1;0.02006798521075502;-0.05892357800455133;-1.0107389309677732;1.018;0.001195176036117211
56:51.2;0.022395630024623633;-0.05823470412107986;-1.0089888113292735;1.016;0.0013159261217852566
56:51.2;0.024291709505988877;-0.05823405519793761;-1.0062325211777223;1.014;0.001423421306300365
56:51.2;0.02580691706578466;-0.0588215133606753;-1.0026416915681144;1.012;0.0015220120098473672
56:51.2;0.02701857070601184;-0.05986936940513899;-0.9984452669413222;1.005;0.001615069877848245
56:51.2;0.028019628188046528;-0.061234223683680186;-0.993912724560991;0.996;0.0017053158751974455
56:51.2;0.028907169565782254;-0.06276827902191509;-0.9893321079123666;0.983;0.0017950968931959865
56:51.2;0.02977165529269703;-0.06432946233172991;-0.98498519623839;0.983;0.001886438306955264
56:51.2;0.03068801125246871;-0.0657895915678152;-0.9811235428248897;0.9790000000000001;0.00198084107052778
56:51.2;0.03170917276370576;-0.06703961650428064;-0.9779486826212618;0.973;0.0020788947355640675
56:51.2;0.03286251136025452;-0.06799156749644722;-0.9755981452111223;0.97;0.002179850797676311
56:51.3;0.03414936764192625;-0.06857802107730522;-0.9741379576296396;0.97;0.002281329838951084
56:51.3;0.03554733756889591;-0.06875094158967289;-0.9735622577534623;0.973;0.002379301388781166
56:51.3;0.037014205662198436;-0.06848199330333993;-0.9738000929368844;0.977;0.0024683948873558243
56:51.3;0.03849212534355206;-0.06776540013716918;-0.9747281622687353;0.978;0.0025425143482792284
56:51.3;0.039911217534371365;-0.06662263851319546;-0.9761872750326108;0.977;0.002595672806126773
56:51.3;0.04119276347037795;-0.0651068726980869;-0.9780004968315121;0.9840000000000001;0.002622930835654974
56:51.3;0.04225265903658533;-0.06330502076664453;-0.9799917516153259;0.9890000000000001;0.0026212872857775014
56:51.3;0.04300557398017296;-0.06133654252351872;-0.9820037447865619;0.9890000000000001;0.0025903424573214
56:51.3;0.04337000594038488;-0.059349188522949486;-0.983913531025046;0.993;0.00253256849530628
56:51.3;0.04327436818560402;-0.05751211060015861;-0.9856440231201506;0.997;0.0024530710904057556
56:51.4;0.042663911320645974;-0.05600636590932245;-0.9871701947560798;0.9990000000000001;0.0023587944423427622
56:51.4;0.04150759446321438;-0.05501268525174305;-0.9885189606177068;0.992;0.0022572279166326397
56:51.4;0.0398036008892056;-0.05469680517683671;-0.9897623004623822;0.99;0.0021548410023941606
56:51.4;0.03758230638713375;-0.05519380248888116;-0.9910047461638668;0.996;0.002055651447262854
56:51.4;0.03490584697650767;-0.05659378603902827;-0.9923676095625527;0.991;0.0019603765988109
56:51.4;0.03186403967975112;-0.05893084167569269;-0.9939720728402565;0.995;0.0018664555885369292
56:51.4;0.028567615696154108;-0.06217600389103979;-0.995922406484271;0.995;0.0017689774807742415
56:51.4;0.02514084877643182;-0.06623479327917901;-0.9982902279017918;0.998;0.0016623518109159952
56:51.4;0.02171543449957888;-0.0709504746044329;-1.0011005821368417;0.9990000000000001;0.001542416073319081
56:51.4;0.01842607700226985;-0.07611431724459036;-1.004320540741109;0.997;0.0014085477782357445
56:51.5;0.015407119428849746;-0.0814829268748384;-1.0078514965544334;1.0;0.0012652740894813377
56:51.5;0.01278936877771509;-0.08680062762041701;-1.0115273516924423;1.004;0.0011229220408015925
56:51.5;0.010696545122215637;-0.09182315444130258;-1.015121303299035;1.013;0.0009970425154164713
56:51.5;0.009241087198584371;-0.0963384029496428;-1.018362901836874;1.022;0.0009066195519026552
56:51.5;0.008519351493391426;-0.1001807456193739;-1.0209646332145772;1.032;0.0008713677748156595
56:51.5;0.008606574211315512;-0.10323729522077461;-1.022654509922948;1.043;0.0009086484152243077
56:51.5;0.009552155202585367;-0.10544696953682314;-1.0232090362828319;1.043;0.0010306230234089907
56:51.5;0.011375743181688927;-0.10679512755332358;-1.0224802624818823;1.038;0.0012421846292481398
56:51.5;0.014064420701640462;-0.10730689686801384;-1.020412203316333;1.033;0.0015400156296697834
56:51.5;0.017571216626350274;-0.10704114408578251;-1.0170452258888618;1.0270000000000001;0.001912902526687333
56:51.6;0.021815184029022522;-0.10608525262884244;-1.012510122615973;1.0190000000000001;0.0023432211016838093
56:51.6;0.02668329328330656;-0.10454946898799067;-1.0070150190923555;1.011;0.002809294111750422
56:51.6;0.03203440196194014;-0.10255931957977346;-1.0008283472436794;1.005;0.00328814794232092
56:51.6;0.037705447347745044;-0.10024570392602052;-0.9942605601726707;1.001;0.003758115124267566
56:51.6;0.04351963831365795;-0.0977339367924482;-0.9876461354250439;0.9940000000000001;0.0042008003248892554
56:51.6;0.049295916330366334;-0.09513396172325783;-0.9813261151334587;0.9790000000000001;0.004602140604057195
56:51.6;0.05485841597524183;-0.09253370652387793;-0.9756312226163978;0.9790000000000001;0.00495255049553748
56:51.6;0.060044354688377606;-0.08999651910335467;-0.9708666264453724;0.973;0.00524635248752646
56:51.6;0.06470929937708038;-0.08756234886921661;-0.9672998865816036;0.972;0.005480816191817287
56:51.6;0.06872982959566534;-0.08525131034196416;-0.9651525724379757;0.972;0.005655126220380402
56:51.7;0.07200416559755274;-0.08306799636942866;-0.964594665801453;0.9740000000000001;0.005769473902778092
56:51.7;0.07445127652346868;-0.08100551846429936;-0.9657400799476731;0.976;0.005824343901893904
56:51.7;0.07600905941659837;-0.07904926420062057;-0.9686413954897325;0.976;0.005820043291725525
56:51.7;0.07663238858326875;-0.07718112913575821;-0.9732824032179892;0.977;0.0057565510684972334
56:51.7;0.07629177111313143;-0.07538497075451704;-0.9795684971995325;0.975;0.005633746193742953
56:51.7;0.07497297978985862;-0.07365309493851455;-0.9873169670624293;0.985;0.005451956391890529
56:51.7;0.07267765507297154;-0.07199257113030796;-0.996250636683032;0.9940000000000001;0.005212633641513889
56:51.7;0.06942491600818648;-0.07043023566467287;-1.0059981085843124;0.9940000000000001;0.00491894162633833
56:51.7;0.06525436991714526;-0.06901601322408796;-1.0161028178294502;1.011;0.004576117050457766
56:51.8;0.06023072692662544;-0.06782436784213856;-1.0260423641169483;1.03;0.004191496926030324
56:51.8;0.05444938442926849;-0.06695335341725189;-1.0352582192434063;1.043;0.00377410514584892
56:51.8;0.04804151741979626;-0.06652094884065876;-1.0431930154750004;1.054;0.003333802149925554
56:51.8;0.04117668763062011;-0.0666591891740174;-1.0493302806158247;1.062;0.002880206591992063
56:51.8;0.03406095589293063;-0.06750694293477462;-1.0532315608436913;1.065;0.0024217490487324824
56:51.8;0.026929313948860195;-0.0692013919589205;-1.0545674343473161;1.065;0.001965234934300676
56:51.8;0.02003291642502269;-0.07186711528157763;-1.0531406652369686;1.06;0.0015162149504478197
56:51.8;0.013623681716562183;-0.07560157269380069;-1.048901342194044;1.06;0.0010803387653164228
56:51.8;0.007940246977457776;-0.0804572602955291;-1.041954652419237;1.06;0.0006656532693014502
56:51.8;0.0031982695859483845;-0.08642295446609907;-1.0325611232964063;1.05;0.0002854039284855434
56:51.9;-0.0004151278141433034;-0.0934079324324723;-1.0211274174427858;1.037;3.959547242960992e-05
56:51.9;-0.002745396413247198;-0.1012332744552451;-1.0081851838496534;1.022;0.000280200339647615
56:51.9;-0.003675508521776774;-0.10963341035597335;-0.9943569718382816;1.0;0.0004006846276792668
56:51.9;-0.0031326007566685236;-0.11826929120275292;-0.9803108867568038;0.977;0.0003631958422711367
56:51.9;-0.0010956753532367419;-0.1267524478668488;-0.966708550232429;0.96;0.00013425603209051744
56:51.9;0.0023971381733695184;-0.1346773888961262;-0.9541532547613877;0.943;0.0003080391325667323
56:51.9;0.007243681693528316;-0.14165855590379228;-0.943145940387598;0.934;0.0009677898610436597
56:51.9;0.013276955654106082;-0.14736690958019966;-0.934055463985893;0.934;0.001827557904379084
56:51.9;0.020269383442855345;-0.15156035476224694;-0.9271069364484879;0.934;0.0028481049069028477
56:51.9;0.027942519390428883;-0.15410317971115986;-0.9223880503750632;0.9359999999999999;0.0039718316193822
56:52.0;0.03598207920791379;-0.15497269333617866;-0.9198695004689453;0.941;0.0051294128518818444
56:52.0;0.04405709831174208;-0.1542542592744837;-0.9194333675627202;0.941;0.0062484646293441
56:52.0;0.05184063262451536;-0.15212740406787567;-0.9209031347637071;0.943;0.007262592861811914
56:52.0;0.05902884290585193;-0.14884570805355546;-0.9240704184721615;0.946;0.008119058194213088
56:52.0;0.0653560210465211;-0.14471271109976577;-0.9287156979997445;0.946;0.008783650971061574
56:52.0;0.0706046860069056;-0.14005586590073985;-0.9346223225323586;0.9470000000000001;0.009242106705478518
56:52.0;0.07461143472694415;-0.13520045259229874;-0.941584479574649;0.963;0.009498233196328068
56:52.0;0.07726991464078913;-0.1304451894967303;-0.9494102771898678;0.963;0.009569570120452295
56:52.0;0.07853192981033538;-0.1260414230360571;-0.9579203849255568;0.972;0.009481760535210309
56:52.0;0.07840712806723917;-0.12217773343497264;-0.9669420811013623;0.978;0.00926292338086955
56:52.0;0.0769615032049452;-0.11897103825869282;-0.9762992616928596;0.981;0.008939181480530497
56:52.1;0.07431462088232524;-0.1164646216597912;-0.9858002773328874;0.986;0.0085321252614648
56:52.1;0.07063489174773784;-0.11463317319524984;-0.9952265313715836;0.995;0.00805845051802135
56:52.1;0.06613199452541882;-0.11339404546896739;-1.0043253202590234;1.001;0.007531409860037841
56:52.1;0.061045984824036295;-0.11262274956223686;-1.0128100496285188;1.012;0.006963237886744401
56:52.1;0.05563349113374592;-0.11217032039590094;-1.0203697386464605;1.025;0.0063675423825758585
56:52.1;0.050152326774723185;-0.11188083018627845;-1.0266878233636094;1.04;0.005760831572807769
56:52.1;0.04484648523342138;-0.11160814538761686;-1.0314678488263014;1.04;0.005162736960826046
56:52.1;0.0399335836693351;-0.11123121296334189;-1.034461897083037;1.047;0.0045949359044125315
56:52.1;0.035596076960058516;-0.11066679685675941;-1.0354978434691078;1.05;0.004079140608139184
56:52.1;0.03197622280953821;-0.1098782105871307;-1.0345029208558243;1.051;0.003634715816001438
56:52.2;0.02917379188201766;-0.10887851447001676;-1.0315217549617866;1.051;0.0032765247963425287
56:52.2;0.027245294790330474;-0.10772705907397614;-1.0267268188812442;1.047;0.0030135001776226927
56:52.2;0.02620374890586365;-0.10651942410225558;-1.0204190271601632;1.041;0.002848201999691553
56:52.2;0.026018595921696974;-0.10537243785437002;-1.0130163933753489;1.03;0.0027773291840614343
56:52.2;0.026616167985619787;-0.10440708273878878;-1.0050294477667403;1.021;0.0027928928682129273
56:52.2;0.027881710833323036;-0.10373217753963175;-0.9970236212662503;0.992;0.002883622204684673
56:52.2;0.029664015899860487;-0.10343116025590739;-0.9895714261881645;0.98;0.003036186803415224
56:52.2;0.031783021211931196;-0.10355345988217723;-0.9832006123983823;0.98;0.0032359509651135976
56:52.2;0.03403984160864691;-0.10411103660920552;-0.978345978797754;0.97;0.0034671830078664757
56:52.2;0.0362284949341469;-0.10507983890426345;-0.9753104886874424;0.965;0.0037128942956826264
56:52.3;0.038149027585341444;-0.10640511060929891;-0.9742384464454568;0.9620000000000001;0.003954678874950566
56:52.3;0.03962178220558032;-0.10800893144114423;-0.9751026381463168;0.965;0.004172957939472729
56:52.3;0.04050185477417594;-0.10979860904341457;-0.9777074173264387;0.971;0.004347911147895755
56:52.3;0.040692027703993876;-0.11167529394449682;-0.9817086849719772;0.982;0.004461173039071264
56:52.3;0.040152118134395905;-0.1135426484867568;-0.9866495348716499;0.997;0.00449811336072092
56:52.3;0.03890279607265995;-0.11531537869023525;-0.9920077064148461;1.016;0.00445023650761363
56:52.3;0.037022771887005736;-0.11692714892468091;-0.9972483995660939;1.016;0.004317055574114985
56:52.3;0.034639754190982315;-0.11833686135226558;-1.0018747290086254;1.023;0.0041068446027422165
56:52.3;0.03191675222400122;-0.1195319479759141;-1.005469563818117;1.024;0.00383593834380256
56:52.3;0.029035658831565975;-0.1205278578772745;-1.007725864646256;1.023;0.003526643241448943
56:52.4;0.02618016807619713;-0.12136389138561507;-1.0084654462206917;1.026;0.0032042245663344827
56:52.4;0.023520052138512312;-0.1220960312142373;-1.007647247421795;1.025;0.0028936656588751304
56:52.4;0.021198300980034397;-0.12278756838519157;-1.0053660079629998;1.022;0.0026168549480650536
56:52.4;0.019321949499663253;-0.12349867662236035;-1.0018415307931698;1.016;0.0023906295185600938
56:52.4;0.01795701061738984;-0.12427655757391223;-0.9973985310723807;1.0090000000000001;0.0022258299335304295
56:52.4;0.01712753772480518;-0.12514797274455786;-0.9924378974960821;0.997;0.002127267434417103
56:52.4;0.01681815459423248;-0.12611556218215472;-0.9874014919941871;0.997;0.0020943091952128454
56:52.4;0.01697878713575949;-0.12715821867757227;-0.9827334946053723;0.9840000000000001;0.00212171407481931
56:52.4;0.0175303693359134;-0.12823474239580632;-0.9788413602627879;0.975;0.0022004377230710817
56:52.4;0.01837095292838242;-0.12928995435998222;-0.9760594740741283;0.97;0.002318316615295609
56:52.5;0.019382403265453704;-0.13026295031087748;-0.9746191417972097;0.971;0.0024607272134054784
56:52.5;0.02043814689977763;-0.13109721628075602;-0.9746285399605047;0.972;0.0026114042762379937
56:52.5;0.021412005919928076;-0.13175170182124346;-0.9760648644713891;0.976;0.0027535455691912953
56:52.5;0.022187325985366626;-0.1322111726683162;-0.9787790552742771;0.983;0.0028711626047793802
56:52.5;0.022665018658169542;-0.13249381503674376;-0.9825119219787201;0.9940000000000001;0.002950458532478156
56:52.5;0.02276925234570966;-0.13265432737242847;-0.9869190019851138;1.002;0.0029809294869498786
56:52.5;0.022450238266672688;-0.13278151001332997;-0.9916001818709947;1.002;0.0029559368764484656
56:52.5;0.021684237192106187;-0.132990474088389;-0.9961301942482477;1.001;0.0028726372502660713
56:52.5;0.020471138700107906;-0.13341066060431564;-1.0000881780326574;1.008;0.0027313089575193676
56:52.5;0.018830014147601354;-0.13417147759370493;-1.0030869262773652;1.013;0.002534249788722765
56:52.6;0.016793399798314002;-0.13538732994023223;-1.0048029119408142;1.02;0.0022845335250253865
56:52.6;0.014401813102706445;-0.13714325622882892;-1.0050064456956915;1.03;0.0019849998331946694
56:52.6;0.01170049853524608;-0.13948218312713154;-1.0035887414544937;1.035;0.001637867945186663
56:52.6;0.008739564272485732;-0.14239571918394106;-1.0005804294701817;1.0290000000000001;0.0012451988707936105
56:52.6;0.005576422218591221;-0.14582127164192307;-0.9961555028292973;1.024;0.0008100347840436651
56:52.6;0.0022775564445672043;-0.14964722677259173;-0.99061704728754;0.997;0.00033763201392060966
56:52.6;-0.001082838254657737;-0.1537252390381089;-0.9843658855160154;0.997;0.00016385712156977505
56:52.6;-0.004427288742079174;-0.15788644063609775;-0.9778578658357201;0.985;0.0006835313131694295
56:52.6;-0.007680646485775481;-0.16195811318990302;-0.9715570613608332;0.975;0.0012085616181278988
56:52.6;-0.010775131104186859;-0.16577851815248518;-0.9658906770079274;0.9690000000000001;0.001725356286210798
56:52.7;-0.013654033056770844;-0.16920875253268283;-0.9612097091695904;0.965;0.002220761514723543
56:52.7;-0.016273917709115553;-0.1721412978914143;-0.957758448741357;0.96;0.0026830772720312502
56:52.7;-0.018605431038084742;-0.17450551426070404;-0.955655019173535;0.955;0.003102773231038216
56:52.7;-0.020632583441340835;-0.17627033851392418;-0.9548845425568375;0.956;0.0034728314979644314
56:52.7;-0.0223499000092925;-0.1774439081565089;-0.9553064288243717;0.963;0.0037886054442087076
56:52.7;-0.023757033367956076;-0.17806968137400297;-0.9566763209201586;0.977;0.004047130551285526
56:52.7;-0.02485172960610321;-0.1782193894730936;-0.9586804732862853;0.977;0.0042460534115508755
56:52.7;-0.025623417478251694;-0.17798413371791644;-0.9609773807568069;0.983;0.004382596697555931
56:52.7;-0.026049865739109865;-0.17746514814158174;-0.9632407397557854;0.99;0.004453007307245276
56:52.7;-0.026098242762364093;-0.1767650625366784;-0.9651991225381193;0.995;0.004452712104542352
56:52.8;-0.02573059949711915;-0.1759795977121785;-0.9666688096316205;1.0;0.004377134900258067
56:52.8;-0.024913030370686196;-0.1751893237974535;-0.967576310961461;1.001;0.004222983852651514
56:52.8;-0.023627144794538077;-0.1744517608575412;-0.9679673518967236;0.9940000000000001;0.003989764940158492
56:52.8;-0.021881512592879494;-0.17379528210235226;-0.968000487322923;0.99;0.0036812125902228082
56:52.8;-0.01971987762088369;-0.1732170157343281;-0.9679259941111612;0.986;0.0033062593741940323
56:52.8;-0.017223143530868748;-0.17268638931073732;-0.9680532053168643;0.978;0.0028791862333054437
56:52.8;-0.014504127722575012;-0.1721541570212559;-0.9687109547966147;0.978;0.002418818828854731
56:52.8;-0.011697048496813807;-0.171564851841821;-0.9702062565856874;0.978;0.001947012236781776
56:52.8;-0.008945084197154328;-0.17086991298434967;-0.9727858985815181;0.976;0.001486850480523547
56:52.8;-0.006388076712338657;-0.17003915908495526;-0.9766046346232715;0.9740000000000001;0.001060810603870868
56:52.9;-0.004150790920272806;-0.1690686668488261;-0.9817031348191697;0.981;0.0006889285201998341
56:52.9;-0.0023318476157957123;-0.1679832581867349;-0.9879988555082614;0.9890000000000001;0.0003870103754647618
56:52.9;-0.0009938225738856843;-0.16683264350395993;-0.9952920901215383;1.002;0.00016502146607949266
56:52.9;-0.00015546569732354844;-0.16568220042729703;-1.0032870180499796;1.018;2.584256550189214e-05
56:52.9;0.00021226275094782913;-0.16460140015388067;-1.0116245246742537;1.032;3.534489232156749e-05
56:52.9;0.00018422000433564328;-0.1636536442565189;-1.019921029927181;1.05;3.074885974409291e-05
56:52.9;-0.0001280739883348708;-0.16289023642308598;-1.0278062357961095;1.05;2.144209599296557e-05
56:52.9;-0.0005921896032164812;-0.1623491489952896;-1.0349533620589753;1.055;9.950194601987896e-05
56:52.9;-0.0010750965730543822;-0.16205758647320773;-1.0410983272406358;1.062;0.00018138801695966695
56:52.9;-0.0014652801931350071;-0.16203684620793155;-1.0460477831953907;1.064;0.0002483624779811649
56:53.0;-0.001693279843474253;-0.1623080039605347;-1.0496777688080372;1.063;0.0002884859553941711
56:53.0;-0.0017467632228397847;-0.16289680512851462;-1.0519252241748234;1.063;0.00029931706315511325
56:53.0;-0.0016767709356911662;-0.1638361631597529;-1.052775044417881;1.064;0.0002892138507473599
56:53.0;-0.0015934908342079513;-0.16516528039872672;-1.0522455957696806;1.06;0.0002769398453814348
56:53.0;-0.001652096044399345;-0.16692530063399033;-1.0503751714117024;1.057;0.00028966892383914053
56:53.0;-0.002031056299110345;-0.16915215556028038;-1.0472112831279992;1.055;0.00035977734387259943
56:53.0;-0.002906551200440302;-0.17186778838321562;-1.0428042225673702;1.055;0.0005209250561345167
56:53.0;-0.004426947949027752;-0.17507124259972223;-1.037205452468947;1.047;0.000803866667749572
56:53.0;-0.006690696622741214;-0.17873121771783795;-1.0304703369877066;1.04;0.0012322738914749473
56:53.0;-0.009729914472898957;-0.18278175998545093;-1.0226644604959634;1.038;0.0018187585218470536
56:53.1;-0.013501140535228206;-0.18712278463945867;-1.013872988842588;1.037;0.002561419329632838
56:53.1;-0.01788459151283732;-0.19162644124770228;-1.0042118135237343;1.031;0.003441595186241308
56:53.1;-0.022693267321163228;-0.19614838296621728;-0.9938378052758517;1.018;0.004423818234239594
56:53.1;-0.02769235964966842;-0.200541016457024;-0.982955209755336;1.01;0.005458796494488685
56:53.1;-0.03262712913017071;-0.20466577196195931;-0.9718165481225459;0.998;0.006489457157724888
56:53.1;-0.03725490700574908;-0.20840316956935448;-0.9607179890326466;0.982;0.007459053570002336
56:53.1;-0.04137576077442971;-0.2116608963362977;-0.9499901325744724;0.982;0.008319662666238556
56:53.1;-0.044856954428778226;-0.21438031017768533;-0.9399852359198144;0.977;0.009039318957817226
56:53.1;-0.04764791774852899;-0.21654138379005664;-0.9310607292561267;0.96;0.009606448155988713
56:53.1;-0.049784075649797525;-0.21816535831783263;-0.9235579031875187;0.943;0.010030910804731497
56:53.2;-0.05137910212380959;-0.2193135614830577;-0.9177764399057338;0.9390000000000001;0.010341627789952556
56:53.2;-0.05260654956320088;-0.22008119537400542;-0.9139486543347928;0.934;0.01058143458816694
56:53.2;-0.05367369423111646;-0.22058670645943365;-0.9122179584864434;0.9329999999999999;0.010800390095605251
56:53.2;-0.054791798596946044;-0.22095902570022183;-0.9126239150705413;0.932;0.011048902679181658
56:53.2;-0.056147181499034686;-0.2213251834358225;-0.9150943812006129;0.9309999999999999;0.01137168135379177
56:53.2;-0.05787713887377346;-0.22179972601820247;-0.9194451059154457;0.94;0.011803039611860066
56:53.2;-0.06005406512192711;-0.2224760415229418;-0.9253876420868442;0.94;0.01236372551151563
56:53.2;-0.0626796559646486;-0.22341921295325692;-0.932546257221533;0.9620000000000001;0.013059228022747636
56:53.2;-0.06568911579339094;-0.22466033212263095;-0.9404832243927481;0.978;0.01387940555598536
56:53.2;-0.068963245540776;-0.22619245323244871;-0.9487295347904094;0.9840000000000001;0.014799199463935908
56:53.3;-0.07234421304858771;-0.2279687198312179;-0.9568160514364874;0.986;0.015780018557797183
56:53.3;-0.0756498133754477;-0.2299043397051496;-0.9643007443048416;0.993;0.01677133106998741
56:53.3;-0.07868262195654052;-0.23188458353916042;-0.9707908161138998;1.005;0.017712357080418184
56:53.3;-0.08123417868163013;-0.23377880272320958;-0.9759610540833598;1.012;0.01853430952037287
56:53.3;-0.0830878042687013;-0.23545695448468418;-0.9795696608753741;1.014;0.019163910337890794
56:53.3;-0.08402456584368866;-0.23680384575684799;-0.9814714059781872;1.026;0.01952867058874961
56:53.3;-0.08383493286596529;-0.23772846197007302;-0.9816266680266039;1.026;0.019563770068465262
56:53.3;-0.0823356381763751;-0.23816921719640718;-0.9801037647038441;1.026;0.01921965300859038
56:53.3;-0.07938934618229083;-0.23809769717165805;-0.9770714577520652;1.015;0.018469015558807717
56:53.3;-0.07492422826814243;-0.2375222096339086;-0.9727801353779066;1.003;0.01731175896271597
56:53.4;-0.06895036216529851;-0.23648994043226493;-0.9675337307352397;0.9890000000000001;0.015776669878043936
56:53.4;-0.06156956415586842;-0.23508543976073382;-0.9616579429760579;0.975;0.013919140988642512
56:53.4;-0.05297533635745382;-0.23342407166417387;-0.9554720788379156;0.9740000000000001;0.011815098962489662
56:53.4;-0.04344058574798204;-0.23164063069041343;-0.9492709323290368;0.975;0.009552138126454335
56:53.4;-0.03329289028534053;-0.22987493342905654;-0.9433192766166395;0.971;0.007219411972639284
56:53.4;-0.022880307932859233;-0.22825746279808157;-0.9378565084257139;0.968;0.004898050373267447
56:53.4;-0.012534060331592859;-0.226897865557667;-0.9331060916596391;0.968;0.002653708502635199
56:53.4;-0.0025355707979668133;-0.22587742578530678;-0.9292846175561286;0.965;0.0005322275107064783
56:53.4;0.006906837592708376;-0.22524542992790958;-0.9266064908686491;0.965;0.001441552854613247
56:53.4;0.01566927794173084;-0.22501935781951038;-0.9252811230985197;0.963;0.0032624402548115062
56:53.5;0.023710849220050078;-0.2251892479100098;-0.9255005597669279;0.9490000000000001;0.004941643883419879
56:53.5;0.031060226137249104;-0.22572635421353454;-0.9274177233200419;0.945;0.006502229164515169
56:53.5;0.03779432531631422;-0.2265949292662015;-0.9311190467151965;0.9490000000000001;0.007974105817528955
56:53.5;0.044015532509115246;-0.227764491002473;-0.9365980972670175;0.9520000000000001;0.009389560165203462
56:53.5;0.04983343881828532;-0.22921946057708031;-0.9437365294613382;0.963;0.010780107932930228
56:53.5;0.05535393816828876;-0.23096361755208777;-0.9522960978009313;0.9740000000000001;0.012174863541575993
56:53.5;0.06067456972184747;-0.23301811202885866;-0.961922896023444;0.9740000000000001;0.013599929167605085
56:53.5;0.06588240133629084;-0.23541385896652198;-0.9721637670406371;0.995;0.015077900653395357
56:53.5;0.07105128050369125;-0.23818094390456246;-0.9824946945066547;1.008;0.016626817702329256
56:53.5;0.07623803706769791;-0.2413375003055167;-0.9923604293876145;1.026;0.018258536091134977
56:53.6;0.08147944999624032;-0.24487892105970646;-1.0012224900732962;1.056;0.01997699165881401
56:53.6;0.08679175417062428;-0.248767827769138;-1.0086092389065704;1.073;0.02177687819741382
56:53.6;0.09217252477926698;-0.25292665551915433;-1.0141583448458584;1.064;0.02364296033682473
56:53.6;0.09760287528632712;-0.2572354384346486;-1.0176420506175485;1.058;0.02554985594231984
56:53.6;0.10304808877979096;-0.2615357612041236;-1.018971655538953;1.0590000000000002;0.027462060881329502
56:53.6;0.10845681641485444;-0.26563993655764634;-1.0181853068496236;1.057;0.029334388920574817
56:53.6;0.11376034054756537;-0.2693442131710072;-1.0154262437151156;1.057;0.031113360157362456
56:53.6;0.11887296056163457;-0.27244518316264826;-1.0109168243991336;1.056;0.03273992177853566
56:53.6;0.12369365711691518;-0.27475815917428176;-1.0049309293158362;1.047;0.034153423313306876
56:53.6;0.12810869275894796;-0.2761352403903481;-0.9977664095589577;1.02;0.03529631068405124
56:53.6;0.13199428679594077;-0.276480475595456;-0.9897209625477448;1.018;0.03611872160830596
56:53.7;0.1352185450882778;-0.2757615409613023;-0.9810769585953448;1.036;0.036582470585072996
56:53.7;0.13764387046597604;-0.2740195375253311;-0.972098542661356;1.031;0.03666474740026268
56:53.7;0.1391340746676787;-0.2713762084110652;-0.963037768934629;1.0170000000000001;0.03636206963852378
56:53.7;0.13957016733033875;-0.268033098676015;-0.9541424518428466;1.01;0.03569391994984591
56:53.7;0.13887373077007154;-0.26425762739113684;-0.9456603909780124;0.9940000000000001;0.03470426357764093
56:53.7;0.13703147037776034;-0.2603572612007563;-0.9378383921904182;0.9940000000000001;0.03345939004548555
56:53.7;0.13411338591770922;-0.2566476234826095;-0.9309159361805353;0.9890000000000001;0.03204201646392273
56:53.7;0.1302791175617936;-0.2534199340254742;-0.9251127671346512;0.968;0.030542899017743614
56:53.7;0.12576983872742847;-0.2509110017845682;-0.9206095921673753;0.948;0.029051710253143057
56:53.7;0.12088583476617497;-0.24927850493791542;-0.9175236798327214;0.94;0.02764887891935869
56:53.8;0.11595240246858617;-0.2485852759003964;-0.9158850246637277;0.9420000000000001;0.026399524866427528
56:53.8;0.11127863912529001;-0.24879656643154846;-0.9156197102157184;0.9390000000000001;0.0253496122863383
56:53.8;0.10711552319848669;-0.24979216357322437;-0.9165445394159775;0.9309999999999999;0.024523632388795825
56:53.8;0.10362180482734658;-0.2513915269490075;-0.9183749451958377;0.93;0.023923340142790364
56:53.8;0.10084709142219817;-0.2533872913026083;-0.9207484439271966;0.9690000000000001;0.02352822689031216
56:53.8;0.09873847410995146;-0.2555814425719721;-0.9232647179431106;0.9690000000000001;0.0232992514316259
56:53.8;0.09717001404986242;-0.25781827665924684;-0.9255381315665775;0.998;0.02318677153052063
56:53.8;0.09598691495745178;-0.26000867281403567;-0.9272525981985674;1.008;0.023141842150863113
56:53.8;0.0950515243769697;-0.2621415968019584;-0.9282065196693461;0.995;0.023128083217382564
56:53.8;0.09427780434478529;-0.26428092398744246;-0.9283378029667222;0.986;0.02313030246588305
56:53.9;0.09364527460877388;-0.26654852347531194;-0.9277249659077124;0.976;0.023156951851996156
56:53.9;0.09319096299556215;-0.269097303162414;-0.9265673324841456;0.965;0.02323593374097203
56:53.9;0.09298475242401949;-0.2720792269711762;-0.9251514838361726;0.956;0.023405610515491986
56:53.9;0.09309765951873372;-0.27561335719648544;-0.9238118729252923;0.951;0.02370405049727421
56:53.9;0.09357366742858551;-0.2797588004662866;-0.9228924730466368;0.963;0.02415953172280394
56:53.9;0.0944131145339292;-0.2844966496681377;-0.9227140063233739;0.963;0.02478429638079803
56:53.9;0.09557032490029614;-0.2897230025587521;-0.9235480211279475;0.965;0.02557204864522002
56:53.9;0.09696345117885509;-0.2952530304888967;-0.9255967487781098;0.97;0.026498680519934228
56:53.9;0.09849216739814903;-0.30083493353437807;-0.9289777034606339;0.975;0.027525502180055464
56:53.9;0.10005807074240775;-0.3061718842330415;-0.9337132763739544;0.98;0.028604276391375187
56:54.0;0.10158287627502013;-0.31094916730081923;-0.93972634443119;0.9940000000000001;0.029683240153585047
56:54.0;0.10302082635827298;-0.3148630473758558;-0.9468426102744171;1.0070000000000001;0.030713161088272958
56:54.0;0.10436363524375526;-0.31764787292609886;-0.9547991116506663;1.011;0.031652437215526116
56:54.0;0.10563813380911673;-0.31909850361209263;-0.9632571726831594;1.015;0.03247040754358741
56:54.0;0.10689826573882111;-0.3190861194805194;-0.9718185495088817;1.032;0.03314849048417509
56:54.0;0.1082137420346946;-0.3175667737746057;-0.9800448516358088;1.032;0.03367932848776819
56:54.0;0.10965739062887181;-0.31458325387586106;-0.9874805773728451;1.038;0.0340645040108195
56:54.0;0.11129279303913854;-0.31026113631232616;-0.9936798290321169;1.045;0.034311594012515684
56:54.0;0.1131638741251457;-0.30479961627133045;-0.9982368648174473;1.055;0.03443149081192738
56:54.0;0.11528836015431367;-0.2984578689255028;-1.0008197114992254;1.062;0.03443692350562296
56:54.1;0.11765644221317152;-0.2915383914783811;-1.0012035492592792;1.068;0.034342653298244444
56:54.1;0.12023437002910171;-0.28436908931677884;-0.9992982821693652;1.0659999999999998;0.03416694591869418
56:54.1;0.12297113771385165;-0.27728562859684563;-0.995164119338118;1.0590000000000002;0.03393323473655204
56:54.1;0.1258058463918203;-0.27061506055697204;-0.9890104691481738;1.041;0.03367081863730307
56:54.1;0.12867360667359667;-0.2646609714042066;-0.9811771353042492;1.011;0.033413871305164405
56:54.1;0.13150864388311928;-0.25968990801461883;-0.9721021281492136;1.003;0.03319871436558904
56:54.1;0.13424451674967083;-0.2559191503740067;-0.9622846330995681;1.003;0.03306000322904879
56:54.1;0.13681271850526525;-0.25350632938390094;-0.9522511753517542;0.99;0.033026822844516183
56:54.1;0.1391418110641958;-0.25254097143989507;-0.9425281658267283;0.983;0.0331195048855645
56:54.1;0.1411591886680482;-0.25303765620728647;-0.9336195752960933;0.982;0.03334757506188701
56:54.2;0.14279641749958968;-0.25493136844701625;-0.9259869402709687;0.975;0.033708967532384115
56:54.2;0.1439973562791225;-0.25807699920813976;-0.9200287435224038;0.966;0.03419048133266562
56:54.2;0.14472705178858006;-0.26225516955433087;-0.916056939513298;0.955;0.03476932359841565
56:54.2;0.14497940752811053;-0.2671855655724986;-0.9142709618884938;0.948;0.03541557025649366
56:54.2;0.1447824616456794;-0.27254759444105975;-0.9147330228601986;0.953;0.03609546720174663
56:54.2;0.14420098163767392;-0.2780063913526464;-0.9173505625054003;0.953;0.03677547821647777
56:54.2;0.14333649465602466;-0.2832403486096789;-0.9218712859494504;0.9620000000000001;0.03742675615471824
56:54.2;0.1423247771750566;-0.28796599024380753;-0.9278940888813116;0.976;0.038029456592033994
56:54.2;0.1413304192802;-0.29195746466065126;-0.9348963851436334;0.9890000000000001;0.03857613487946834
56:54.2;0.14053761308656848;-0.2950594018782304;-0.94227550635058;1.003;0.039073285709738795
56:54.3;0.14013632923978586;-0.2971926736787711;-0.9493995303243159;1.013;0.039540107792952174
56:54.3;0.14030413465595046;-0.2983534365840322;-0.9556616631227342;1.024;0.040004208172556004
56:54.3;0.1411857851976028;-0.29860663712150715;-0.9605321850629192;1.028;0.04049508842286142
56:54.3;0.14287424934550816;-0.29807529386370624;-0.9636027896785377;1.028;0.04103722553157498
56:54.3;0.1453969746419748;-0.29692657095039954;-0.964619777604569;1.034;0.04164478218141237
56:54.3;0.1487097920643079;-0.29535557358292197;-0.9635042980569517;1.034;0.042319292006413045
56:54.3;0.15269881045952693;-0.2935679361758861;-0.960358542081708;1.0290000000000001;0.04305044819346775
56:54.3;0.15718937528158394;-0.29176227092146123;-0.955456772688999;1.02;0.04381909076419737
56:54.3;0.16196066550800975;-0.29011355206981526;-0.9492208352084166;1.012;0.04460102416424482
56:54.3;0.16676378319508406;-0.288758808158068;-0.9421815929860596;1.0;0.04537029414663648
56:54.4;0.17134052591791926;-0.2877868060316287;-0.934929525772247;0.983;0.04610094737040467
56:54.4;0.1754405158294948;-0.2872334305674685;-0.9280591602248921;0.973;0.04676711099883729
56:54.4;0.17883566256205846;-0.2870840782879063;-0.9221133655171001;0.963;0.04734210367063715
56:54.4;0.18133180316425118;-0.28728331023323683;-0.9175344085280325;0.9570000000000001;0.04779767107296056
56:54.4;0.1827776389033972;-0.28775034330265253;-0.9146282215589566;0.961;0.04810425699598934
56:54.4;0.18307139637718395;-0.2883974116958815;-0.9135462912173855;0.972;0.04823279301348506
56:54.4;0.18216577446483428;-0.2891471007026598;-0.9142861379753612;0.972;0.04815792451917619
56:54.4;0.180071156717494;-0.28994476758632887;-0.916707754518404;0.9790000000000001;0.04786194410157742
56:54.4;0.17685621412749847;-0.2907634739465884;-0.9205614222318966;0.988;0.04733833123118599
56:54.4;0.1726448649937504;-0.29160108883550107;-0.9255220272663437;0.9940000000000001;0.04659395396144483
56:54.5;0.16760937409761867;-0.29247138946945267;-0.931224909931604;0.996;0.045649526517567075
56:54.5;0.1619603980134144;-0.29339225663308477;-0.9372985819114136;0.9990000000000001;0.04453848527224035
56:54.5;0.1559350125001592;-0.2943740924789737;-0.9433914281987956;1.004;0.043304711624150095
56:54.5;0.1497832539184976;-0.2954106774202404;-0.9491919749951375;1.006;0.04199944073596816
56:54.5;0.14375354855154765;-0.2964734184294576;-0.9544436720283787;1.0170000000000001;0.04067753598190671
56:54.5;0.13807813806712058;-0.297508933016964;-0.95895490234127;1.0170000000000001;0.039393368280267425
56:54.5;0.13296034870954834;-0.29843973114569894;-0.9626039676104772;1.0190000000000001;0.03819675182228187
56:54.5;0.12856504754050646;-0.29916816022756326;-0.9653384802270012;1.02;0.03712939765528227
56:54.5;0.12501219762301524;-0.29958379633492427;-0.9671694284525946;1.022;0.03622207037476285
56:54.5;0.12237264859952385;-0.2995737918152676;-0.9681611452674956;1.022;0.035492437455291764
56:54.6;0.12066572709382509;-0.2990349076118567;-0.96841851352861;1.025;0.03494370142208209
56:54.6;0.11985891092505724;-0.2978855463345361;-0.9680721196417462;1.024;0.03456427655151913
56:54.6;0.11987010796727049;-0.29607615296038325;-0.9672613608957936;1.018;0.03432876384400008
56:54.6;0.12057296941139525;-0.29359690526451077;-0.9661154675771102;1.011;0.03420034328968289
56:54.6;0.12180551348726565;-0.29048247541135513;-0.9647336284841413;1.001;0.03413455937410066
56:54.6;0.12338167691101899;-0.286814206604305;-0.9631675519635269;1.001;0.03408420517999349
56:54.6;0.1251042051076779;-0.2827198945225025;-0.9614112649085715;1.001;0.034004585425805214
56:54.6;0.12677686223582676;-0.2783706143658253;-0.9594022055809056;1.0;0.03385821817207571
56:54.6;0.12821505413169557;-0.2739734304783462;-0.9570350862404392;0.9940000000000001;0.03361826742854239
56:54.6;0.12925547905064727;-0.2697593269148404;-0.954187574629466;1.0;0.033270489289423485
56:54.7;0.12976601078955052;-0.2659670447148564;-0.9507552159972317;1.016;0.032813873408450496
56:54.7;0.12965618239728322;-0.26282442778153686;-0.9466904185522635;1.024;0.03226019136494183
56:54.7;0.12888642932532193;-0.26052913278463546;-0.9420362391169493;1.013;0.03163232368090074
56:54.7;0.12747193140598398;-0.2592308973751314;-0.9369437519889324;0.997;0.030960990692318384
56:54.7;0.12547688792247133;-0.25901797378509595;-0.9316657413072471;0.9670000000000001;0.030279853291765017
56:54.7;0.12299850584549125;-0.25990978202415277;-0.9265280794183318;0.956;0.029619726659895387
56:54.7;0.12014485875622952;-0.2618558783517408;-0.9218881031566207;0.956;0.029003187446542684
56:54.7;0.11701347906101689;-0.264739586077843;-0.9180916281059615;0.948;0.028440734275776713
56:54.7;0.11367640311905408;-0.26838495787060457;-0.9154366491371643;0.95;0.02792909029025428
56:54.7;0.11017409830928264;-0.2725672437453812;-0.9141468087988187;0.9520000000000001;0.02745169182803303
56:54.8;0.10651787700757527;-0.27702737364695434;-0.9143549810344437;0.9540000000000001;0.026981123001361913
56:54.8;0.10269881468468535;-0.28148978669758745;-0.916096380119178;0.9590000000000001;0.026483125595566537
56:54.8;0.0987002437951049;-0.28568178291652213;-0.9193102120438019;0.966;0.025921662836397272
56:54.8;0.09451025137324258;-0.28935236813164456;-0.9238487006785356;0.971;0.02526427335695389
56:54.8;0.09013072201857829;-0.2922890565596928;-0.9294919991118366;0.985;0.024486745157403837
56:54.8;0.08558112075495267;-0.29433159612773124;-0.9359669303214214;0.985;0.023576284286842875
56:54.8;0.0808978520674505;-0.29538162014582264;-0.9429673176539007;0.993;0.02253290054043103
56:54.8;0.07613150997709235;-0.295407268232124;-0.9501744259718462;1.001;0.02136923412474742
56:54.8;0.07134381153537689;-0.2944425090123959;-0.957277023213665;1.0090000000000001;0.020109184213464196
56:54.8;0.06660490301081955;-0.292581774959418;-0.9639904935244749;1.0190000000000001;0.01878564978081678
56:54.9;0.061990973793979554;-0.2899708440445052;-0.9700734003554339;1.022;0.01743762715794932
56:54.9;0.05758154539353944;-0.2867947524476212;-0.9753393226467696;1.021;0.016106836533324734
56:54.9;0.05345569884378642;-0.2832633502892349;-0.9796626098646412;1.024;0.014834090764570325
56:54.9;0.04968712181468551;-0.2795952203811776;-0.98297836257162;1.024;0.013655812390475476
56:54.9;0.046338710011721046;-0.27600110624344554;-0.9852780275340158;1.022;0.012601248039692148
56:54.9;0.04345815023712756;-0.272668448282511;-0.9866020837433328;1.022;0.011690905552417977
56:54.9;0.04107623387882562;-0.2697486410203034;-0.9870311408254988;1.024;0.010936559957962942
56:54.9;0.03920892647261633;-0.26734803466011736;-0.9866765393290937;1.025;0.010342767197293077
56:54.9;0.037862343194842066;-0.26552294728709286;-0.9856708080234712;1.022;0.009909264990305531
56:54.9;0.037038189452619795;-0.264278532638473;-0.984157547073249;1.016;0.009633326119875574
56:55.0;0.03673726469533043;-0.26357134638318275;-0.9822804457595634;1.013;0.009511313817986354
56:55.0;0.03695993928215298;-0.26331569730287907;-0.9801721671437962;1.01;0.009539165094066368
56:55.0;0.037703924841182776;-0.26339386780541957;-0.9779447243267951;1.008;0.00971195203651742
56:55.0;0.03896051786365227;-0.2636696630808498;-0.9756830866634956;1.008;0.010022906101989653
56:55.0;0.0407106756795375;-0.264003949436991;-0.9734431741791492;1.0090000000000001;0.010462352264436432
56:55.0;0.04292176386292495;-0.2642702977447343;-0.9712544059142659;1.0090000000000001;0.01101688755650895
56:55.0;0.045544919323522594;-0.26436839814109214;-0.9691259650466252;1.0070000000000001;0.01166889430615625
56:55.0;0.048512546211280004;-0.26423283836056344;-0.9670553621161049;1.0090000000000001;0.012396303389967167
56:55.0;0.05173596253847177;-0.26383570394793665;-0.9650376302977357;1.01;0.013172564948225971
56:55.0;0.05510404381180622;-0.2631830819654607;-0.9630730653028932;1.008;0.013966920978276206
56:55.1;0.05848412113860956;-0.2623072669286892;-0.9611709578210441;0.9990000000000001;0.014745141017032155
56:55.1;0.06172636475538337;-0.2612575228610861;-0.9593474545143886;0.99;0.015470894805299023
56:55.1;0.06467260397571786;-0.26009203260292324;-0.9576181898827019;0.988;0.016107931840152228
56:55.1;0.06716977676615678;-0.2588723796231954;-0.9559891138762168;0.985;0.01662312106013017
56:55.1;0.06908674719053395;-0.2576603814692692;-0.9544497765656016;0.987;0.016990081859945768
56:55.1;0.07033157678438186;-0.25651593817017243;-0.952972030317496;0.987;0.01719273078713893
56:55.1;0.07086556740399026;-0.2554942046162224;-0.951515084374739;0.986;0.017227886416093557
56:55.1;0.07071114625842818;-0.2546411440493261;-0.9500361571267883;0.988;0.017106319865309392
56:55.1;0.0699524076669897;-0.25398802070705145;-0.9485047937271741;0.992;0.016852154448832726
56:55.1;0.06872877342574137;-0.25354653258789095;-0.9469179739478996;0.9890000000000001;0.016500937873744317
56:55.1;0.06722313063335884;-0.25330606583056897;-0.9453126330655539;0.9890000000000001;0.01609680880630955
56:55.2;0.06564593074597067;-0.2532332558602575;-0.9437728331352997;0.985;0.01568902738002499
56:55.2;0.06421659604547922;-0.25327313276055863;-0.9424302160147079;0.985;0.015328004004101923
56:55.2;0.06314377296606476;-0.253351488138203;-0.9414573008332059;0.985;0.015061027987167434
56:55.2;0.06260645852919625;-0.2533788854499394;-0.9410533842366775;0.9740000000000001;0.014928075400138067
56:55.2;0.06273826224784709;-0.2532566616951983;-0.9414234094016944;0.9740000000000001;0.014958166271242496
56:55.2;0.06361667800870816;-0.25288445941517135;-0.9427519514917186;0.968;0.01516668155967024
56:55.2;0.06525829569196594;-0.2521684540260804;-0.9451763715097545;0.9690000000000001;0.01555390132678185
56:55.2;0.06761979620714251;-0.2510298101457806;-0.9487637989812319;0.975;0.01610487137499599
56:55.2;0.07060384633303582;-0.24941312659718448;-0.9534958007659906;0.977;0.01679060915522639
56:55.2;0.074068804970588;-0.24729432534702944;-0.9592629176917623;0.991;0.017570622362631804
56:55.3;0.07784123964597525;-0.24468712500543802;-0.9658691739096049;1.001;0.018396667853490506
56:55.3;0.08173040602009478;-0.24164696943850567;-0.9730447695590034;1.003;0.019217541687273555
56:55.3;0.08554386329951534;-0.2382709449784796;-0.9804643652692101;1.011;0.01998442978207366
56:55.3;0.0891030647381563;-0.2346927200983848;-0.9877689547252511;1.0270000000000001;0.02065606696294593
56:55.3;0.09225723182526749;-0.2310732973341119;-0.9945898079818108;1.0270000000000001;0.021202847298567442
56:55.3;0.09489365974921543;-0.22758971239380077;-1.0005723845050962;1.035;0.021609182415864504
56:55.3;0.0969432650326611;-0.22442322098390585;-1.0053980387141666;1.037;0.02187376124783762
56:55.3;0.09838135202953374;-0.2217470635378095;-1.0088026778264543;1.038;0.022007813166381472
56:55.3;0.09922439430423341;-0.21971362794587954;-1.0105927795134162;1.043;0.022031884327361806
56:55.3;0.09952398251928718;-0.21844194967066097;-1.0106591380981833;1.046;0.02197194471081313
56:55.4;0.09935937153299301;-0.21800753660036504;-1.008987577963151;1.047;0.021855772577622005
56:55.4;0.09882995815408126;-0.21843624648470886;-1.0056644785908113;1.047;0.02171033011870148
56:55.4;0.0980481297972151;-0.2197026141930919;-1.0008742954697114;1.04;0.02156026400823059
56:55.4;0.09713183916862818;-0.2217319250181665;-0.9948870425820748;1.015;0.02142711074116395
56:55.4;0.09619613812856319;-0.2244051537772702;-0.9880363209676147;1.015;0.021328650316914357
56:55.4;0.09534402628856468;-0.2275662411923011;-0.980691857717282;1.0070000000000001;0.021278151342380657
56:55.4;0.09465812620425175;-0.23103155363105715;-0.9732317096290803;0.9990000000000001;0.021283617844945295
56:55.4;0.09419471579646288;-0.2346014111166316;-0.9660175250744643;0.991;0.02134726126806319
56:55.4;0.09398089720140594;-0.23807318844233138;-0.9593743449023097;0.987;0.021465359960654306
56:55.4;0.09401519835597633;-0.24125526878546508;-0.9535757895909456;0.986;0.021628683702529006
56:55.5;0.09427191751789193;-0.24398129591321174;-0.9488348176074514;0.986;0.021823755497827564
56:55.5;0.09470924698325288;-0.2461240330197993;-0.9452990108542916;0.983;0.022035129640381852
56:55.5;0.09527999295726873;-0.2476073574486893;-0.9430485253269698;0.9840000000000001;0.022248426530105277
56:55.5;0.09594229554153039;-0.24841412599383134;-0.9420951226185608;0.976;0.022453350143670905
56:55.5;0.09666752075008679;-0.2485876308458546;-0.9423818804172892;0.976;0.022645766385223663
56:55.5;0.09744356616199704;-0.24822536949878124;-0.9437846954091047;0.9740000000000001;0.02282823138379819
56:55.5;0.09827336003174135;-0.2474654543916584;-0.9461177139741482;0.975;0.023008884280270467
56:55.5;0.09916987699874863;-0.2464677558893384;-0.9491445923129538;0.982;0.023199160157793643
56:55.5;0.10015012908418526;-0.245393460271301;-0.9525959805714617;0.991;0.023411176689708844
56:55.5;0.10123058923971388;-0.24438731757801355;-0.9561914814969191;0.995;0.023655672537207843
56:55.6;0.1024252809744156;-0.24356579454144356;-0.959662658852087;1.001;0.02394098739488463
56:55.6;0.10374625786034922;-0.2430120963713519;-0.9627735548005456;1.006;0.02427305753083601
56:55.6;0.10520523887083519;-0.24277674930080198;-0.9653364189269964;1.004;0.0246560300015284
56:55.6;0.10681479026594308;-0.2428811142525467;-0.9672218282880446;1.01;0.025092921491033524
56:55.6;0.10858761934857952;-0.2433212589352499;-0.9683633596210544;1.01;0.025585783175116256
56:55.6;0.11053341130065808;-0.24407086246667337;-0.9687571589124527;1.008;0.026135116128457647
56:55.6;0.11265377082976959;-0.24508331868254457;-0.9684564789334001;1.0090000000000001;0.02673865727902499
56:55.6;0.11493657676683464;-0.2462939052930573;-0.9675613395669481;1.005;0.027389898967850372
56:55.6;0.1173514472791188;-0.247622804472368;-0.966204015554104;0.9990000000000001;0.02807682053814548
56:55.6;0.11984825847477348;-0.24897955466309818;-0.9645318574135263;0.995;0.028781404946174687
56:55.7;0.12236028909072706;-0.2502692761552142;-0.9626900164082418;0.995;0.02948047657055235
56:55.7;0.12481204151983129;-0.2514003670586345;-0.960807293925662;0.996;0.030148012431097285
56:55.7;0.1271297767301073;-0.252292333672279;-0.9589876849636799;0.998;0.030758444469555137
56:55.7;0.1292517837561458;-0.2528817541589956;-0.9573084713933855;1.0;0.031290027355216216
56:55.7;0.13113589734683515;-0.2531250589075669;-0.9558237990189126;1.0;0.031727406567309734
56:55.7;0.13276294502663988;-0.2529987128606875;-0.9545712015269525;1.0;0.03206295291860854
56:55.7;0.13413593138545207;-0.2524987673220042;-0.953578090981837;0.998;0.03229688638839403
56:55.7;0.1352758223720244;-0.2516413194087682;-0.9528660025734421;0.998;0.032436498659211124
56:55.7;0.13621560649184156;-0.25046400117594425;-0.9524517285330345;0.9940000000000001;0.03249489641514145
56:55.7;0.13699439792253107;-0.24902764269673056;-0.9523456488650869;0.992;0.03248964510891406
56:55.8;0.13765264658463067;-0.24741698747291357;-0.9525483830785106;0.993;0.03244151479838632
56:55.8;0.13822862828383328;-0.24573938007342924;-0.9530473406772924;0.99;0.03237331928241402
56:55.8;0.13875586355400105;-0.24412046500655435;-0.9538147837643581;0.991;0.032308707363682965
56:55.8;0.1392610221438595;-0.24269624988486418;-0.9548086227923546;1.0;0.032270743885794935
56:55.8;0.13976206761691123;-0.241601810230648;-0.9559759551133767;1.0;0.0322802188040386
56:55.8;0.14026668943848855;-0.24095829005200944;-0.9572574225787536;1.0;0.032353789984761155
56:55.8;0.14077127787195773;-0.2408604900193588;-0.9585896748085893;0.99;0.03250217058717159
56:55.8;0.1412608746044684;-0.24136680534448504;-0.9599051154982169;0.99;0.03272862343032921
56:55.8;0.14171076405421196;-0.24249265383807897;-0.9611311887380138;0.998;0.03302813844814465
56:55.8;0.14209039356161138;-0.24420822237546638;-0.9621925995864541;1.003;0.03338773915281749
56:55.9;0.1423696255409708;-0.2464406125523951;-0.9630179327995729;1.0090000000000001;0.0337881175753345
56:55.9;0.1425259229437477;-0.2490794170223782;-0.9635491689702396;1.012;0.034206259315705624
56:55.9;0.14255003592259946;-0.25198461143325157;-0.9637509978979328;1.0090000000000001;0.03461833619798454
56:55.9;0.14244822993525633;-0.2549966146465792;-0.9636170899834393;1.008;0.0350022502524982
56:55.9;0.1422406698765826;-0.2579488532215876;-0.9631720687304868;1.008;0.03533957076453597
56:55.9;0.14195687307837002;-0.26068209488751726;-0.9624698258629675;1.0090000000000001;0.03561678788058552
56:55.9;0.14162948457843252;-0.263058450545538;-0.9615896565282851;1.011;0.03582578502160274
56:55.9;0.14128738590611006;-0.2649726210914151;-0.9606311311279954;1.01;0.03596342525028556
56:55.9;0.140949010705577;-0.2663584385557834;-0.9597076532765321;1.0090000000000001;0.03603026451033936
56:55.9;0.14061689888653506;-0.2671897877039662;-0.9589381572259835;1.006;0.03602864846771879
56:56.0;0.140274593165723;-0.2674765291608314;-0.9584366447863951;0.998;0.03596069751724029
56:56.0;0.13988665829777516;-0.2672571982872897;-0.9583003428617027;0.998;0.03582674481975128
56:56.0;0.13940202750966404;-0.2665903993039127;-0.9585986929895037;0.998;0.0356246353786771
56:56.0;0.1387603514401726;-0.2655463959108322;-0.9593658161203623;1.004;0.03535005080066407
56:56.0;0.13790046234610742;-0.2641999825306848;-0.9605977711045367;1.0070000000000001;0.034997746526931515
56:56.0;0.13676922005053022;-0.26262532464888405;-0.962253860180602;1.0070000000000001;0.03456325492593709
56:56.0;0.13532835751631264;-0.26089293735467284;-0.9642600700911965;1.0090000000000001;0.03404437113257746
56:56.0;0.13355740797912188;-0.25906847614564854;-0.9665130533448056;1.0070000000000001;0.033441848591091304
56:56.0;0.13145239473648015;-0.2572128599659223;-0.9688841994730575;1.0070000000000001;0.03275918240100404
56:56.0;0.12902163785197374;-0.25538346253243355;-0.9712244196174961;1.01;0.03200183745511114
56:56.0;0.1262806734548379;-0.2536363588923313;-0.9733707033164213;1.012;0.031176450611551585
56:56.1;0.12324782666044318;-0.2520295644047922;-0.975155089614033;1.015;0.030290361073882204
56:56.1;0.11994132410788973;-0.2506268343751439;-0.9764158008137693;1.0170000000000001;0.029351561213335535
56:56.1;0.1163784737458491;-0.24950125105760715;-0.9770095827535474;1.0190000000000001;0.028369011825801788
56:56.1;0.11257697126821209;-0.2487377655875642;-0.9768239821189003;1.0190000000000001;0.027353166093099315
56:56.1;0.10855753173082082;-0.24843383865018245;-0.9757882498418909;1.018;0.026316388811382815
56:56.1;0.10434629705323446;-0.24869720188911673;-0.9738816824275736;1.0190000000000001;0.025272845254116067
56:56.1;0.09997564168357949;-0.24964001053896076;-0.971138261838677;1.012;0.024237591284408257
56:56.1;0.09548318731143908;-0.251369650118409;-0.9676464695558914;1.006;0.023225039686687855
56:56.1;0.0909099741753986;-0.25397782520561524;-0.9635437003259134;1.001;0.022247373742661846
56:56.1;0.08629870555201319;-0.2575303197713345;-0.959005821823514;0.997;0.021313456761269233
56:56.2;0.08169202488344453;-0.26205925990653395;-0.9542332693475192;0.991;0.020428370474036374
56:56.2;0.07713001007486175;-0.267558383918311;-0.949435217839241;0.986;0.019593286519193395
56:56.2;0.07264622028687635;-0.2739809542601474;-0.9448133152473079;0.981;0.01880526260220385
56:56.2;0.06826288008764765;-0.2812397512999339;-0.940546530645531;0.981;0.01805683371773173
56:56.2;0.06398734134380012;-0.28920862324730895;-0.936778576110287;0.975;0.01733573476683253
56:56.2;0.05981216020631587;-0.2977255113598337;-0.9336089701121242;0.973;0.016625340681915363
56:56.2;0.0557196072411052;-0.30659757468416304;-0.9310886061993996;0.978;0.015906248891638296
56:56.2;0.05168963293414967;-0.3156089240813122;-0.9292206569357208;0.98;0.015159035799647586
56:56.2;0.04770917371991489;-0.32453042749403566;-0.9279670119827801;0.983;0.0143677861315744
56:56.2;0.043780276282017985;-0.33313039564457836;-0.9272592546237935;0.99;0.01352365039345954
56:56.3;0.039925059760476625;-0.34118549865285874;-0.9270121363987204;0.9940000000000001;0.012627621589455575
56:56.3;0.03618679614019202;-0.3484922922287522;-0.927136828984354;0.997;0.011691955234861334
56:56.3;0.032627402845484495;-0.35487996620871265;-0.9275511239402497;1.003;0.010739939731358918
56:56.3;0.02932184186062424;-0.3602236510560086;-0.9281845445602689;1.003;0.009803875861035097
56:56.3;0.026349640954134872;-0.3644556238321321;-0.9289777083128777;1.0;0.008921228245443898
56:56.3;0.023783642700625118;-0.36757120824892875;-0.9298767153646799;0.998;0.00812915174739273
56:56.3;0.021676772613719697;-0.3696278030462311;-0.9308246883659334;0.997;0.007458081871457195
56:56.3;0.020049196187654276;-0.3707374429857696;-0.931753574575027;0.9940000000000001;0.0069257128858310575
56:56.3;0.01887946670114528;-0.37105434580514685;-0.932579489274153;0.997;0.006533006711603658
56:56.3;0.018102584607527564;-0.37075955814058514;-0.9332039581349498;1.005;0.006263390857273302
56:56.4;0.01761545445280513;-0.37004505629805634;-0.9335212864442802;1.011;0.006085169553635257
56:56.4;0.017287877838784698;-0.36909884548224753;-0.9334296117808992;1.006;0.005956154380979464
56:56.4;0.016976421844011477;-0.36809139167491967;-0.9328418360300699;1.003;0.005829211787656945
56:56.4;0.01653894871693088;-0.3671635145580715;-0.9316936670322794;1.003;0.005657708430921149
56:56.4;0.015848154399109155;-0.36641658572985036;-0.9299481076064288;0.998;0.005400233420777104
56:56.4;0.014802796244242153;-0.36590612407158934;-0.9275971236482848;0.9940000000000001;0.005024268412524863
56:56.4;0.013335726305114745;-0.36563922088866896;-0.9246618293769815;0.991;0.004508710791177074
56:56.4;0.011418446443191252;-0.36557553956868616;-0.9211928141581422;0.9890000000000001;0.003845339511715151
56:56.4;0.009062373570583251;-0.3656315374501379;-0.9172718667783358;0.9890000000000001;0.0030393707740279698
56:56.4;0.006317126880674893;-0.3656878314860648;-0.9130151064871445;0.9890000000000001;0.0021091529382295357
56:56.5;0.003266007900224527;-0.3655997866776325;-0.9085759097531548;0.988;0.0010848866928540308
56:56.5;1.87134416329369e-05;-0.36521118489321597;-0.9041447701653966;0.983;6.179249216910074e-06
56:56.5;-0.003298573069537255;-0.3643703240596697;-0.8999432014358849;0.97;0.0010816436581379486
56:56.5;-0.006555129770981391;-0.3629472857620076;-0.8962106252164246;0.97;0.002132234348614332
56:56.5;-0.00962857763216853;-0.3608505251158428;-0.8931859941585725;0.961;0.003103354456636103
56:56.5;-0.012417419060379423;-0.358040654089106;-0.891087581718147;0.956;0.003961722673784575
56:56.5;-0.01485198192134946;-0.3545395033372379;-0.8900943223889446;0.9540000000000001;0.004686893386951765
56:56.5;-0.01690217392261335;-0.350433121112971;-0.8903314125173869;0.9540000000000001;0.005273505572924058
56:56.5;-0.018579856759954442;-0.3458681449217618;-0.891861878482306;0.9570000000000001;0.005731265492889797
56:56.5;-0.019933620403215623;-0.34104179871183915;-0.8946841649607103;0.963;0.006082239883595018
56:56.6;-0.02103522691211405;-0.3361862277231129;-0.8987340252516913;0.963;0.006355625564930271
56:56.6;-0.02196024235882881;-0.33154789906636634;-0.9038880915105046;0.96;0.006581093692808337
56:56.6;-0.022768663916987408;-0.3273632205887308;-0.9099671924111348;0.9570000000000001;0.006782552529610548
56:56.6;-0.023491728751409684;-0.3238331371856497;-0.916739644127719;0.9570000000000001;0.006974005369946274
56:56.6;-0.024127871321371515;-0.32110104880237034;-0.9239270609665843;0.9690000000000001;0.007158110848823046
56:56.6;-0.02464683755390784;-0.3192378161334494;-0.9312160009633905;0.982;0.00732699615557009
56:56.6;-0.024998960431661096;-0.31823522392769255;-0.9382770126753518;0.993;0.007464509473257523
56:56.6;-0.02512638245453723;-0.3180075146468004;-0.9447893179068274;1.0;0.007549224192774348
56:56.6;-0.024973572306512294;-0.318400366977726;-0.9504669623701667;1.011;0.007557727953236389
56:56.6;-0.024495571061224578;-0.31920674813481364;-0.9550820428518081;1.02;0.007467931266456121
56:56.7;-0.023663629916133026;-0.32018836456256944;-0.9584814485413141;1.022;0.0072622404144744605
56:56.7;-0.022468699308290416;-0.3211000978030281;-0.9605945533048599;1.021;0.006930403008230322
56:56.7;-0.02092365455039985;-0.32171377041022;-0.9614310397196931;1.014;0.006471803624869854
56:56.7;-0.01906541588643054;-0.32183777432705546;-0.9610706252432588;1.01;0.005897101500349259
56:56.7;-0.01695786543966539;-0.321330519505885;-0.959648662051763;1.01;0.005229202054495433
56:56.7;-0.014695449353815676;-0.3201073750360045;-0.9573420494946551;1.0070000000000001;0.004503453526222941
56:56.7;-0.012406126164535052;-0.3181419745516466;-0.9543584311256963;1.004;0.0037667663338999888
56:56.7;-0.010251509492918066;-0.31546337755876475;-0.950929487033054;1.001;0.0030752829578064265
56:56.7;-0.008422110986296886;-0.3121506403598044;-0.9473076625962814;1.002;0.00249044090358017
56:56.7;-0.007126912874521574;-0.3083258154923434;-0.9437647886564066;1.005;0.0020738393393904602
56:56.8;-0.006578692870845427;-0.304145699836646;-0.9405898565087227;0.997;0.0018820085111486825
56:56.8;-0.006978128823154738;-0.2997922484240591;-0.9380822098942001;0.9940000000000001;0.0019624575982343196
56:56.8;-0.008499479351628402;-0.29546153748120296;-0.9365372026660586;0.977;0.0023518970663817854
56:56.8;-0.011278809354602808;-0.2913516567506727;-0.93622416427951;0.977;0.0030765260311658394
56:56.8;-0.015403794052650823;-0.2876507726138776;-0.9373596318341698;0.97;0.0041533592224858645
56:56.8;-0.02090361410442956;-0.2845268648704094;-0.9400805644667941;0.9690000000000001;0.0055912605668865705
56:56.8;-0.027738672862202166;-0.2821197982507338;-0.944422450249869;0.973;0.00739069951813484
56:56.8;-0.035791734550930834;-0.2805350358195449;-0.9503065834029372;0.978;0.009541872111101008
56:56.8;-0.04486326147790174;-0.2798372689467288;-0.957539569483285;0.992;0.012021346805496462
56:56.8;-0.054673693318143646;-0.2800424315198037;-0.9658259756940473;1.006;0.014787717102257358
56:56.9;-0.0648744183222087;-0.2811084075667185;-0.974792097026986;1.018;0.01777703434232956
56:56.9;-0.07506759889554941;-0.2829270843377332;-0.9840161815095355;1.032;0.02089918204714109
56:56.9;-0.08483289991650475;-0.2853215239986149;-0.9930594591701574;1.048;0.024036658911912385
56:56.9;-0.09375703224604154;-0.288051363833667;-1.0014930013881373;1.048;0.027047162258582717
56:56.9;-0.10146151036887194;-0.29082780206598713;-1.0089171997262258;1.056;0.029770955251126833
56:56.9;-0.10762616898441682;-0.2933377254860959;-1.0149733498467448;1.057;0.032043536479786625
56:56.9;-0.1120087899418908;-0.2952750077537186;-1.01934979851817;1.062;0.03371335987365249
56:56.9;-0.11446165968691954;-0.2963755375496415;-1.0217869161021924;1.072;0.034662727328173354
56:56.9;-0.11494422228505927;-0.29645148317042597;-1.0220848362788535;1.071;0.034827934481078064
56:56.9;-0.11352956345856856;-0.295419926945975;-1.020115931937485;1.073;0.03421356147911977
56:57.0;-0.1104020121949657;-0.2933208298683204;-1.015841909335449;1.081;0.03289622171037503
56:57.0;-0.10584340299137567;-0.2903196393996022;-1.0093334390289939;1.083;0.031015220410643436
56:57.0;-0.10020724327493806;-0.2866919977477951;-1.0007874043512912;1.058;0.028751235799562482
56:57.0;-0.09388373891302328;-0.28279216738208474;-0.9905349171327336;1.037;0.026298291977479422
56:57.0;-0.08726251011218215;-0.279011263781786;-0.9790353490406661;1.037;0.023836792190384197
56:57.0;-0.08070050519638594;-0.2757333990981348;-0.9668559029828037;1.013;0.02151430797316089
56:57.0;-0.0744992421723905;-0.27329621952502237;-0.9546383607595141;0.991;0.019436781881673727
56:57.0;-0.06889133232980914;-0.2719593091563947;-0.9430552305421913;0.9740000000000001;0.017668742495392024
56:57.0;-0.0640343969250425;-0.271882229105261;-0.9327592690997026;0.965;0.01623916591850364
56:57.0;-0.06001067536137432;-0.27311352136421285;-0.9243318369370076;0.953;0.015149546342230008
56:57.1;-0.0568311827994193;-0.27559148195469907;-0.9182349073773122;0.94;0.014381569481987853
56:57.1;-0.05444345665356857;-0.27915642562256243;-0.9147706823004343;0.934;0.013902905067913553
56:57.1;-0.05274174120429066;-0.2835728316833284;-0.9140532873563812;0.9440000000000001;0.013670695132063617
56:57.1;-0.05157839661564796;-0.2885583114685425;-0.9159971872519871;0.9440000000000001;0.01363312966948665
56:57.1;-0.05077582585790323;-0.29381499612099543;-0.9203251094330389;0.9570000000000001;0.013730053361080522
56:57.1;-0.05013881134534216;-0.29905863206878774;-0.9265954300043765;0.975;0.013893783595796268
56:57.1;-0.04946716924424621;-0.3040416131669741;-0.9342463449817271;0.992;0.014051137839784213
56:57.1;-0.04856833337307358;-0.30856751935537474;-0.9426515434832785;1.004;0.014127151187739698
56:57.1;-0.047269407310978465;-0.312496370652974;-0.9511800580226071;1.0190000000000001;0.014050373564808592
56:57.1;-0.045428336094333575;-0.3157418522253959;-0.9592525773283872;1.032;0.01375916115066552
56:57.2;-0.04294402873777249;-0.31826314535788874;-0.9663874544268909;1.036;0.013208102137991524
56:57.2;-0.039765450074480846;-0.32005384603360315;-0.9722313357796614;1.038;0.012373671079183964
56:57.2;-0.035899483452439006;-0.3211295910902366;-0.9765720102092189;1.036;0.011258299521578394
56:57.2;-0.0314166115640353;-0.3215158744026736;-0.9793342168145546;1.036;0.00989219551545606
56:57.2;-0.02645277314692726;-0.3212381717661619;-0.9805613918981931;1.031;0.008332458180708054
56:57.2;-0.02120556407952756;-0.3203167259036108;-0.9803872694732755;1.0270000000000001;0.00665927744643561
56:57.2;-0.01592340275938854;-0.31876758416251993;-0.9790016059609651;1.02;0.004969279623683149
56:57.2;-0.01088757560627545;-0.316610050098157;-0.9766147104773422;1.014;0.0033665040557893516
56:57.2;-0.006388660613987667;-0.3138790948166811;-0.9734258092778288;1.011;0.001951978662620618
56:57.2;-0.0026997310111214986;-0.3106399801537823;-0.9695999018516326;1.01;0.0008131495160172092
56:57.3;-4.915426326202127e-05;-0.30700163287579035;-0.9652562110615849;1.0090000000000001;1.4566140053715914e-05
56:57.3;0.0014037008076341825;-0.3031251155496045;-0.9604689328485492;1.006;0.0004086766202366992
56:57.3;0.0015865087307243813;-0.299224053019269;-0.9552787048695124;1.005;0.0004534914090066387
56:57.3;0.0005236086196481166;-0.29555546556168594;-0.9497116005336736;1.005;0.0001469729885129
56:57.3;-0.0016631828361172035;-0.292401672488579;-0.9438013197024615;0.997;0.0004589870444363498
56:57.3;-0.004761731874984055;-0.2900454044855182;-0.9376097666325691;0.987;0.0012949501454693133
56:57.3;-0.008483526071714376;-0.288740531524699;-0.9312422354320126;0.978;0.00228111308193086
56:57.3;-0.012483111000453023;-0.28868092233463005;-0.9248556858916629;0.975;0.0033328432419094094
56:57.3;-0.016381741591715078;-0.289970640229749;-0.918660171164813;0.968;0.0043638416824143605
56:57.3;-0.019794299373219547;-0.2925994919205293;-0.9129132914649623;0.963;0.0052874129721266466
56:57.4;-0.022358940700340963;-0.29642807932658266;-0.907906809902201;0.9570000000000001;0.006017440958608348
56:57.4;-0.02376861376399205;-0.30118566752758913;-0.9039449204208305;0.946;0.006471129983845116
56:57.4;-0.02380214609389369;-0.3064827242197782;-0.9013154140692463;0.941;0.006575047794782284
56:57.4;-0.02235084185780478;-0.31183816516785756;-0.9002574350916369;0.941;0.006274655246224133
56:57.4;-0.01943577288569929;-0.31671939731915527;-0.900931286807765;0.941;0.005545850356732045
56:57.4;-0.015211818978936803;-0.3205919139064287;-0.9033956045711138;0.9490000000000001;0.004405667181788725
56:57.4;-0.009956550140801575;-0.3229742704504495;-0.9075954905166211;0.96;0.002918563457283474
56:57.4;-0.004044451730623155;-0.32349267020539385;-0.9133631066229946;0.9690000000000001;0.001194999067966694
56:57.4;0.002090623590705176;-0.32192777713699783;-0.9204302854664088;0.981;0.0006194770158987326
56:57.4;0.007999612024634955;-0.3182466224257505;-0.9284510573088419;0.993;0.0023636966670400215
56:57.5;0.013262073948210632;-0.31261472702098353;-0.9370306761806082;0.9990000000000001;0.0038848538715269567
56:57.5;0.01752248794574469;-0.3053863155569778;-0.9457569937955659;1.004;0.005060866762040057
56:57.5;0.02051375348495688;-0.29707298840613167;-0.9542303729677146;1.0090000000000001;0.005815158188615139
56:57.5;0.022066592199845227;-0.28829443830142726;-0.9620893411572612;1.0090000000000001;0.00612050048242716
56:57.5;0.02210759395118432;-0.27971852609103887;-0.9690300520472713;1.008;0.005992388422948839
56:57.5;0.020650506107314958;-0.2719992398355705;-0.9748188949515986;1.01;0.005475481661400188
56:57.5;0.017784582451879992;-0.26571892260269203;-0.9792993814204451;1.018;0.004627875173008155
56:57.5;0.013661983075549002;-0.26133876037838666;-0.9823949835786709;1.0170000000000001;0.0035075486699206303
56:57.5;0.00848474429704586;-0.25916048725852636;-0.9841083979227171;1.016;0.002163966256152612
56:57.5;0.002491156459318573;-0.2593017980148626;-0.9845167620740658;1.015;0.0006359597757795376
56:57.5;-0.004058439539448375;-0.2616877074534975;-0.9837628117112973;1.0170000000000001;0.0010447991347572426
56:57.6;-0.010895743576637015;-0.26605962678772094;-0.9820425815879772;1.022;0.002846860395631676
56:57.6;-0.017757216730812653;-0.2720023394131434;-0.9795898533178964;1.015;0.004731423392085266
56:57.6;-0.0243941433991524;-0.27898623360119545;-0.9766571126621588;1.015;0.006646767130095492
56:57.6;-0.030579467718711097;-0.2864193675906166;-0.9734937724574526;1.0090000000000001;0.008526395638157738
56:57.6;-0.03611207170668545;-0.2937030925842212;-0.9703242167345009;1.0070000000000001;0.010291479042009038
56:57.6;-0.04081985141980863;-0.3002859487493242;-0.9673292655205986;1.0070000000000001;0.011857162107829985
56:57.6;-0.044562384302749655;-0.30571140823518705;-0.9646345505989836;1.01;0.013141437634455504
56:57.6;-0.04723299604241695;-0.30965539645126416;-0.9623080705400197;1.013;0.014074671759688379
56:57.6;-0.04875984146353146;-0.31195033708619674;-0.9603670090524711;1.018;0.014607805467455345
56:57.6;-0.04910644803021978;-0.3125935259697342;-0.9587916205198647;1.021;0.014717794370808402
56:57.7;-0.048273260762082236;-0.31173845203035117;-0.9575424744547257;1.018;0.014409703924511689
56:57.7;-0.04630171961986767;-0.30966898076923205;-0.9565770180557662;1.01;0.013715598648290512
56:57.7;-0.043280573415639345;-0.3067591821503589;-0.9558623071931944;1.01;0.01269070981068499
56:57.7;-0.039351616185498234;-0.3034252187784474;-0.9553821877121504;1.005;0.011407523902128546
56:57.7;-0.034710964951111714;-0.30007718646787646;-0.9551383384701427;1.003;0.009948691039694818
56:57.7;-0.02960331308316101;-0.29707703500543076;-0.9551453575824861;0.997;0.008399991917709865
56:57.7;-0.024309141765867008;-0.2947061495474018;-0.9554208752706902;0.99;0.0068446863310176
56:57.7;-0.019126809028053988;-0.29314470345282;-0.9559727925159712;0.9890000000000001;0.005360065608802934
56:57.7;-0.014351953098402252;-0.2924638283836742;-0.9567869471136555;0.991;0.004016043506611077
56:57.8;-0.010256281997958765;-0.29263029885336056;-0.9578187727042625;0.995;0.002874700396529942
56:57.8;-0.007067490081297547;-0.29352212950767825;-0.9589912167996786;0.998;0.001989393464201077
56:57.8;-0.0049520097713266886;-0.29495240171548975;-0.9601991694662021;1.01;0.0014024737967079746
56:57.8;-0.004002155013138846;-0.29669748472171625;-0.9613190038583845;1.01;0.0011414983766924894
56:57.8;-0.004228631282836467;-0.298525080323654;-0.9622208623175379;1.01;0.0012146619047171282
56:57.8;-0.005558695523552102;-0.3002183834815874;-0.9627813125403405;1.012;0.0016067111981547103
56:57.8;-0.007840024435198397;-0.30159479325049776;-0.9628948991839805;1.015;0.0022767751463257024
56:57.8;-0.01085059183597143;-0.3025191232640634;-0.9624838478883413;1.0170000000000001;0.0031593643272797563
56:57.8;-0.014314838162704407;-0.3029114501396814;-0.9615050364700503;1.012;0.00416920928228478
56:57.8;-0.017925588141033816;-0.3027497370741606;-0.959953153817724;1.0090000000000001;0.005209634180043958
56:57.8;-0.021369865082412533;-0.30206780650021003;-0.9578597254058739;1.003;0.006183126549978804
56:57.9;-0.024355764638335508;-0.3009493883996571;-0.9552891434572004;1.0;0.007002128489561477
56:57.9;-0.026637378936273843;-0.2995186105551035;-0.9523338667748077;0.997;0.007598091692467494
56:57.9;-0.028035256668430836;-0.29792740845676097;-0.9491107170294012;0.997;0.007927420085866447
56:57.9;-0.02845062379186291;-0.2963411687360945;-0.9457587589263087;0.998;0.007973778260570264
56:57.9;-0.02787233210118572;-0.29492430396235503;-0.9424373347075604;0.998;0.0077470499034260785
56:57.9;-0.02637612217238204;-0.2938268785050222;-0.939321385711854;0.9890000000000001;0.0072797535562866235
56:57.9;-0.02411626444729351;-0.2931727466127904;-0.9365913152233263;0.978;0.006621917406456151
56:57.9;-0.021310170835123068;-0.2930495718162638;-0.9344168985654115;0.971;0.005835374138661331
56:57.9;-0.018217262833196825;-0.29350141578181327;-0.9329379564122822;0.968;0.004988225606002087
56:57.9;-0.015114141310075371;-0.2945248951743647;-0.9322463881913482;0.9670000000000001;0.0041498862996084095
56:58.0;-0.012268813685165653;-0.29606976192326023;-0.9323737384341341;0.971;0.0033867774407991763
56:58.0;-0.009917199260530076;-0.29804409257944064;-0.9332865473628226;0.98;0.002758573522674182
56:58.0;-0.008244911838863188;-0.30032337879388654;-0.9348893625469593;0.98;0.0023149167417215004
56:58.0;-0.007376135130608347;-0.3027620597563607;-0.9370334632857181;0.981;0.0020925961223512693
56:58.0;-0.007369737331493973;-0.3052059577268832;-0.9395291814399673;0.9840000000000001;0.002113271469611872
56:58.0;-0.008221470695110563;-0.30750473320208127;-0.9421609913421012;0.9890000000000001;0.0023819159746134213
56:58.0;-0.009870476194354081;-0.3095239780735139;-0.9447055787335974;0.996;0.002886216358158335
56:58.0;-0.012208127313010953;-0.31115632066405274;-0.9469527718726896;1.005;0.0035971288676748077
56:58.0;-0.015087487452709243;-0.3123303555603373;-0.948727850388137;1.0090000000000001;0.004470671579005103
56:58.0;-0.01833261430289482;-0.31301580673947255;-0.9499122487792998;1.015;0.005450974601446757
56:58.1;-0.021748384751945186;-0.3132232522845105;-0.9504588608201389;1.0170000000000001;0.0064746206194450755
56:58.1;-0.025132291922124295;-0.3129975058412215;-0.9503983471172718;1.004;0.007476160989043274
56:58.1;-0.028288758385837217;-0.312405685621132;-0.9498342454577902;1.004;0.008394225643756092
56:58.1;-0.031044529963445044;-0.3115229748484156;-0.9489273006467597;0.997;0.00917715594473133
56:58.1;-0.033262598507344046;-0.3104195245962376;-0.9478720118041648;0.991;0.009787119770480298
56:58.1;-0.03485259931032008;-0.3091510023363669;-0.9468696015305705;0.987;0.010202251055763775
56:58.1;-0.035776624153917025;-0.30775415583189686;-0.9461017476708373;0.986;0.010416963190733396
56:58.1;-0.03605012935438284;-0.30624772385484617;-0.9457090211866817;0.986;0.010440882991561472
56:58.1;-0.03573826955175499;-0.3046377874243139;-0.9457768607509599;0.988;0.010296887717301044
56:58.1;-0.0349484281767396;-0.3029256287703599;-0.946330274930533;0.991;0.010018585298894945
56:58.2;-0.033819710898676754;-0.3011159664635451;-0.9473369073400095;0.993;0.00964735216943076
56:58.2;-0.03251000303016162;-0.2992239584660461;-0.9487169268424228;0.998;0.009228901763731675
56:58.2;-0.031181363976461384;-0.29728002169803774;-0.9503574377373412;0.998;0.008809430035142302
56:58.2;-0.029985087393624096;-0.2953318835036198;-0.9521288804172918;1.001;0.008431627132085166
56:58.2;-0.029048096908892127;-0.29344342925152883;-0.9539013086843926;1.003;0.008131029162221576
56:58.2;-0.028462115003005762;-0.29169018607796043;-0.9555590908954815;1.003;0.007933165877929626
56:58.2;-0.02827659013353229;-0.2901517479448162;-0.9570129979508629;1.004;0.007851815106592048
56:58.2;-0.02849595593985447;-0.2889020051061428;-0.9582088419256071;1.005;0.007888491477743153
56:58.2;-0.029081393619119142;-0.2879987170847765;-0.9591319694606715;1.006;0.00803311778471245
56:58.2;-0.029956929512164575;-0.2874743071290584;-0.9598071126901776;1.001;0.008265712536907083
56:58.3;-0.03101938245755992;-0.2873291359821235;-0.9602937686531647;1.001;0.00855887975895277
56:58.3;-0.032151212795275746;-0.2875275969778537;-0.9606782945111176;1.006;0.008880856916045819
56:58.3;-0.033234698106463255;-0.2879974019940253;-0.9610640757270841;1.006;0.009198831250250979
56:58.3;-0.03416537596736755;-0.28863311581219836;-0.961560022521416;1.004;0.009482192347624388
56:58.3;-0.0348628743164117;-0.2893049693244264;-0.9622668015756238;1.005;0.009705425640288024
56:58.3;-0.03527809477806002;-0.2898727797110643;-0.963260830649445;1.004;0.009850458794362901
56:58.3;-0.03539660357832174;-0.2902031720062057;-0.9645774628905261;0.998;0.009908339015891372
56:58.3;-0.035238740327965916;-0.29018712595145724;-0.9661961187153757;0.9990000000000001;0.009880156075876367
56:58.3;-0.03485735842878315;-0.28975472478235426;-0.9680310929951961;1.004;0.009777195642503
56:58.3;-0.03433394748766934;-0.28888488147784974;-0.9699314342392606;1.0090000000000001;0.009620321526624061
56:58.4;-0.033773270141622486;-0.2876090279430611;-0.971691118881947;1.013;0.009438519152869673
56:58.4;-0.03329626763742664;-0.28600866227889143;-0.9730680732976423;1.0170000000000001;0.009266547663222772
56:58.4;-0.03303105175739436;-0.28420755623274324;-0.9738089803740091;1.0170000000000001;0.009141801732700516
56:58.4;-0.03310194857797173;-0.2823603303423294;-0.9736764654940655;1.0170000000000001;0.009100639557360027
56:58.4;-0.03361668072405384;-0.28063909192025427;-0.9724759197119079;1.015;0.009174488318933539
56:58.4;-0.034652174970638605;-0.2792188934770108;-0.970080386947578;1.016;0.00938605348060095
56:58.4;-0.036240392880792956;-0.278262262020252;-0.9664524808230989;1.0190000000000001;0.009746029321341434
56:58.4;-0.038356607138226376;-0.2779034789532241;-0.9616613946931651;1.018;0.010250766709990665
56:58.4;-0.04091297561842468;-0.2782338059146581;-0.9558914544472173;1.0090000000000001;0.010881268894727292
56:58.4;-0.04375988189934675;-0.27928906223747246;-0.9494382238903155;0.998;0.011603707725751885
56:58.5;-0.04669643515848212;-0.28104127899168596;-0.942690002677497;0.988;0.012371510898319962
56:58.5;-0.04948971193857172;-0.283396430691866;-0.9360957853622129;0.9690000000000001;0.013128937834922333
56:58.5;-0.05189992649743867;-0.28619951020894896;-0.930123979349546;0.9640000000000001;0.01381581375162913
56:58.5;-0.0537067316541312;-0.2892463578902879;-0.9252184515658304;0.9640000000000001;0.014372784316483624
56:58.5;-0.05473173387450854;-0.29230030997482837;-0.9217584382318812;0.9570000000000001;0.014746386230380971
56:58.5;-0.05485425392824526;-0.29511200553447764;-0.9200263689761777;0.9570000000000001;0.014893523842665412
56:58.5;-0.05401980051345677;-0.2974413554447932;-0.9201852291272203;0.96;0.014785281080982994
56:58.5;-0.05224224995644138;-0.299080295981647;-0.9222662786148326;0.965;0.014410067132690739
56:58.5;-0.04960125145279675;-0.2998739385250093;-0.9261675509256193;0.9690000000000001;0.013775929727393709
56:58.5;-0.046236219106090715;-0.2997372319147536;-0.9316627950661703;0.976;0.012911650391164637
56:58.6;-0.042337668317143695;-0.2986647167387363;-0.9384199196683154;0.986;0.0118661019036335
56:58.6;-0.03813607907751257;-0.29673202699304424;-0.9460273770612363;1.0;0.010705431263932632
56:58.6;-0.033888517421982386;-0.2940890129300265;-0.9540257889774774;1.0;0.009508050588086691
56:58.6;-0.029863779024742965;-0.29094544659277416;-0.961941357962268;1.0070000000000001;0.008358049240476988
56:58.6;-0.026326753630524752;-0.2875509096540254;-0.9693184791236089;1.016;0.007338014190861673
56:58.6;-0.023521834628312685;-0.2841707054298238;-0.9757504242472211;1.025;0.006522126928862697
56:58.6;-0.021655041186417475;-0.28105996573346825;-0.9809069000221776;1.03;0.005970157555809947
56:58.6;-0.02087596031017231;-0.278438607416439;-0.9845560010270966;1.033;0.005722902396503872
56:58.6;-0.021262352851565955;-0.27647021082256745;-0.9865775431325713;1.03;0.005799504508694512
56:58.6;-0.022810731039042898;-0.2752479018925965;-0.9869657573446969;1.028;0.00619676898682794
56:58.7;-0.025435461101477843;-0.2747893835299932;-0.9858212620946005;1.026;0.006890293880649575
56:58.7;-0.028977694165016547;-0.2750415650821488;-0.9833340821320886;1.016;0.007837241817669796
56:58.7;-0.033223369145010256;-0.27589353772394215;-0.979760768235644;1.014;0.008980597766205797
56:58.7;-0.03792657111417624;-0.27719524777439425;-0.9753995106376859;1.014;0.010254438726709522
56:58.7;-0.042832825821136226;-0.2787785692302828;-0.9705668586565018;1.01;0.011589416469286648
56:58.7;-0.047698307976683924;-0.28047797464654145;-0.9655777884280455;1.0070000000000001;0.012917813288094378
56:58.7;-0.0523037007253266;-0.2821487282592062;-0.960728989837159;1.003;0.014177883748314317
56:58.7;-0.056463013551998585;-0.2836805113251207;-0.9562848458348951;0.9990000000000001;0.015317250972736514
56:58.7;-0.0600280527416336;-0.28500436396127127;-0.9524659584713021;0.995;0.016295032393147096
56:58.7;-0.06288934746313961;-0.28609186553178645;-0.9494402410543247;0.991;0.01708245294478377
56:58.8;-0.06497438542241918;-0.28694735417520717;-0.9473166404767304;0.987;0.017661987420096593
56:58.8;-0.06624424555509786;-0.28759569974964566;-0.9461417671675951;0.985;0.01802547679216763
56:58.8;-0.06669005803240807;-0.28806898734804043;-0.9458999306189396;0.985;0.018172002792813315
56:58.8;-0.06633048395127474;-0.28839529683732246;-0.9465170118858934;0.988;0.018106302156600206
56:58.8;-0.0652104485843301;-0.2885917869259324;-0.947868206234374;0.991;0.017838121236048728
56:58.8;-0.06340039274339081;-0.28866292920200765;-0.9497890843240488;0.996;0.01738241588762473
56:58.8;-0.06099493933758903;-0.2886034609573523;-0.9520887979789501;0.9990000000000001;0.016759952907169244
56:58.8;-0.05811008608417556;-0.28840475956011863;-0.9545638794145187;1.0;0.015997751218697953
56:58.8;-0.05487844548712215;-0.2880630025462599;-0.957011370082262;1.001;0.015128866184836168
56:58.8;-0.05144249359247095;-0.287587501296383;-0.9592409408740473;1.004;0.014191219778674843
56:58.9;-0.04794626407284948;-0.2870075538819665;-0.961086442683236;1.0090000000000001;0.013225452843098374
56:58.9;-0.04452629139062934;-0.2863759962308383;-0.9624171500425747;1.011;0.012272032324440909
56:58.9;-0.04130290656948838;-0.28576801531921936;-0.9631479535483397;1.011;0.011368083103773626
56:58.9;-0.03837319095641921;-0.28527502556507706;-0.963246921797224;1.01;0.010544580280394844
56:58.9;-0.035806437486760094;-0.2849946837232085;-0.9627387831867744;1.008;0.009824406862031506
56:58.9;-0.03364191910460235;-0.2850187054899679;-0.9617037163394777;1.005;0.009221369398057459
56:58.9;-0.03188823496910538;-0.28542026751787625;-0.9602716623676117;1.002;0.008739959161562292
56:58.9;-0.030523912484484893;-0.2862428625130496;-0.9586128892470893;1.0;0.008375642464952978
56:58.9;-0.029499547584363198;-0.2874925004544339;-0.956925690436724;1.002;0.008115589841440712
56:58.9;-0.02874207935094591;-0.2891347192360375;-0.9554217445935381;1.001;0.007939872894474407
56:59.0;-0.028161788798834998;-0.29109690829623736;-0.9543090445220792;0.997;0.007823243895632406
56:59.0;-0.027662037889376694;-0.2932754929633867;-0.953772331817643;0.991;0.007737571319258453
56:59.0;-0.027150633191367745;-0.2955467750645189;-0.9539523237337247;0.991;0.007654782537148529
56:59.0;-0.026550830776594217;-0.2977795313077045;-0.9549268643741395;0.992;0.007549932485226738
56:59.0;-0.02581014675539257;-0.2998474062953402;-0.9566976970374359;0.996;0.007403984467057573
56:59.0;-0.02490606876949085;-0.3016400616162927;-0.9591853219209295;0.9990000000000001;0.007206040987487621
56:59.0;-0.023848670998835936;-0.3030728752437711;-0.9622326084086555;1.0070000000000001;0.006954906916221603
56:59.0;-0.022680457044850725;-0.30409478338492635;-0.9656165235531536;1.013;0.0066598655368933024
56:59.0;-0.021473519420252073;-0.30469331384648657;-0.969066363487374;1.02;0.0063404440260814866
56:59.0;-0.02032381567378536;-0.30489604226936;-0.9722859388939656;1.025;0.006024916599314746
56:59.1;-0.01934247631495268;-0.30476842104627894;-0.9749766810729429;1.025;0.0057474641019778
56:59.1;-0.01864449590595265;-0.30440830617713793;-0.9768591877806735;1.023;0.005544202826336344
56:59.1;-0.018335590600720188;-0.3039375301615752;-0.9776921666260905;1.0270000000000001;0.005448555373926367
56:59.1;-0.01849843067637463;-0.3034910959974646;-0.9772889500452362;1.0270000000000001;0.0054866066902508875
56:59.1;-0.019179877815705446;-0.30320476062213425;-0.9755317412422756;1.0290000000000001;0.005673136809437749
56:59.1;-0.020381027497150747;-0.3032015792858304;-0.9723827784398137;1.026;0.006008897454545249
56:59.1;-0.022051738554490625;-0.3035781336054914;-0.9678906915770152;1.02;0.006479472255759663
56:59.1;-0.024090874920588465;-0.30439223372319746;-0.9621901539724425;1.013;0.007055812784091059
56:59.1;-0.026352487979113482;-0.3056548301041696;-0.9554937364794188;1.003;0.007696277731884795
56:59.1;-0.028657026207114147;-0.30732832576250513;-0.9480764830790104;0.992;0.008349819454855393
56:59.1;-0.030806050835702717;-0.30933161423638383;-0.9402556261265049;0.983;0.008959964241584325
56:59.2;-0.03259886786394215;-0.31155031301430014;-0.9323692518883171;0.981;0.009469316929219873
56:59.2;-0.03384957932621857;-0.3138497350038843;-0.92475751987262;0.981;0.009824329357268425
