Time;AccX;AccY;AccZ;Acc-old;Acc-trns
58:02.2;0.01565934969859057;-0.17727964573806965;-1.0194457439500724;1.033;0.0028300669850619305
58:02.2;0.029215919667290414;-0.17386441898130436;-1.0111583161255076;1.035;0.005136288779835267
58:02.3;0.0423509278096636;-0.17056468811326048;-1.0027499291193298;1.025;0.007243437106331998
58:02.3;0.0546266850895176;-0.1675061240293551;-0.9942612911907894;1.013;0.009097793356093231
58:02.3;0.06568567796309542;-0.16476761576994942;-0.9857490171682652;0.986;0.010668635977337318
58:02.3;0.07527844549327191;-0.1623849673860081;-0.9772852323143063;0.986;0.011946420599106227
58:02.3;0.08327352315791575;-0.16036569636508494;-0.9689578514399543;0.986;0.012939672956566119
58:02.3;0.08964853649251148;-0.15870490346548544;-0.9608770692255274;0.986;0.013671034481452161
58:02.3;0.09446737811876618;-0.15739710015397745;-0.9531879136018037;0.987;0.014172847547349186
58:02.3;0.09785052998303881;-0.15644305709643638;-0.9460831236549412;0.9840000000000001;0.014482674562310602
58:02.3;0.099944903939818;-0.15585242399522836;-0.9398087106025653;0.9670000000000001;0.014639076563238184
58:02.3;0.10089853373947591;-0.15564312113932338;-0.934656474743765;0.9540000000000001;0.01467799735695102
58:02.4;0.10084443235500981;-0.15583831404060022;-0.9309423419575982;0.9470000000000001;0.014630155781886605
58:02.4;0.09989536617323404;-0.15646158719292486;-0.9289741219446429;0.948;0.014519668160502847
58:02.4;0.09814721526131555;-0.15753075358329816;-0.9290142455533095;0.937;0.014363679496096751
58:02.4;0.09568623101233233;-0.1590508769482737;-0.9312423058683441;0.937;0.01417255705444474
58:02.4;0.09259700152204488;-0.16100781168817083;-0.9357214472279134;0.937;0.013950521887704568
58:02.4;0.08897056197626117;-0.1633643378004341;-0.9423727821607595;0.945;0.013697027404316366
58:02.4;0.08491220257755817;-0.16606092036616926;-0.9509616615903623;0.9590000000000001;0.013409128588819047
58:02.4;0.08054661794003028;-0.16902184291106712;-0.9610980196627738;0.9640000000000001;0.013084520883299464
58:02.4;0.0760169568984911;-0.1721651996807165;-0.9722513840249485;0.972;0.01272431525780196
58:02.4;0.07147556641399354;-0.1754132748861336;-0.9837809485054221;0.9890000000000001;0.012334412552392598
58:02.5;0.06706735090940805;-0.17869984684680973;-0.9949814284517369;1.015;0.011924778130633494
58:02.5;0.06291001274035359;-0.18197289415488976;-1.0051433980374551;1.042;0.011506798283975155
58:02.5;0.05907714213882981;-0.18519326791724985;-1.013621633382982;1.068;0.011089719066579105
58:02.5;0.05558933962232778;-0.18833081127224593;-1.0198996469546815;1.068;0.010677518523104805
58:02.5;0.05241576023087067;-0.19135932405230244;-1.0236372185264337;1.068;0.010267331527345294
58:02.5;0.04948526980924779;-0.1942516133364032;-1.0246919621464523;1.054;0.009849947291586636
58:02.5;0.046704441786059814;-0.19697604254691867;-1.0231136460115824;1.037;0.009412293707190869
58:02.5;0.043979027100127174;-0.19949578640215945;-1.0191174109080607;1.0270000000000001;0.008941359697811376
58:02.5;0.041235285699374374;-0.20177087979702849;-1.0130465046665438;1.03;0.008428627835149943
58:02.5;0.038437371295917656;-0.20376196536125407;-1.005334760097012;1.028;0.007873856556128007
58:02.6;0.03559750543034821;-0.2054345145199603;-0.9964738722464388;1.025;0.007287169828224913
58:02.6;0.03277709071592404;-0.2067629027179176;-0.9869842893180285;1.02;0.006688877822975591
58:02.6;0.030078534888868597;-0.20773383081837962;-0.9773857975057086;0.9740000000000001;0.006107028294328219
58:02.6;0.02762953949437517;-0.208348206339203;-0.9681666399471556;0.9740000000000001;0.005573314189457707
58:02.6;0.025564040073925876;-0.2086209699077346;-0.9597558464384498;0.9740000000000001;0.005118564923069905
58:02.6;0.024004836754880878;-0.20857946967144672;-0.9525057956846937;0.9740000000000001;0.004769116622695396
58:02.6;0.02305081179853146;-0.2082615521338428;-0.9466875573431867;0.972;0.004544666245878181
58:02.6;0.02276853755152513;-0.2077144073160813;-0.9424953603828728;0.97;0.004457393526809774
58:02.6;0.0231863781744623;-0.20699516510164856;-0.9400542846365163;0.966;0.004511760625017692
58:02.6;0.024289128698502874;-0.20617407826582387;-0.9394267719100784;0.9570000000000001;0.004704450792852734
58:02.7;0.02601262675716885;-0.20534011480119832;-0.9406166113573585;0.956;0.00502424320867896
58:02.7;0.02823988322449901;-0.20460694532217075;-0.9435721485038123;0.972;0.0054520318146560835
58:02.7;0.030800948950470097;-0.20411550197819187;-0.9481912920363159;0.9840000000000001;0.005961232339984445
58:02.7;0.03347709674461211;-0.2040291798602308;-0.9543280615210095;0.9840000000000001;0.006518351341744897
58:02.7;0.03600826782109232;-0.20452035144150413;-0.9617968610006566;0.9840000000000001;0.0070830794915272355
58:02.7;0.03810319069567587;-0.20575010781310404;-0.9703708739631068;0.993;0.007607451079658147
58:02.7;0.03945299203697694;-0.20784434461740187;-0.9797746716424056;0.995;0.008034231936813215
58:02.7;0.039749359956070415;-0.2108690639080554;-0.9896743502182401;0.995;0.008295361654364073
58:02.7;0.03870699874024545;-0.21480780374643127;-0.9996699864614469;1.001;0.00831182146986245
58:02.7;0.036088210054621254;-0.21954441482127324;-1.0092961852934288;1.01;0.007996618308715541
58:02.8;0.03172613658472551;-0.2248544453191977;-1.0180365190044893;1.0290000000000001;0.007262431092986714
58:02.8;0.025543339697298446;-0.23040818714026018;-1.0253551978144242;1.045;0.006034619937287953
58:02.8;0.017563889552097794;-0.23578785253929496;-1.0307446404840623;1.071;0.004268676171927113
58:02.8;0.007918908549923371;-0.24051984766673212;-1.0337827130651027;1.071;0.001968999080593195
58:02.8;-0.003154092115124321;-0.2441210028067942;-1.0341907120508045;1.071;0.0007963062990018709
58:02.8;-0.015319809809256332;-0.24615661427609511;-1.0318839833863924;1.091;0.0038913093273855144
58:02.8;-0.028166701486866844;-0.24630798294554687;-1.0270090785372439;1.1079999999999999;0.007125063866072316
58:02.8;-0.0412466953038;-0.24444405705960806;-1.0199607146450658;1.102;0.010283763636203681
58:02.8;-0.054131726159928104;-0.24068375844329498;-1.0113699763677475;1.0959999999999999;0.01317676248773624
58:02.8;-0.06647488240335364;-0.2354259463040009;-1.0020578523204209;1.072;0.015682117303176316
58:02.9;-0.07805623036076041;-0.22931960998364337;-0.9929558053488389;1.057;0.017773734456510218
58:02.9;-0.08879564449955794;-0.22315708555880442;-0.9850009485149681;1.018;0.019518165373466387
58:02.9;-0.09872947899076939;-0.2177044782808585;-0.9790138695713633;0.903;0.021042776981101765
58:02.9;-0.10796784705231874;-0.21352089948557396;-0.9755699962635822;0.903;0.022490197369877903
58:02.9;-0.11665979565815106;-0.2108266829758038;-0.9748874358355221;0.903;0.023977354295989333
58:02.9;-0.12498727095633322;-0.20945327898768765;-0.9767634155789385;0.924;0.025570683335579044
58:02.9;-0.1331903581805568;-0.2088774024797793;-0.9805838611400504;0.941;0.027280290214251306
58:02.9;-0.14160248953952542;-0.20832866770523437;-0.9854136694808534;1.056;0.029069563310610783
58:02.9;-0.15065749453053992;-0.2069496228513132;-0.9901583731273798;1.133;0.0308716643944915
58:02.9;-0.160838421038035;-0.20397154596429148;-0.9937674631030905;1.13;0.032601993908516
58:03.0;-0.17256979403664136;-0.19886110311935604;-0.9954318538183659;1.097;0.03416065261786437
58:03.0;-0.1860851121545286;-0.19140242218517634;-0.9947318817789161;1.071;0.03542950588844373
58:03.0;-0.2013087854083939;-0.18170067105422213;-0.9917174773419002;1.08;0.03627498376940152
58:03.0;-0.2177792498707907;-0.17011783737589448;-0.9869238142235626;1.08;0.03656368671725818
58:03.0;-0.23462587934859166;-0.15717296008750561;-0.9813273745139004;1.08;0.03618825647378439
58:03.0;-0.2506078853446408;-0.14344552509336467;-0.9762385021719092;1.058;0.035094387607197415
58:03.0;-0.26422233736542045;-0.12950717991527863;-0.973124900632741;0.9990000000000001;0.03329905909468829
58:03.0;-0.27387836609162175;-0.11588884787090638;-0.973373566832267;0.922;0.0308943400041005
58:03.0;-0.278115161169925;-0.10307993435822742;-0.9780234906123512;0.884;0.0280380679522095
58:03.0;-0.27582582236493675;-0.09154891295055864;-0.9875260624424574;0.93;0.02493656789086713
58:03.1;-0.2664471017456694;-0.08176748689909254;-1.0015951810802999;0.981;0.021821463648726717
58:03.1;-0.2500815903594718;-0.07421843533009348;-1.0191858713505357;1.031;0.01891676685957484
58:03.1;-0.22752800545085355;-0.06937234838144367;-1.0386028513650534;1.0979999999999999;0.016393465336593135
58:03.1;-0.2002129487394711;-0.06763118141791334;-1.0577086378335914;1.0979999999999999;0.014322050047705072
58:03.1;-0.17004330239731544;-0.06925381119695642;-1.0741848553665438;1.0979999999999999;0.012649758503661625
58:03.1;-0.1392114081097541;-0.07428874561484101;-1.085805456182039;1.114;0.011229227258541509
58:03.1;-0.10997847728483229;-0.08253534887856151;-1.0906997298510452;1.1540000000000001;0.009900403597323847
58:03.1;-0.08445954532447233;-0.09354598562460563;-1.0875939860707513;1.244;0.00859291848138228
58:03.1;-0.06444327469493466;-0.10667316682630042;-1.0760105487543332;1.272;0.007396892691006933
58:03.1;-0.0512757713310738;-0.12115451251625223;-1.0563839401610902;1.214;0.006562564528001494
58:03.2;-0.04580843410654416;-0.13621733945401232;-1.0300506957407838;1.141;0.006427416445610261
58:03.2;-0.0483805212504182;-0.1511826324774909;-0.9990917884969791;1.055;0.007307651636812567
58:03.2;-0.0588046705752919;-0.16555299150015582;-0.9660443200002086;0.8320000000000001;0.009404720765587637
58:03.2;-0.07634832018887751;-0.17907180641057643;-0.933536547894818;0.8320000000000001;0.012763154487058873
58:03.2;-0.09973217389314797;-0.1917413877752219;-0.9039250243164765;0.8320000000000001;0.017285564283104852
58:03.2;-0.12717758336179574;-0.20379335366574014;-0.8790063008777189;0.845;0.022782038037061518
58:03.2;-0.1565275362641028;-0.215616734054376;-0.859836338273624;0.8170000000000001;0.029019438720515555
58:03.2;-0.18544808019833267;-0.2276620435140723;-0.8466517784483625;0.8059999999999999;0.035745205365510346
58:03.2;-0.21169010829214277;-0.24034635698920243;-0.8388782392477253;0.835;0.042681240919359854
58:03.2;-0.23336096658285937;-0.2539833394140859;-0.8352233359172012;0.885;0.04950351805525252
58:03.3;-0.24913762639170864;-0.2687564321089081;-0.8338593032323436;0.9690000000000001;0.0558330005227314
58:03.3;-0.25836374150543373;-0.284743255365697;-0.8326869249060752;1.022;0.061258556143356735
58:03.3;-0.26101222422571907;-0.30198028514550695;-0.8296451644682762;1.068;0.06539308476514635
58:03.3;-0.257544072418263;-0.3205338313263876;-0.8230101033028707;0.9890000000000001;0.0679407911879553
58:03.3;-0.24872508503370042;-0.3405353062038669;-0.8116305955693578;0.9890000000000001;0.06874484603546023
58:03.3;-0.2354602558472083;-0.3621569896666486;-0.7950728624456637;0.9890000000000001;0.06779870730919531
58:03.3;-0.21868144064407835;-0.3855336969898917;-0.7736693661312145;0.932;0.06522734031643562
58:03.3;-0.1992983486545166;-0.41065335666026676;-0.748475933509966;0.8859999999999999;0.061257168422517876
58:03.3;-0.1782063888604879;-0.4372443287260875;-0.7211450660450283;0.826;0.05619143090819239
58:03.4;-0.15633379963273838;-0.4646908971154213;-0.6937319063746726;0.7979999999999999;0.0503974679898808
58:03.4;-0.13470072015726398;-0.4920106493532615;-0.6684569770390253;0.816;0.0443014438962339
58:03.4;-0.11445713721266773;-0.517918543988977;-0.6474495385914532;0.825;0.038380467994930986
58:03.4;-0.09687048006195798;-0.5409790106273291;-0.6324904485756294;0.8290000000000001;0.0331455964713869
58:03.4;-0.08325425252815681;-0.5598149772397631;-0.6247764884535449;0.8290000000000001;0.029118943729989164
58:03.4;-0.07486325075121007;-0.5733144002673086;-0.6247437012378628;0.8290000000000001;0.026814111927627487
58:03.4;-0.07280055104572747;-0.5807715980291028;-0.6319953615154441;0.861;0.026721075059308232
58:03.4;-0.07796412565848582;-0.5819293176313055;-0.6453614836923;0.843;0.02927979911078735
58:03.4;-0.09102589231311134;-0.576926848987966;-0.6630821264022592;0.8859999999999999;0.03482194434562051
58:03.4;-0.11241875771029035;-0.5661868051452815;-0.6830783130616125;0.9309999999999999;0.04347794642066872
58:03.5;-0.14231715624548535;-0.5502814622272552;-0.7032598502491003;0.961;0.055075438506141994
58:03.5;-0.18061516470268182;-0.529811045086931;-0.7218172389245436;0.983;0.06907206966427377
58:03.5;-0.22691280536022096;-0.5053111759892256;-0.7374533966411077;1.0;0.0845575690715439
58:03.5;-0.28051300410863994;-0.4771961285653218;-0.749526310289897;0.978;0.10033138170789445
58:03.5;-0.340420013348815;-0.4457406957824369;-0.7580916656139371;0.978;0.11503211188864962
58:03.5;-0.40532649015431;-0.41110205601252775;-0.7638511903963363;0.978;0.12728094661588826
58:03.5;-0.473588179301673;-0.3733778340993241;-0.76802299841591;0.953;0.1358074551460428
58:03.5;-0.5432074494851411;-0.3326851092796158;-0.772154587616899;0.932;0.1395414835383088
58:03.5;-0.6118610108905996;-0.2892349027929847;-0.7779041427198405;0.963;0.1376669096736293
58:03.5;-0.6770000747783211;-0.24337813671010072;-0.786820983311158;1.045;0.12964214613817007
58:03.5;-0.7360265751593614;-0.19561310825205946;-0.8001515266270399;1.1340000000000001;0.11520297316368681
58:03.6;-0.7865187357452221;-0.14656194845397785;-0.8186822418782196;1.188;0.094372546214573
58:03.6;-0.8264584320781384;-0.09693374277957505;-0.8426189902554027;1.194;0.06750364740678749
58:03.6;-0.8544142870774297;-0.047490280923285506;-0.8715028841264811;1.1840000000000002;0.0353624274199865
58:03.6;-0.8696582069092048;0.000978896818105598;-0.9041717873738465;1.1840000000000002;0.0007697265525931138
58:03.6;-0.8722229793522692;0.047673765845116844;-0.9387842450838554;1.1840000000000002;0.03903667112917853
58:03.6;-0.8629238709340915;0.09180204226975953;-0.9729273763459824;1.208;0.07707352987261205
58:03.6;-0.8433516652180938;0.13261061440936;-1.003829626795299;1.9269999999999998;0.11226567792441942
58:03.6;-0.8157904019102856;0.16942539463894307;-1.0286729335320037;1.624;0.14217865780747332
58:03.6;-0.782974210959003;0.2016773886985517;-1.044940128849311;0.996;0.16500460888202906
58:03.7;-0.7476816802940771;0.22892754374315766;-1.0507048954724487;1.1440000000000001;0.17984383048465577
58:03.7;-0.7123264961336861;0.2509397569522332;-1.044831652805956;1.599;0.18676474227624426
58:03.7;-0.678722382146823;0.26779372417054265;-1.0271175947123554;1.589;0.18668642317364198
58:03.7;-0.6480479636908689;0.2799504883772371;-0.9983689720930637;1.14;0.1811254406522737
58:03.7;-0.6209244622937089;0.28821233203245167;-0.9603422596434342;1.14;0.1718610139330661
58:03.7;-0.5975378471872278;0.29360489678736706;-0.9155282841773023;1.14;0.16062031692031992
58:03.7;-0.5777856023611799;0.29724107871845135;-0.86684482488242;1.078;0.1488733307984765
58:03.7;-0.5614366132534006;0.3002007400858945;-0.8173113471984569;1.047;0.13775266772846687
58:03.7;-0.548281697320573;0.30342825984388544;-0.7697387541813675;0.977;0.12805694227660394
58:03.7;-0.5382497503116782;0.30763836141583556;-0.7264491598130263;0.865;0.12029000760315484
58:03.8;-0.5314712279210723;0.31323141147446476;-0.6890503491465533;0.765;0.11470861150195821
58:03.8;-0.5282791821331047;0.3202386149306267;-0.6583079132609315;0.7859999999999999;0.11136950032471475
58:03.8;-0.5291472244301075;0.32832803170745806;-0.634162214537345;0.888;0.11017545363430628
58:03.8;-0.5345740047598581;0.33689322455159715;-0.6159024234422261;0.996;0.11092055291086057
58:03.8;-0.544934476832608;0.34521498068898615;-0.6024462692161197;0.996;0.11333191798954975
58:03.8;-0.5603286495579947;0.35264886750748836;-0.5926290484405283;0.996;0.11710306361826642
58:03.8;-0.5804623098689051;0.35877882197696315;-0.585411654964209;0.9279999999999999;0.12191641675420317
58:03.8;-0.6045860712986131;0.36350011003346344;-0.5799628515547087;0.89;0.1274567559899932
58:03.8;-0.6315046886924638;0.3670282901694157;-0.5756241312279816;0.858;0.1334182107115141
58:03.8;-0.6596558607154089;0.3698486478072374;-0.571805518172297;0.883;0.13950500939380453
58:03.9;-0.6872481405398069;0.37262406379168733;-0.5678769757843931;0.9159999999999999;0.14542488605773632
58:03.9;-0.7124387814869961;0.3760815865525476;-0.5631092959204184;0.988;0.15087674960333852
58:03.9;-0.7335245358910497;0.38090212880224106;-0.5566885855123509;1.032;0.15553937935092224
58:03.9;-0.7491163404532591;0.3876348561110433;-0.5477957745342384;1.0659999999999998;0.1590709117264843
58:03.9;-0.7582755115780576;0.39664403326805986;-0.5357212421002668;1.0659999999999998;0.1611264443338544
58:03.9;-0.76060031258756;0.4080819386913942;-0.5199801327745187;1.0659999999999998;0.16139520353412137
58:03.9;-0.7562608699111466;0.4218784232880099;-0.5004009292771308;1.062;0.15965298823962548
58:03.9;-0.7459850796642916;0.43774347929236673;-0.47716859085078456;1.044;0.15581945309785714
58:03.9;-0.7309992267905754;0.455184061306275;-0.450810557288982;1.0090000000000001;0.15000234276937313
58:03.9;-0.7129252348426872;0.47353644228405267;-0.4221232765789258;1.01;0.14250716316357154
58:04.0;-0.6936338988160139;0.49201236931615766;-0.392050157677525;0.9059999999999999;0.13379748916835957
58:04.0;-0.6750563426430065;0.5097543131752197;-0.3615337099929554;0.855;0.12440840699376815
58:04.0;-0.6589689004562118;0.5258961393898873;-0.33137062479091284;0.815;0.11483622516600256
58:04.0;-0.6467823702537504;0.5396297853518581;-0.30209835323396805;0.8140000000000001;0.10543928309596809
58:04.0;-0.6393720397009199;0.5502793122923998;-0.2739349003586485;0.8140000000000001;0.0963793943121914
58:04.0;-0.6369776111974758;0.5573794618290527;-0.24678055912718894;0.8140000000000001;0.08761653491636619
58:04.0;-0.6391892683990775;0.560752883249135;-0.2202762339206453;0.841;0.07895299930095344
58:04.0;-0.6450236109945411;0.560581361357883;-0.1939044686291059;0.8270000000000001;0.070113570490325
58:04.0;-0.6530831589285996;0.5574675206100637;-0.16711763132219815;0.938;0.06084295879025954
58:04.0;-0.6617819546275648;0.5524791181096226;-0.13947651285994986;1.09;0.050995501754116324
58:04.1;-0.6696002288446989;0.547151890433307;-0.11077538497009377;1.225;0.040585113556886224
58:04.1;-0.67530764850143;0.5434043529610443;-0.08111976752294354;0.9590000000000001;0.029768124881392764
58:04.1;-0.6780916135851359;0.5433240981480885;-0.0509269113450434;0.795;0.018762671655936404
58:04.1;-0.6775631798813941;0.5488456821696973;-0.020851272941692867;0.73;0.00775412187385964
58:04.1;-0.6736694703879387;0.5614099795139905;0.008320814319549053;0.73;0.0031469716124323697
58:04.1;-0.666575696425985;0.5817052115545861;0.03575679083623721;0.73;0.013864715545641903
58:04.1;-0.6565729756703289;0.6095461395692323;0.0606299058233492;0.831;0.02426478692861829
58:04.1;-0.6440367257845664;0.6439019469687335;0.08216293719377944;0.914;0.034072682619717486
58:04.1;-0.6294295791644418;0.6830503520844896;0.09970147947016454;1.032;0.04286486600907652
58:04.1;-0.6133231798640617;0.724809111515955;0.11283497696371905;1.06;0.05015991217644728
58:04.2;-0.5964063925022081;0.7667873708725681;0.12153806797622894;1.0490000000000002;0.055581411224406234
58:04.2;-0.57945677529719;0.8066164461473597;0.1262651078466788;1.001;0.05901623120220231
58:04.2;-0.5632713692772112;0.8421514253528378;0.12793616924355278;0.998;0.060687773927647494
58:04.2;-0.5485648834063304;0.8716598555927376;0.1278031636108619;1.1520000000000001;0.06111061466385608
58:04.2;-0.5358515712625943;0.8940052725010111;0.12723765062921735;1.1520000000000001;0.06095372202373276
58:04.2;-0.5253452138845464;0.9087907518147843;0.12750124724916678;1.1520000000000001;0.0608727766385382
58:04.2;-0.5169228513909571;0.9163977702520963;0.1295472672361619;1.179;0.061367440636912116
58:04.2;-0.5101814708871267;0.9178736562945033;0.13388154862143972;1.046;0.06269433703152394
58:04.2;-0.5045835678526972;0.9146710128012546;0.14050289596130017;0.904;0.06484601537574289
58:04.2;-0.49965289450347916;0.9083047036772288;0.14895074002205247;0.922;0.06759936806396342
58:04.3;-0.49515594101356825;0.9000443455074273;0.1584746474005379;1.0859999999999999;0.0706261766213966
58:04.3;-0.4912054366799733;0.890752967381484;0.16827959485577657;1.107;0.07362950834138056
58:04.3;-0.48825239559154704;0.880902773250772;0.1777418646497665;1.105;0.07644728953950915
58:04.3;-0.4869726347458136;0.8707120118433127;0.18650991927025068;1.014;0.07908261594728715
58:04.3;-0.4880866693760216;0.8603169920514162;0.1944870002098119;1.014;0.08166689141545935
58:04.3;-0.4921719204348003;0.8499171738491311;0.201749953243421;1.014;0.08439308836765273
58:04.3;-0.4995240087103341;0.8398669095635053;0.20845676253485634;1.008;0.08745463384287393
58:04.3;-0.5101002135190815;0.8307075587444637;0.2147693795695297;0.99;0.0910072581163419
58:04.3;-0.523549184126597;0.8231422152323742;0.22080221043945794;0.996;0.09515591269417788
58:04.3;-0.5393081945302464;0.8179643567972226;0.22660144558314893;1.035;0.09996180160811761
58:04.4;-0.5567328040023435;0.8159605559089046;0.23215455712843758;1.051;0.10546131689030645
58:04.4;-0.5752165572169107;0.8178088432318154;0.23741802038962828;1.0390000000000001;0.11168551735779622
58:04.4;-0.5942667845523416;0.8239885284016266;0.2423434931420319;1.051;0.11866809916199025
58:04.4;-0.6135236362898302;0.8347096115325281;0.24688797064979623;1.064;0.12643480499285933
58:04.4;-0.6327301419140747;0.8498631028294789;0.2510070744513628;1.064;0.1349750385899097
58:04.4;-0.6516721526226107;0.8689896295126267;0.25463985880817946;1.064;0.14420162069045947
58:04.4;-0.6701094688903392;0.8912659123641271;0.2576941572580134;1.085;0.15390673434015353
58:04.4;-0.6877172563304857;0.9155149467130846;0.2600396287240524;1.113;0.16372496194962602
58:04.4;-0.704051374364353;0.9402496707036414;0.26151489650886395;1.133;0.17311869631614418
58:04.4;-0.7185440424338841;0.9637604405445461;0.26195151601843036;1.156;0.18140255722949797
58:04.5;-0.7305314938678085;0.9842546891226539;0.2612095562198802;1.2690000000000001;0.1878172586394597
58:04.5;-0.7393137351981257;1.0000462364064067;0.25921325119731153;1.374;0.19164877769661853
58:04.5;-0.7442420284298565;1.0097675556102104;0.2559736452516554;1.42;0.19236712628523644
58:04.5;-0.7448191567968904;1.0125560928108641;0.25158691508689546;1.35;0.18973959943035235
58:04.5;-0.7407890490571604;1.0081688477951318;0.24620534988601173;1.35;0.18387611234325668
58:04.5;-0.7321943973839299;0.9970067640459478;0.2399936015261306;1.35;0.17519599312557008
58:04.5;-0.7193902765288115;0.9800548176792121;0.2330923853047246;1.2930000000000001;0.16433989968010612
58:04.5;-0.7030113060957951;0.9587497989008449;0.22560488154874728;1.193;0.15206038576867056
58:04.5;-0.6838993586256008;0.9347902986807224;0.2176069437714987;1.102;0.1391166600624377
58:04.5;-0.6630082175762682;0.9099171544541942;0.20917344747949818;1.062;0.1261906909376468
58:04.6;-0.6413053129903914;0.885707062892771;0.2004098832050475;1.062;0.11383454624123338
58:04.6;-0.619686722776937;0.8634178417621715;0.19147677156041223;1.02;0.10244937333793434
58:04.6;-0.5989151858465244;0.8439015209901926;0.18259592268190453;1.014;0.0922886238844518
58:04.6;-0.5795855517321612;0.8275807304677445;0.1740341342806733;0.9790000000000001;0.0834761398017682
58:04.6;-0.5621180077926821;0.814476562241863;0.16606929677402277;0.9790000000000001;0.076031828741828
58:04.6;-0.5467770806017966;0.8042761711442615;0.15895104560458612;0.9790000000000001;0.06990027634607687
58:04.6;-0.533712595966806;0.7964283892174996;0.15286849372797862;0.9790000000000001;0.0649788724919641
58:04.6;-0.5230149769650874;0.7902554109914015;0.14793089857168779;0.995;0.06114212081971835
58:04.6;-0.5147729302918362;0.7850685055521955;0.14415989443042754;1.0;0.05825962863031207
58:04.6;-0.5091198168691238;0.7802743148336657;0.14149057295785752;1.018;0.0562075710311569
58:04.7;-0.5062559539715917;0.7754563645208866;0.13978179134272425;0.993;0.0548754519976472
58:04.7;-0.5064377429497235;0.7704176040765206;0.1388373288574153;0.9620000000000001;0.054169959638435454
58:04.7;-0.5099322283864404;0.7651767408678339;0.13843594441249688;0.9490000000000001;0.05401608312080946
58:04.7;-0.5169458891828729;0.7599218437415803;0.13836317726802833;0.884;0.05435437930818352
58:04.7;-0.5275439783231609;0.7549351058398539;0.13843616604118636;0.884;0.05513379086559811
58:04.7;-0.5415787170229999;0.7505096947768747;0.1385172760270792;0.884;0.05630174276437316
58:04.7;-0.558642842291119;0.7468791687776616;0.13851911951865406;0.899;0.05779553758775664
58:04.7;-0.5780613521089492;0.7441709839850278;0.13840632267522288;0.907;0.059539145418248764
58:04.7;-0.5989285927487535;0.7423860729636758;0.13819782794381366;0.9179999999999999;0.061447763416266864
58:04.7;-0.6201897591867778;0.7414040132201526;0.13797122301802978;0.975;0.06344071036790463
58:04.8;-0.6407557469724516;0.7410143821939674;0.137867545201425;1.058;0.06546078214911967
58:04.8;-0.6596291954694049;0.7409703578399537;0.13808968524096232;1.082;0.06749349904706849
58:04.8;-0.6760128010739915;0.7410499575445214;0.13888354931653002;1.054;0.06957499974949477
58:04.8;-0.6893763732077238;0.7411046291328761;0.14049616787016952;1.051;0.07177949517135797
58:04.8;-0.6994754729411339;0.7410815089373084;0.14311920515005805;1.051;0.07418846464574506
58:04.8;-0.7063294852037791;0.7410168879009709;0.14683807580004465;1.051;0.07685535385031823
58:04.8;-0.7101722473441493;0.7410044673752311;0.15160622458536457;1.0090000000000001;0.07978138210664004
58:04.8;-0.7113876528577695;0.7411454908120773;0.15725305703678255;0.99;0.0829103771633932
58:04.8;-0.7104419612557725;0.7414955394353325;0.16351909388550412;0.996;0.08614014911562382
58:04.8;-0.707823383851633;0.7420297364353953;0.1701002801422871;1.0270000000000001;0.08934108956148909
58:04.9;-0.7039952827642503;0.7426424029816696;0.1766833335644438;1.046;0.09237300596473491
58:04.9;-0.6993637937395165;0.743179117060755;0.1829657999064535;1.036;0.0950969441262103
58:04.9;-0.6942581088843468;0.74348369176067;0.1886672147284115;1.037;0.09738427733103941
58:04.9;-0.6889227445953826;0.743441056156874;0.19354164760076864;1.044;0.09912689392244427
58:04.9;-0.6835221623961891;0.743005309875117;0.197395855756555;1.044;0.10024957696778984
58:04.9;-0.6781563539318954;0.7422100198996879;0.20010809506956112;1.044;0.10072129616078507
58:04.9;-0.6728831375584097;0.7411611573116972;0.20163915708236102;1.0270000000000001;0.10056044096387176
58:04.9;-0.6677417585920009;0.7400149730619293;0.20203054821470365;1.016;0.0998311527595458
58:04.9;-0.6627732095988375;0.7389464157128264;0.20138922199688455;1.0090000000000001;0.09863115440651128
58:04.9;-0.6580343445931545;0.7381163631040447;0.1998615763780134;1.004;0.09707395027344747
58:05.0;-0.6536046677138415;0.7376447662539837;0.1976026970987026;0.992;0.09526980546501738
58:05.0;-0.6495860619584173;0.7375935102019946;0.19474881313181455;0.9940000000000001;0.09331008912494038
58:05.0;-0.6460959240758118;0.7379609402795003;0.19139972618703227;1.008;0.09125815599757033
58:05.0;-0.6432536315591351;0.7386883177989519;0.1876146361281294;0.991;0.08914771026986969
58:05.0;-0.6411612617970355;0.7396748539956017;0.18342103223882172;0.991;0.08698758277793532
58:05.0;-0.63988271724679;0.7407956529696408;0.1788325081030671;0.991;0.08477060312694566
58:05.0;-0.6394274566026803;0.7419187422190049;0.1738686533591175;0.992;0.08248384802704686
58:05.0;-0.6397432515151255;0.7429202964290548;0.16857052624968313;0.996;0.08011790405236675
58:05.0;-0.6407190824341454;0.7436977479344804;0.16300813073348064;0.998;0.07767359250776992
58:05.0;-0.6421972325698608;0.7441796328925372;0.15727938310957304;0.997;0.0751654058322673
58:05.1;-0.6439926071025384;0.7443309149061098;0.15150202472470778;1.001;0.07262152691411007
58:05.1;-0.6459165326250994;0.7441533660297587;0.1458009688455337;1.004;0.07008083393521751
58:05.1;-0.6478018638020183;0.7436811182437285;0.14029377895119755;1.004;0.0675876523903947
58:05.1;-0.6495261002468401;0.7429714913811862;0.13507677380599342;0.997;0.0651852651331818
58:05.1;-0.6510290940668408;0.7420921420152946;0.13021453153433338;0.997;0.06290970998274645
58:05.1;-0.6523219539079377;0.7411077438294901;0.12573587162500297;0.997;0.06078585684388887
58:05.1;-0.6534846444811084;0.7400703618845608;0.12163797500867797;0.9990000000000001;0.058827119116019795
58:05.1;-0.6546518031807523;0.7390157420883282;0.1178971148670777;0.997;0.057038386979859114
58:05.1;-0.6559887062209736;0.7379645916258193;0.11448185203243483;0.992;0.05542025674991519
58:05.1;-0.6576612769906898;0.736926187802687;0.11136433406025739;0.9890000000000001;0.053972481473943915
58:05.2;-0.6598052241210118;0.7359019874705645;0.10852703341909596;0.985;0.052695515501545324
58:05.2;-0.6624996948720067;0.7348882458877891;0.10596431176757076;0.986;0.051590128010139805
58:05.2;-0.6657500888543958;0.7338777498923286;0.10367962578348631;0.9890000000000001;0.05065570625760445
58:05.2;-0.6694828232002742;0.7328611120181624;0.1016798286041674;0.997;0.04988798025162848
58:05.2;-0.6735519488209454;0.7318279537509148;0.09996836783863085;0.997;0.049276822188977325
58:05.2;-0.6777546905291019;0.7307682761563513;0.09853952752917355;0.997;0.04880481750415569
58:05.2;-0.6818524076524747;0.7296743249809388;0.09737549964734996;1.002;0.04844725135605091
58:05.2;-0.6855952377296397;0.7285428937140963;0.09644669804814658;1.011;0.04817373090265308
58:05.2;-0.6887496152860122;0.7273773989971952;0.09571441037460474;1.014;0.047951091809172015
58:05.2;-0.6911261807708637;0.726188794744388;0.09513452680238907;1.0170000000000001;0.047746885781543916
58:05.3;-0.6926034805350697;0.7249948476489603;0.09466134703060516;1.0170000000000001;0.04753267655606345
58:05.3;-0.6931428178491879;0.7238180728388476;0.09425064560703449;1.014;0.047286425301769505
58:05.3;-0.6927916099359609;0.722682894159749;0.09386137566731723;1.01;0.046993447840594685
58:05.3;-0.691675230968987;0.7216123706084601;0.09345611550091246;0.9990000000000001;0.046645947498089646
58:05.3;-0.6899797831197096;0.720624833366449;0.09300118539580023;0.9990000000000001;0.04624173005845734
58:05.3;-0.687930031667783;0.7197310714399673;0.09246732340574536;0.9990000000000001;0.045782848249765556
58:05.3;-0.6857667226033135;0.7189326868254646;0.09183100615205834;0.996;0.045274532976425856
58:05.3;-0.6837256507990814;0.718221734373638;0.09107590153612535;0.992;0.044724335381498934
58:05.3;-0.6820192541870432;0.7175813286013216;0.0901939753698369;0.99;0.044141317806317526
58:05.3;-0.6808214545153713;0.7169869732251998;0.08918611781935233;0.987;0.04353532171775042
58:05.4;-0.6802569347645208;0.7164086561114571;0.08806229432203072;0.99;0.04291645080394703
58:05.4;-0.6803958794964353;0.7158137390568504;0.0868409305275045;0.9890000000000001;0.042294721839181634
58:05.4;-0.6812543875032803;0.7151703038682993;0.08554696245006797;0.991;0.04167958428789208
58:05.4;-0.6827997712983126;0.714450330567728;0.084208377177315;0.993;0.041079079788254
58:05.4;-0.6849591289591151;0.7136322409412458;0.08285198590652629;0.993;0.04049878959773517
58:05.4;-0.6876292067939146;0.7127027522705777;0.08149973134706963;0.993;0.03994099944008189
58:05.4;-0.6906860929658029;0.7116581818747675;0.08016648571852857;0.995;0.03940442585961851
58:05.4;-0.6939944004428709;0.7105052185697301;0.07885951643252258;0.998;0.03888457423994525
58:05.4;-0.6974160663135265;0.7092610875635341;0.07757944838403116;0.9990000000000001;0.03837468016936294
58:05.4;-0.7008184082915107;0.7079531635745461;0.07632247078612746;1.001;0.03786713508945172
58:05.5;-0.7040807785619586;0.7066181274038931;0.07508292677783782;1.004;0.037354975515451506
58:05.5;-0.7070995102556858;0.7053004556797614;0.07385484804368637;1.003;0.03683271306650184
58:05.5;-0.7097911884109215;0.70404972338288;0.07263172879978035;1.002;0.03629612962271241
58:05.5;-0.7120943220642973;0.7029164927798717;0.07140531867666014;1.003;0.03574142124386275
58:05.5;-0.7139694840101994;0.7019474044209983;0.07016474596949926;1.003;0.035164397406667026
58:05.5;-0.7153979548135692;0.701180675036284;0.06889660766419282;1.003;0.03456013824392566
58:05.5;-0.7163790051303697;0.7006429914710344;0.06758583662924303;1.003;0.03392308384964766
58:05.5;-0.7169263701088278;0.7003480496980482;0.06621688770192144;1.003;0.03324736589359003
58:05.5;-0.7170648369235869;0.7002964262222825;0.0647751184325853;1.003;0.03252734020813461
58:05.5;-0.7168276780175102;0.7004764700045081;0.06324871780248796;1.004;0.03175850446663024
58:05.6;-0.7162550435604441;0.7008661858902376;0.061631462453208725;1.004;0.0309389288532755
58:05.6;-0.7153929254066723;0.7014360962746848;0.059925893027787086;1.006;0.03007095819592499
58:05.6;-0.7142921674432181;0.7021527574051196;0.058145759004886235;1.005;0.029162552762023296
58:05.6;-0.713007041589058;0.7029824183546292;0.056316274107640625;1.003;0.028227485724719576
58:05.6;-0.7115931723489951;0.7038943477011181;0.054471464112045294;1.003;0.02728401620888709
58:05.6;-0.7101051908728473;0.7048632641205353;0.05264970025787411;1.003;0.02635259982250777
58:05.6;-0.708594835122251;0.7058701550202503;0.05088968348772557;1.003;0.02545379558593
58:05.6;-0.7071097347064009;0.7069010437171935;0.049228280171272655;1.0;0.024607081217265944
58:05.6;-0.7056924579126239;0.7079440064158133;0.04769989735714218;0.9990000000000001;0.023830427302492588
58:05.6;-0.7043794201480124;0.7089854451189513;0.046336278631414395;0.998;0.023140094594735736
58:05.7;-0.7031997324674187;0.7100069166330553;0.04516582580055985;0.998;0.02255024327632528
58:05.7;-0.7021742747906938;0.7109836552146255;0.044212236425293185;0.9990000000000001;0.022072270760822722
58:05.7;-0.7013151098671936;0.7118853847783077;0.04349290041268497;0.9990000000000001;0.02171409048108108
58:05.7;-0.7006252142321188;0.7126792658840406;0.04301754834708975;1.001;0.02147956798289688
58:05.7;-0.7000986042417828;0.7133341423004415;0.04278721137085574;1.001;0.021368114664388115
58:05.7;-0.6997211280474673;0.7138249060937163;0.04279343605358778;1.001;0.021374395623422634
58:05.7;-0.6994722008578811;0.714135960895169;0.043017969221338916;1.001;0.021488260802039395
58:05.7;-0.6993275251424504;0.7142633373585296;0.043433241873717485;1.001;0.021695078570736638
58:05.7;-0.6992625887546605;0.7142155505626916;0.04400381838822657;1.002;0.02197657244741524
58:05.7;-0.6992565770107992;0.7140134318497693;0.044688717307191914;1.004;0.022312119689849256
58:05.8;-0.6992961242761652;0.7136890228516776;0.04544430225713577;1.001;0.02268034089894217
58:05.8;-0.6993780982177609;0.7132835305729985;0.04622731020935722;1.003;0.023060719245708506
58:05.8;-0.6995105643723756;0.7128444631569719;0.04699746101238094;1.004;0.023434918891979607
58:05.8;-0.6997112268361224;0.7124221544207403;0.047719163746512624;0.9990000000000001;0.023787515423227257
58:05.8;-0.7000030706259103;0.7120657921978729;0.04836225990504693;0.9990000000000001;0.02410608338172171
58:05.8;-0.7004078099410433;0.7118190494378256;0.048902175805551146;0.9990000000000001;0.024380845868408205
58:05.8;-0.7009385452121154;0.7117155277182732;0.04931996955430979;0.998;0.024604196326089085
58:05.8;-0.7015931070481158;0.711774301025732;0.04960265110786043;0.9940000000000001;0.024770370690821546
58:05.8;-0.7023492781981856;0.7119961402351347;0.049743959330809176;0.995;0.02487546050761625
58:05.8;-0.7031629323586117;0.712361574557846;0.049745455939725895;0.998;0.024917809971659887
58:05.9;-0.7039698444634047;0.7128320335321018;0.049617349147105506;1.0;0.024898593901041433
58:05.9;-0.7046913034633558;0.7133543738665767;0.04937821235812243;1.005;0.024822161873003692
58:05.9;-0.7052429759932344;0.7138677743494047;0.04905314930980112;1.0090000000000001;0.0246958194811818
58:05.9;-0.705545868059019;0.7143112093006314;0.04867076353991684;1.0090000000000001;0.024529058421278564
58:05.9;-0.7055376680879122;0.7146298524730524;0.048259782499769054;1.0090000000000001;0.024332499313141902
58:05.9;-0.7051824767576712;0.7147797010981377;0.04784613397060836;1.0090000000000001;0.02411684956733956
58:05.9;-0.7044772425301368;0.7147307327047907;0.047450962126663276;1.0090000000000001;0.023892106812139643
58:05.9;-0.7034539687985014;0.714469183840641;0.04708970824019598;1.006;0.02366710761807776
58:05.9;-0.7021775686901531;0.7139991429196856;0.04677209075146622;1.005;0.02344938330952378
58:05.9;-0.7007399891197206;0.7133432081584562;0.046502628720349645;1.002;0.02324518121792457
58:06.0;-0.6992518126295677;0.7125417285644625;0.046281240633849335;1.002;0.023059447430201177
58:06.0;-0.6978327044804675;0.7116501384891157;0.046103601209739914;0.997;0.02289563575686257
58:06.0;-0.6966017025045339;0.7107342109103079;0.0459613312573028;0.998;0.02275539357927809
58:06.0;-0.6956677662294986;0.7098636131982856;0.045842330415483586;0.99;0.02263828291941164
58:06.0;-0.6951207711979058;0.7091046496851244;0.045731540599058006;0.99;0.022541687835379343
58:06.0;-0.6950235063373696;0.708513306147907;0.045612350475510224;0.99;0.022461044932723224
58:06.0;-0.6954056601779435;0.708129580972626;0.04546874639410615;0.99;0.022390507561137307
58:06.0;-0.6962606315519974;0.7079736404552515;0.045288180371684;0.99;0.02232409178463573
58:06.0;-0.6975455304174881;0.7080439565423962;0.04506502312320832;0.99;0.022257294833844813
58:06.0;-0.6991844973213549;0.7083175752016562;0.04480425875968336;0.993;0.0221890702437285
58:06.1;-0.7010754472602634;0.7087526409181291;0.04452444583917323;0.9990000000000001;0.02212371069582912
58:06.1;-0.7031001064888535;0.7092927736398933;0.04425819237006932;1.002;0.0220717298082875
58:06.1;-0.7051363495384372;0.7098724071123175;0.04404872727151843;1.002;0.02204889163167205
58:06.1;-0.7070706183318594;0.7104226971314679;0.043943114751809995;1.0090000000000001;0.022073462150579506
58:06.1;-0.7088077849447291;0.7108782916413044;0.04398449460813549;1.0090000000000001;0.02216273416372284
58:06.1;-0.7102769423193567;0.7111845186559105;0.04420561789766192;1.0090000000000001;0.02232993588123604
58:06.1;-0.7114333801945797;0.7113032423718484;0.04462459728168507;1.0090000000000001;0.022582048533067244
58:06.1;-0.7122579744117332;0.7112158341572328;0.04524292207560333;1.0090000000000001;0.02291866855249759
58:06.1;-0.7127550294860027;0.7109231448135584;0.04604564324676561;1.0090000000000001;0.023331974238306824
58:06.1;-0.7129489543919851;0.7104433890432834;0.04700350558923281;1.008;0.023807739570087437
58:06.2;-0.7128797864145713;0.7098089748876308;0.048076488457859105;1.006;0.02432711038739146
58:06.2;-0.712597814533015;0.7090629743783619;0.04921802908488932;1.005;0.024868724591672352
58:06.2;-0.7121581590395825;0.7082554533951919;0.05037939857648605;1.004;0.025410859800968754
58:06.2;-0.7116165532849112;0.7074394779371933;0.051514112008424214;1.003;0.02593352495870238
58:06.2;-0.7110272044657465;0.706666664379661;0.05258230588466799;1.003;0.026420464551155057
58:06.2;-0.7104425363083706;0.7059826969870256;0.05355451700054793;1.003;0.026860810928604116
58:06.2;-0.7099136602346906;0.7054236051785537;0.05441399057044141;1.003;0.027249974369835946
58:06.2;-0.7094902932166414;0.7050132376411525;0.05515710682532984;1.003;0.027589587519940326
58:06.2;-0.7092193335314442;0.7047617584583411;0.055792153757413164;1.001;0.027886629293833804
58:06.2;-0.7091418974237864;0.7046648076125288;0.05633683779496505;0.9990000000000001;0.028151931286316167
58:06.3;-0.709289181656591;0.7047032503115063;0.0568148943474424;0.9990000000000001;0.028398265416605277
58:06.3;-0.7096780451821292;0.7048438102342195;0.05725229473714363;0.998;0.028638295011942063
58:06.3;-0.7103075331948812;0.7050410268869669;0.0576736486659127;0.9990000000000001;0.02888272982409795
58:06.3;-0.7111574674555116;0.705240819433616;0.058099256849350155;1.005;0.029138942965247844
58:06.3;-0.7121895421337668;0.7053854968708775;0.05854295809829938;1.005;0.02941011896299286
58:06.3;-0.7133504094588373;0.7054194423764336;0.059010659005221865;1.005;0.029694827366828526
58:06.3;-0.7145758331613896;0.7052943839251801;0.0594994497104539;1.006;0.02998690882163
58:06.3;-0.7157953341670962;0.7049734879504786;0.0599974741853972;1.0090000000000001;0.030275729434873368
58:06.3;-0.716937064403001;0.7044340535350626;0.0604848674703671;1.008;0.03054696793029585
58:06.3;-0.7179325630366405;0.7036688112451744;0.06093580288117589;1.0070000000000001;0.030783960410335185
58:06.4;-0.7187210266380017;0.7026858958879407;0.06132125365117609;1.01;0.03096938721729584
58:06.4;-0.7192528854504437;0.701507684632161;0.061611932061521095;1.0070000000000001;0.031087004320360472
58:06.4;-0.7194926042539895;0.7001686646867591;0.06178105089581439;1.008;0.031123203757347714
58:06.4;-0.7194207254374951;0.6987123959229394;0.06180667509932439;1.003;0.031068248806588122
58:06.4;-0.7190352704324073;0.6971878875362834;0.06167338494806478;1.003;0.030917033236650744
58:06.4;-0.7183526798649643;0.6956461362346782;0.06137307377341683;1.003;0.030669307390606266
58:06.4;-0.7174084552799508;0.6941374907108492;0.060905005102516736;1.001;0.03032948083370942
58:06.4;-0.7162574255206181;0.6927098715676155;0.060275446220194345;1.0;0.029906180362527898
58:06.4;-0.7149731645130375;0.691407416096014;0.05949720556684164;0.998;0.029411714627314848
58:06.4;-0.7136458847107554;0.6902692279264919;0.05858928454459861;0.995;0.028861538202894187
58:06.5;-0.7123782985162505;0.6893282589576651;0.057576585620037195;0.995;0.028273701628982132
58:06.5;-0.711279306988491;0.6886104736341851;0.05648936259317848;0.993;0.027668172354558027
58:06.5;-0.710455672256549;0.6881341649829601;0.05536208281027786;0.9940000000000001;0.02706590338135524
58:06.5;-0.7100019736085378;0.687908917497996;0.054231648054014744;0.9840000000000001;0.026487641986245664
58:06.5;-0.7099895208376173;0.687933868427251;0.05313538535848767;0.9840000000000001;0.025952695100589347
58:06.5;-0.7104558775842708;0.6881956772033273;0.052109527626966544;0.9840000000000001;0.02547805015186609
58:06.5;-0.7113974614580133;0.6886672215282621;0.05118868014880927;0.986;0.02507815921755172
58:06.5;-0.7127672245001085;0.689307950574006;0.05040610839485173;0.9890000000000001;0.02476533333655316
58:06.5;-0.714478087228764;0.6900662814033753;0.049794089497845605;0.993;0.02455034029489756
58:06.5;-0.7164117323067939;0.6908837427933536;0.04938346969337378;0.998;0.024442704823864198
58:06.6;-0.7184316936819508;0.69169989686902;0.04920210345997347;1.001;0.024450450410186144
58:06.6;-0.7203989411297326;0.6924568827596129;0.049272636783187246;1.006;0.024579418602814766
58:06.6;-0.7221873931778996;0.6931030056174149;0.04961032962866253;1.008;0.024832463038636832
58:06.6;-0.7236966240613396;0.6935954262455115;0.05022116157780152;1.0070000000000001;0.025208646066046617
58:06.6;-0.7248599019866705;0.6939020460213104;0.051100097869327926;1.0070000000000001;0.02570241762582965
58:06.6;-0.7256471441087308;0.6940025763526921;0.05222943499779986;1.0070000000000001;0.026302795043257457
58:06.6;-0.7260634737117139;0.6938889345391002;0.053577302144382825;1.008;0.026992641837877477
58:06.6;-0.7261444844583966;0.6935651026616086;0.05509660865899281;1.006;0.027748220936575276
58:06.6;-0.7259494205096767;0.6930462449783085;0.05672495436254775;1.005;0.02853926163198293
58:06.6;-0.7255535081402997;0.6923567192781119;0.058386007865451145;1.004;0.029329735004207238
58:06.7;-0.7250404481734537;0.6915269502852807;0.05999257796759256;1.003;0.03007937930173917
58:06.7;-0.7244956065494043;0.6905896059449766;0.06145121375770734;1.001;0.030745832650875476
58:06.7;-0.7240001176837172;0.6895756809682939;0.06266783104990024;1.0;0.03128709476984279
58:06.7;-0.723626108852402;0.6885109677922338;0.06355377162753659;0.998;0.0316640468882988
58:06.7;-0.7234332503101082;0.6874133641611178;0.06403185184561619;0.998;0.031842891646934685
58:06.7;-0.7234665949815111;0.6862916379626643;0.06404206403430482;0.998;0.031797465941534125
58:06.7;-0.7237553904466674;0.6851461971468081;0.06354660019726108;0.9990000000000001;0.03151137711717115
58:06.7;-0.7243124654883853;0.683971836050795;0.06253398926254179;0.9990000000000001;0.03097992152858804
58:06.7;-0.7251338207049697;0.6827618150268694;0.061022282979580234;1.0;0.030211746859716622
58:06.7;-0.7261980773688936;0.6815124128719455;0.05906106594761069;0.9990000000000001;0.029230089563477786
58:06.8;-0.7274656654109787;0.6802271244123512;0.05673164385310185;0.996;0.028073193168778914
58:06.8;-0.7288782482867435;0.6789198154384705;0.05414447272935107;0.995;0.02679338614703455
58:06.8;-0.7303596351017253;0.6776164915392794;0.051433013934963495;0.9940000000000001;0.02545439062154727
58:06.8;-0.7318196692243489;0.6763557191711451;0.0487439066378692;1.001;0.02412679187673386
58:06.8;-0.7331616426695781;0.6751878502817561;0.04622474769654038;1.001;0.022882259354262257
58:06.8;-0.734291934987195;0.674173073050352;0.04401210513598595;1.001;0.021787745939068553
58:06.8;-0.7351294915865347;0.6733780946363143;0.04222222533206314;1.0;0.020900850052221663
58:06.8;-0.7356134603493725;0.6728711103035478;0.040945258229493735;1.001;0.020266799177719164
58:06.8;-0.7357085056741998;0.6727149199348839;0.04024249387367624;0.998;0.019916899114007177
58:06.8;-0.7354076222999437;0.6729587809594876;0.040145974724812766;0.996;0.019868203428269747
58:06.9;-0.7347320591701261;0.673630583742834;0.04066015557768432;0.998;0.020124255508542396
58:06.9;-0.7337280651690974;0.6747314375683242;0.0417653361051137;0.995;0.020676739560410693
58:06.9;-0.7324607523198273;0.6762340229567615;0.04342251995334665;0.997;0.02150782031206061
58:06.9;-0.7310061484989834;0.6780845529155708;0.04557925869129146;0.997;0.022592908234289284
58:06.9;-0.7294430305299334;0.6802070828430095;0.04817554811119172;0.997;0.023903373275933983
58:06.9;-0.7278461706468176;0.6825086478414427;0.05114814477651548;0.997;0.02540841918662536
58:06.9;-0.7262821425076785;0.6848842147483729;0.054431916820245646;0.998;0.027075479150618923
58:06.9;-0.7248078525006096;0.6872214558158218;0.05795831018355965;1.0;0.028869237595968694
58:06.9;-0.7234711014097511;0.6894059489058181;0.061652321095938725;1.0;0.030750037266404108
58:06.9;-0.7223123814471909;0.6913270837302782;0.06542953503326046;1.002;0.0326725073787264
58:07.0;-0.7213673555195521;0.6928845030433753;0.06919433804288654;1.006;0.03458500892201513
58:07.0;-0.7206692518486458;0.6939948510769979;0.07284000045553099;1.008;0.0364302524660221
58:07.0;-0.7202499518054789;0.6945983590457123;0.07625095112995812;1.008;0.038147163975809834
58:07.0;-0.7201387468389548;0.6946641745599236;0.07930722410239492;1.004;0.039673802729989244
58:07.0;-0.7203587619222079;0.6941931761008403;0.08189086970811131;1.004;0.040951014641668476
58:07.0;-0.7209220957493009;0.6932177544074475;0.08389378743087925;1.004;0.04192642332241302
58:07.0;-0.7218250658487628;0.6917988804766491;0.08522619169727134;1.003;0.04255836124070044
58:07.0;-0.7230446258450657;0.6900209396977751;0.08582522543919714;1.001;0.042819572353614915
58:07.0;-0.7245366626275016;0.6879846863298942;0.08566329488343799;1.0;0.04270059361447333
58:07.0;-0.7262368153538592;0.6857988575526707;0.08475486829136046;0.9990000000000001;0.04221236372352081
58:07.1;-0.7280643837175078;0.6835713302958583;0.08315978264398634;1.0;0.041387288219155216
58:07.1;-0.7299294746263391;0.6814008121210011;0.08098151705979911;1.001;0.04027814453709575
58:07.1;-0.7317428666897932;0.6793698426127408;0.07836000216958978;1.003;0.038954640553309765
58:07.1;-0.7334273575137435;0.6775395645401621;0.07545959367006161;1.003;0.03749783800056408
58:07.1;-0.7349287029031867;0.6759466118668959;0.07245396492069711;1.003;0.035993142120604636
58:07.1;-0.7362239770746063;0.6746025552934266;0.06951090111359304;1.003;0.03452318517765203
58:07.1;-0.7373257168960767;0.6734961991785539;0.0667800027548196;1.005;0.033162018981439466
58:07.1;-0.7382812981913911;0.6725983609757441;0.06438449105176958;1.004;0.03197120011834963
58:07.1;-0.7391677570951046;0.6718680202515444;0.06241643207404817;1.004;0.030997446830647823
58:07.1;-0.7400825098939081;0.6712584775476199;0.06093435483460281;1.002;0.03027137454752398
58:07.2;-0.7411307408378507;0.6707224439827857;0.05996283828823181;1.0;0.02980710848073383
58:07.2;-0.7424108985529373;0.6702154629399532;0.05949408064475453;0.9990000000000001;0.02960278288713739
58:07.2;-0.7440003756821402;0.6696975495520405;0.05949151959927467;0.997;0.029641960689376714
58:07.2;-0.7459436077419626;0.6691334833684054;0.05989541652666593;0.997;0.029895949318388005
58:07.2;-0.748244461911531;0.6684927114463062;0.060629951753836196;1.005;0.030326857478114432
58:07.2;-0.750863922420359;0.667749795816714;0.06161078985918373;1.005;0.030890986541549093
58:07.2;-0.7537228913816089;0.6668856016845486;0.06275165161718024;1.005;0.03154192591146141
58:07.2;-0.7567091802352879;0.6658887493601119;0.06396883554962846;1.01;0.03223288102604457
58:07.2;-0.7596877593433927;0.6647568334779076;0.06518379463898887;1.016;0.032918313601567516
58:07.2;-0.7625131561448218;0.6634970647284949;0.06632466847453584;1.014;0.03355532387684902
58:07.3;-0.765042277839423;0.6621260040689559;0.0673274835522552;1.0170000000000001;0.034105032116623926
58:07.3;-0.7671458558030996;0.6606683404791178;0.06813716889657619;1.0170000000000001;0.034533891775068125
58:07.3;-0.7687174555362439;0.6591550935839349;0.06870816532218971;1.014;0.03481470401143504
58:07.3;-0.7696798274584858;0.6576218160120413;0.06900435277038439;1.015;0.03492712215641728
58:07.3;-0.7699888131864955;0.6561074770964739;0.06899830569923399;1.015;0.034857627862265636
58:07.3;-0.7696350744201976;0.654654577998402;0.06867028383260743;1.015;0.03459918773162791
58:07.3;-0.7686437469373818;0.6533103521060494;0.06800750490946889;1.013;0.03415084704022302
58:07.3;-0.7670720247909086;0.652128153045515;0.06700402552795405;1.012;0.03351737429312593
58:07.3;-0.765004762137254;0.6511679457541341;0.06566122048015192;1.0090000000000001;0.032708912384899945
58:07.3;-0.7625483018273898;0.6504951039800914;0.06398862855945583;1.006;0.03174053134035
58:07.4;-0.7598228371530834;0.6501772016880824;0.06200476786819471;1.002;0.030631563554206313
58:07.4;-0.7569537283704694;0.6502790295807052;0.059737439585587485;0.9990000000000001;0.029404627744300242
58:07.4;-0.7540623178664356;0.6508564701138577;0.05722320204772998;0.996;0.02808436580752854
58:07.4;-0.7512569618893106;0.6519499207232748;0.054506020839457624;0.991;0.026696063360976643
58:07.4;-0.7486252906523486;0.6535777723266775;0.051635515282337494;0.991;0.02526447533781694
58:07.4;-0.7462288185562198;0.6557304453762839;0.048665672380073875;0.991;0.023813327973922275
58:07.4;-0.7441004665057454;0.6583658800010799;0.045654761761238456;0.9890000000000001;0.0223658276037182
58:07.4;-0.7422446726373969;0.6614078957789106;0.04266616553894679;0.988;0.020945950765303065
58:07.4;-0.7406395737805489;0.6647490113379775;0.03976888759904688;0.992;0.019579791230672508
58:07.4;-0.7392412422556826;0.6682587506112372;0.03703645336344192;0.998;0.018296171994143445
58:07.5;-0.7379900290089804;0.6717970194508031;0.0345435848156423;1.004;0.017126001272794594
58:07.5;-0.7368182907195001;0.6752303066624484;0.03236099909136361;1.0070000000000001;0.016100310297221632
58:07.5;-0.7356579970129171;0.6784472063601791;0.030549414343119984;1.011;0.015247368895055397
58:07.5;-0.7344466986094661;0.6813696817201598;0.029153990724448648;1.004;0.014589523218969044
58:07.5;-0.7331312062435044;0.6839576629995979;0.02820021938242352;1.004;0.01414045592822523
58:07.5;-0.7316696242452547;0.6862066828948119;0.027691972637660586;1.004;0.013903491076765384
58:07.5;-0.7300330008759394;0.688140302892872;0.02761199781815099;1.004;0.013871304882989162
58:07.5;-0.7282071924137418;0.6897999720768265;0.027924667685393846;1.001;0.014027043702857483
58:07.5;-0.7261945951341913;0.6912346697077325;0.02858047719173099;1.002;0.014346567318509565
58:07.5;-0.7240152810343143;0.6924919041722554;0.029521532382983807;1.002;0.0148013500505939
58:07.6;-0.7217073995947048;0.6936107859723893;0.030687079536848374;1.002;0.015361462148321504
58:07.6;-0.7193266902741333;0.6946172223993707;0.03201814723452511;1.001;0.015998082030525218
58:07.6;-0.7169446376589154;0.695521080490156;0.03346064413307164;1.0;0.016685153845376062
58:07.6;-0.7146447159385207;0.6963153311787681;0.03496660936508347;0.996;0.017400016738514254
58:07.6;-0.7125166756766661;0.6969772200326932;0.03649367250635292;0.996;0.018123045768881442
58:07.6;-0.7106496540947733;0.6974712202578908;0.038003149519965675;0.996;0.018836552977622285
58:07.6;-0.7091251354603295;0.6977533224066869;0.039457569127592504;0.9940000000000001;0.019523385002274737
58:07.6;-0.7080102825226068;0.6977763088644943;0.04081870064168815;0.993;0.020165777034735162
58:07.6;-0.7073519127602471;0.697495690550418;0.04204716911124394;0.993;0.02074501831187543
58:07.6;-0.7071717916606768;0.6968757826613102;0.043104356219504814;0.992;0.02124229640096539
58:07.7;-0.7074642981941934;0.69589519973659;0.043956496086793216;0.992;0.021640706509877917
58:07.7;-0.7081974867184205;0.6945509711514849;0.044579936983422955;0.9940000000000001;0.021927946065072326
58:07.7;-0.7093180538735361;0.6928605090131095;0.04496588142820478;0.995;0.022098863192635276
58:07.7;-0.7107596460527836;0.6908609726080548;0.04512292277108934;0.995;0.0221569840344777
58:07.7;-0.7124526362154087;0.6886063577186624;0.04507654960841026;0.995;0.02211452886230553
58:07.7;-0.7143327597463924;0.6861634720388954;0.044866077523900205;0.995;0.021991065123860853
58:07.7;-0.7163465417200168;0.6836078949968013;0.044540211664450255;0.993;0.02181134839874121
58:07.7;-0.7184529840689456;0.68102006189702;0.04415223257604218;0.992;0.021602843901109916
58:07.7;-0.7206223143114724;0.6784809867340146;0.04375526010266933;0.9890000000000001;0.021393195390163572
58:07.7;-0.7228331360848762;0.6760674698006756;0.043397810756539486;0.986;0.02120781442381868
58:07.8;-0.7250694551261959;0.6738472985684328;0.04311995901058785;0.9890000000000001;0.021067812329661314
58:07.8;-0.7273189031934174;0.6718752173912824;0.04295060572697321;0.99;0.020988567108226122
58:07.8;-0.7295727551288996;0.6701902302437027;0.042906295961179355;0.99;0.020979142080683636
58:07.8;-0.7318272896423934;0.6688145443959449;0.04299156389153389;0.996;0.021042510507735507
58:07.8;-0.7340852555664502;0.6677543546660216;0.043200299074373394;0.996;0.02117629525040283
58:07.8;-0.7363559294435587;0.667002345685994;0.043517572002269696;0.996;0.02137370475945077
58:07.8;-0.738652713434201;0.6665412220579975;0.04392165352959738;0.998;0.021624495924994477
58:07.8;-0.7409882723818725;0.6663472693191484;0.044386207116993495;0.9990000000000001;0.02191593441631389
58:07.8;-0.7433679979018167;0.6663930630049989;0.044882626880704754;0.998;0.02223374372628536
58:07.8;-0.7457828338733693;0.6666488108968938;0.04538243659705044;0.997;0.022563023779194547
58:07.9;-0.7482027680543237;0.6670824592709468;0.045859739987098525;0.998;0.022889189769401432
58:07.9;-0.7505726598504107;0.6676594551101254;0.04629363440536651;0.9990000000000001;0.023198987031441874
58:07.9;-0.7528120627364486;0.6683433770889999;0.046670031838593466;1.003;0.023481417770749417
58:07.9;-0.754820102597191;0.669098210481154;0.0469820910444982;1.015;0.023728247758374968
58:07.9;-0.7564852047158631;0.6698920008859328;0.04722916766265728;1.015;0.023934012990119654
58:07.9;-0.7576978791829688;0.6707005305076685;0.047415304439818014;1.015;0.024095906254160714
58:07.9;-0.7583641385577603;0.671509388145322;0.04754861797680309;1.018;0.024214068975530172
58:07.9;-0.7584178029483213;0.6723136067130563;0.04764218187223096;1.021;0.024292491673616322
58:07.9;-0.7578304492940128;0.6731150900870456;0.047715874467201026;1.0190000000000001;0.024340206880328532
58:07.9;-0.7566173722781449;0.6739186738106294;0.04779799429727001;1.0170000000000001;0.02437212923298532
58:08.0;-0.7548378857545883;0.6747280275368142;0.047925490241959;1.014;0.024408944747168034
58:08.0;-0.7525894302747771;0.675542748592384;0.04814211299419006;1.012;0.024475755096037995
58:08.0;-0.749996641320252;0.6763574607759472;0.04849451953339291;1.0090000000000001;0.024599612406413066
58:08.0;-0.7471978513130539;0.6771626147945133;0.04902721800124482;1.006;0.024806519700666232
58:08.0;-0.7443318656756156;0.6779459467608189;0.04977753763142335;1.006;0.025118580326800463
58:08.0;-0.7415271053078349;0.6786937533498285;0.05077117041570759;1.006;0.025551597507516476
58:08.0;-0.7388937060459685;0.6793917934912942;0.052018123975036704;1.005;0.02611301085282285
58:08.0;-0.7365178117747873;0.6800260137116744;0.053509057300693066;1.002;0.02680007938950279
58:08.0;-0.7344570621276729;0.6805832579055906;0.055212615489677375;1.0;0.027598532711758175
58:08.1;-0.7327371096999649;0.6810519932440307;0.057074731567555534;1.0;0.028482121386629974
58:08.1;-0.7313497929836774;0.6814231148487033;0.05902066745143304;0.998;0.029413460388031963
58:08.1;-0.730253664697419;0.6816909258404571;0.06096002227644542;1.0;0.030346343901449826
58:08.1;-0.7293772470849962;0.6818542386743538;0.06279427629889943;0.9990000000000001;0.03122941259774254
58:08.1;-0.7286250340944188;0.6819173371530783;0.06442576992772164;1.001;0.032010719670244846
58:08.1;-0.727885916641483;0.6818904848824764;0.06576648395686677;1.001;0.03264243672404062
58:08.1;-0.7270433746572432;0.6817897380656186;0.0667449288583606;1.001;0.033084841306181445
58:08.1;-0.7259865621040082;0.6816358973318474;0.06731010555143625;0.998;0.03330897798316801
58:08.1;-0.7246213730852179;0.681452599225544;0.06743257587805573;1.0;0.03329787677241187
58:08.1;-0.7228805559096383;0.6812638714127328;0.06710356131978376;0.998;0.0330466523002268
58:08.2;-0.7207317537777698;0.6810917082231792;0.06633324994618282;0.998;0.03256195901617574
58:08.2;-0.7181821854440519;0.6809541463252115;0.06514905981150092;0.9940000000000001;0.03186109147685205
58:08.2;-0.715278893815027;0.6808641239624161;0.06359381793281878;0.99;0.030970681385754154
58:08.2;-0.7121041966527271;0.6808294052802211;0.06172328645057974;0.986;0.02992477488403269
58:08.2;-0.7087670660466134;0.6808539457128849;0.05960259770814506;0.98;0.028762238036993126
58:08.2;-0.7053924421078436;0.6809407714843542;0.05730191552969985;0.98;0.027523856231911028
58:08.2;-0.7021113369822306;0.6810956470887205;0.05489248078802588;0.98;0.026249857424347087
58:08.2;-0.6990539913987718;0.6813302482643008;0.052444187293794374;0.9790000000000001;0.024978465203545963
58:08.2;-0.6963463715474077;0.6816638438941595;0.050024848187601535;0.978;0.02374550200772526
58:08.2;-0.6941085889677004;0.682123194669533;0.047700476267384134;0.977;0.022584628498115954
58:08.3;-0.6924534336577228;0.6827408411899523;0.04553582946655226;0.976;0.021527802872180923
58:08.3;-0.6914836384666773;0.6835521227078318;0.043594626928464;0.9740000000000001;0.02060565908423252
58:08.3;-0.6912872301038667;0.6845913199865483;0.041938920271142995;0.972;0.01984756203346042
58:08.3;-0.6919312658436539;0.6858873671217139;0.04062734399533752;0.971;0.019281205817211163
58:08.3;-0.693454967567213;0.6874597245672087;0.03971231955574057;0.98;0.018931750739538858
58:08.3;-0.6958631776884134;0.6893149634879981;0.03923649434005117;0.98;0.01882052611608268
58:08.3;-0.6991204214720299;0.6914440273432682;0.03922877126381377;0.98;0.018963291585843853
58:08.3;-0.7031457916715637;0.6938196483834668;0.039700330552283725;0.981;0.019368058989849075
58:08.3;-0.7078098609531012;0.6963938128123558;0.04064113129919756;0.987;0.02003259916728837
58:08.3;-0.712935651331053;0.6990959995365128;0.042017603194747;0.995;0.020942013010867407
58:08.4;-0.7183049775581625;0.7018332772452741;0.04377235989230043;1.002;0.022066974520207828
58:08.4;-0.7236698342446175;0.7044930390779831;0.04582640123375779;1.008;0.023363232411895515
58:08.4;-0.728767575074433;0.7069484461075904;0.04808369960815736;1.016;0.024772775159670118
58:08.4;-0.7333387145831621;0.7090660720455189;0.05043784788810607;1.021;0.026226954689025757
58:08.4;-0.7371462152070906;0.7107150897436119;0.052780388952126465;1.034;0.027651695306153943
58:08.4;-0.7399945078163435;0.711777239408865;0.05500988686541271;1.034;0.02897432616053798
58:08.4;-0.7417458052142201;0.7121565108676027;0.057039949047208896;1.034;0.030130731610673176
58:08.4;-0.7423315851558338;0.7117874028958824;0.05880443372020537;1.036;0.031071220238987955
58:08.4;-0.7417584822162675;0.7106410408348762;0.06025920492853952;1.035;0.03176407433491273
58:08.4;-0.7401088705262869;0.7087288715370931;0.061380810369828155;1.032;0.0321964769499139
58:08.5;-0.7375363712563235;0.7061038414848521;0.062162757580955005;1.028;0.03237295087655539
58:08.5;-0.7342561146948362;0.7028590769680333;0.06261022412784771;1.025;0.032311795250368036
58:08.5;-0.7305296256071773;0.6991240370651678;0.06273429749296115;1.0170000000000001;0.03204033926658726
58:08.5;-0.7266447345048294;0.6950577356440023;0.06254686902838234;1.012;0.031589924409937076
58:08.5;-0.722891767878279;0.6908384872434119;0.06205695722341709;0.986;0.030991334752696106
58:08.5;-0.7195384806154287;0.6866507683051141;0.061268720246286885;0.986;0.03027113773853678
58:08.5;-0.7168073930694426;0.6826718325734157;0.06018106957128341;0.986;0.029449258345248357
58:08.5;-0.7148589803652621;0.6790612010316724;0.05878864537966986;0.986;0.028537948361791105
58:08.5;-0.7137820379286799;0.675953916221616;0.057083704017131046;0.982;0.02754196036962876
58:08.5;-0.7135904465111189;0.6734559495400118;0.0550583042983071;0.98;0.02645946464318566
58:08.6;-0.7142251768066471;0.6716397936880661;0.052706469659931705;0.977;0.025283401565069107
58:08.6;-0.7155610405903767;0.6705395167454777;0.050026666019521944;0.976;0.024003392392909925
58:08.6;-0.7174181250079593;0.6701459337990995;0.047025323363458695;0.975;0.022608592283466913
58:08.6;-0.7195777797931782;0.6704036064731458;0.04372167655544338;0.977;0.021091666375442367
58:08.6;-0.7218026688465731;0.6712118505421086;0.04015314961259649;0.991;0.019453498511272847
58:08.6;-0.723859585360412;0.672431159165523;0.03638003477915575;0.991;0.017707826951878714
58:08.6;-0.7255426483215943;0.6738946429067858;0.03248885734597731;0.991;0.015885079295389043
58:08.6;-0.7266943463241949;0.6754228632023188;0.028594277013940038;0.997;0.014034813925303742
58:08.6;-0.7272229765502806;0.676840531209956;0.024838779054134265;1.005;0.012225994439557445
58:08.6;-0.7271156322137499;0.6779936552155952;0.021389010195118883;1.008;0.01054434965267835
58:08.7;-0.7264450408462648;0.678765109598252;0.01842838892374534;1.008;0.009086772246930528
58:08.7;-0.7253677164765637;0.6790862499167659;0.016146709402284912;1.006;0.007953663058188735
58:08.7;-0.7241116512961774;0.6789426531913233;0.01472800023913958;1.0;0.007240730965914239
58:08.7;-0.7229538222381203;0.6783728806558302;0.014338034963696077;0.9940000000000001;0.007031834991180974
58:08.7;-0.7221899392255322;0.677460276333717;0.01511278325630515;0.98;0.007394004708486505
58:08.7;-0.7221005481263397;0.6763194520955527;0.017148418935343256;0.98;0.00837478445162451
58:08.7;-0.7229184719500626;0.675080669715703;0.02049240241017518;0.98;0.010000872028233559
58:08.7;-0.7248020292050878;0.6738755283175659;0.02513483396742895;0.9790000000000001;0.012276515221520934
58:08.7;-0.7278167309846685;0.6728260105083702;0.03100038501452976;0.983;0.015180703391495125
58:08.7;-0.7319264312226532;0.6720373908394862;0.037942503413044594;0.988;0.018663231774652737
58:08.8;-0.7369938288652453;0.6715945589071988;0.04574201506682826;0.996;0.022640515596824007
58:08.8;-0.7427894886274113;0.6715606337353951;0.054111895267288636;0.998;0.02699253821708945
58:08.8;-0.7490079680644879;0.671976489498029;0.0627093911280278;1.0070000000000001;0.031562623913223425
58:08.8;-0.7552894169775044;0.6728603351102641;0.07115572459560082;1.012;0.03616164451267907
58:08.8;-0.7612449682236919;0.6742072495872017;0.07906199404543766;1.0290000000000001;0.04057753085699607
58:08.8;-0.7664837100720009;0.6759888544484306;0.08605763364272362;1.0290000000000001;0.044589424256239255
58:08.8;-0.7706383144301877;0.6781532388189517;0.09181600374319529;1.0290000000000001;0.04798404149412947
58:08.8;-0.7733871218889177;0.6806254504193028;0.09607263723560905;1.028;0.0505713832791799
58:08.8;-0.7744729821463282;0.6833094449563134;0.09863548292205228;1.035;0.0521983615006634
58:08.8;-0.7737210075099971;0.6860927559751187;0.09938967118796617;1.041;0.05276044822099522
58:08.9;-0.7710564675524154;0.6888547481724283;0.09829942665341092;1.0490000000000002;0.0522113383026287
58:08.9;-0.7665210933962028;0.6914781617493012;0.09540806758851571;1.056;0.050569385800879496
58:08.9;-0.7602833159158586;0.6938621399488276;0.09083537461615637;1.055;0.04791854945146584
58:08.9;-0.752636843098152;0.6959337923924845;0.08477051756541196;1.048;0.0444015605118215
58:08.9;-0.7439832795724071;0.6976554557665391;0.0774590189489389;1.013;0.040204638566019066
58:08.9;-0.7347992093590348;0.6990262020866783;0.06918484760678802;1.013;0.03553637498817313
58:08.9;-0.7255945064130453;0.7000777649706444;0.060252053530545344;1.013;0.030606391101768417
58:08.9;-0.716870627250847;0.7008660220052098;0.050970418893111914;0.9990000000000001;0.025609081062130452
58:08.9;-0.7090834036049168;0.7014595984053934;0.04164580212809692;0.9890000000000001;0.020714345430758882
58:08.9;-0.7026108327307962;0.7019274996745265;0.03257272903928617;0.981;0.016064279257785745
58:09.0;-0.6977268783002788;0.7023278822286754;0.02402715610257829;0.978;0.011774100366978834
58:09.0;-0.6945840673388766;0.7026997800434382;0.016259063000585553;0.977;0.00793578966551082
58:09.0;-0.6932073884533484;0.7030588866520631;0.009485260845361835;0.978;0.004622789982916404
58:09.0;-0.6935002597501368;0.7033977942181981;0.003882510745134915;0.98;0.001893914183561935
58:09.0;-0.6952614476839528;0.7036905879815378;-0.00041932881258416413;0.996;0.00020515617577740583
58:09.0;-0.6982099762573903;0.7039010017444143;-0.0033439382359410795;0.996;0.0016434476713113229
58:09.0;-0.7020136282312354;0.7039923117702653;-0.0048735584445835246;0.996;0.002408572026265082
58:09.0;-0.7063170060549534;0.7039366345560873;-0.005050546317923974;0.9990000000000001;0.002511143832260678
58:09.0;-0.7107674648946543;0.7037219837821531;-0.003974522181172741;1.004;0.001987987197647281
58:09.0;-0.7150391495944605;0.7033565116595544;-0.0017951392378705668;1.011;0.0009028247848620673
58:09.1;-0.7188551162751778;0.7028696964943353;0.0012991458275190488;1.013;0.000656408340169975
58:09.1;-0.7220060776024846;0.7023101397121705;0.005095429937487941;1.015;0.002583750813490663
58:09.1;-0.7243633140959012;0.701740114394083;0.009372153053498124;1.014;0.004764004057127831
58:09.1;-0.7258833887503332;0.7012280668431057;0.013914220435528268;1.014;0.007082474636833784
58:09.1;-0.7266033790066204;0.7008409353532935;0.018525602970531175;1.01;0.009433855635339551
58:09.1;-0.7266270636838151;0.7006377813327249;0.023037908555715837;1.01;0.011728653932082623
58:09.1;-0.7261043049374429;0.7006650858513563;0.02731380979517993;1.01;0.013896062845020778
58:09.1;-0.7252067164232406;0.7009530486197083;0.03124529780733303;1.006;0.01588310529298881
58:09.1;-0.7241023237199501;0.7015121345708724;0.03474828039430504;1.0;0.017650964692726707
58:09.1;-0.7229316082784579;0.7023298547163795;0.03775580425649997;0.998;0.0191699980734047
58:09.2;-0.7217878764023248;0.7033686162685563;0.04021175610945669;0.997;0.020414822558764163
58:09.2;-0.7207052972271134;0.7045657968998017;0.042066019902884055;0.9990000000000001;0.0213604645572794
58:09.2;-0.7196571577645824;0.705836872404475;0.0432713542472598;1.002;0.02198014122462382
58:09.2;-0.718565020460751;0.7070818742204;0.043781891191883616;1.006;0.022244891600926128
58:09.2;-0.7173172605568086;0.7081949343297712;0.04355316775000079;1.0170000000000001;0.022125028826101668
58:09.2;-0.715793484625321;0.7090759177086037;0.04254391023463473;1.0170000000000001;0.021593243409007253
58:09.2;-0.7138900318327399;0.7096422122536897;0.04072006964709843;1.0170000000000001;0.020629052024575437
58:09.2;-0.711541737887434;0.7098385066812521;0.03806135168570023;1.015;0.019224017029730273
58:09.2;-0.7087365638773859;0.7096431598554178;0.03456968650827651;1.013;0.017386825720127345
58:09.2;-0.7055217359492575;0.7090706037251583;0.030278318536082975;1.0070000000000001;0.015147174642951957
58:09.3;-0.7020017463648337;0.7081695202299563;0.02525993835432456;1.001;0.012557630774175278
58:09.3;-0.6983296005836132;0.7070168579821503;0.019632518448368542;0.995;0.009693179040323978
58:09.3;-0.6946931125675064;0.7057084562798414;0.013561762121860964;0.99;0.006648664784689097
58:09.3;-0.6912980621676087;0.7043476011101315;0.007258863470622049;0.9840000000000001;0.00353444320421596
58:09.3;-0.6883499794388412;0.7030329448481227;0.0009722013999710357;0.9740000000000001;0.0004704800611977722
58:09.3;-0.6860364806122187;0.701847306326867;-0.005027008489118416;0.9740000000000001;0.002420468674359029
58:09.3;-0.6845122453688472;0.700849079982069;-0.010462604146430805;0.9740000000000001;0.005019327384266688
58:09.3;-0.683888232174358;0.7000677495797198;-0.015071445020136819;0.9740000000000001;0.0072157270311708
58:09.3;-0.6842254984111338;0.6995041201144847;-0.01861954612404593;0.977;0.008911660264854264
58:09.3;-0.685532973344259;0.699134834251552;-0.020916385186020896;0.978;0.010024804709040085
58:09.4;-0.6877683782989269;0.6989198802149299;-0.021827697124302554;0.981;0.010492464707124397
58:09.4;-0.6908418366346285;0.6988113056323484;-0.021286062624394;0.9840000000000001;0.01027623170833621
58:09.4;-0.6946220107956986;0.6987613937289019;-0.019297612411559154;0.986;0.009366579480657198
58:09.4;-0.698944700537801;0.6987289922228062;-0.01594303444444805;0.988;0.00778614638456097
58:09.4;-0.7036237207921237;0.6986832977466917;-0.011371899620252875;0.997;0.005590541182753614
58:09.4;-0.7084631937602381;0.6986051885509926;-0.0057911354716231305;0.997;0.0028662417909624794
58:09.4;-0.7132692482057497;0.6984869337007165;0.0005494103869190844;1.001;0.0002737213368543555
58:09.4;-0.717858982085153;0.6983311968089146;0.00737090394746449;1.001;0.003695058635740666
58:09.4;-0.7220661759033213;0.6981496124304554;0.014377492922246871;1.004;0.0072478411323900925
58:09.4;-0.7257450019701706;0.6979606753114795;0.02126728100389328;1.0070000000000001;0.010772759818323608
58:09.5;-0.7287731946736892;0.6977868409246173;0.02774398962004497;1.01;0.014108605132444652
58:09.5;-0.7310552705802495;0.6976511250997988;0.03352989239230444;1.011;0.017100967086739204
58:09.5;-0.732525634417088;0.6975736123290182;0.03837924687802242;1.012;0.019611432583004837
58:09.5;-0.7331511014254142;0.6975683927075589;0.042090902902962274;1.013;0.021526257326752958
58:09.5;-0.7329322983148183;0.6976416417099666;0.04451874017351228;1.013;0.022763504389910535
58:09.5;-0.7319036827739132;0.6977912957502804;0.045578764274240985;1.013;0.023277805048701052
58:09.5;-0.7301324824284214;0.6980080229301777;0.04525241299234037;1.013;0.023062364210185617
58:09.5;-0.7277169737611417;0.6982767564964425;0.04358660006801232;1.013;0.022148437029916656
58:09.5;-0.7247838385436774;0.6985782881858857;0.0406912533437232;1.011;0.020602724314922036
58:09.5;-0.7214836400014908;0.6988907346491469;0.03673455783659354;1.006;0.018522968467363912
58:09.6;-0.7179837151756377;0.6991907237396509;0.03193570810031822;1.002;0.016031966691036292
58:09.6;-0.7144588374285177;0.6994541942970772;0.02655494387468008;1.0;0.013270334778139617
58:09.6;-0.7110808284517225;0.6996569654625627;0.02088054024419161;0.995;0.010388333007061826
58:09.6;-0.7080083553627896;0.6997755025655267;0.015212360946368176;0.991;0.007536917113550226
58:09.6;-0.7053779474155685;0.6997883801773929;0.00984227904748096;0.991;0.004858299438436434
58:09.6;-0.7032972634203832;0.6996786770003149;0.005033532946172882;0.991;0.002476911456571543
58:09.6;-0.7018414439357169;0.6994369329800602;0.0010027906239925184;0.991;0.0004922637270760573
58:09.6;-0.7010526236545382;0.6990638327148385;-0.002091703760404229;0.991;0.0010251032959246338
58:09.6;-0.7009418057815533;0.6985718819960782;-0.0041550721800407;0.992;0.002034565315936987
58:09.6;-0.7014919439846724;0.6979857077861468;-0.00515515102453765;0.991;0.002524123560899921
58:09.7;-0.7026613175849411;0.69734078786275;-0.005117910595765871;0.99;0.002507747515276063
58:09.7;-0.7043868073771814;0.6966805893236504;-0.004120152787994236;0.9890000000000001;0.0020218933562825146
58:09.7;-0.7065871706760246;0.696052528819361;-0.0022802946456278146;0.991;0.0011214985874544285
58:09.7;-0.7091667394429777;0.6955035243050595;0.0002522539990432867;0.99;0.00012441872701547403
58:09.7;-0.7120200083930289;0.695075879795585;0.0033086499524673605;0.998;0.001637477111530081
58:09.7;-0.715037038667733;0.6948040557534934;0.0067121773033688905;0.998;0.0033346810648310237
58:09.7;-0.7181086997885887;0.6947126543433189;0.01028827985930353;0.998;0.005132608835227221
58:09.7;-0.7211306668684382;0.6948155920944646;0.01387188530441242;1.002;0.0069505474069349454
58:09.7;-0.7240060767784413;0.6951160617498008;0.017312282104903855;1.0070000000000001;0.008712721966450903
58:09.7;-0.7266473422867266;0.6956066805428185;0.02047681215953033;1.008;0.01035022474357847
58:09.8;-0.7289771206678182;0.6962692998971799;0.023254281557585167;1.005;0.011803045220837922
58:09.8;-0.7309282131480943;0.6970744114047046;0.025558213505228647;1.006;0.013022199967829922
58:09.8;-0.7324430633817296;0.6979807729798515;0.027329726068058544;1.008;0.01397180798503928
58:09.8;-0.7334743211033723;0.6989363758129133;0.028539571269112152;1.011;0.01463086497235158
58:09.8;-0.7339875462291833;0.6998817081298552;0.02918852490936978;1.018;0.0149942753567388
58:09.8;-0.733965985683574;0.7007552455076596;0.029305495302501726;1.018;0.015072710476377553
58:09.8;-0.7334163242952114;0.701499831712567;0.02894361052476846;1.018;0.01489123951234197
58:09.8;-0.7323738644557943;0.7020682549957707;0.028175245153751142;1.02;0.014487047278105972
58:09.8;-0.7309057138191681;0.7024270605065814;0.02708679123034354;1.02;0.013906574013595416
58:09.8;-0.7291107742437934;0.7025584793693036;0.025773398409162304;1.0170000000000001;0.013202241809040505
58:09.9;-0.727115482242683;0.702460692218829;0.024333555559157324;1.014;0.012428851267455203
58:09.9;-0.7250648547320465;0.7021466973596605;0.022863416588005135;1.0090000000000001;0.011639808668182773
58:09.9;-0.7231096465305512;0.7016419936631401;0.02145103786096122;1.006;0.010883486390302887
58:09.9;-0.7213917524726469;0.700981162466287;0.020170959701873437;1.002;0.010200091833799304
58:09.9;-0.7200305665620953;0.7002034761405896;0.019079685647958547;0.9990000000000001;0.00961936515329126
58:09.9;-0.7191124847962711;0.6993480591138722;0.01821258248323519;0.9990000000000001;0.009159288409232075
58:09.9;-0.7186845250437359;0.6984496200990449;0.01758251283067455;0.9990000000000001;0.008825804883598994
58:09.9;-0.718751952753063;0.6975357509359115;0.017180150412767967;0.9990000000000001;0.008613357455883302
58:09.9;-0.7192793516215076;0.6966261059879862;0.01697568003805299;0.9990000000000001;0.008505983181727558
58:10.0;-0.7201946478915338;0.6957330960791543;0.016921665224037753;0.9990000000000001;0.008478824609071973
58:10.0;-0.721395767238815;0.6948635833469775;0.016957033762451182;1.001;0.008500080256496026
58:10.0;-0.722759614426593;0.6940212202217199;0.01701203417329135;1.003;0.008533415129828968
58:10.0;-0.7241528672028144;0.6932090884645226;0.01701384212780457;1.005;0.008540767533429918
58:10.0;-0.7254437176520834;0.6924320945536809;0.016892548200669003;1.0070000000000001;0.008485473476257503
58:10.0;-0.7265133774620575;0.6916984467957971;0.016587260103708753;1.005;0.008335565544300146
58:10.0;-0.7272661312305018;0.6910197922998742;0.016051780033127006;1.005;0.008066906984807673
58:10.0;-0.7276370227288207;0.690410182223723;0.015259152782234275;1.005;0.007665710209179725
58:10.0;-0.7275967314114026;0.6898844271794755;0.014204552598016847;1.005;0.00713008390201864
58:10.0;-0.7271535620837867;0.6894563040887278;0.012906263620479974;1.004;0.006470434043004281
58:10.1;-0.726352537524494;0.6891368461417982;0.0114047705117785;1.005;0.005708729694332778
58:10.1;-0.7252714805423677;0.6889328262464027;0.009760170375275731;1.002;0.004876799239724803
58:10.1;-0.7240139710379206;0.6888454357261911;0.008048171518098828;1.0;0.004013894515199966
58:10.1;-0.7226992788710225;0.6888691876938902;0.006354911765266673;0.998;0.003163762732992746
58:10.1;-0.7214497723844148;0.6889912501125527;0.004770838131501386;0.997;0.0023714528215002546
58:10.1;-0.720376861741062;0.6891914159087077;0.003384002937133756;0.99;0.0016800814851577292
58:10.1;-0.719567317207426;0.6894427559783065;0.0022733114054330167;0.99;0.0011277908664382847
58:10.1;-0.7190725547408618;0.689713015861225;0.0015023642686050713;0.99;0.0007451031182933478
58:10.1;-0.7189033731821342;0.6899669855354672;0.0011143840666803094;0.9940000000000001;0.000552756331518894
58:10.1;-0.7190312732609546;0.6901700091295335;0.0011283657593150805;0.996;0.0005599558189035595
58:10.2;-0.7193957091117722;0.690292376424978;0.0015365256549394915;0.9990000000000001;0.000763028458659592
58:10.2;-0.7199153920093683;0.6903138643453129;0.002303507257453853;1.001;0.001144768418633373
58:10.2;-0.7205013164954058;0.6902274910676045;0.003368109853231631;1.002;0.0016749940913633541
58:10.2;-0.7210693552949418;0.6900416288071294;0.0046481151858866355;1.002;0.0023127527837611453
58:10.2;-0.7215507992157622;0.6897799079994752;0.006048262847365183;1.003;0.0030102884251962583
58:10.2;-0.7218997778332761;0.6894787845816185;0.007470747411133448;1.0;0.0037184493355020484
58:10.2;-0.722096994948847;0.6891831841305821;0.008826713510446043;1.0;0.004392676703129569
58:10.2;-0.7221497102370361;0.6889411534257267;0.01004642909952811;1.0;0.004998285886285944
58:10.2;-0.7220882892528058;0.6887985900709528;0.01108597252540322;0.9990000000000001;0.005513867797868168
58:10.2;-0.7219598731997422;0.6887946709685747;0.011929510144237565;0.997;0.0059323320153168825
58:10.3;-0.7218199854879623;0.6889580058227786;0.012587495694032854;0.997;0.0062598076507413775
58:10.3;-0.7217231995615495;0.6893034005945138;0.013091639927088373;0.995;0.0065129109288984835
58:10.3;-0.7217140888257644;0.6898294058775679;0.01348760443746053;0.9940000000000001;0.006714933365138577
58:10.3;-0.721819588315974;0.6905171101265807;0.013826470194764061;0.9940000000000001;0.006891510617743404
58:10.3;-0.7220438076962225;0.6913306674489583;0.014156154572789036;0.9940000000000001;0.0070663422235764765
58:10.3;-0.7223661740595886;0.6922198403724599;0.014514003324850713;1.0;0.007257527035934379
58:10.3;-0.7227433927541479;0.6931243732508743;0.014921566231183412;1.0;0.00747497443714232
58:10.3;-0.7231151060383258;0.6939794023921358;0.015382058893475957;1.003;0.007719132301428766
58:10.3;-0.7234124700543618;0.6947209254131466;0.015880509196595307;1.003;0.007981064023568246
58:10.3;-0.7235684084873023;0.6952909010998088;0.016386276501159005;1.004;0.008243780541894065
58:10.4;-0.7235282106701987;0.6956421804318567;0.016857482338506473;1.0070000000000001;0.008484653090196796
58:10.4;-0.723259273406368;0.6957434539569971;0.017246839286815065;1.0090000000000001;0.008678659630955024
58:10.4;-0.7227587310330948;0.6955838409776484;0.01750831649005213;1.012;0.008802118675401592
58:10.4;-0.7220574417230597;0.6951761581206652;0.017603899345736695;1.01;0.008836402586067889
58:10.4;-0.7212188729158143;0.6945576043570393;0.01750942972705222;1.0070000000000001;0.008770964535124829
58:10.4;-0.7203323559803012;0.6937867796566813;0.017218516095465396;0.997;0.008605075076790043
58:10.4;-0.7195017375315808;0.6929369055896214;0.016744039986271705;0.997;0.008348064421904817
58:10.4;-0.7188316766943994;0.6920865919873498;0.01611749037761003;0.997;0.00801835097572363
58:10.4;-0.7184138312885808;0.6913102661579359;0.015386615191437388;0.993;0.007641714073459536
58:10.4;-0.7183143331592047;0.6906698317111268;0.0146116759250343;0.9890000000000001;0.007249116015180389
58:10.5;-0.7185635687465809;0.6902083787103888;0.013860418250467188;0.988;0.006874193572493503
58:10.5;-0.7191496274100797;0.6899467535877207;0.013201948905291605;0.99;0.006550476348222454
58:10.5;-0.7200168858272972;0.6898837945467999;0.012699954297004148;0.993;0.0063084226609634135
58:10.5;-0.7210705866525317;0.6900002083086156;0.01240605259005106;0.997;0.006172493200667498
58:10.5;-0.7221873781692235;0.6902648133998467;0.012354350145097674;1.002;0.006158650167183676
58:10.5;-0.7232307901280347;0.6906411627887927;0.012558138199953219;1.0070000000000001;0.0062727015444602
58:10.5;-0.7240693046802352;0.6910928414669832;0.013009042168750887;1.0070000000000001;0.0065097131647005885
58:10.5;-0.7245935200598383;0.69158673251863;0.013678249719716361;1.0070000000000001;0.00685443444524225
58:10.5;-0.7247290551203867;0.6920945260074606;0.014519243879387075;1.006;0.0072825770368626
58:10.5;-0.7244434514152339;0.6925931547974289;0.015471701877502613;1.004;0.00776284249060467
58:10.6;-0.723747168523183;0.6930647770067825;0.016466317305490082;1.003;0.00825956519118949
58:10.6;-0.7226898744062066;0.6934967217187805;0.017430119135861677;1.003;0.00873568042236623
58:10.6;-0.7213535175411704;0.693881540897388;0.018291840760708486;1.003;0.009155686216398562
58:10.6;-0.7198433133202805;0.694216971382031;0.01898718461461271;1.002;0.00948841725221915
58:10.6;-0.7182771839591935;0.6945053852525407;0.019463987523522977;1.0;0.009709559031829077
58:10.6;-0.7167739739036295;0.6947524209386897;0.01968700461241886;0.993;0.009803743487614393
58:10.6;-0.7154413226516966;0.6949649460705857;0.019641618049446308;0.993;0.009765942918718204
58:10.6;-0.7143650471536354;0.6951489315032336;0.019335726586073024;0.993;0.009601930384102886
58:10.6;-0.7136020991788115;0.6953078539894737;0.018799383254114083;0.9940000000000001;0.009327749097883798
58:10.6;-0.7131780723789628;0.6954420043065228;0.018082125494612085;0.9940000000000001;0.008968263894574408
58:10.7;-0.7130888300082455;0.6955488102931904;0.017248295030205897;0.997;0.00855494886200441
58:10.7;-0.7133051233024453;0.6956240041294468;0.01637101043954013;0.997;0.008123167130221147
58:10.7;-0.713778948961358;0.6956632151435781;0.01552570980386107;0.998;0.007709287454211293
58:10.7;-0.7144504453529107;0.6956635406011813;0.014784101161297403;0.9990000000000001;0.007347951475569756
58:10.7;-0.7152542953485316;0.695624835918552;0.014208969136425472;0.9990000000000001;0.007069653437891116
58:10.7;-0.7161249337438792;0.6955506514567797;0.013849984249223901;0.9990000000000001;0.006898693278551566
58:10.7;-0.7170003367252159;0.6954488005069203;0.013740649094097912;0.9990000000000001;0.00685159637401386
58:10.7;-0.7178246514053932;0.695331522159726;0.013896484617380047;0.9990000000000001;0.006936098275082777
58:10.7;-0.7185501828315664;0.6952151858470745;0.014314371425788588;1.0;0.007150701286859634
58:10.7;-0.7191392178757448;0.6951195228022691;0.014972931511379805;1.001;0.007484784444584392
58:10.8;-0.7195658673724087;0.6950664360715908;0.015834089760064503;1.003;0.007919357970627268
58:10.8;-0.7198176367585944;0.6950784441287932;0.016846126824549255;1.002;0.008428617967996033
58:10.8;-0.7198960696786356;0.6951767566754731;0.017948260568166036;1.002;0.008982297009399606
58:10.8;-0.719815907509068;0.695378977263832;0.01907627754104226;1.002;0.009548532472363437
58:10.8;-0.7196027044563978;0.695696539442023;0.02016850284603153;1.0;0.010096858981311477
58:10.8;-0.7192892881298394;0.6961321464667921;0.021171485242966172;1.0;0.010600994476383595
58:10.8;-0.7189116978918499;0.6966775849345942;0.02204477078723153;1.0;0.011041116074115172
58:10.8;-0.7185053095096154;0.6973123137387877;0.02276396611892903;1.0;0.011405261486841444
58:10.8;-0.7181016611333102;0.6980032619674301;0.023321401315313402;1.0;0.011689556271704739
58:10.8;-0.7177261620522642;0.6987062449187609;0.02372435642960325;1.0;0.01189728436841606
58:10.9;-0.7173967549121346;0.6993691727088542;0.023991556404391098;1.001;0.012037167835201595
58:10.9;-0.7171237108854929;0.6999368010733571;0.024148849703731993;1.002;0.012121304438354043
58:10.9;-0.716910728712322;0.7003564015536727;0.024224743732137108;1.003;0.012163074695497789
58:10.9;-0.7167572180153089;0.7005835908549469;0.024246275176882794;1.006;0.012175226966267064
58:10.9;-0.7166611469615822;0.7005875753206383;0.024235647592052146;1.008;0.012168328347561767
58:10.9;-0.7166213551453352;0.7003550809881882;0.024207953761052132;1.002;0.01214971556316
58:10.9;-0.7166383072442017;0.6998923868541131;0.024170115702719604;1.002;0.01212299757002808
58:10.9;-0.7167131738633356;0.6992253451965202;0.024121058605721606;1.002;0.012088124189526914
58:10.9;-0.7168460993648303;0.6983976797713055;0.024053095989503406;1.002;0.012042029831308915
58:10.9;-0.717034621549994;0.697467745131072;0.023954455738227284;1.001;0.011979827422780948
58:11.0;-0.7172726659441275;0.6965036897494394;0.02381270266183288;1.0;0.011896422824246867
58:11.0;-0.7175500890622023;0.695577193007529;0.023618507057119476;0.9990000000000001;0.01178826793690564
58:11.0;-0.7178526249215305;0.6947564498067986;0.02336901944683651;0.998;0.011654895127292045
58:11.0;-0.7181621518806179;0.6940993603594586;0.023070228258863113;0.996;0.011499952569716141
58:11.0;-0.7184572967510843;0.6936479338390777;0.02273791309559257;0.996;0.011331584955925584
58:11.0;-0.7187144630029672;0.6934248244125449;0.022396962034122093;0.9990000000000001;0.01116207364238273
58:11.0;-0.7189093272044502;0.6934324719993349;0.022079047062503333;0.9990000000000001;0.0110067377339966
58:11.0;-0.7190186738468355;0.6936545507502555;0.02181905070966946;0.9990000000000001;0.0108822640915097
58:11.0;-0.7190223524889866;0.6940589178602163;0.021650885687205614;0.9990000000000001;0.010804741909703765
58:11.0;-0.7189053000817327;0.6946013640296163;0.021603217089319;1.0;0.010787622666092124
58:11.1;-0.7186597556350072;0.695229829564739;0.02169538609268776;1.001;0.010839746013946818
58:11.1;-0.71828770730901;0.695888893650544;0.021933844007556404;1.002;0.0109635976656804
58:11.1;-0.7178032746009784;0.6965242569283672;0.022309551876465834;1.002;0.011154048478676695
58:11.1;-0.7172343848462508;0.6970869113660825;0.022796932514371506;1.004;0.0113978895417098
58:11.1;-0.7166229213553924;0.6975368494042122;0.02335498773543421;1.003;0.011674478616725879
58:11.1;-0.7160226381464816;0.6978462232699011;0.02393094118490419;1.001;0.011957661778121747
58:11.1;-0.7154947398678073;0.6980016407432998;0.0244660952822423;1.001;0.01221877173253136
58:11.1;-0.7151018750815435;0.6980050841127796;0.02490278543095837;1.001;0.012430094470414873
58:11.1;-0.7149016234469754;0.697873028741451;0.025191075873065693;1.001;0.01256809380124237
58:11.1;-0.7149401263090884;0.6976335723026635;0.025294385174402672;1.0;0.012615985242358602
58:11.2;-0.7152460271445787;0.6973216374627886;0.025193845886120707;0.996;0.012565595172608924
58:11.2;-0.7158249795928127;0.6969727664285926;0.024891252311096942;0.993;0.012418507542019683
58:11.2;-0.7166555245951084;0.6966167588481385;0.024410134490610927;0.993;0.012186375154405637
58:11.2;-0.7176876595320777;0.696272915862292;0.023794321660649417;0.9940000000000001;0.01189017670629704
58:11.2;-0.7188454886493101;0.6959483275847058;0.023103501794401647;0.998;0.011558204066066271
58:11.2;-0.7200346617880506;0.6956395058678482;0.022405749746538185;1.006;0.011222694021124576
58:11.2;-0.7211538200420144;0.6953363891887523;0.02176788219839862;1.006;0.010915384658704435
58:11.2;-0.7221076284432958;0.6950270953484231;0.021245517023710584;1.006;0.01066279287420535
58:11.2;-0.7228185130607445;0.6947020139915908;0.020874990835765064;1.0070000000000001;0.010482240475890324
58:11.2;-0.7232351953750541;0.6943564982398089;0.020668551528168874;1.0070000000000001;0.010379396403910189
58:11.3;-0.7233371781385791;0.6939920256139963;0.02061328764059875;1.005;0.010347669075047352
58:11.3;-0.7231348526125664;0.6936160490292778;0.02067360292488372;1.002;0.010369423154716496
58:11.3;-0.7226656326557773;0.6932408528966507;0.02079659199374598;1.0;0.010418704514922583
58:11.3;-0.7219875361097102;0.692881714552722;0.020919430158818548;1.001;0.010464985978891788
58:11.3;-0.7211719147763285;0.6925546789318027;0.02097780516665483;1.001;0.010477385430392049
58:11.3;-0.7202962591350578;0.6922742573777734;0.020914300893590535;0.997;0.010428760493950468
58:11.3;-0.719437171575763;0.6920513624976591;0.02068562598520251;0.997;0.010299114086853151
58:11.3;-0.7186636097401256;0.6918918222757439;0.020267883390176163;0.997;0.010077951151331302
58:11.3;-0.7180308980921599;0.691795766427162;0.01965950066849209;0.995;0.009765478225916044
58:11.3;-0.7175760800759822;0.6917579956076649;0.018881635630183528;0.993;0.009372636056052246
58:11.4;-0.717315212192286;0.691769267178168;0.017975918287858283;0.9940000000000001;0.008919949390361332
58:11.4;-0.7172433617179483;0.6918183020619122;0.016999656234487442;0.997;0.008435264862207144
58:11.4;-0.7173377289698722;0.6918941206101044;0.016019168957355962;0.9990000000000001;0.0079506620852549
58:11.4;-0.7175632958914352;0.6919880635191664;0.015102383046850104;1.0;0.007499016347762382
58:11.4;-0.717879459817858;0.6920947816587424;0.014311834606032572;0.9990000000000001;0.007110700893492443
58:11.4;-0.7182459386257478;0.6922118230199276;0.013698748602278587;0.997;0.006810720960743205
58:11.4;-0.7186268668203418;0.692338128574251;0.013298388644681575;0.997;0.006616384273472387
58:11.4;-0.7189929775827856;0.6924723004658571;0.013126863590892428;0.997;0.006535638565527552
58:11.4;-0.7193224668590243;0.6926115174015527;0.013179776436179551;0.998;0.006566309931128147
58:11.4;-0.7196012496390779;0.6927515393110933;0.013433017540477913;0.9990000000000001;0.006696424708095795
58:11.5;-0.7198230092039551;0.6928877136892306;0.013845683579086205;1.002;0.006905624946579023
58:11.5;-0.7199889826959811;0.6930164897975698;0.014364763301330127;1.001;0.007167503167241689
58:11.5;-0.7201070652474512;0.6931367896376812;0.014930931810810868;1.001;0.007452516299302745
58:11.5;-0.7201898418170395;0.6932507393909482;0.015484694605704551;0.9990000000000001;0.007731076618324785
58:11.5;-0.7202515937402413;0.6933636223847474;0.01597227277138129;0.9990000000000001;0.007976493190918175
58:11.5;-0.720304881855683;0.6934832083020366;0.01635073126055926;0.998;0.008167506494739329
58:11.5;-0.7203576998354215;0.6936186565689828;0.01659179649088053;0.9990000000000001;0.008290149851776825
58:11.5;-0.720412105764479;0.6937791294354151;0.016683876881143905;0.9990000000000001;0.008338716509863715
58:11.5;-0.7204645652559006;0.6939723369648957;0.016632126701771627;1.0;0.008315771923610564
58:11.5;-0.7205075401394583;0.6942033784574657;0.016456677518322815;1.001;0.008231280695850041
58:11.5;-0.7205316807148209;0.6944741743487667;0.016189244334447937;1.002;0.008100946399303326
58:11.6;-0.720528085178469;0.6947835454674344;0.015868479206665665;1.001;0.007943936158615205
58:11.6;-0.7204901578229118;0.6951278272485415;0.015534754898592462;1.003;0.007780314140116424
58:11.6;-0.7204147367049198;0.6955018023412158;0.015225178579543861;1.003;0.007628571887664654
58:11.6;-0.7203022929295688;0.6958996301219467;0.014969488319018412;1.003;0.007503577261172145
58:11.6;-0.7201559714365783;0.6963155172917889;0.014787217146587485;1.001;0.007415135475467908
58:11.6;-0.7199794604096587;0.6967440926505902;0.01468616541407088;1.001;0.007367189105741626
58:11.6;-0.7197743827875958;0.6971805205792706;0.014661969213634747;1.001;0.007357562048918447
58:11.6;-0.7195383746127895;0.6976203431319843;0.014698570740907432;1.001;0.007378162297092029
58:11.6;-0.7192646672896932;0.6980590695999965;0.014769627367423504;1.003;0.0074156707502423674
58:11.6;-0.7189432488417421;0.6984915247947493;0.01484109144361202;1.003;0.00745283646581754
58:11.7;-0.7185631082307538;0.6989109232976678;0.01487502569861859;1.002;0.007470410536784821
58:11.7;-0.7181148212391822;0.6993077931098587;0.01483421157362394;1.002;0.007449493185063042
58:11.7;-0.7175928453830214;0.699669148704581;0.014686758139976318;1.002;0.007373891915138426
58:11.7;-0.7169972278008067;0.6999783614507805;0.01441002395799863;1.001;0.007232139492951079
58:11.7;-0.7163347271304299;0.7002159448617302;0.0139935188505247;1.002;0.007018995095858777
58:11.7;-0.7156194852827891;0.7003612126455993;0.013440762085474093;1.001;0.006736404185235955
58:11.7;-0.7148734103375661;0.7003946339214762;0.01277020443754849;1.001;0.006393958362365571
58:11.7;-0.714126417111633;0.7003006999636789;0.012015269754850094;1.001;0.006008875210908234
58:11.7;-0.7134165613771365;0.7000711508314974;0.011223397785913991;1.002;0.005605440200485345
58:11.7;-0.7127898418063602;0.6997083003559184;0.010453814802749064;1.001;0.0052137875368152625
58:11.8;-0.7122992278895147;0.6992278695731823;0.009773857336509074;1.001;0.004867962220669998
58:11.8;-0.7120025154646759;0.6986604833076047;0.009254087698788174;1.0;0.0046034276172046765
58:11.8;-0.7119588268446704;0.6980511124158825;0.008962815697198322;0.9990000000000001;0.00445437286909007
58:11.8;-0.7122237923690766;0.6974561414781175;0.008960623332283382;0.998;0.004451143565634702
58:11.8;-0.7128436626551036;0.696938137878869;0.009295254739692614;0.9940000000000001;0.004617956311127649
58:11.8;-0.7138488378229217;0.6965588691800509;0.009997127198812959;0.9940000000000001;0.0049709489272267504
58:11.8;-0.7152475256629248;0.6963717660436195;0.011075685756658816;0.9940000000000001;0.005516557432772068
58:11.8;-0.7170204136460854;0.696415341808437;0.012516772475817941;0.996;0.006250175441102858
58:11.8;-0.7191173281839389;0.6967085666166108;0.014281220922207884;0.998;0.007155108798688049
58:11.8;-0.7214567106944302;0.6972483668744796;0.016304902131681138;1.001;0.008201928508252267
58:11.9;-0.7239281954207191;0.6980090711794861;0.018500306514273774;1.004;0.009348361159047516
58:11.9;-0.7263977888698556;0.6989437334456573;0.020759675359081863;1.008;0.010539919325277623
58:11.9;-0.7287146324156759;0.699987354237229;0.022959782225999977;1.0070000000000001;0.0117115789077229
58:11.9;-0.7307185244045888;0.7010620077350448;0.024968386180604846;1.008;0.012790779799553344
58:11.9;-0.7322481686607651;0.7020839179050627;0.02665200581793426;1.018;0.013701787212796298
58:11.9;-0.7331506496176208;0.7029722334374328;0.027884233480227685;1.018;0.014371103113365983
58:11.9;-0.7332922701630357;0.7036583468715083;0.028553535823734363;1.018;0.014733259759214707
58:11.9;-0.7325702263127253;0.7040939840445649;0.02856962161646701;1.021;0.014736161953920822
58:11.9;-0.7309243685663993;0.7042566692359558;0.0278681807853225;1.022;0.014345379072627779
58:11.9;-0.7283480280998683;0.7041518344618599;0.02641466655216392;1.022;0.013547226642398739
58:12.0;-0.7248960455069675;0.7038112071073974;0.024208004505351016;1.0190000000000001;0.012350680870009815
58:12.0;-0.7206874674549343;0.7032875809265472;0.021284394269552098;1.011;0.01078800684808495
58:12.0;-0.715900887109369;0.7026468662973682;0.017720303464234612;1.004;0.008913764774403213
58:12.0;-0.7107621241483859;0.701959024235081;0.013633147097810605;0.9940000000000001;0.0068019300101551375
58:12.0;-0.705526155709274;0.7012896608044021;0.009178351089183337;0.985;0.00454124801642736
58:12.0;-0.70045713879448;0.7006936435285702;0.004542697287548552;0.985;0.002229582470365116
58:12.0;-0.6958109146125655;0.7002114509798935;-6.442713128910432e-05;0.985;3.138984996106037e-05
58:12.0;-0.691822558047295;0.6998683779051916;-0.004419874914767531;0.986;0.0021400359488649126
58:12.0;-0.6886982573521032;0.6996761820992918;-0.00829540611603591;0.986;0.00399727223335586
58:12.1;-0.6866086324481054;0.6996362317426904;-0.01146747601965558;0.982;0.00550870342874402
58:12.1;-0.6856809275218271;0.6997429004843073;-0.013728978876129182;0.977;0.006587169021352291
58:12.1;-0.6859896065549969;0.6999861968780189;-0.014902354585045012;0.975;0.007155861143588132
58:12.1;-0.6875471239451473;0.7003533788221674;-0.014852704310060241;0.975;0.007151962573088059
58:12.1;-0.6902979184112127;0.700829953448009;-0.013499468532578399;0.976;0.006530792569258619
58:12.1;-0.694118602458452;0.7014004093046443;-0.010825195640505051;0.993;0.005270301401568426
58:12.1;-0.6988253579892024;0.7020485831666513;-0.006880344325108483;0.993;0.00337556127402437
58:12.1;-0.7041862051040453;0.7027574682493157;-0.0017842399653428009;0.993;0.0008829706047368624
58:12.1;-0.709934274032033;0.7035086016627597;0.004277115979990571;0.998;0.002136183627743993
58:12.1;-0.7157802845956829;0.7042814361742415;0.011056600937023316;1.002;0.005573751576788373
58:12.2;-0.7214251714605977;0.7050530510752441;0.018255842286507198;1.006;0.009285706721501717
58:12.2;-0.72657429397729;0.7057983771104268;0.02553958108276866;1.013;0.013097079188532168
58:12.2;-0.7309536088572597;0.7064910359314616;0.032553545524084244;1.02;0.016811047161442084
58:12.2;-0.7343268794042644;0.7071048602222144;0.0389444587643531;1.026;0.02022175854102434
58:12.2;-0.7365118153418315;0.7076159753547966;0.0443809875279126;1.028;0.023129929496808987
58:12.2;-0.7373925405476042;0.7080050652685338;0.048574624165576424;1.026;0.02535972581852926
58:12.2;-0.7369266093982643;0.7082593673874293;0.05129915028769578;1.026;0.026774830940867776
58:12.2;-0.7351464668727097;0.7083740778201417;0.05240658748824003;1.026;0.027291186399781075
58:12.2;-0.7321562734929148;0.7083530295960903;0.05183756281636759;1.024;0.026884261949302494
58:12.2;-0.7281247849610135;0.708208613199877;0.049625163774326894;1.0190000000000001;0.025589922570676764
58:12.3;-0.7232746019851642;0.7079608845385302;0.04589239448816416;1.015;0.02349920642534093
58:12.3;-0.7178684627755967;0.7076357062186092;0.04084366149449039;1.0090000000000001;0.02074814532492929
58:12.3;-0.7121937385883013;0.7072618542159897;0.034751050179760455;1.003;0.017504363361379553
58:12.3;-0.7065462060044909;0.7068674585821595;0.027936698186804665;0.997;0.01395255147750709
58:12.3;-0.7012137685422122;0.7064766231853347;0.020752666506895914;0.9940000000000001;0.010280687021991905
58:12.3;-0.6964607404199954;0.7061070514255665;0.01355951266072033;0.986;0.006668240726704548
58:12.3;-0.6925137847099405;0.705768976083518;0.006705326514622916;0.986;0.003277260149176634
58:12.3;-0.6895509620508642;0.7054652326523461;0.0005078536429198101;0.986;0.00024704755275265227
58:12.3;-0.6876946722083453;0.7051922526093537;-0.004758555181391212;0.9840000000000001;0.00230769443097673
58:12.3;-0.6870078389842454;0.7049418584065483;-0.008871950940404298;0.983;0.00429669101059756
58:12.4;-0.6874920157171683;0.704703740372249;-0.011669842685572814;0.9840000000000001;0.005653784319679482
58:12.4;-0.6890868777169606;0.704468255065591;-0.013055431641652723;0.982;0.006337626521059252
58:12.4;-0.6916718769193281;0.7042288270175586;-0.01300262106239634;0.985;0.006333515276438705
58:12.4;-0.6950715128669536;0.7039831854793908;-0.011558499129577574;0.987;0.005655789279851923
58:12.4;-0.6990653937030227;0.7037330987948275;-0.008841676080829032;0.9890000000000001;0.004349710786122507
58:12.4;-0.703403152479936;0.7034829152471561;-0.005035226240268826;1.0;0.002491591575961044
58:12.4;-0.707822548221688;0.7032377525250264;-0.0003744588781199053;1.0;0.00018639347384322228
58:12.4;-0.712067623009657;0.7030022858528335;0.004868212588483333;1.0;0.0024369550099304707
58:12.4;-0.7159042037356037;0.7027806591983633;0.010398579899116932;1.005;0.0052317712472228104
58:12.4;-0.7191321919165047;0.7025773858935213;0.01591539206615102;1.0090000000000001;0.008041188426679603
58:12.5;-0.7215955033793529;0.7023985936352113;0.02112555409468508;1.011;0.010707437801631829
58:12.5;-0.7231899744226286;0.7022528568706331;0.025760066972044256;1.012;0.013082564943988576
58:12.5;-0.7238684797730374;0.7021512107727745;0.029589370223155095;1.011;0.015039245088676654
58:12.5;-0.7236422948467631;0.7021064726081648;0.032436314579454256;1.011;0.016480046117132816
58:12.5;-0.7225782413611792;0.7021323155836434;0.034185592554699724;1.011;0.017343907702840507
58:12.5;-0.7207917730762265;0.7022424756038669;0.03478905365257529;1.005;0.01760919613014012
58:12.5;-0.7184368327956646;0.7024501348817096;0.034266773707560996;1.005;0.017293277336709986
58:12.5;-0.7156940643257339;0.7027672346485188;0.03270420443258345;1.005;0.01644911395506787
58:12.5;-0.7127589724530219;0.7032034592478307;0.03024588546159292;1.003;0.015159678628307366
58:12.5;-0.7098304384291739;0.7037648103314637;0.027085949372788527;1.002;0.013530885790255102
58:12.6;-0.7070989233452792;0.7044517355143495;0.023455606279807053;0.998;0.01168363772812578
58:12.6;-0.7047339577730027;0.705256656529175;0.01960828421158312;0.9940000000000001;0.009745676374991092
58:12.6;-0.7028715738455366;0.7061609587364046;0.015803556907947616;0.9890000000000001;0.007843944775736954
58:12.6;-0.7016032453065318;0.7071323033459176;0.01229092665793701;0.986;0.00609785219853179
58:12.6;-0.7009684830877554;0.7081238502871867;0.009294236285724755;0.987;0.004613403311647996
58:12.6;-0.7009532192994614;0.7090768016668697;0.006997456765881425;1.0;0.0034779436052060067
58:12.6;-0.701494827425713;0.7099264228604976;0.0055328728804388445;1.0;0.002755424437961055
58:12.6;-0.7024924173123404;0.7106101000852137;0.004972849326231104;1.0;0.002482437467213522
58:12.6;-0.7038197392723887;0.7110753503120453;0.0053260022197939415;1.003;0.002665498300093036
58:12.6;-0.7053385341840428;0.711286401681194;0.006537897463135131;1.006;0.003280048172046457
58:12.7;-0.7069111447512387;0.711228860017884;0.008495969406356437;1.008;0.004271566180562374
58:12.7;-0.7084115112079487;0.7109121633228231;0.01103840798271255;1.008;0.005559144924774864
58:12.7;-0.7097337420565164;0.7103694429307665;0.013966860632598761;1.0070000000000001;0.007041716301952347
58:12.7;-0.7107977972848671;0.7096546771811604;0.01706254965546524;1.006;0.008606708041939965
58:12.7;-0.7115523315615285;0.7088374578675397;0.020104785010258013;1.008;0.010140349850750019
58:12.7;-0.7119750891464927;0.7079958713779713;0.02289001201257154;1.004;0.011538292502354358
58:12.7;-0.7120711921299265;0.7072081182450912;0.025248848529045402;1.004;0.012714878967375236
58:12.7;-0.7118694041095319;0.7065438868875367;0.02705855643994596;1.004;0.013609560300377785
58:12.7;-0.7114163891580543;0.7060567411137645;0.02824934148442679;0.9990000000000001;0.01418965375623943
58:12.7;-0.7107693206796539;0.7057784817907001;0.028804389133624986;0.998;0.014449597721092389
58:12.8;-0.7099879015785093;0.7057160508692134;0.028754717408962724;0.995;0.014407547076514744
58:12.8;-0.709127542588678;0.7058513773500839;0.02817035173877959;0.997;0.014100349904092611
58:12.8;-0.7082354095564383;0.7061443155202879;0.027149320073570904;0.9990000000000001;0.013577820448640969
58:12.8;-0.7073499964106446;0.7065383466656395;0.025805810892270402;1.003;0.012896967451061737
58:12.8;-0.7065033113042773;0.7069681728894771;0.024258649090050783;1.004;0.012116597369303591
58:12.8;-0.705723699118864;0.7073679263357647;0.022621147382009446;1.001;0.011292619503755666
58:12.8;-0.7050375938867999;0.7076786548525491;0.02099327404584404;1.001;0.010474385329364407
58:12.8;-0.7044697937446612;0.7078540806682883;0.019456678896578882;1.001;0.009702302874890437
58:12.8;-0.7040428484634659;0.7078641557059421;0.01807245023445601;0.9990000000000001;0.00900670732115826
58:12.8;-0.7037761637349355;0.7076964089245114;0.016880950921719245;0.998;0.008407724116242516
58:12.9;-0.7036851495033376;0.7073553824891152;0.015903095632870016;0.998;0.007915852969672784
58:12.9;-0.7037807374906561;0.7068605520509524;0.01514274348127958;0.9990000000000001;0.007533133899981958
58:12.9;-0.7040694362934053;0.7062430540829816;0.014589918341990405;0.9990000000000001;0.007254751529568101
58:12.9;-0.7045535246637065;0.7055414423832821;0.014224393401283144;0.997;0.00707082803994711
58:12.9;-0.7052306004821735;0.7047967701267649;0.014019212148332738;0.996;0.006968168779649211
58:12.9;-0.7060920209988757;0.7040475700632189;0.013943840983160777;0.9940000000000001;0.006931795299114743
58:12.9;-0.7071205160915562;0.7033255380790658;0.013966659030403556;0.9940000000000001;0.006946121182832285
58:12.9;-0.7082878410441754;0.7026527116310747;0.0140566656982345;0.9940000000000001;0.006995726615534201
58:12.9;-0.7095535150673895;0.7020406567202232;0.014184637709346951;0.996;0.007065870401843451
58:12.9;-0.7108655209587358;0.7014917082073032;0.014324098472548149;0.998;0.007142944736407776
58:13.0;-0.7121633254228511;0.7010018610627381;0.01445232663453666;1.001;0.007215003469134115
58:13.0;-0.7133828023850405;0.700564649132935;0.01455145008854434;1.002;0.007272389453934748
58:13.0;-0.7144619877495699;0.7001752334967022;0.014609512535685409;1.003;0.007308388033372628
58:13.0;-0.7153464350638495;0.699833948799046;0.0146213130837609;1.004;0.007319776153272584
58:13.0;-0.7159932902075745;0.6995486891905761;0.01458887333446617;1.004;0.007307160610371298
58:13.0;-0.7163737615390566;0.6993356148501209;0.014521492050439209;1.002;0.007275059641943038
58:13.0;-0.7164740735435597;0.6992178561833988;0.014435385080417924;1.002;0.00723171602188463
58:13.0;-0.7162951570101307;0.6992223499374173;0.014352884745636405;1.002;0.007188636338743366
58:13.0;-0.715851354922178;0.699375335055918;0.014301126959794467;1.001;0.007159841782192275
58:13.0;-0.7151683563743683;0.699697166604237;0.014310061041767342;0.997;0.007160772756286273
58:13.1;-0.7142805513148196;0.7001973236670613;0.014409545403906402;0.997;0.007206751570271333
58:13.1;-0.7132282133690471;0.7008707905892291;0.01462556211284859;0.998;0.007311038007884853
58:13.1;-0.7120551249139773;0.701696806238876;0.014976275856888944;0.9990000000000001;0.0074828484129177445
58:13.1;-0.7108070404045723;0.702640229995815;0.015469098672468295;1.0;0.007725911737308674
58:13.1;-0.7095307785231184;0.7036551001553284;0.016099497048874523;1.001;0.008037914605633035
58:13.1;-0.7082731871055403;0.7046896936356668;0.01685144333276796;1.0;0.008410771322536297
58:13.1;-0.7070792918881056;0.7056922224284556;0.01769891673625679;1.0;0.008831411790254878
58:13.1;-0.7059897324076063;0.7066160544432434;0.01860780030144644;1.0;0.009282755720036626
58:13.1;-0.7050382687626806;0.7074234293305613;0.01953776177112868;0.9990000000000001;0.009744665586242571
58:13.1;-0.7042500303377853;0.7080872741208463;0.020444175563599037;0.997;0.010194906929034013
58:13.2;-0.7036407885551363;0.7085914712602599;0.021280468760185377;0.998;0.010610311095820559
58:13.2;-0.7032173689551764;0.7089303585059791;0.022001071127712688;0.998;0.010968241104174947
58:13.2;-0.7029791286419712;0.7091082295779709;0.022564650455384843;1.0;0.011248213914836732
58:13.2;-0.7029201731665151;0.7091391195770459;0.022937118163806516;1.0;0.011433423837598634
58:13.2;-0.7030319165612566;0.7090464630238088;0.023094171085078937;1.0;0.01151203537660666
58:13.2;-0.7033055977665017;0.7088619149742941;0.023023439873638838;1.002;0.011478256583634532
58:13.2;-0.7037341669053105;0.7086229892964087;0.022726270839850515;1.002;0.011333186945259347
58:13.2;-0.704312621909669;0.7083697124009255;0.02221903826414923;1.002;0.011085383244547789
58:13.2;-0.7050359301094141;0.7081406862877407;0.021533916998850648;0.997;0.010751123047005588
58:13.2;-0.7058944584313751;0.7079689805526835;0.020718938178153297;0.996;0.010354317949017344
58:13.3;-0.7068680129080197;0.7078785415434473;0.019836792597438285;0.995;0.009925868779631187
58:13.3;-0.707920441180695;0.7078820956283235;0.018961741520457723;0.996;0.009502187653219227
58:13.3;-0.7089968804032638;0.7079812906692419;0.018174458319426;0.9990000000000001;0.009122787968463223
58:13.3;-0.7100251903340281;0.7081690571417287;0.01755527525423541;1.003;0.008827106103325648
58:13.3;-0.7109220568757892;0.7084333417251915;0.017176716080350075;1.006;0.008650896547509699
58:13.3;-0.7116028741762086;0.7087609039474841;0.017096378173558607;1.0090000000000001;0.008622665976662138
58:13.3;-0.7119932414736252;0.7091400153347358;0.017351218195273577;1.0090000000000001;0.008760680353692258
58:13.3;-0.7120393353817452;0.7095615608135051;0.017953974863822664;1.0090000000000001;0.009070989815298256
58:13.3;-0.7117149179321898;0.7100187383407731;0.018892022290129474;1.006;0.00954672315734014
58:13.3;-0.7110241197670958;0.7105059222606968;0.020128668203270642;1.005;0.01016873844333799
58:13.4;-0.7100006413651839;0.7110173161399731;0.021606644262588657;1.005;0.010907525585307389
58:13.4;-0.7087047997979897;0.7115458524625521;0.02325313041292889;1.005;0.01172599468329787
58:13.4;-0.7072195477060017;0.7120825110709048;0.024985420671031402;1.006;0.01258262465452436
58:13.4;-0.7056455488700962;0.7126160939536156;0.02671653831800423;1.0070000000000001;0.013434528171426192
58:13.4;-0.7040943630195727;0.7131335572644589;0.028360523804208566;1.005;0.014240196700459049
58:13.4;-0.7026786142138977;0.7136209607605101;0.02983734414217493;0.998;0.014961822473608903
58:13.4;-0.7014993559291749;0.7140648063032032;0.031077261572995486;0.998;0.015567097611346017
58:13.4;-0.7006330793944688;0.7144532518065898;0.032024320929915924;0.998;0.016030400938411925
58:13.4;-0.7001218237596973;0.7147767201036519;0.03263876959276928;0.997;0.016333444953617313
58:13.4;-0.6999686783857367;0.7150277582065806;0.03289865784602852;0.998;0.01646568070481699
58:13.5;-0.7001391117321674;0.7152003269115959;0.03280102571102331;1.001;0.016424776482549894
58:13.5;-0.7005673445319459;0.7152888102022732;0.03236268075727511;1.002;0.016217197657288813
58:13.5;-0.7011662772996211;0.7152870248908082;0.03162005383794777;1.001;0.0158585681424433
58:13.5;-0.7018391704675415;0.7151875740548392;0.030627525867760224;1.003;0.015373384120534784
58:13.5;-0.7024915042965952;0.7149819919453436;0.029453936350860275;1.004;0.014793792531837976
58:13.5;-0.7030419108409105;0.7146619729251263;0.02817747951692307;1.0070000000000001;0.014157417266086469
58:13.5;-0.7034313043399887;0.714221498846181;0.026879741410354804;1.0070000000000001;0.013504536925877952
58:13.5;-0.7036292621190802;0.713659288184006;0.02563989728991261;1.0070000000000001;0.01287511438004664
58:13.5;-0.7036367161802471;0.7129809553543445;0.024529718998851747;1.005;0.012306059078858594
58:13.5;-0.7034844423200535;0.7122004188411618;0.02360938733703411;1.005;0.011828820443031157
58:13.6;-0.7032274524778076;0.7113402314357224;0.0229239207055108;1.002;0.011467324064156454
58:13.6;-0.702935919984912;0.7104306156624598;0.02250040621437865;0.997;0.011236414822398625
58:13.6;-0.7026838972480146;0.7095071904463222;0.02234655777822574;0.995;0.011141083705179263
58:13.6;-0.7025378904939563;0.7086076948255604;0.022451049737170926;0.9940000000000001;0.011176665886331805
58:13.6;-0.7025477504490723;0.7077682052695807;0.02278574075996141;0.9940000000000001;0.011330003620082584
58:13.6;-0.702741741009504;0.7070192833609369;0.02330959285852329;0.996;0.011581416947890713
58:13.6;-0.7031261488186805;0.706382481931538;0.023973770621851576;0.996;0.011907196356257237
58:13.6;-0.7036881547889187;0.7058678521214958;0.024726965777602035;0.996;0.012282152099905675
58:13.6;-0.7044000061376527;0.7054731629088788;0.02551984592498248;0.996;0.012681712297906132
58:13.6;-0.7052231950386493;0.7051851443825812;0.02630806067656687;0.998;0.01308333849078734
58:13.7;-0.7061124179284767;0.7049824227952336;0.027053976847919065;0.9990000000000001;0.013467384269737164
58:13.7;-0.7070195326509764;0.7048393286865228;0.027727642117499847;1.0;0.013817659324906452
58:13.7;-0.7078975538055237;0.7047296401552838;0.02830736630502387;1.001;0.014121876666238747
58:13.7;-0.7087044281508539;0.7046295799191211;0.028779940915226104;1.0;0.014371957193173116
58:13.7;-0.7094062403231911;0.7045198075698142;0.029140213993672986;1.002;0.014564009346485137
58:13.7;-0.7099795996536614;0.7043864837861732;0.029389885530246865;1.002;0.014697882745877744
58:13.7;-0.7104129877178943;0.7042216066844497;0.02953580729678759;1.002;0.014776415147979527
58:13.7;-0.7107067636680948;0.7040227357727513;0.029588246796706654;1.002;0.014804589355667589
58:13.7;-0.7108716085830314;0.7037920889840358;0.029559451371258056;1.0;0.01478876539163546
58:13.7;-0.7109255309498503;0.7035350651965967;0.02946268318565029;0.9990000000000001;0.014736086256452544
58:13.8;-0.7108899586227367;0.7032585452406714;0.029311771387234044;0.9990000000000001;0.014654110517847515
58:13.8;-0.710785728165506;0.702969515663173;0.02912106758933024;0.9990000000000001;0.014550652989314567
58:13.8;-0.7106298466386765;0.7026743288345848;0.02890549637472511;0.997;0.014433709597687649
58:13.8;-0.7104337312391765;0.7023785146126232;0.028680338224007028;0.9990000000000001;0.014311299164578168
58:13.8;-0.7102033076301246;0.7020868878988282;0.028460563463477723;1.0;0.01419113223529466
58:13.8;-0.709940897071127;0.7018036896362007;0.02825976346950185;0.9990000000000001;0.014080120275572934
58:13.8;-0.709648304397116;0.7015325607721474;0.028088873232485115;0.9990000000000001;0.01398380375626948
58:13.8;-0.7093301817867176;0.701276389270556;0.027955041601816343;0.9990000000000001;0.013905858294523957
58:13.8;-0.7089967737502119;0.7010373150889858;0.027861101650727235;0.998;0.0138478923606705
58:13.8;-0.7086654202544936;0.7008171739039976;0.02780594741347445;0.997;0.013809681890994383
58:13.9;-0.7083605046246746;0.7006185171322075;0.02778584186284073;0.998;0.01378984897161898
58:13.9;-0.7081118382277835;0.7004461261517714;0.027796418550413798;0.998;0.013786862214133581
58:13.9;-0.7079517336424431;0.7003085637345434;0.02783490828799999;0.997;0.01380012059125785
58:13.9;-0.7079111275257018;0.7002190133750715;0.027901999361272734;0.998;0.013830821061574572
58:13.9;-0.7080150940017802;0.7001946864700587;0.028002835052171424;0.998;0.013882360861895144
58:13.9;-0.7082780829976745;0.7002543367291961;0.028146998631486713;0.992;0.01396020199516078
58:13.9;-0.7086993973340943;0.7004140249222307;0.028347746936295604;0.992;0.014071339592265055
58:13.9;-0.7092598288086671;0.7006823067691972;0.02862082253475529;0.992;0.014223570338236055
58:13.9;-0.7099206649922024;0.7010566993568896;0.028982873660020524;0.993;0.01442462082035591
58:13.9;-0.7106260459690307;0.7015228561411382;0.029449270132569684;0.997;0.014681062321302181
58:14.0;-0.7113089241982671;0.7020567195495578;0.030031161349918508;1.002;0.014996937627570815
58:14.0;-0.7118999279039483;0.7026287876445204;0.030731979572860182;1.005;0.015372178692889305
58:14.0;-0.7123374867252784;0.7032089593147558;0.031544120088855605;1.0070000000000001;0.015801146963392392
58:14.0;-0.7125769542194313;0.7037705026403275;0.0324468775018957;1.0070000000000001;0.016271805404691347
58:14.0;-0.7125964378529371;0.7042924710136383;0.033406576846328334;1.0070000000000001;0.01676596938544285
58:14.0;-0.7123977567518037;0.704760786081356;0.034379167651317634;1.001;0.017260748807587743
58:14.0;-0.7120024843752134;0.7051686023279753;0.03531462094733667;1.001;0.017730828337169453
58:14.0;-0.7114449750029819;0.7055163595564613;0.03616185618858627;1.001;0.018150939935406427
58:14.0;-0.7107652193107644;0.7058115334356909;0.03687305995089091;1.001;0.01849797116270894
58:14.0;-0.7100034907380222;0.706067943905899;0.037406961790367996;1.003;0.018752510382227146
58:14.1;-0.7091971011339249;0.7063045678789477;0.03773128775600331;1.002;0.018899947355893343
58:14.1;-0.7083785456627043;0.7065439121208771;0.03782474778321493;1.001;0.01893130702807143
58:14.1;-0.707574105858749;0.7068101089420593;0.03767858292775769;1.001;0.018843832895377916
58:14.1;-0.7068023414817656;0.7071269746698089;0.037297384394277745;0.9990000000000001;0.018641195475895274
58:14.1;-0.7060725636147958;0.707516211705932;0.03669897236200457;0.998;0.018333257359554073
58:14.1;-0.7053839108044382;0.7079958513848432;0.03591342718467064;1.0;0.01793548453643665
58:14.1;-0.7047256919479387;0.7085790055520443;0.03498154838982491;1.0;0.017468170167350267
58:14.1;-0.7040792525656742;0.7092728441691827;0.03395302763676732;1.0;0.016955608735134225
58:14.1;-0.7034211187513563;0.7100775671078584;0.0328845039403283;1.0;0.016425268986958796
58:14.1;-0.7027268665348382;0.7109853488787925;0.03183743362044728;1.0;0.015906889406430855
58:14.2;-0.7019750938472595;0.7119796573109205;0.030875551881330777;1.0;0.015431353417025357
58:14.2;-0.7011510018398167;0.713035484786767;0.030061776585354676;1.001;0.015029251263770272
58:14.2;-0.7002493579726781;0.7141207178936886;0.02945460173287977;1.001;0.014729143965170008
58:14.2;-0.6992767968578962;0.7151984316144074;0.029104239802321148;1.001;0.01455566096678446
58:14.2;-0.6982533173246686;0.7162297932617852;0.02904898148643163;1.002;0.01452768116705125
58:14.2;-0.6972125594399293;0.7171774927642731;0.02931236492885522;1.003;0.014656919825845825
58:14.2;-0.6962003992495619;0.7180095911792643;0.029901539345306705;1.003;0.014947138550637638
58:14.2;-0.695271815383546;0.7187031759094297;0.030806658435477426;1.003;0.015393904285232442
58:14.2;-0.6944864309603274;0.7192468938089689;0.03200081724624373;1.001;0.01598463888473182
58:14.2;-0.693903217124286;0.7196417336442251;0.033440330954102565;1.001;0.01669882098707179
58:14.3;-0.6935748692046764;0.7198998977380838;0.03506560245804113;1.0;0.017508412310524607
58:14.3;-0.6935424632475415;0.720041949580229;0.0368029472317503;0.9990000000000001;0.018378643546217457
58:14.3;-0.6938308845009739;0.7200928186764044;0.03856761681040295;0.9990000000000001;0.019269254425384068
58:14.3;-0.6944453420421058;0.7200775381734597;0.040268092215830935;0.9990000000000001;0.02013624040862346
58:14.3;-0.6953693496605855;0.720017508316058;0.04181152377070238;0.997;0.020934114551477482
58:14.3;-0.6965646889719552;0.7199277816220282;0.04310999543712085;1.003;0.021618639767042203
58:14.3;-0.6979736315510687;0.7198156226214285;0.044087084028612104;1.003;0.022149894352616915
58:14.3;-0.699522999042399;0.7196803873608274;0.04468393405499199;1.003;0.02249536620984448
58:14.3;-0.7011292210889538;0.7195145585695522;0.04486401952323434;1.005;0.02263267225472622
58:14.3;-0.7027039604352069;0.7193056650152202;0.04461605226018702;1.0070000000000001;0.022551582463219356
58:14.4;-0.7041603559673445;0.7190387852205731;0.04395476018099861;1.0090000000000001;0.022255112943895122
58:14.4;-0.705419672673622;0.7186992853746683;0.04291936174245041;1.011;0.021759456073580877
58:14.4;-0.7064175485865527;0.7182753959496977;0.04156979686500877;1.011;0.021092612386236467
58:14.4;-0.7071088205657309;0.7177602047097824;0.039981132891990394;1.011;0.020291807162469283
58:14.4;-0.7074701485196031;0.7171526514197336;0.03823676984927079;1.011;0.019399964046603855
58:14.4;-0.7075000233225461;0.7164573119466193;0.03642111039330934;1.006;0.01846162648531231
58:14.4;-0.7072161919129177;0.715683208143457;0.03461250335224621;1.006;0.01751886773767017
58:14.4;-0.7066511787272725;0.714842295838113;0.032877507928379596;1.003;0.01660788082809991
58:14.4;-0.7058471460165078;0.7139483083702005;0.03126729139699222;1.003;0.015756788044342333
58:14.4;-0.7048514085888014;0.7130162401044465;0.029816087696333444;1.002;0.01498468613690164
58:14.5;-0.7037135629338837;0.7120622620870499;0.028541012802867066;1.001;0.014301555355387357
58:14.5;-0.7024846850373963;0.711103588416676;0.027442867288244997;1.0;0.013708792919863783
58:14.5;-0.701218417612457;0.7101578848144728;0.026508209488811697;1.002;0.013200446515144366
58:14.5;-0.6999729623517653;0.7092421051722831;0.02571297489396086;0.9990000000000001;0.012765214032683932
58:14.5;-0.6988123504251059;0.7083708741432992;0.025027312085569624;0.9990000000000001;0.012388977870911507
58:14.5;-0.6978054247074259;0.7075546568225429;0.02442086303622384;0.991;0.012057446479668124
58:14.5;-0.6970219078422809;0.7067981586421641;0.023867757417991402;0.991;0.011758541413228052
58:14.5;-0.696526281967568;0.7060996141568799;0.02335076398419751;0.991;0.01148430126479182
58:14.5;-0.6963709929101746;0.7054515169171542;0.022864030641152108;0.99;0.011232091625850675
58:14.5;-0.696590287041549;0.704842845810771;0.022413826068162983;0.9890000000000001;0.011004890053636866
58:14.6;-0.6971956078225751;0.7042622820709417;0.02201699305492276;0.99;0.010810532271523619
58:14.6;-0.6981734936953278;0.7037015649828045;0.021697447144153482;0.992;0.010660081196267974
58:14.6;-0.6994866649578589;0.7031580476633181;0.02148163545174713;0.9940000000000001;0.010565735473374065
58:14.6;-0.701078048736022;0.702635655357379;0.02139400855351621;0.995;0.010538740691406102
58:14.6;-0.7028765240333229;0.7021437884229822;0.0214532910337983;0.997;0.010587636458633708
58:14.6;-0.7048027983155557;0.701694255096089;0.021669997717038487;0.993;0.010717029006525608
58:14.6;-0.7067741291253028;0.7012970546306491;0.02204529441842054;0.993;0.010926940099687353
58:14.6;-0.7087075016405208;0.7009564953109106;0.022570891987386675;0.993;0.011212612581607502
58:14.6;-0.7105219938440608;0.7006691890829867;0.023229483065855323;0.995;0.011564586041788042
58:14.6;-0.7121416744413974;0.7004246925785311;0.023995447294493967;0.9990000000000001;0.011968967824579716
58:14.7;-0.7135000578458461;0.7002084164357193;0.02483580627526847;1.002;0.012407937661859492
