Time;AccX;AccY;AccZ;Acc-old;Acc-trns
56:10.0;0.024732559817863556;-0.41820901639781904;-0.8539522028213757;0.951;0.008832751720964085
56:10.0;0.023744167598472664;-0.41937542326997906;-0.871900110090355;0.956;0.008682137457907324
56:10.0;0.022699888442946847;-0.42053034265280936;-0.889025417515796;1.011;0.008486629403466683
56:10.1;0.0215307875835591;-0.4216642922900696;-0.9045230283499238;1.043;0.00821195138633363
56:10.1;0.02019049882597229;-0.4227689166840646;-0.9177446942613305;1.051;0.007833790991892912
56:10.1;0.018663558857408925;-0.4238440221588848;-0.9282514001441308;1.043;0.007342875013657417
56:10.1;0.016967223750048204;-0.42489910572156125;-0.9358339984454169;1.043;0.006746762508634428
56:10.1;0.015145812602030424;-0.4259470524697403;-0.9405020987178668;1.034;0.006067474577594269
56:10.1;0.013259520610445368;-0.426995119277466;-0.9424473889168369;1.023;0.0053359020551726815
56:10.1;0.011370660375879596;-0.4280389831285981;-0.9419910861184383;1.0190000000000001;0.004584751537686895
56:10.1;0.00953036484955383;-0.4290622117193922;-0.9395267143775764;1.018;0.0038418369341615215
56:10.1;0.007768484679757512;-0.43004098050838924;-0.9354681271946659;1.0190000000000001;0.0031251808325542317
56:10.1;0.006088265635571593;-0.43095228511409583;-0.9302089953954554;1.0190000000000001;0.002440637700953332
56:10.2;0.004465925927069511;-0.4317825145465184;-0.9240959651314009;1.014;0.0017819423137496807
56:10.2;0.0028544765578669153;-0.43253314338408055;-0.9174148833487294;1.008;0.0011326915317711806
56:10.2;0.001190938092379636;-0.4332218338407275;-0.9103883366927126;0.997;0.00046970610836055384
56:10.2;-0.0005940722535542922;-0.43387929847538204;-0.9031830429331303;0.997;0.00023280053466277623
56:10.2;-0.0025656467502498063;-0.434543910262946;-0.8959260401236766;0.998;0.0009988555525581087
56:10.2;-0.004774359922691844;-0.4352564514345116;-0.8887276133398893;1.0;0.0018468390426960844
56:10.2;-0.007248500857125793;-0.4360560091503205;-0.8817067477344006;0.9990000000000001;0.0027868566802739794
56:10.2;-0.009990651754366857;-0.43697612518352946;-0.8750132535535677;0.993;0.0038200246159456933
56:10.2;-0.01297917589964648;-0.4380399751082887;-0.868840679184323;0.986;0.004939704962449329
56:10.2;-0.01617332825278891;-0.43925466735086416;-0.8634257658659591;0.977;0.006133957892460353
56:10.3;-0.019519913075060718;-0.4406061607255172;-0.85903292700026;0.9640000000000001;0.0073881934014223445
56:10.3;-0.022960184476544066;-0.44205698475995336;-0.8559253170022184;0.953;0.008687393680100372
56:10.3;-0.02643673659447578;-0.4435487682929836;-0.8543271591415389;0.948;0.010017824851047399
56:10.3;-0.029899774748604332;-0.4450099193399048;-0.854384815703013;0.948;0.011368184923075383
56:10.3;-0.033310644263326965;-0.44636604317158224;-0.8561354157024349;0.948;0.012729655307807501
56:10.3;-0.03664023560879438;-0.4475492808778463;-0.859490576041468;0.953;0.014094193851650536
56:10.3;-0.03986210420677108;-0.44850398031734384;-0.8642394354296999;0.9690000000000001;0.015451142615497132
56:10.3;-0.042943206683698075;-0.44918839324190085;-0.8700709194965991;0.9890000000000001;0.016783311317500695
56:10.3;-0.045837111243861674;-0.44957396264893495;-0.8766100098530265;0.996;0.01806445302053922
56:10.3;-0.048484379109792135;-0.44964477493211746;-0.8834585836588982;0.9990000000000001;0.019260057714499977
56:10.4;-0.05082178985354792;-0.4493991252633392;-0.8902317260848703;1.0070000000000001;0.020332240889139312
56:10.4;-0.052796913428123385;-0.44885302147268297;-0.8965852190577295;1.01;0.02124732504141395
56:10.4;-0.05438061823685612;-0.4480435188245186;-0.9022345403710736;1.022;0.021982839511554955
56:10.4;-0.055571156933864205;-0.44702937702931483;-0.906966875811595;1.022;0.022530816407014043
56:10.4;-0.056389025776690076;-0.4458875214101875;-0.9106463828427722;1.0190000000000001;0.022896530382992542
56:10.4;-0.056866926332747876;-0.4447049446616906;-0.9132123807203474;1.0170000000000001;0.02309423093510272
56:10.4;-0.057040245173338625;-0.4435664705412927;-0.9146716088243466;1.012;0.02314223463958264
56:10.4;-0.056941442449691945;-0.44254025728165003;-0.9150872287249333;1.013;0.023059173807606328
56:10.4;-0.05659901580139517;-0.44166491173860967;-0.9145670234248809;1.015;0.022862162914815666
56:10.4;-0.056039660470367174;-0.44094225960207967;-0.9132519506147204;1.016;0.022566688136135108
56:10.5;-0.05529151136032562;-0.4403375411424503;-0.9113049810472694;1.013;0.022187476904000646
56:10.5;-0.054386879012625435;-0.43978637053691816;-0.9088995012089301;1.011;0.021739610995145146
56:10.5;-0.05336395199047008;-0.43920661438146497;-0.9062069411773483;1.001;0.02123949766554491
56:10.5;-0.052267681783443265;-0.4385128111743403;-0.9033846943185805;1.001;0.02070562062167353
56:10.5;-0.05115003883512909;-0.4376305421092206;-0.9005667620219905;1.001;0.020159024167298176
56:10.5;-0.0500692401950061;-0.4365084320451889;-0.8978595248743024;0.998;0.019623299512478824
56:10.5;-0.049087117232745926;-0.435126046814238;-0.8953435046946439;1.0;0.01912371647291453
56:10.5;-0.04826415351317459;-0.43349686855740455;-0.8930800089085176;1.001;0.01868534092964092
56:10.5;-0.04765277277922606;-0.431666510738995;-0.8911199843398971;0.997;0.018330432672616526
56:10.5;-0.04729029729093988;-0.42970658570059445;-0.8895118919514736;0.992;0.018075728624918165
56:10.6;-0.0471929935381028;-0.4277046485940721;-0.8883063083997753;0.988;0.017930163224714062
56:10.6;-0.0473522881388638;-0.42575164120975634;-0.8875563852047084;0.988;0.01789341576471958
56:10.6;-0.047734299018584544;-0.4239294501853799;-0.887314189454217;0.98;0.01795566787733077
56:10.6;-0.04828380831098348;-0.4223010595052013;-0.8876235945965406;0.978;0.01809891440474639
56:10.6;-0.0489327340680378;-0.4209048415094948;-0.8885113697130015;0.978;0.018299802096878256
56:10.6;-0.04961144163084886;-0.4197537810128016;-0.8899788904530714;0.982;0.018533445685715577
56:10.6;-0.05026019576887564;-0.418839421239354;-0.8919966815225243;0.9840000000000001;0.018777378708925797
56:10.6;-0.05083798033824109;-0.41813883158496307;-0.8945030665488826;0.9890000000000001;0.019014750180203967
56:10.6;-0.05132639131975009;-0.41762208732944023;-0.8974071382870441;0.993;0.01923595312950495
56:10.6;-0.051727507635073756;-0.4172583901435448;-0.9005951527178969;0.997;0.019438208525231135
56:10.7;-0.05205656172521542;-0.4170201000500186;-0.9039385651046359;1.0;0.019623270183763027
56:10.7;-0.05233198733207292;-0.4168844814844715;-0.9073018214945753;1.002;0.019794053473876153
56:10.7;-0.052566100943099346;-0.41683315426236367;-0.9105486736402809;1.002;0.01995129938293873
56:10.7;-0.05275897164415736;-0.4168497017555234;-0.9135467734026208;1.002;0.02009123368378347
56:10.7;-0.052896413062622244;-0.4169163899235649;-0.9161714269402874;1.001;0.020204678065486554
56:10.7;-0.05295162321786225;-0.4170111004722566;-0.91831036343881;1.006;0.020277591930734175
56:10.7;-0.052889504298426704;-0.417105570097048;-0.9198713488120596;1.0170000000000001;0.02029282818473004
56:10.7;-0.05267266090455196;-0.4171659490628496;-0.9207927182594293;1.018;0.020232799918863384
56:10.7;-0.05226792310054353;-0.4171560060798372;-0.9210544216971137;1.018;0.020082558285067612
56:10.7;-0.05165208886658866;-0.41704194483308615;-0.9206862839097129;1.02;0.019832583889779033
56:10.8;-0.050815695639288345;-0.4167968775457862;-0.9197712867659333;1.0190000000000001;0.01948059330507294
56:10.8;-0.04976409521586883;-0.41640334213305674;-0.9184428350717104;1.0190000000000001;0.019031913249516374
56:10.8;-0.04851603953855788;-0.41585341208281706;-0.9168752860371048;1.003;0.018498472880363343
56:10.8;-0.04710105148788913;-0.4151471959406176;-0.9152678170259259;1.003;0.017897027406874145
56:10.8;-0.04555704196675513;-0.4142912800168558;-0.9138236231105342;1.003;0.017247402183223345
56:10.8;-0.04392860760432276;-0.41329843707107305;-0.9127277593735104;0.997;0.01657114280358231
56:10.8;-0.042265160406171884;-0.4121888711539114;-0.9121264633353003;0.996;0.015890363773040227
56:10.8;-0.040617504912095086;-0.4109921595525211;-0.9121099340561681;0.997;0.01522628534775963
56:10.8;-0.03903207529442285;-0.40974839925743345;-0.9127003308929708;0.996;0.014597117922226573
56:10.8;-0.037543651848432925;-0.4085070175378173;-0.9138463606289192;0.993;0.014015520209832825
56:10.9;-0.036169140967217316;-0.4073225097311984;-0.9154250992827685;0.996;0.013486505102758627
56:10.9;-0.03490576731875104;-0.4062481259518221;-0.9172510698330094;1.001;0.013006989417128552
56:10.9;-0.033736086129563275;-0.4053302076306631;-0.9190917005743179;1.001;0.012567894094121047
56:10.9;-0.03263942025675002;-0.40460559992735184;-0.9206875116199602;1.001;0.01215868417897381
56:10.9;-0.03160575089502776;-0.4041021152732563;-0.9217759235723163;1.0090000000000001;0.01177287673663696
56:10.9;-0.03064627329174234;-0.40383969631028527;-0.9221186193915066;1.015;0.011412307581785585
56:10.9;-0.02979610981981248;-0.40382964149414785;-0.9215316836642738;1.0170000000000001;0.011088378222607307
56:10.9;-0.02910775040280212;-0.40407065768390554;-0.9199153869569239;1.0190000000000001;0.010819665637303175
56:10.9;-0.028637054676248323;-0.4045425243020624;-0.9172785709112078;1.0190000000000001;0.010626586375087874
56:10.9;-0.028426329853441262;-0.4052000088345406;-0.9137520447924864;1.0190000000000001;0.010524915049838414
56:11.0;-0.028490142492439908;-0.4059703074680641;-0.909586054604506;1.004;0.010520410480467278
56:11.0;-0.028808343321720446;-0.4067561104124998;-0.9051292593652558;0.992;0.010606277214981218
56:11.0;-0.02932768057566768;-0.4074443490738874;-0.9007910467378271;0.982;0.010763910481886813
56:11.0;-0.029970030695348968;-0.4079190580170734;-0.8969935445518659;0.982;0.010966057060829126
56:11.0;-0.03064375614984121;-0.40807588933722716;-0.8941214556617063;0.972;0.011180969171253635
56:11.0;-0.031255642838003986;-0.4078357166056544;-0.8924764887183047;0.965;0.011376547286870124
56:11.0;-0.031722641251013504;-0.4071555056326353;-0.8922412767120512;0.965;0.011524231191998155
56:11.0;-0.031983060702448204;-0.4060354159820744;-0.8934570335320067;0.9670000000000001;0.011602661187684967
56:11.0;-0.03200565864979102;-0.4045211647215834;-0.8960186460282469;0.972;0.011600723227466228
56:11.0;-0.031794084069169684;-0.4027006342277301;-0.8996889517445519;0.983;0.01151916553174962
56:11.1;-0.0313849734379544;-0.4006945577841426;-0.9041307173672425;0.995;0.011370156273625793
56:11.1;-0.030840071860702176;-0.3986425963106207;-0.9089511706399647;1.005;0.01117479686583997
56:11.1;-0.030234449296691213;-0.39668714440648534;-0.9137510543835878;1.011;0.010959180503280042
56:11.1;-0.029643600379908645;-0.39495753550495527;-0.9181693939690133;1.011;0.010749893613260831
56:11.1;-0.02913226266440178;-0.39355725593714247;-0.9219169672352632;1.013;0.01056997472351052
56:11.1;-0.02874726962280799;-0.39255604499282654;-0.9247950396483854;1.01;0.01043623292237434
56:11.1;-0.02851562564753425;-0.391987231081141;-0.9266997611896234;1.0070000000000001;0.010358428579186932
56:11.1;-0.028447495209446932;-0.39184911524097715;-0.9276155141898522;1.005;0.010340246857276324
56:11.1;-0.028542349034464006;-0.3921085635039649;-0.9276019658878943;1.003;0.010381442438284275
56:11.1;-0.028795658388272027;-0.39270550664272036;-0.9267793405662267;1.008;0.010480218758460643
56:11.1;-0.029203701548570937;-0.39355810457573576;-0.9253145206777508;1.012;0.010634966818257048
56:11.2;-0.02976502871404791;-0.3945687298721963;-0.9234078465191767;1.011;0.01084482454918324
56:11.2;-0.03047842828742138;-0.39563047590703804;-0.9212785180848001;0.998;0.011108956101681344
56:11.2;-0.03133857883722765;-0.3966335417664792;-0.9191469682544117;0.998;0.011424933870506162
56:11.2;-0.0323315465426628;-0.397471188045235;-0.9172152063223454;0.99;0.01178700256968845
56:11.2;-0.03343228056158071;-0.39804571743696104;-0.9156484007153168;0.988;0.012185060774908133
56:11.2;-0.03460523269021299;-0.3982753822212993;-0.9145612537175296;0.995;0.012604860250894884
56:11.2;-0.035807885908632486;-0.3981024870595124;-0.9140115382376374;0.997;0.013029424991007364
56:11.2;-0.03699595705050742;-0.3975013127892908;-0.9140012410444526;1.0;0.01344124877758936
56:11.2;-0.03812860167269594;-0.3964833357843941;-0.9144836897823799;1.003;0.013824574744743379
56:11.2;-0.03917219887917765;-0.39509784477201676;-0.9153737590625061;0.9990000000000001;0.014167103600663592
56:11.3;-0.04010202341663843;-0.39342762490643957;-0.9165583965399277;0.998;0.014460765303665893
56:11.3;-0.04090181917867529;-0.39158045363947497;-0.9179061889722828;0.996;0.014701509459628238
56:11.3;-0.04156180451326582;-0.3896779901841212;-0.9192763258633344;0.996;0.014888342391047214
56:11.3;-0.04207614656889454;-0.38784463405128666;-0.9205278071012775;0.998;0.015022100342970239
56:11.3;-0.042441178434791345;-0.38619883880545525;-0.9215292988851866;1.001;0.01510454145369958
56:11.3;-0.04265508426409601;-0.38484759315053335;-0.9221695438375476;1.004;0.01513806458840479
56:11.3;-0.04271871673200879;-0.3838829530096661;-0.922367739876813;1.003;0.015125896693399601
56:11.3;-0.04263655678257735;-0.3833790580073988;-0.9220827335462379;1.0070000000000001;0.01507233022334044
56:11.3;-0.04241700649359819;-0.3833886204985375;-0.9213194840115543;1.004;0.014982679506570343
56:11.3;-0.04207183021839486;-0.3839386942281212;-0.9201311841525243;1.0;0.014862882291293173
56:11.4;-0.04161512506120779;-0.3850264208552722;-0.9186158867087291;0.998;0.014718911303087622
56:11.4;-0.04106252319673764;-0.3866161728957323;-0.9169076144016762;0.9940000000000001;0.01455630775402687
56:11.4;-0.04043123500533701;-0.38863960909807177;-0.9151631466714328;0.9940000000000001;0.014380122674472692
56:11.4;-0.03974097283281333;-0.39099952479068323;-0.9135462084055754;0.9940000000000001;0.01419532183188191
56:11.4;-0.03901516292331794;-0.39357742631809817;-0.912210607822188;0.99;0.014007438504357785
56:11.4;-0.038281538729959694;-0.396243865414603;-0.9112837128723783;0.987;0.013823103056901829
56:11.4;-0.03757113613542322;-0.39886985180900286;-0.9108522189420692;0.987;0.013650025434923909
56:11.4;-0.03691494652915002;-0.40133733775862485;-0.9109529777974426;0.99;0.013496083886940909
56:11.4;-0.03633847239191324;-0.40354709462913685;-0.9115713619706662;0.997;0.013367542210594567
56:11.4;-0.03585601591838832;-0.40542327889081237;-0.9126476245000631;1.003;0.013267033978917481
56:11.5;-0.03546735530292722;-0.4069151644516062;-0.914089025350379;1.002;0.013192319942280878
56:11.5;-0.03515838341365525;-0.4079970801441837;-0.9157840913499975;1.008;0.013136481176762894
56:11.5;-0.03490506350547605;-0.40866727285927545;-0.9176160355015999;1.008;0.013089386345081859
56:11.5;-0.03467854707174033;-0.4089458736822057;-0.9194737579772595;1.01;0.013039653852346142
56:11.5;-0.03444945107382151;-0.4088718428578722;-0.9212597027906402;1.013;0.012976321133287968
56:11.5;-0.034190543972393135;-0.40849863819193744;-0.9228942702988612;1.012;0.012889871066976833
56:11.5;-0.033878110898545324;-0.4078885066222075;-0.9243168528549679;1.0090000000000001;0.012772665093569472
56:11.5;-0.033492346008532584;-0.40710580560889587;-0.9254841328339932;1.008;0.012618909982348091
56:11.5;-0.033016855632072226;-0.4062102545231117;-0.926367090368985;1.01;0.012424236552672968
56:11.5;-0.03243758869341988;-0.4052512835887166;-0.9269483772615812;1.011;0.01218508351912358
56:11.6;-0.0317420865130744;-0.40426462813814584;-0.9272208350417659;1.01;0.011898285796139088
56:11.6;-0.030920060504135122;-0.4032718472562502;-0.9271868992085462;1.012;0.011561269534579487
56:11.6;-0.02996557143295283;-0.40228270896115215;-0.9268583190000608;1.012;0.011172935258039496
56:11.6;-0.028879989671712996;-0.4012996828747179;-0.9262557909435605;1.012;0.010734869922121299
56:11.6;-0.02767441261122553;-0.40032319830228785;-0.9254082912961914;1.0090000000000001;0.010252329505696102
56:11.6;-0.026370592170634376;-0.3993561660726047;-0.9243520593274759;1.008;0.00973459056158318
56:11.6;-0.025000089300538705;-0.3984067247830746;-0.9231293864160179;1.006;0.009194556727862816
56:11.6;-0.023601890333396047;-0.3974887959165161;-0.9217875185572478;1.005;0.008647737594430644
56:11.6;-0.02221902257745716;-0.3966205031961227;-0.9203778998894432;1.004;0.008110848572282971
56:11.6;-0.020894707761829147;-0.3958211173905648;-0.9189555521363574;1.002;0.007600283072340441
56:11.7;-0.019668440641771315;-0.39510783819185386;-0.9175778572004932;1.0;0.0071306398102903915
56:11.7;-0.01857236412329179;-0.3944936652711231;-0.9163019916475016;0.996;0.006713451472267149
56:11.7;-0.017628479160303186;-0.3939866527597162;-0.9151809924534958;0.996;0.0063562847926769105
56:11.7;-0.016847416043274388;-0.3935898993650633;-0.9142592989767419;0.995;0.006062428529978781
56:11.7;-0.01622936526242651;-0.3933015334161669;-0.9135688104783136;0.991;0.00583134100160963
56:11.7;-0.015767090794174893;-0.39311449866267356;-0.9131261591877237;0.99;0.005659804298496715
56:11.7;-0.015450063746973714;-0.3930164331178191;-0.9129317910607418;0.993;0.005543439553564907
56:11.7;-0.015268297915345822;-0.39299002304496683;-0.9129714003750543;0.997;0.005478092022385371
56:11.7;-0.015214734128759495;-0.3930139495484751;-0.9132194609872413;0.996;0.005460689601436036
56:11.7;-0.015285767047293043;-0.39306414210061774;-0.9136434795141044;0.995;0.005489432159097001
56:11.8;-0.015480262248084964;-0.39311494910505296;-0.914207508002462;0.995;0.005563430364910071
56:11.8;-0.015797843244469697;-0.3931402316528512;-0.9148744481537002;0.997;0.00568207272040452
56:11.8;-0.01623721361990576;-0.3931147592516637;-0.9156074855520913;0.997;0.005844403449576996
56:11.8;-0.016794899613593053;-0.3930161445401343;-0.9163709906880153;0.997;0.006048659477649
56:11.8;-0.01746444864340892;-0.3928271817021953;-0.9171310435013119;0.995;0.006291986824175097
56:11.8;-0.018236114444514832;-0.39253823059770454;-0.9178559636399262;1.0;0.006570354519209962
56:11.8;-0.019097113729001216;-0.39214909237232576;-0.9185174659304507;1.002;0.006878699977657347
56:11.8;-0.020032302602795635;-0.39166957880135894;-0.9190926168667425;1.002;0.00721124067347422
56:11.8;-0.02102492198480993;-0.3911181203033904;-0.9195658195429689;1.003;0.007561799364049698
56:11.8;-0.022057276044519177;-0.39051859494695956;-0.9199295050681858;0.9990000000000001;0.007924067105738376
56:11.9;-0.023111486615965217;-0.3898964859854228;-0.9201826633068476;0.997;0.008291846419092818
56:11.9;-0.024170413369835633;-0.3892756435633936;-0.9203276376619461;0.995;0.00865931968959141
56:11.9;-0.025218616981794895;-0.3886764369876557;-0.9203668128780618;0.998;0.009021327075319285
56:11.9;-0.026243123107483213;-0.38811550764204156;-0.9203009209164295;0.998;0.009373598991997826
56:11.9;-0.027233782563394045;-0.3876068421939274;-0.9201296495957776;1.002;0.009712889004754468
56:11.9;-0.028183187720231533;-0.3871634945792678;-0.9198539154352646;1.002;0.01003698732851711
56:11.9;-0.02908622530704412;-0.3867990536688285;-0.9194783293352572;0.9990000000000001;0.010344613401123212
56:11.9;-0.029939313636752007;-0.38652800556694716;-0.9190124676679547;0.997;0.01063516443045547
56:11.9;-0.030739316475757342;-0.3863646477004835;-0.9184705318536774;0.995;0.0109082935075319
56:11.9;-0.03148222211043775;-0.3863208918643097;-0.9178700976223708;0.995;0.011163356529532136
56:12.0;-0.03216192593210398;-0.38640357682981374;-0.9172310408749378;0.996;0.011398873367410713
56:12.0;-0.03276960580717356;-0.38661187594740043;-0.9165751634124856;0.996;0.011612199611641979
56:12.0;-0.03329397826166526;-0.38693543903962796;-0.9159260847521755;0.996;0.011799527785927771
56:12.0;-0.03372229467606469;-0.3873539036679659;-0.915308518291448;0.992;0.011956183180932323
56:12.0;-0.034041625398630156;-0.3878380887924991;-0.9147466184439448;0.9890000000000001;0.012077069319408214
56:12.0;-0.03423991024817317;-0.3883526773622066;-0.914262292655552;0.9940000000000001;0.01215709273483514
56:12.0;-0.03430639344328292;-0.3888596524005127;-0.9138750350706993;0.997;0.012191433139063285
56:12.0;-0.034231440803104814;-0.3893213710251811;-0.9136039304783259;0.998;0.012175628328609805
56:12.0;-0.03400619973550225;-0.3897023788808901;-0.9134705808298271;0.9990000000000001;0.012105583377286781
56:12.0;-0.03362266698114664;-0.389969959637923;-0.9135005732205819;0.9940000000000001;0.011977664299127265
56:12.1;-0.03307431848705816;-0.3900943486595399;-0.913721669228241;0.993;0.011788932668230221
56:12.1;-0.03235698896558888;-0.39004980770731285;-0.9141586157128915;0.992;0.011537447177259682
56:12.1;-0.03146968780022974;-0.3898171401915545;-0.9148260955656671;0.992;0.0112225593270416
56:12.1;-0.03041540995329737;-0.3893870905868395;-0.9157219693507725;0.992;0.010845232260208443
56:12.1;-0.029202163722637984;-0.38876329041456686;-0.9168227430629537;0.991;0.010408440377771475
56:12.1;-0.027844158024189318;-0.38796364101738035;-0.9180826600659976;0.995;0.009917607149114176
56:12.1;-0.026362816500755188;-0.3870198752984148;-0.9194370517814372;1.0;0.009380955514772407
56:12.1;-0.024787350822005148;-0.3859755499145877;-0.9208094623821984;1.002;0.008809670833941607
56:12.1;-0.023154753037829223;-0.38488256771777873;-0.9221209312222008;1.002;0.00821781338357235
56:12.1;-0.021508979601679374;-0.38379624067318635;-0.923299366924119;1.003;0.007621896760999732
56:12.2;-0.01989899454042389;-0.3827694867472024;-0.9242872475262667;1.006;0.007040044490824938
56:12.2;-0.01837553916798697;-0.38184740211678475;-0.9250463611426861;1.0;0.006490728301756348
56:12.2;-0.016987006931362902;-0.38106329716966525;-0.9255589038352858;1.0;0.005991258359352223
56:12.2;-0.015775265544422615;-0.3804365499855387;-0.9258253515109569;1.0;0.005556329365771619
56:12.2;-0.014772275267343222;-0.3799720651252283;-0.9258606324341168;0.997;0.005196903818989819
56:12.2;-0.01399789961670228;-0.3796610336973631;-0.9256903807345226;0.998;0.004919541758967458
56:12.2;-0.013458844672082299;-0.3794829178659423;-0.925348513679532;1.002;0.004726126523062248
56:12.2;-0.013148533585926873;-0.37940870516808844;-0.924876360971199;1.004;0.004613901200914237
56:12.2;-0.013047833581568831;-0.3794051665980428;-0.9243222839852833;1.001;0.004575779337380692
56:12.2;-0.013126701639819136;-0.37943939637496205;-0.9237401131731764;0.9990000000000001;0.004600953436742503
56:12.3;-0.01334680004504986;-0.37948283949656636;-0.9231855682888018;0.998;0.004675825579090865
56:12.3;-0.013664815704154577;-0.379514289955204;-0.922711278370995;0.996;0.00478517407317477
56:12.3;-0.014035903045175773;-0.3795216047620688;-0.9223617805121603;0.996;0.00491335520794886
56:12.3;-0.014416746099118402;-0.37950208299548627;-0.9221697441456497;0.996;0.00504536143266431
56:12.3;-0.014768022499828544;-0.3794617061689604;-0.9221541428869883;0.997;0.005167658692565955
56:12.3;-0.015056248879534903;-0.37941362399140416;-0.9223204872486622;0.996;0.005268798165049713
56:12.3;-0.015255110407561738;-0.37937626470074176;-0.9226627176212041;0.9990000000000001;0.005339842943029216
56:12.3;-0.015346399033560987;-0.37937129136497194;-0.9231660832653409;1.0;0.005374657445272346
56:12.3;-0.015320500362415621;-0.37942147965323597;-0.9238101925769493;1.0;0.0053700411342005525
56:12.3;-0.015176174353116518;-0.3795485900629993;-0.9245713542403505;1.0;0.005325619369360149
56:12.4;-0.014919525309868632;-0.37977135693823283;-0.9254235977806072;1.0;0.005243457852489083
56:12.4;-0.014562528523490971;-0.3801035979476988;-0.9263384539946149;0.998;0.005127532979026428
56:12.4;-0.014121792983665503;-0.38055230212969215;-0.927284370853355;0.998;0.004983301161484808
56:12.4;-0.013617988515819671;-0.38111580538781986;-0.9282271094002813;1.003;0.004817527158129804
56:12.4;-0.013075699640551821;-0.38178269400092774;-0.9291320832617123;1.008;0.004638297820110906
56:12.4;-0.012522992348964411;-0.3825322353162741;-0.9299681669674149;1.01;0.004454964383675665
56:12.4;-0.011990155974359606;-0.3833365964405486;-0.9307110427385114;1.008;0.004277795132528511
56:12.4;-0.011507630035958743;-0.3841642465058494;-0.9313442144983551;1.008;0.004117305150671885
56:12.4;-0.011103385302714328;-0.38498347970185637;-0.9318573158264568;1.008;0.003983335835799258
56:12.4;-0.0108000010527439;-0.3857653172402016;-0.9322426232324077;1.011;0.0038839705885927397
56:12.5;-0.010611839910171405;-0.3864856695778628;-0.9324907374581597;1.0090000000000001;0.0038244466908633813
56:12.5;-0.010542970313813186;-0.38712683887152377;-0.9325859603245361;1.003;0.0038063186071424994
56:12.5;-0.010586408839767934;-0.38767826535560135;-0.9325022851465409;1.003;0.00382710185232758
56:12.5;-0.010724921444615584;-0.388136505993761;-0.9322020225975888;1.005;0.003880508622325976
56:12.5;-0.010933293122190475;-0.38850478524804977;-0.9316392378477183;1.012;0.003957265014572493
56:12.5;-0.01118160785489064;-0.38879243559724574;-0.9307683916921653;1.014;0.004046352281239237
56:12.5;-0.01143874470857452;-0.38901414059207773;-0.9295559863467951;1.014;0.004136369314497362
56:12.5;-0.01167542612480451;-0.38918874379004653;-0.9279915840321513;1.012;0.0042167421863116734
56:12.5;-0.011866762130770444;-0.3893375777916197;-0.9260951009076288;1.0070000000000001;0.004278722751802295
56:12.5;-0.011994575915283304;-0.38948234611174326;-0.9239190501844516;1.005;0.004316250053648815
56:12.6;-0.012049447322291887;-0.3896425132610339;-0.9215461426707394;1.003;0.004326637887201184
56:12.6;-0.012031912228740706;-0.3898322588544637;-0.9190834463576073;0.998;0.004310894292241046
56:12.6;-0.011952261216216604;-0.39005739297836894;-0.9166541569353248;0.998;0.004273503874794788
56:12.6;-0.011828819692426098;-0.39031294153331947;-0.9143876450201568;0.992;0.004221674182188092
56:12.6;-0.011685014945313706;-0.3905821655119483;-0.9124083354779889;0.9890000000000001;0.004164193724690341
56:12.6;-0.011545810227313016;-0.39083761658850386;-0.9108242334495052;0.986;0.004110128009148833
56:12.6;-0.011434298052233094;-0.3910445062964858;-0.9097164354118635;0.9840000000000001;0.004067632779526457
56:12.6;-0.011369272866874294;-0.39116604075640304;-0.9091313204565216;0.9890000000000001;0.0040431555873157105
56:12.6;-0.011364259375115253;-0.3911695802794186;-0.9090767228379321;0.991;0.004041166546149581
56:12.6;-0.011427850548978375;-0.39103211701930357;-0.9095222165229787;0.985;0.004064342449479286
56:12.6;-0.011564684274336878;-0.39074400157685607;-0.9104027371377524;0.9890000000000001;0.004113956120464958
56:12.7;-0.011776302517119119;-0.39031073175479514;-0.9116249586177241;0.9940000000000001;0.004190208687894195
56:12.7;-0.012061503130600705;-0.3897531154117455;-0.9130761793206524;0.9940000000000001;0.00429237880864018
56:12.7;-0.012416339571997831;-0.38910586782118717;-0.9146349595460865;0.996;0.004418848975450078
56:12.7;-0.012834234002714811;-0.3884143949424932;-0.9161821992488908;0.996;0.004567169394479483
56:12.7;-0.013306441589975224;-0.38772985637954266;-0.9176115379877496;0.9990000000000001;0.004734237508421979
56:12.7;-0.013822619732672155;-0.387103213620204;-0.9188383220460783;1.002;0.004916502193868651
56:12.7;-0.014371175944082736;-0.386579275935429;-0.9198062708805066;1.002;0.005110074606277826
56:12.7;-0.014939500618090436;-0.3861918263174899;-0.9204906667232715;0.9990000000000001;0.005310782893786193
56:12.7;-0.015514502729373875;-0.3859607744370709;-0.9208972440955701;0.997;0.005514323017573209
56:12.7;-0.01608363014904161;-0.3858917637255557;-0.9210572488593889;0.998;0.005716579030661613
56:12.8;-0.016636118152436662;-0.38597793507555167;-0.921020403580266;0.997;0.005914032759060492
56:12.8;-0.01716401167115179;-0.38620309738230574;-0.9208476488793824;0.998;0.006104109803437397
56:12.8;-0.017662581149262436;-0.3865455833651256;-0.9206046796246894;0.998;0.006285329700625526
56:12.8;-0.01813006858017806;-0.386982266310143;-0.9203564415518557;1.0;0.006457234624598624
56:12.8;-0.01856710400093187;-0.38749220760577757;-0.9201623835819511;0.998;0.0066202077549507455
56:12.8;-0.018976215787616366;-0.3880592223609092;-0.9200723160295029;0.997;0.006775316426230861
56:12.8;-0.01936154436550139;-0.3886726523004104;-0.9201231101798675;0.998;0.006924205018459182
56:12.8;-0.01972852393072205;-0.38932620178717114;-0.9203367591056204;0.998;0.0070689513755853445
56:12.8;-0.02008322242481456;-0.39001557519405183;-0.92072003623678;0.9990000000000001;0.007211787860010298
56:12.8;-0.02043125947189651;-0.39073601954957;-0.9212655196632275;0.9990000000000001;0.007354673613674725
56:12.9;-0.020776551149926575;-0.3914805237535896;-0.9219536666149886;1.003;0.007498816288219947
56:12.9;-0.02112025976428809;-0.3922389091084586;-0.9227556886703276;1.003;0.007644281280079161
56:12.9;-0.02146014515974715;-0.3929976811016712;-0.9236368647220654;1.003;0.00778975684462118
56:12.9;-0.02179028831351461;-0.3937403923512008;-0.9245598922964767;1.006;0.007932461920357833
56:12.9;-0.02210124856320185;-0.39444842031065985;-0.9254880673137911;1.006;0.008068222263438268
56:12.9;-0.022381009196059218;-0.39510212470855344;-0.9263882235076493;1.008;0.00819185122601789
56:12.9;-0.02261700640480279;-0.39568207931128113;-0.9272333106943372;1.014;0.008297944532168198
56:12.9;-0.022798884033258644;-0.3961697684329034;-0.9280042305274844;1.011;0.00838194635930117
56:12.9;-0.022920921709147418;-0.3965471311499955;-0.9286902404050791;1.0090000000000001;0.008441075244148102
56:12.9;-0.02298304135693192;-0.3967948935944983;-0.9292874862529656;1.008;0.008474686901022904
56:13.0;-0.022989877102930885;-0.39689064163923565;-0.9297960873479018;1.011;0.008483893785087989
56:13.0;-0.022948173712510504;-0.39680802637927465;-0.9302167153834834;1.011;0.008470571567991398
56:13.0;-0.022863510734270804;-0.39651776182714366;-0.9305473337802485;1.01;0.008436144948667276
56:13.0;-0.02273772137458219;-0.3959901286957475;-0.9307803741892355;1.0090000000000001;0.008380665709906861
56:13.0;-0.022568104325093066;-0.39519846863825125;-0.9309007415100221;1.008;0.008302592256172435
56:13.0;-0.02234872311830604;-0.39412329067970425;-0.9308854173611179;1.01;0.008199380527988923
56:13.0;-0.02207308002685264;-0.3927565320542809;-0.930705422672514;1.011;0.008068607671166439
56:13.0;-0.02173678938281097;-0.3911053648733034;-0.9303301965813748;1.013;0.00790908582168982
56:13.0;-0.021339156003455838;-0.3891950252633135;-0.9297334078377788;1.013;0.007721522751876133
56:13.0;-0.020883614004970914;-0.3870701898941594;-0.9288985424656594;1.011;0.007508681179128642
56:13.1;-0.02037785398747182;-0.3847942771750535;-0.9278227804253749;1.002;0.007275319692023997
56:13.1;-0.019834455027469406;-0.3824463869807552;-0.926518657051685;1.002;0.007028214436981824
56:13.1;-0.019272088128483245;-0.38011658957650335;-0.925014179448406;1.002;0.006776321255950886
56:13.1;-0.01871663204298934;-0.3779006858651675;-0.9233524200746444;1.001;0.006530897600585583
56:13.1;-0.01820143001898925;-0.37589477039946223;-0.9215908381400036;0.998;0.00630536080124958
56:13.1;-0.017766281032152786;-0.37418917765516446;-0.919799677980937;0.993;0.006114782351474312
56:13.1;-0.017455071403916306;-0.3728617282458277;-0.9180588032746216;0.9890000000000001;0.005975027897916461
56:13.1;-0.017312013796273663;-0.37197110980507125;-0.9164531658799859;0.985;0.005901563382986436
56:13.1;-0.01737663900523362;-0.3715516948797747;-0.9150679534918799;0.987;0.0059079712309098465
56:13.1;-0.017678269009578865;-0.3716106924686566;-0.9139845306801845;0.9890000000000001;0.006004360857830992
56:13.2;-0.01823126063308562;-0.3721277060779692;-0.9132773987352889;0.986;0.006196000094154216
56:13.2;-0.019032258834474198;-0.3730562483542747;-0.9130114041891757;0.986;0.006482475081585929
56:13.2;-0.020060122028356085;-0.37432679892836174;-0.9132384572658895;0.9840000000000001;0.006857545260382493
56:13.2;-0.02127857041962692;-0.3758513406542331;-0.9139939310194292;0.987;0.0073097388693990715
56:13.2;-0.02264110398082482;-0.3775294238780449;-0.9152935371834606;0.993;0.007823638954562851
56:13.2;-0.024097212910009224;-0.37925535086779083;-0.9171311869243427;0.995;0.00838165910824009
56:13.2;-0.02559852015169723;-0.3809254674768233;-0.9194775378008267;0.995;0.00896594339914735
56:13.2;-0.02710351179439808;-0.38244455820779705;-0.922278577560089;0.996;0.009559962148686079
56:13.2;-0.028579875416650937;-0.38373106937351703;-0.9254542318908217;0.9990000000000001;0.010149443749337196
56:13.2;-0.030004022029364266;-0.38472151365017426;-0.9288979836831102;1.002;0.01072244848999673
56:13.3;-0.03135804045058717;-0.38537409328010735;-0.9324788680270152;1.013;0.011268612127360019
56:13.3;-0.032625004748675066;-0.38567064735541823;-0.9360465399648521;1.013;0.011777811861925454
56:13.3;-0.03378401178735428;-0.3856157140343993;-0.9394388336584171;1.0170000000000001;0.012238676402278633
56:13.3;-0.03480641361281004;-0.3852322795982049;-0.9424905035046196;1.018;0.01263743486793881
56:13.3;-0.035654429246145355;-0.3845549586158285;-0.9450422418824868;1.0190000000000001;0.012957556929394792
56:13.3;-0.036282653432060524;-0.38362220762380445;-0.9469498201389773;1.022;0.013180435087793782
56:13.3;-0.03664203040271697;-0.38246943555696755;-0.9480934438976747;1.023;0.01328701450358392
56:13.3;-0.03668523720037527;-0.38112434353086555;-0.9483871411558372;1.025;0.01326000469120071
56:13.3;-0.036372622773709444;-0.37960472994466105;-0.9477875272077388;1.028;0.013086310565321146
56:13.3;-0.035678368175328205;-0.37791818511137065;-0.9463007335354281;1.025;0.012759449866405885
56:13.4;-0.03459656690790926;-0.3760631349658352;-0.9439858556858888;1.018;0.012281721754953245
56:13.4;-0.03314659122304011;-0.3740310463335921;-0.9409536566007252;1.018;0.011665806241183137
56:13.4;-0.031377007916906584;-0.3718094624371841;-0.9373605359157383;1.011;0.010935499643122149
56:13.4;-0.02936745544802511;-0.36938509358695265;-0.9333987612243898;1.004;0.010125416682378442
56:13.4;-0.02722793862046807;-0.3667462745420646;-0.9292841189063964;0.997;0.009279594292751856
56:13.4;-0.025094949804774693;-0.36388477607392533;-0.9252422493391316;0.992;0.00844900706709334
56:13.4;-0.02312403186188316;-0.3607974175206465;-0.9214951920884297;0.9890000000000001;0.007688118223781984
56:13.4;-0.021479027984503442;-0.3574877130223579;-0.9182494408039146;0.986;0.007050767855936513
56:13.4;-0.020319152323253736;-0.35396732618468363;-0.9156859630169909;0.982;0.006585902819449304
56:13.4;-0.01978584791318668;-0.3502569479072764;-0.9139518372301434;0.978;0.006333805687182845
56:13.5;-0.01999173993450904;-0.3463863724107475;-0.9131530314652134;0.975;0.0063234626306798445
56:13.5;-0.021013443297083417;-0.3423939086346738;-0.9133482429264974;0.975;0.006571426425042366
56:13.5;-0.022888795828859942;-0.3383256630932317;-0.9145439570920076;0.976;0.0070821067933395055
56:13.5;-0.025618088017186246;-0.3342351695692319;-0.9166907204646544;0.973;0.0078491331195857
56:13.5;-0.029168377167050695;-0.3301833449820125;-0.9196805758372786;0.97;0.00885736300734598
56:13.5;-0.03347967182025503;-0.3262386641037013;-0.9233463092249096;0.972;0.010085123941962964
56:13.5;-0.03847155252375707;-0.32247783940191804;-0.9274642955095188;0.978;0.011506329001041062
56:13.5;-0.044048862138512626;-0.31898711616886244;-0.9317630322578081;0.985;0.013092220539438848
56:13.5;-0.050105441643695646;-0.3158630974378378;-0.9359382769314399;0.991;0.014812589698644747
56:13.5;-0.05652545296340017;-0.3132107695189213;-0.9396739460871363;0.9940000000000001;0.016636345200291825
56:13.6;-0.06318258667371096;-0.3111365686899881;-0.9426666890781515;1.002;0.0185313313013231
56:13.6;-0.06993807100957435;-0.3097364104103639;-0.9446513158433588;1.002;0.02046338355273541
56:13.6;-0.0766387576141475;-0.309081226075379;-0.945423760919805;1.004;0.022394820983678444
56:13.6;-0.08311694747927145;-0.30920355421484635;-0.94485850663339;1.002;0.024282916132009554
56:13.6;-0.0891936619687838;-0.31008773774243165;-0.9429186568254359;1.0;0.026079113013590043
56:13.6;-0.0946860035391629;-0.31166493510833726;-0.9396583064354846;0.9990000000000001;0.027729605237739353
56:13.6;-0.09941762900572254;-0.3138135770873657;-0.9352176818120475;0.993;0.029177484036051107
56:13.6;-0.10323060290142919;-0.31636569999364256;-0.929811831405619;0.99;0.03036637308435273
56:13.6;-0.10599735519532308;-0.31911909503874664;-0.9237139076815974;0.981;0.03124534348554227
56:13.6;-0.1076320706604808;-0.3218542887111958;-0.9172346807987629;0.973;0.03177470030622576
56:13.7;-0.10810064233076158;-0.3243542993240645;-0.9107009028688844;0.9690000000000001;0.03193182206358318
56:13.7;-0.10742765891347013;-0.32642432691762574;-0.9044357809473217;0.9690000000000001;0.031715850663887685
56:13.7;-0.10569875388544461;-0.32790846983104605;-0.8987439863689847;0.9640000000000001;0.031150032159305698
56:13.7;-0.10305740377426713;-0.328701508080706;-0.8939013925853578;0.961;0.03028102055289634
56:13.7;-0.09969652294100537;-0.32875537688086226;-0.8901478134217004;0.953;0.02917527819454473
56:13.7;-0.09584632514410796;-0.32808124610909406;-0.8876807981369768;0.95;0.027913461603521334
56:13.7;-0.09176029995896137;-0.3267484918672825;-0.8866497020291744;0.946;0.026584009824477846
56:13.7;-0.08770059514991668;-0.32488130164570317;-0.8871506511293737;0.945;0.02527694786575952
56:13.7;-0.08392319301444813;-0.32265263122395244;-0.8892238567969979;0.9490000000000001;0.02407843831571949
56:13.7;-0.08066286332808734;-0.32027440182615724;-0.8928546313970273;0.953;0.023066230030800255
56:13.8;-0.07811830784209116;-0.3179829222161713;-0.8979781998258812;0.9640000000000001;0.022306036927377784
56:13.8;-0.07643878034798245;-0.3160199203259569;-0.9044863026167455;0.9640000000000001;0.021848931469165576
56:13.8;-0.07571388275267255;-0.3146114877812328;-0.912232122986785;0.9670000000000001;0.021729786331937784
56:13.8;-0.07596769257059346;-0.31394804243119123;-0.9210309768219854;0.973;0.021966504403644695
56:13.8;-0.0771574071751278;-0.3141677554492874;-0.930656962607889;0.98;0.02255946858481781
56:13.8;-0.07917612192710326;-0.3153450500799919;-0.9408378418180544;0.988;0.023490649311569016
56:13.8;-0.0818592089588586;-0.3174852302494599;-0.9512508369446478;0.9940000000000001;0.024722143427809824
56:13.8;-0.08499354023986934;-0.32052534274847105;-0.9615221562780333;1.002;0.026194347741800628
56:13.8;-0.08832847207897888;-0.3243401302414746;-0.9712335933626529;1.0190000000000001;0.02782435465412804
56:13.8;-0.09158762208457419;-0.3287512915781835;-0.9799392253040721;1.036;0.029505528173132546
56:13.9;-0.0944812918900019;-0.33353835499434137;-0.9871926912675572;1.0590000000000002;0.031109536229825104
56:13.9;-0.09672015633785454;-0.33844973898438335;-0.9925815537798117;1.0590000000000002;0.03249206948535081
56:13.9;-0.09803065868398184;-0.3432130830967863;-0.9957626200548982;1.062;0.03350283624222035
56:13.9;-0.09817181964735577;-0.3475451394386498;-0.9964928693802506;1.067;0.03399947847206265
56:13.9;-0.09695272400337596;-0.3511627778562228;-0.9946534415662961;1.069;0.03386415794879854
56:13.9;-0.09424976145522403;-0.35379654750955813;-0.9902658531153671;1.069;0.03302065274038466
56:13.9;-0.09002247059882335;-0.3552066342008555;-0.9834994343390635;1.062;0.03144894714601843
56:13.9;-0.0843263794781591;-0.35519926836735566;-0.9746686834497214;1.05;0.029193927772611313
56:13.9;-0.07732035199630667;-0.3536408092401847;-0.9642200844066476;1.037;0.026365279011075722
56:13.9;-0.06926517567211772;-0.35046728108633346;-0.9527094128453658;1.026;0.023127190380718202
56:14.0;-0.060510834279082874;-0.345688796828358;-0.9407714874536994;0.996;0.01967898035810181
56:14.0;-0.05147298598961739;-0.3393900410346459;-0.9290848232136654;0.9840000000000001;0.016230571902707155
56:14.0;-0.04260327220144831;-0.3317286811547543;-0.9183344284612177;0.9840000000000001;0.012978570047885687
56:14.0;-0.03435960295064715;-0.3229327524166614;-0.9091757466724566;0.9690000000000001;0.010088069665052388
56:14.0;-0.027179842971073773;-0.31329624942603057;-0.9022003981289374;0.953;0.007682545721045907
56:14.0;-0.021458708999173053;-0.3031708811722306;-0.8979027431013362;0.9390000000000001;0.005841446113157076
56:14.0;-0.01752683872052288;-0.2929523330316623;-0.8966479112804898;0.9329999999999999;0.004603864070088358
56:14.0;-0.015632160657749583;-0.2830608776046203;-0.8986445640216759;0.9309999999999999;0.003976370198064733
56:14.0;-0.01592451998721147;-0.2739175142053448;-0.9039261331282115;0.932;0.003942930248889616
56:14.0;-0.018444556030769825;-0.2659175455708309;-0.9123428327953852;0.9390000000000001;0.004474796237450478
56:14.1;-0.02311774386942876;-0.2594040045396463;-0.9235650334613414;0.956;0.005538467427433296
56:14.1;-0.029754446072660933;-0.2546438903333367;-0.9370971588545168;0.956;0.007100186416822071
56:14.1;-0.03805666449773286;-0.2518102956599179;-0.9523006067439821;0.973;0.00912595379437785
56:14.1;-0.04763212459914581;-0.2509725673985502;-0.9684251204778327;0.993;0.011576899231844339
56:14.1;-0.058016096600621604;-0.2520951566791445;-0.984649223497899;1.014;0.014401062999281298
56:14.1;-0.06870030273158857;-0.25504493679208756;-1.0001293773224158;1.0390000000000001;0.017523931273795458
56:14.1;-0.07916665101579093;-0.25960629064791674;-1.0140549445395335;1.061;0.02084102009081411
56:14.1;-0.08892230022321014;-0.26550216240668134;-1.0257039764099967;1.085;0.02421590979373529
56:14.1;-0.09753213057414888;-0.2724178795219977;-1.0344937866187505;1.0979999999999999;0.027485978728634154
56:14.1;-0.10464491955053226;-0.2800241919090015;-1.0400200943443496;1.099;0.030475822222664536
56:14.2;-0.11001018851716851;-0.287996963079037;-1.0420800802833448;1.097;0.03301580656072732
56:14.2;-0.11348406846773017;-0.2960324877306273;-1.0406781782680248;1.097;0.03496155332986601
56:14.2;-0.11502488369293266;-0.30385886880471885;-1.0360166391997305;1.099;0.03621016052306679
56:14.2;-0.11468158567643112;-0.3112447929403174;-1.0284735026516483;1.09;0.03671038091240281
56:14.2;-0.11257909729742237;-0.31800641989176875;-1.0185695503878345;1.071;0.03646568185118389
56:14.2;-0.10890338971933794;-0.3240113734973087;-1.0069261110743837;1.057;0.03553033119968016
56:14.2;-0.10388690520381617;-0.3291786647881916;-0.9942177058759196;1.043;0.03399961359213908
56:14.2;-0.09779372900617897;-0.33347527955406053;-0.9811249875860931;1.033;0.03199624315675929
56:14.2;-0.09090431671704852;-0.33691110985323813;-0.9682927349654321;1.022;0.029655586158475824
56:14.2;-0.08350051013400875;-0.33953284610104745;-0.9562956779913122;1.011;0.02711209737476688
56:14.3;-0.07585195174076623;-0.3414165990164749;-0.945613079184488;0.995;0.024488651027914185
56:14.3;-0.06820504140482546;-0.34265952051736354;-0.9366121344393542;0.995;0.02188966220977588
56:14.3;-0.06077563453115782;-0.343371470892444;-0.9295400038232107;0.991;0.019398216206782674
56:14.3;-0.053745990495132734;-0.34366788660369657;-0.9245233964008311;0.987;0.01707665990844604
56:14.3;-0.04726483350844233;-0.3436644601986162;-0.921573337945569;0.982;0.01496934012588011
56:14.3;-0.04144817796788426;-0.3434734909171328;-0.9205928565559791;0.976;0.013105882462136374
56:14.3;-0.036378649020929965;-0.34320134526262747;-0.9213871845507483;0.977;0.01150370445852703
56:14.3;-0.032102031753193566;-0.34294655616587943;-0.92367786053768;0.9840000000000001;0.010169029337835554
56:14.3;-0.028621422481600385;-0.34279810073928835;-0.9271221535271497;0.9890000000000001;0.009096337804009626
56:14.3;-0.02589121872728175;-0.34283289825671925;-0.9313377096980825;0.993;0.008266890241712272
56:14.4;-0.023814189959818752;-0.34311126441436784;-0.9359307239611017;1.005;0.007647412102365826
56:14.4;-0.02224429727466797;-0.34366985043562776;-0.9405250697700641;1.005;0.0071900266562724
56:14.4;-0.020996313907677987;-0.3445131095109915;-0.9447895021068308;1.01;0.006834139958364484
56:14.4;-0.01986163369300016;-0.3456052239643751;-0.9484604745237217;1.015;0.006510502402079494
56:14.4;-0.01862830720422826;-0.34686405388598607;-0.9513592822690623;1.016;0.006147198635195433
56:14.4;-0.01710235915615383;-0.34815778883482124;-0.9534032391191786;1.02;0.005676867543494908
56:14.4;-0.015127126595463955;-0.349304616955534;-0.9546108484277164;1.026;0.005044140011576583
56:14.4;-0.012597823511130873;-0.35007598351640057;-0.9551004256069399;1.0290000000000001;0.004212179556868417
56:14.4;-0.0094693742658058;-0.35020443516389543;-0.9550805568577471;1.024;0.003167254251147347
56:14.4;-0.005756436841012855;-0.3493973368057157;-0.9548303395798273;1.0170000000000001;0.0019204346999239664
56:14.5;-0.001525599498078992;-0.34735760870050586;-0.954668995720989;1.008;0.0005059063981484625
56:14.5;0.0031185854337184332;-0.3438116167269757;-0.9549177431872786;1.008;0.0010238684381339701
56:14.5;0.008050203959245515;-0.33854250175853495;-0.955859432403826;1.008;0.002605038301799427
56:14.5;0.013137587426229034;-0.3314254076251511;-0.9577015144238986;1.01;0.00416995715161371
56:14.5;0.018256335579113707;-0.32246001493753496;-0.9605458301964803;1.012;0.005654673982461972
56:14.5;0.0232995576934541;-0.3117953950306576;-0.9643665764600683;1.0090000000000001;0.007005828848549048
56:14.5;0.02818455422152597;-0.29974227113670127;-0.9689971194545101;1.005;0.008186186787099332
56:14.5;0.03285493729381158;-0.2867688430844176;-0.9741270715307921;1.0;0.009178003515102364
56:14.5;0.03727877136293646;-0.27347871258634426;-0.97931230635581;0.9990000000000001;0.009984040388561493
56:14.5;0.04144513210905283;-0.2605721058581839;-0.9840013158771479;1.002;0.010626668436350253
56:14.6;0.045361614638421664;-0.24879336469167085;-0.9875803451220752;1.0270000000000001;0.01114550462300024
56:14.6;0.049053510377063764;-0.23886914845774757;-0.9894358986492579;1.0270000000000001;0.011593586765719524
56:14.6;0.052563105624446264;-0.23144347157855585;-0.9890273788155649;1.042;0.012031901452507309
56:14.6;0.055946873687817096;-0.22701605298988423;-0.9859583552082173;1.045;0.012522497779775228
56:14.6;0.05926961779446507;-0.22588923481504056;-0.9800342254787611;1.036;0.013121059462469746
56:14.6;0.06259646862239383;-0.228128318338704;-0.971295809400998;1.02;0.013870130500534709
56:14.6;0.06598470304568707;-0.23354137421677973;-0.9600223192055787;1.001;0.014794095840002313
56:14.6;0.0694769261647239;-0.2416853904489246;-0.946702930302673;0.9790000000000001;0.01589661718880402
56:14.6;0.07309605210256287;-0.2519026283368857;-0.9319823797805179;0.946;0.01716067324313325
56:14.6;0.07684291758946783;-0.2633829021259409;-0.9165917745395579;0.932;0.01855100233894686
56:14.7;0.08069855804317291;-0.27524002769593303;-0.9012794589130448;0.935;0.020018744683292865
56:14.7;0.08463159907974022;-0.2865904415916581;-0.8867549362878202;0.935;0.02150789279788114
56:14.7;0.08860746375560684;-0.2966259416251552;-0.8736513423062581;0.9279999999999999;0.022962416187582657
56:14.7;0.0925948706261366;-0.3046754708608248;-0.862504095659643;0.9209999999999999;0.02433243580304379
56:14.7;0.09656750934689357;-0.3102533619278271;-0.8537400523014546;0.9109999999999999;0.02557838870582245
56:14.7;0.10050165115137348;-0.3130934992436815;-0.8476729945338631;0.91;0.026673229076401503
56:14.7;0.10437165017389834;-0.3131688350675194;-0.8445043027396424;0.915;0.027603423808759187
56:14.7;0.1081449624951923;-0.31069476671455265;-0.8443287335245926;0.915;0.02836950783708304
56:14.7;0.111777274809113;-0.30611493065403744;-0.8471438431467493;0.917;0.028986460576428095
56:14.7;0.11520772786146873;-0.30006905024810965;-0.8528601809860484;0.9159999999999999;0.029483609697430364
56:14.8;0.11835474468074615;-0.29334415637134453;-0.8613096446523294;0.924;0.02990352767266867
56:14.8;0.12111379749561291;-0.2868126540969969;-0.872250480825313;0.924;0.03029933852976634
56:14.8;0.12335846475409178;-0.28136244649404785;-0.8853685030172525;0.929;0.030729759068137897
56:14.8;0.12494573181031353;-0.2778244141269267;-0.9002757288018772;0.94;0.031251248631008484
56:14.8;0.12572616002007264;-0.2769017451542223;-0.9165094377521454;0.955;0.03190716995943624
56:14.8;0.12555874926968089;-0.2791057764897959;-0.933534932369887;0.97;0.03271495893402278
56:14.8;0.12432946135856501;-0.2847040062099484;-0.9507539419139274;0.98;0.03365392830588172
56:14.8;0.12197228974527904;-0.29368681069874814;-0.9675194962172108;1.0;0.034658147440648136
56:14.8;0.11849102967468848;-0.3057601203395429;-0.983158076067606;1.024;0.035619651426409146
56:14.8;0.11397728775368202;-0.3203705220055934;-0.9969997383490146;1.0490000000000002;0.03640540873072945
56:14.9;0.10861842494593203;-0.33676402103350395;-1.0084154586404943;1.0959999999999999;0.03688660473265188
56:14.9;0.10269156046250921;-0.3540699038392696;-1.0168582050133856;1.0959999999999999;0.03697295511958392
56:14.9;0.09654516848634727;-0.371392807884702;-1.0219020309870264;1.099;0.036641504403824444
56:14.9;0.09057297385950595;-0.3878965100570978;-1.0232744646439311;1.11;0.03595064084629894
56:14.9;0.0851839527322514;-0.40287058685920485;-1.0208812195547439;1.121;0.035034712997550975
56:14.9;0.0807706509432062;-0.4157773310373641;-1.0148240487625717;1.128;0.034080435859421936
56:14.9;0.07767787283413999;-0.4262779095788764;-1.0054101241078979;1.123;0.03329150323615133
56:14.9;0.0761736754192864;-0.4342373501842453;-0.9931481391420314;1.107;0.03285081284889017
56:14.9;0.07642395846325685;-0.43970972690396787;-0.9787263845440042;1.088;0.03288947171708651
56:14.9;0.078472160022523;-0.442906960801191;-0.962971464667137;1.064;0.03346890709446392
56:15.0;0.08222698504473756;-0.4441561392833214;-0.9467908878747929;1.022;0.034578337236971304
56:15.0;0.0874617814054077;-0.4438515090796171;-0.9311068396826526;1.022;0.036145608171940236
56:15.0;0.09382764237025193;-0.4424082585194483;-0.9167903966297777;1.013;0.03805608291960221
56:15.0;0.10087977115482098;-0.4402243770804295;-0.9046030624447593;0.9990000000000001;0.040173181755657615
56:15.0;0.10811448066543662;-0.4376536859382267;-0.8951475576682606;0.985;0.04235542930710471
56:15.0;0.11501211633340479;-0.4349896197876074;-0.8888278107837712;0.978;0.044467234767533975
56:15.0;0.12107986651277489;-0.43245747123467726;-0.8858202261484001;0.973;0.04638322380097674
56:15.0;0.12588956022538408;-0.4302124530333421;-0.8860603946089778;0.9740000000000001;0.047988372200163915
56:15.0;0.12910841971694598;-0.4283413884491206;-0.8892489699233779;0.981;0.04917767316259226
56:15.0;0.1305225650142433;-0.4268668996521418;-0.894878060617424;0.996;0.04985881363703747
56:15.1;0.1300526094947337;-0.42575408682412613;-0.9022760269391408;1.0190000000000001;0.04995941158537187
56:15.1;0.1277594351813256;-0.4249199413715228;-0.9106647666190407;1.0190000000000001;0.04943774239219491
56:15.1;0.12383812338365172;-0.4242451470576204;-0.9192213075333626;1.026;0.04829379430792788
56:15.1;0.11859920041513818;-0.42358766818033916;-0.9271367590634956;1.033;0.0465767165497959
56:15.1;0.11243827778906013;-0.4227980308758699;-0.9336691978394843;1.0390000000000001;0.04438540350410499
56:15.1;0.10579771107809455;-0.42173626879845333;-0.9381894369144919;1.046;0.04186082297351085
56:15.1;0.0991260274317409;-0.4202893641957876;-0.9402187394893157;1.051;0.03917103118226706
56:15.1;0.09284068560841607;-0.41838689463392037;-0.9394566827149324;1.05;0.03649162232804055
56:15.1;0.08729721664933524;-0.4160127038569833;-0.9357967033807686;1.043;0.03398509599195245
56:15.1;0.08276524530528513;-0.4132111153564692;-0.9293272202455348;1.032;0.03178254422835971
56:15.2;0.07941124249642674;-0.41008657635923634;-0.9203181613624067;1.004;0.029970606873944296
56:15.2;0.07728897103105951;-0.40679589832061186;-0.9091957670490641;1.004;0.028585875368140046
56:15.2;0.07633978462731732;-0.4035328195349953;-0.8965108244416765;0.988;0.027617561503666215
56:15.2;0.07640443666911394;-0.4005054482464663;-0.8829048090428719;0.971;0.02701723427619587
56:15.2;0.07724569622409291;-0.39790859784173555;-0.8690754834563227;0.958;0.026712535593930137
56:15.2;0.07857858057902219;-0.3958948631579712;-0.8557415356274709;0.945;0.0266211405520396
56:15.2;0.080103833262273;-0.3945489094260067;-0.8436058506170271;0.9279999999999999;0.02666206172200238
56:15.2;0.0815402678364398;-0.3938683966090377;-0.8333177313099117;0.917;0.026762944383158207
56:15.2;0.0826521307742552;-0.39375408004586615;-0.8254351717229075;0.905;0.02686346881202169
56:15.2;0.08326842793000326;-0.3940119862135852;-0.820389061960838;0.895;0.026915946755602115
56:15.3;0.08329217575982137;-0.39437070579153555;-0.8184520229392983;0.894;0.026884507254456156
56:15.3;0.0826989310372423;-0.3945147761587732;-0.8197157357678476;0.894;0.02674400482801571
56:15.3;0.08152554261717754;-0.39413104150142597;-0.8240814679613224;0.9109999999999999;0.02647917725296141
56:15.3;0.07985114924264916;-0.3929612714167058;-0.8312671639700222;0.9329999999999999;0.026083841167782285
56:15.3;0.0777730845488532;-0.3908525263322506;-0.840830424744397;0.9420000000000001;0.02555940061507622
56:15.3;0.0753814371457622;-0.38779596605568956;-0.8522026584856814;0.946;0.024912114126939732
56:15.3;0.07273724172700621;-0.38394547041040306;-0.8647291624462312;0.951;0.02414940761812509
56:15.3;0.06985944860598366;-0.37961109672000537;-0.8777128820759439;0.9490000000000001;0.02327643822821694
56:15.3;0.06672481887956722;-0.3752278901638607;-0.8904627303247898;0.98;0.022294526963835486
56:15.3;0.06328263452834046;-0.37130492619986377;-0.9023470325287989;1.011;0.021202587133589634
56:15.4;0.059481490555320364;-0.3683617342343577;-0.912847351929999;1.008;0.020001129052594546
56:15.4;0.05529958565849915;-0.36686070843245844;-0.9216015714335611;1.008;0.018696757029373585
56:15.4;0.05076748618572259;-0.3671452309594411;-0.928425042663629;1.006;0.017304951916539954
56:15.4;0.045975895690457985;-0.3693926335589752;-0.9333058066740134;0.998;0.01585047922046015
56:15.4;0.04106759212499493;-0.37358823074680864;-0.9363778542080655;0.995;0.014366254640415597
56:15.4;0.03621797183673296;-0.3795228306149623;-0.9378808365936512;0.996;0.012891685298566704
56:15.4;0.031610829976031395;-0.38681252504597835;-0.9381158619554835;1.002;0.011470778832195565
56:15.4;0.027415770742557043;-0.3949366345906929;-0.93740564222697;1.008;0.010149752309235004
56:15.4;0.023771859855400857;-0.4032880908559847;-0.9360638873502889;1.015;0.008973958348789201
56:15.4;0.02077911505438681;-0.41123052836076035;-0.9343751016660853;1.02;0.0079842412823082
56:15.5;0.018496115328499985;-0.4181571840197503;-0.9325833990011938;1.024;0.007212864396266801
56:15.5;0.01694042260610761;-0.4235470839018417;-0.9308881208339818;1.032;0.006679184259368117
56:15.5;0.016089689187550393;-0.4270133845751879;-0.9294442145078953;1.032;0.006385758220920168
56:15.5;0.015883636319499177;-0.4283384839858285;-0.9283653651096312;1.033;0.006316201254870498
56:15.5;0.016228125565512282;-0.42749203115652656;-0.9277277652808904;1.028;0.0064360133663488835
56:15.5;0.01700191825325827;-0.42463034470193184;-0.9275730720729871;1.025;0.00669664199991362
56:15.5;0.018065592183463094;-0.42007773494458256;-0.9279103716118096;1.021;0.007041868240002223
56:15.5;0.019271247473610316;-0.4142919413979972;-0.9287177864487496;1.015;0.0074148108583142166
56:15.5;0.020471406276579496;-0.4078172376138541;-0.9299446499686794;1.011;0.007763728797892089
56:15.5;0.02152611313974731;-0.401229419009558;-0.9315154249354749;1.01;0.008045414766373505
56:15.6;0.02230825444627273;-0.39507764912884064;-0.9333363652869544;1.006;0.008225953263382517
56:15.6;0.022707825575826887;-0.3898294561349939;-0.9353049365459788;1.006;0.008279486993086132
56:15.6;0.022636210590253683;-0.3858257952151589;-0.9373210025619699;1.01;0.00818621853156274
56:15.6;0.022031545204048302;-0.38325170510180745;-0.9392983539077581;1.015;0.007931085191475146
56:15.6;0.020865547963828876;-0.3821254338709037;-0.9411747517716702;1.0170000000000001;0.007504227771794308
56:15.6;0.0191508965947173;-0.3823065947019196;-0.9429181984918825;1.02;0.006903588850153881
56:15.6;0.016947097798936852;-0.3835219818491603;-0.9445275188733379;1.024;0.006139036454021946
56:15.6;0.014362499209854931;-0.385405423695301;-0.9460266454683379;1.026;0.005236621791187739
56:15.6;0.011550456674326734;-0.3875458786411236;-0.9474533411855977;1.0270000000000001;0.004241115596490461
56:15.6;0.008698269425151927;-0.3895369981007952;-0.9488440643112928;1.025;0.0032149662182129487
56:15.6;0.006008738130051445;-0.39102206946264617;-0.9502175266244685;1.024;0.002232582847058752
56:15.6;0.0036767579463895606;-0.3917299349957605;-0.9515602575511314;1.024;0.0013705285767135968
56:15.7;0.001866123142498443;-0.3914990252745356;-0.9528178167625412;1.025;0.0006961147775260326
56:15.7;0.0006922728908087888;-0.3902876177688249;-0.9538947832774206;1.0290000000000001;0.0002577285746425803
56:15.7;0.00021448925045877636;-0.3881693366543659;-0.9546649784885175;1.0390000000000001;7.948364004564227e-05
56:15.7;0.00043777729654977056;-0.38531446475861253;-0.9549904080376992;1.04;0.00016108962010122504
56:15.7;0.0013218817145803801;-0.3819597952029236;-0.954744077652484;1.035;0.0004820556972352686
56:15.7;0.002793552789754653;-0.37837160460207314;-0.9538304622121859;1.0290000000000001;0.0010081998016064576
56:15.7;0.0047587862067231534;-0.3748073552923938;-0.952199144361204;1.021;0.0016983691245348563
56:15.7;0.007113524540965387;-0.37148204051894274;-0.9498503568137259;1.016;0.0025100238420765657
56:15.7;0.009752596325411093;-0.36854429225752966;-0.9468337413815201;1.01;0.0034031701564507014
56:15.8;0.012576811983774371;-0.36606507618274664;-0.9432429230320077;1.01;0.004342625934701199
56:15.8;0.015497849442668047;-0.36403896081396536;-0.9392084089331914;1.011;0.005298845730493707
56:15.8;0.01844069575475442;-0.36239600973535585;-0.934889828264937;1.006;0.006247714052500958
56:15.8;0.0213438111154934;-0.3610215376266546;-0.9304666659981808;1.0;0.0071697811522732
56:15.8;0.02415730491754102;-0.3597806077010972;-0.9261263120657991;0.991;0.008049269255050338
56:15.8;0.026839508498970113;-0.35854380765830435;-0.9220499955396454;0.985;0.008873015800268138
56:15.8;0.029352850146157364;-0.3572106553901641;-0.9183992834460384;0.987;0.009629555016698278
56:15.8;0.03166045334466657;-0.3557272664133741;-0.9153061397494401;0.986;0.010308623062163189
56:15.8;0.03372465514872221;-0.35409571354104735;-0.9128676614154589;0.985;0.010901242716642535
56:15.8;0.03550768250674738;-0.3523737243888559;-0.9111442700920964;0.976;0.011400213717698953
56:15.9;0.036973727012342895;-0.3506650349524339;-0.9101593810274856;0.976;0.011800574318047463
56:15.9;0.03809136545751514;-0.34910245520473426;-0.9098995678439202;0.972;0.012099652649379816
56:15.9;0.03883587507709857;-0.3478266866734598;-0.9103154888346503;0.97;0.012296681586125284
56:15.9;0.0391918593967643;-0.3469642034170548;-0.9113243377973058;0.968;0.012392345344708124
56:15.9;0.039156837824297755;-0.34660766123865205;-0.912814640814938;0.973;0.01238877505556262
56:15.9;0.038745892954965645;-0.346802121644226;-0.9146539941588964;0.978;0.012290350126715744
56:15.9;0.03799664499352994;-0.3475393808808503;-0.9166993693101032;0.9840000000000001;0.01210531811943149
56:15.9;0.036973093722213156;-0.348760992510511;-0.9188082351442525;0.988;0.011847823496603084
56:15.9;0.035766442356306556;-0.35036867464029525;-0.9208481764765601;0.986;0.011539554598057259
56:15.9;0.03449140563575694;-0.3522393945125108;-0.9227035278574283;0.99;0.011210139076780224
56:16.0;0.03327801519494834;-0.35424190445929976;-0.924279207178753;0.99;0.010895835375605144
56:16.0;0.03226081945122214;-0.3562516695811607;-0.9255031864436025;0.996;0.010636781089286732
56:16.0;0.031568153950809016;-0.3581617813923717;-0.92632892903998;1.0;0.010473543829720657
56:16.0;0.03131330822090654;-0.35988841004413175;-0.9267378947941552;0.997;0.010443684307764694
56:16.0;0.03158806198584663;-0.3613703461422597;-0.9267411361170201;0.998;0.01057873977619277
56:16.0;0.032458464925974886;-0.36256331441149797;-0.9263788798314153;1.002;0.01090185697812959
56:16.0;0.033962971188720256;-0.3634308982846909;-0.9257171269657384;1.002;0.011426305279603725
56:16.0;0.036113303297482705;-0.3639342951333248;-0.9248399775721322;0.9990000000000001;0.01215505120806802
56:16.0;0.0388979596114016;-0.36402255148288587;-0.923836415948521;0.99;0.013081278376085652
56:16.0;0.04228719545909465;-0.3636245655220683;-0.9227817540050699;0.981;0.014189304123979429
56:16.0;0.046237601405438374;-0.3626447777213623;-0.921716336119205;0.981;0.015455177932466339
56:16.1;0.05069504487173949;-0.3609650940662664;-0.9206257698714821;0.9790000000000001;0.016846661361068167
56:16.1;0.05559644653320827;-0.3584546515629887;-0.9194267745009962;0.978;0.018323076781469112
56:16.1;0.06087214770920276;-0.3549865694844473;-0.9179614089446834;0.977;0.01983603980506131
56:16.1;0.06645045175457424;-0.35045853571271524;-0.9160012286866236;0.976;0.021331953879541957
56:16.1;0.07226472464850074;-0.34481341559002926;-0.9132620144431761;0.9740000000000001;0.02275652272006008
56:16.1;0.07826231737861973;-0.33805673199096237;-0.9094287952862555;0.972;0.02406085153637165
56:16.1;0.08441406173677814;-0.3302685487839524;-0.9041900328423759;0.97;0.025208193923214724
56:16.1;0.09072291402243005;-0.32160762841843216;-0.8972790561323472;0.9620000000000001;0.026180073627445448
56:16.1;0.09722993989848444;-0.3123066080728521;-0.8885200983746826;0.951;0.026980403901369458
56:16.1;0.10401512919041404;-0.3026589855598418;-0.8778757701370923;0.951;0.027636506744229457
56:16.2;0.11119032138864635;-0.2930007993378127;-0.8654921932186008;0.94;0.028196742974897736
56:16.2;0.11888290323856286;-0.28368986947503605;-0.8517367779412971;0.9329999999999999;0.02872556836345348
56:16.2;0.12721143752797465;-0.2750835062224521;-0.8372223013693768;0.92;0.02929756320191168
56:16.2;0.1362563019550507;-0.2675144933482434;-0.8228105673981744;0.905;0.029991885865024343
56:16.2;0.14602929514700277;-0.26126616654353635;-0.8095898095074412;0.8859999999999999;0.03088788665978081
56:16.2;0.15644671714402947;-0.2565490159036947;-0.7988221764104874;0.867;0.03206172763612676
56:16.2;0.16731067785169726;-0.25348198400425104;-0.791861099387227;0.851;0.03358302130433951
56:16.2;0.1783027415403996;-0.2520817271294655;-0.7900423531230878;0.836;0.0355099254411666
56:16.2;0.18899223019685174;-0.25226318135294296;-0.7945563484960667;0.8290000000000001;0.0378810946541057
56:16.2;0.1988588085632837;-0.25385376221465794;-0.806312740531213;0.8290000000000001;0.04070351917536068
56:16.2;0.20732658968120302;-0.256620258246522;-0.8258117662866841;0.84;0.043936656841216254
56:16.3;0.21380669144739398;-0.2603037400868076;-0.8530383992099079;0.867;0.04747558036355428
56:16.3;0.21774621293760624;-0.2646560604820671;-0.8873942720177054;0.8959999999999999;0.05113862834777596
56:16.3;0.21868118770692735;-0.2694716790207757;-0.9276792457472652;0.9359999999999999;0.05466664143980498
56:16.3;0.21628910687422614;-0.27460936867827584;-0.9721309058967461;0.993;0.05773972982589193
56:16.3;0.2104354471300479;-0.27999949359822024;-1.0185257213888326;1.062;0.060013387827219475
56:16.3;0.20120875605312782;-0.28563495598104804;-1.0643382490132867;1.127;0.06116991837891089
56:16.3;0.188938893760483;-0.29154842252708396;-1.1069451399710595;1.1840000000000002;0.06097589197215768
56:16.3;0.17419310828312584;-0.29778297145663263;-1.1438522816648973;1.285;0.05933360974496042
56:16.3;0.15774691807469943;-0.3043639567580413;-1.1729173350547368;1.307;0.05631466557711624
56:16.4;0.14053181610766818;-0.31127624450656627;-1.1925363757657808;1.307;0.05216656875173489
56:16.4;0.12356558705180379;-0.3184473572791706;-1.2017676989690822;1.307;0.04728851900150577
56:16.4;0.10787064150984249;-0.3257365306807318;-1.2003806745419865;1.284;0.04217826615016311
56:16.4;0.09438540484994261;-0.33293043619349805;-1.188833899086601;1.254;0.037357647776747646
56:16.4;0.08387758795127863;-0.3397464092873736;-1.1681959759475822;1.227;0.03329020844092664
56:16.4;0.07687246664790388;-0.34584416637688514;-1.1400246668444203;1.195;0.030308575115618967
56:16.4;0.07360903471577872;-0.350847068037048;-1.1062192203404724;1.148;0.02856867997421586
56:16.4;0.07403219489874349;-0.35437274131230445;-1.0688587457680643;1.104;0.02804150048577347
56:16.4;0.07782185701606596;-0.3560708596356226;-1.0300393447421643;1.035;0.028542488638499477
56:16.4;0.08445104752365733;-0.3556641224836443;-0.9917250650930963;1.035;0.02978766004667294
56:16.4;0.09325846627580935;-0.3529869461539063;-0.9556283334010165;1.002;0.03145834937963606
56:16.5;0.10352096884308644;-0.3480156274233835;-0.9231293915860399;0.972;0.03325750405396328
56:16.5;0.11451701397981014;-0.3408844135465746;-0.8952348498868575;0.9490000000000001;0.03494734116102726
56:16.5;0.12557734632319267;-0.331883432799056;-0.8725709291556448;0.9309999999999999;0.03636617419745839
56:16.5;0.1361216952128033;-0.3214366110097013;-0.8554071823095704;0.922;0.037427910473850454
56:16.5;0.14568156955696757;-0.3100608411493825;-0.8437055974069904;0.9179999999999999;0.03811030838800982
56:16.5;0.15391010037642608;-0.29831096500851145;-0.8371870318875841;0.9109999999999999;0.0384378272735423
56:16.5;0.1605802960537252;-0.28671752170725157;-0.8354048667012305;0.907;0.03846302961631377
56:16.5;0.16557359141141487;-0.27572591137535346;-0.8378160072781395;0.912;0.03824875502342345
56:16.5;0.16886180989227542;-0.265646773284845;-0.8438409786444746;0.912;0.03785267680445886
56:16.5;0.17048729029754095;-0.25662663670091573;-0.852906841090635;0.917;0.03731602181317459
56:16.6;0.17054641883737334;-0.24864419753284214;-0.8644693588835025;0.9229999999999999;0.03665814946080202
56:16.6;0.16917993341791876;-0.24153250373784174;-0.8780144435408146;0.9279999999999999;0.03587782384526052
56:16.6;0.16656991398620113;-0.23502303903081134;-0.8930423937493295;0.9329999999999999;0.03496061590538889
56:16.6;0.16294032539655992;-0.22880396388890845;-0.9090415959130953;0.932;0.03389033637978142
56:16.6;0.15855663407134937;-0.2225813791283294;-0.925461608386299;0.935;0.032661163680174354
56:16.6;0.15372040512387897;-0.21613130123777793;-0.941697972876006;0.9640000000000001;0.031286776811321304
56:16.6;0.1487563917591943;-0.20933238031633764;-0.9570998720644854;0.978;0.029803639771635925
56:16.6;0.1439919869355211;-0.20217458360045246;-0.9710051003382716;1.021;0.028267434399076138
56:16.6;0.1397312919401053;-0.19474573064598874;-0.9827970640522677;1.021;0.026743945002021773
56:16.6;0.13622744390000585;-0.1872030033790467;-0.9919711130933931;1.044;0.025297432468322074
56:16.7;0.13365669642578812;-0.17973728906139458;-0.9981962349339746;1.047;0.023979760265839523
56:16.7;0.13209684479878744;-0.17253617613113992;-1.0013613954394305;1.053;0.022822512703601146
56:16.7;0.13151236294524113;-0.16575084373674;-1.0015991353621478;1.054;0.02183314352855565
56:16.7;0.1317489363197969;-0.159472556487593;-0.9992811082228601;1.04;0.02099523552900145
56:16.7;0.13253929135438913;-0.15372290207781641;-0.9949830476334862;1.021;0.02027210749078577
56:16.7;0.1335201202914014;-0.14845857692344522;-0.9894215104561719;1.0;0.01961251803910408
56:16.7;0.1342583888127653;-0.14358878256257537;-0.9833705971649304;0.98;0.01895741699389053
56:16.7;0.1342854866579966;-0.139001620146821;-0.9775714256170144;0.956;0.018247250676432823
56:16.7;0.13313796459307728;-0.13459463726892268;-0.972649262641601;0.956;0.017429540244920664
56:16.7;0.1304022884173624;-0.1303041965246261;-0.9690524946591197;0.96;0.016466106476696208
56:16.8;0.1257588271485518;-0.1261289118468352;-0.9670230059711445;0.9740000000000001;0.01533874874727528
56:16.8;0.11901859093095485;-0.12214341408262734;-0.9665995141306754;0.988;0.014051782915374936
56:16.8;0.11014569397924512;-0.11849980176313812;-0.9676473182737374;0.992;0.012629967841194365
56:16.8;0.09925998602057041;-0.1154158043341624;-0.9699032572785118;0.9890000000000001;0.011111377689846552
56:16.8;0.08661825677006116;-0.11315128521307515;-0.9730248584066435;0.991;0.009536584601809542
56:16.8;0.07257759160457278;-0.11197764657998864;-0.9766363044741383;0.993;0.007937189562335708
56:16.8;0.05754853798911717;-0.11214644619130297;-0.9803676438314782;0.9990000000000001;0.006327159461900769
56:16.8;0.04194737304472725;-0.113862620753239;-0.9838855258145606;1.0;0.004699271267394145
56:16.8;0.026156273640313085;-0.11726453605787375;-0.9869143367889269;1.0;0.0030270669041363336
56:16.8;0.010497824221147409;-0.12241020718085496;-0.9892474377702958;0.996;0.001271223356282063
56:16.9;-0.004774376436369455;-0.12926846232032255;-0.9907497831032324;0.997;0.0006114672858249883
56:16.9;-0.01947245505876347;-0.13771497767982707;-0.9913547768444603;1.001;0.0026584652622335743
56:16.9;-0.033464126982893395;-0.1475340797308114;-0.9910584262240324;1.0070000000000001;0.004892953741873114
56:16.9;-0.046660470243542196;-0.15842680395412567;-0.9899123058330326;1.005;0.007317698221077155
56:16.9;-0.05900434453300772;-0.17002431531126233;-0.9880150395985253;1.004;0.009911938080117552
56:16.9;-0.07046045051688393;-0.18190498920131154;-0.9855017386607265;0.9990000000000001;0.012631281716384037
56:16.9;-0.08100678803704671;-0.19361386845042305;-0.9825322042900239;0.998;0.015410072037846334
56:16.9;-0.0906265693526388;-0.20468364759966362;-0.9792802467282121;1.002;0.018165429986319544
56:16.9;-0.09929949875605319;-0.21465594963494233;-0.9759266724663503;1.002;0.020802099733750908
56:16.9;-0.10699199320279526;-0.2231016195096958;-0.9726568746464216;1.011;0.02321740417821746
56:17.0;-0.11364761593244282;-0.22964018770310413;-0.9696612194357923;1.013;0.02530627654365205
56:17.0;-0.11918088573066075;-0.2339600644760709;-0.9671340966861032;1.006;0.026967149069461856
56:17.0;-0.12347811694858281;-0.23584010421454438;-0.9652675439859982;0.9990000000000001;0.028109644923463642
56:17.0;-0.126407450908414;-0.23517049980224997;-0.9642385053287974;0.997;0.02866421060641492
56:17.0;-0.12783761761888304;-0.23196912528147937;-0.9641928395021335;0.9940000000000001;0.028592541180924483
56:17.0;-0.1276625060412706;-0.22638947884428795;-0.965231016835924;0.997;0.027896574244385894
56:17.0;-0.12582708280619118;-0.21871730723424845;-0.9673994346556752;1.005;0.02662337489016866
56:17.0;-0.12234958798786578;-0.20935427671465498;-0.9706887216298596;1.003;0.02486361841240802
56:17.0;-0.1173351996892468;-0.19878958130931904;-0.9750376205014533;1.003;0.02274276733736289
56:17.0;-0.11097760875742801;-0.18756367044254282;-0.9803397714507323;0.997;0.020406132750429122
56:17.1;-0.10354702772765961;-0.17622949194624402;-0.9864519698774378;1.006;0.018000815092185745
56:17.1;-0.0953660426508273;-0.1653152812594085;-0.9932042352203422;1.018;0.015658325777321548
56:17.1;-0.08677819833285519;-0.155291669483198;-1.0004113685304425;1.023;0.01348147486790585
56:17.1;-0.07811668211074421;-0.14654528207105907;-1.00788330186152;1.022;0.011537876346836536
56:17.1;-0.06967990268656261;-0.13935978739597035;-1.015431072413051;1.023;0.009860421032145123
56:17.1;-0.061717233025236753;-0.133904344985542;-1.0228678563521578;1.028;0.0084531903305206
56:17.1;-0.054424251376441614;-0.13022968562123707;-1.0300074167855315;1.038;0.007300335308936238
56:17.1;-0.04794487502291683;-0.12827255264658838;-1.0366628085488812;1.0490000000000002;0.006375488199911174
56:17.1;-0.04237779467476686;-0.1278687150753543;-1.0426463974881752;1.0490000000000002;0.005649886202136096
56:17.1;-0.03778497154752643;-0.1287736675422617;-1.0477704989814531;1.052;0.005098146728379398
56:17.2;-0.03419991061265425;-0.13068939281906564;-1.0518481454763173;1.054;0.004701304237412643
56:17.2;-0.03163367011164362;-0.1332950674082913;-1.0546951662312665;1.057;0.004447240494562726
56:17.2;-0.030077545538157675;-0.13627875785946497;-1.0561358681724013;1.063;0.004329027570146115
56:17.2;-0.029502382609326947;-0.13936635992515017;-1.0560140574803036;1.068;0.004341949294384008
56:17.2;-0.02985515596180408;-0.1423441676536575;-1.0542092583825715;1.073;0.004480080808014349
56:17.2;-0.03105437590998312;-0.14507248456101834;-1.0506555860052342;1.0759999999999998;0.004733345747006395
56:17.2;-0.0329869846763857;-0.14748883261961446;-1.0453588633285227;1.067;0.005085892341454101
56:17.2;-0.035509419914264706;-0.14960039460021055;-1.0384074915931572;1.0490000000000002;0.0055162524002918085
56:17.2;-0.038453829581860735;-0.15146702407210225;-1.0299748636710724;1.0490000000000002;0.0059990753386440655
56:17.2;-0.041638283720599745;-0.15317857685470354;-1.0203140668106543;1.037;0.006507658051193786
56:17.3;-0.04487893882755497;-0.15483183247407412;-1.0097465697613992;1.024;0.00701641421380033
56:17.3;-0.04800233711073827;-0.15651141791806678;-0.9986458150054178;1.01;0.0075027399693887616
56:17.3;-0.05085612193752464;-0.15827684836555084;-0.9874166623712365;0.9990000000000001;0.007948059053143877
56:17.3;-0.05331642041940871;-0.16015590139872138;-0.9764727577061421;0.9840000000000001;0.008338041676094846
56:17.3;-0.055290735566248;-0.1621435238674178;-0.9662146162678932;0.9740000000000001;0.008662147564356557
56:17.3;-0.056716264832243804;-0.1642049344233691;-0.9570110559930355;0.97;0.00891273061943803
56:17.3;-0.05755457643408595;-0.166281375514924;-0.949185679128149;0.965;0.009083948172114326
56:17.3;-0.05778432118005332;-0.16829699315351812;-0.9430084341122853;0.9570000000000001;0.00917068865930753
56:17.3;-0.057394052585517025;-0.17016541093172463;-0.9386908906718897;0.9570000000000001;0.009167708197256229
56:17.3;-0.05637712132398994;-0.1717948984593403;-0.936383666489705;0.9540000000000001;0.009069158441710645
56:17.4;-0.054729782099076224;-0.17309172243798163;-0.9361748969420216;0.953;0.008868639674392553
56:17.4;-0.052452255318560084;-0.17396174692776983;-0.9380890831171549;0.953;0.008559768291124864
56:17.4;-0.04955139777360987;-0.17431027976260008;-0.9420863110795867;0.958;0.008137099060292209
56:17.4;-0.04604365015841761;-0.17404020420680252;-0.9480624549762124;0.9640000000000001;0.007597247549242249
56:17.4;-0.0419577815689191;-0.1730492027558756;-0.9558508469601584;0.9690000000000001;0.006940204216788234
56:17.4;-0.037337607270078975;-0.17122797709259127;-0.9652253956924178;0.9740000000000001;0.006170920468075879
56:17.4;-0.032244646859530865;-0.16846204972862217;-0.9759052719859247;0.986;0.0053011167569601714
56:17.4;-0.02676008568134691;-0.16463964712051032;-0.9875616614028415;1.013;0.004350970591222305
56:17.4;-0.020985302035324036;-0.15966700675134782;-0.9998261350359929;1.013;0.00335007779930996
56:17.4;-0.015040501647398678;-0.1534900631087119;-1.0122984730508922;1.02;0.002336959402809417
56:17.5;-0.009061093755307493;-0.1461187416062767;-1.0245524478865036;1.024;0.0013565029504928794
56:17.5;-0.0031917478778554264;-0.13764853172296715;-1.0361416790951288;1.036;0.00045521787295122064
56:17.5;0.002421301037420752;-0.1282744205027088;-1.0466102616455004;1.055;0.0003250677146269627
56:17.5;0.007639175459542812;-0.11829436043762749;-1.055511276901721;1.072;0.0009538353271975104
56:17.5;0.012340564931243886;-0.10810186614465184;-1.062431718928003;1.079;0.0014173243899419407
56:17.5;0.01643282300934196;-0.09816848605288794;-1.067018624036983;1.078;0.0017212988193048453
56:17.5;0.01986182434330905;-0.08901681141079376;-1.0690011649458024;1.075;0.0018900328342662312
56:17.5;0.022617244027416054;-0.08118509594021552;-1.0682066136035886;1.069;0.0019614229592679003
56:17.5;0.024730739247829293;-0.07518642119201943;-1.0645713843528313;1.069;0.0019794808283165044
56:17.5;0.026266937538329427;-0.071467153597914;-1.0581495210242804;1.0659999999999998;0.0019863828929998994
56:17.6;0.027309548423113353;-0.0703692381046972;-1.049119751929535;1.06;0.002016148102702116
56:17.6;0.027946295598340797;-0.07209945500424994;-1.037789976513884;1.0490000000000002;0.002091056184959407
56:17.6;0.028256587099213457;-0.07670830803233934;-1.0245965731353857;1.0390000000000001;0.002220828428052549
56:17.6;0.02830480903897011;-0.08408145482774286;-1.0100958579547354;1.026;0.002403936751103527
56:17.6;0.02814007143410497;-0.09394573285002965;-0.9949456543603983;1.008;0.00263027776487578
56:17.6;0.027801158143281123;-0.10588956843692961;-0.979875837956061;0.991;0.0028846100703215226
56:17.6;0.027324226186833927;-0.11939481718131206;-0.9656481598341976;0.9790000000000001;0.0031503025433810288
56:17.6;0.026750577251239176;-0.1338747146834188;-0.9530075099018726;0.9470000000000001;0.003412935174616528
56:17.6;0.026132403976914555;-0.14871137039493842;-0.94262890642798;0.9470000000000001;0.0036632308890167204
56:17.6;0.025535509034356495;-0.16328717863095932;-0.9350663455568844;0.938;0.0038988724813344682
56:17.7;0.025038962642924868;-0.1770081329098065;-0.9307093957133524;0.934;0.004124997138263551
56:17.7;0.024732007808002276;-0.18932117763110154;-0.9297509442313833;0.9329999999999999;0.004353366192312108
56:17.7;0.024708395718786996;-0.1997291260950131;-0.9321676323513343;0.937;0.00460023448015733
56:17.7;0.025058142414579564;-0.20780513036692555;-0.9377144179700074;0.9470000000000001;0.004882876411279567
56:17.7;0.02585686073170601;-0.21320677155618606;-0.9459347575225575;0.9490000000000001;0.005214803805528367
56:17.7;0.027153578113130176;-0.2156891515113836;-0.9561875440591779;0.961;0.0056001344012102374
56:17.7;0.028958948330752313;-0.21511658472609144;-0.9676918655714687;0.98;0.006028284921332904
56:17.7;0.031236435503531574;-0.21147268665678917;-0.9795895656619862;1.033;0.006470828691972513
56:17.7;0.033899018258567414;-0.2048684398062162;-0.9910208618927849;1.033;0.006882480313247028
56:17.7;0.03681309923548898;-0.1955473166917199;-1.0012017818076502;1.04;0.007207354044639076
56:17.7;0.03981000873741944;-0.18388585231837618;-1.009490773531098;1.047;0.007389974570321966
56:17.8;0.04270411005072812;-0.17038774056461867;-1.0154372414004391;1.053;0.007388582157455724
56:17.8;0.04531486414932653;-0.15567026183616164;-1.0188102443494633;1.058;0.007186867555871014
56:17.8;0.047488609722601764;-0.1404428159389093;-1.019606760497159;1.056;0.0068002000710157065
56:17.8;0.04911528817336236;-0.12547739429888174;-1.0180383274598266;1.0390000000000001;0.0062740260377833566
56:17.8;0.050136402421765904;-0.11157090909624907;-1.0144960673346428;1.018;0.0056748515765665895
56:17.8;0.05054264559880244;-0.09950072189585515;-1.0094979278795542;1.005;0.005076795085226165
56:17.8;0.05036218266328226;-0.08997673318144238;-1.0036263608096057;0.992;0.004547857252771175
56:17.8;0.049643196292075094;-0.08359457489774429;-0.9974662469942586;0.992;0.00413938706421245
56:17.8;0.04843616136556425;-0.08079429494815304;-0.9915505407417843;0.9840000000000001;0.003880299685107388
56:17.8;0.04678098730395212;-0.08182757345748735;-0.9863170373680933;0.976;0.0037755966405936332
56:17.9;0.044701731721460185;-0.08673513264181153;-0.9820769083817694;0.9690000000000001;0.003807719028831638
56:17.9;0.04220875282428636;-0.0953361650564133;-0.978995383653543;0.9670000000000001;0.003939497616660444
56:17.9;0.03930626805014012;-0.1072327947474091;-0.9770858396933003;0.9670000000000001;0.004118339599226553
56:17.9;0.03600259604796129;-0.12183253059494277;-0.9762186278530117;0.975;0.004281975451875923
56:17.9;0.03232058419648883;-0.13838903763844554;-0.9761446824018252;0.9840000000000001;0.004366114131386675
56:17.9;0.028306323595262722;-0.15605719192736386;-0.9765318538685732;0.993;0.0043137370592236995
56:17.9;0.024034790211163677;-0.17395470283625428;-0.9770097997262569;1.01;0.004084843571080073
56:17.9;0.019611490751435784;-0.1912213486637534;-0.9772177155943298;1.01;0.0036646990524730563
56:17.9;0.01516969817541231;-0.2070683289332749;-0.9768486172840292;1.015;0.0030684417604724245
56:17.9;0.0108634923762692;-0.22081413003746184;-0.975684661111278;1.018;0.002340484676491569
56:18.0;0.006857856666349222;-0.2319077982598971;-0.973619855753025;1.012;0.0015484357110515413
56:18.0;0.0033184979963238534;-0.23994283701324623;-0.9706686374289788;1.0070000000000001;0.000772894731579948
56:18.0;0.0004044566168308946;-0.2446650663548504;-0.9669608533873324;1.0;9.568696982171038e-05
56:18.0;-0.0017352239435590936;-0.2459772007186092;-0.9627256082394348;0.997;0.00041091586630292613
56:18.0;-0.002962312462867476;-0.24394131458136584;-0.9582674328950197;0.996;0.0006924731748831006
56:18.0;-0.0031508066790394296;-0.2387773266836983;-0.953937829382758;0.991;0.0007176867271986259
56:18.0;-0.002191355613102985;-0.2308529237823629;-0.9501040578245932;0.973;0.00048063944867591954
56:18.0;1.1460713472702843e-06;-0.22066082166733145;-0.9471163838652716;0.973;2.3951914645370816e-07
56:18.0;0.0034787506659646385;-0.20878318791287342;-0.945275446347832;0.956;0.0006865579559888077
56:18.0;0.00825312671926679;-0.19584712656621206;-0.94480227199606;0.9470000000000001;0.0015271322418445126
56:18.1;0.014291563580208805;-0.18247730434205542;-0.9458142342379777;0.946;0.0024665756971848285
56:18.1;0.021516580796374404;-0.16925276478399548;-0.9483106738700564;0.946;0.0034535016611878934
56:18.1;0.029808037089190317;-0.15667408009231215;-0.9521713100743466;0.951;0.0044467797875655645
56:18.1;0.03900609343418362;-0.1451434253389028;-0.9571689054186949;0.9620000000000001;0.00541899071000498
56:18.1;0.04891406206702375;-0.1349561924657781;-0.9629956820546132;0.965;0.0063569806144790075
56:18.1;0.05930204147639577;-0.12630097366054618;-0.9693013183357096;0.982;0.00725997535147609
56:18.1;0.06991396231107254;-0.11926504441282063;-0.9757388244092356;1.012;0.0081359950581317
56:18.1;0.08047989371935359;-0.11384310672492236;-0.9820122134884032;1.012;0.008997275570536159
56:18.1;0.09073218440800429;-0.10994696178119716;-0.9879173885611013;1.01;0.009855195166049118
56:18.1;0.10042187701751343;-0.10741397400790005;-0.9933684979113481;1.025;0.010715180778738696
56:18.2;0.10933273690670095;-0.10601419808605338;-0.9984062709290537;1.032;0.011572349797058123
56:18.2;0.11729171713180292;-0.10545908822117786;-1.003187669765849;1.036;0.012408907354204565
56:18.2;0.12417495800816081;-0.10541595657246607;-1.0079561733165634;1.025;0.013194168464372756
56:18.2;0.1299084855369583;-0.10553029207169609;-1.012993271229126;1.018;0.013887408820177105
56:18.2;0.1344634261727788;-0.10545454682960798;-1.0185562213839876;1.014;0.014442902802980474
56:18.2;0.1378464628295575;-0.10488033655056174;-1.0248119680814465;0.9990000000000001;0.01481609954967463
56:18.2;0.1400870862177155;-0.10357181363331272;-1.0317796436900981;1.014;0.0149701667750171
56:18.2;0.14122419391389462;-0.10139803049923676;-1.0392939568883839;1.014;0.014882538891511638
56:18.2;0.1412959327484233;-0.0983592623233613;-1.0469986685273824;1.056;0.014550940104512385
56:18.2;0.14033738063105955;-0.09459966885527558;-1.0543728217300745;1.057;0.013997716234166723
56:18.3;0.1383890763494364;-0.09040080235669114;-1.0607848503156958;1.063;0.013270931408709264
56:18.3;0.1355149351664336;-0.08615707239325802;-1.0655655159393167;1.111;0.01244108485565029
56:18.3;0.13182291700226068;-0.08233980731908457;-1.0680894365863487;1.126;0.011593334959244661
56:18.3;0.12748031129884607;-0.0794549605040192;-1.0678522335835592;1.112;0.010816214512417485
56:18.3;0.12271900401485608;-0.07799319077843905;-1.0645286769074855;1.064;0.010188866577678075
56:18.3;0.117830313210883;-0.07837099706812782;-1.0580040779804456;1.094;0.009770116578820846
56:18.3;0.11315020056736637;-0.08087127738362176;-1.0483822701056098;1.065;0.009593328117697088
56:18.3;0.10903583888610478;-0.085599204691287;-1.0359768523248352;1.065;0.009669166764718101
56:18.3;0.10583653449016052;-0.09246467895774087;-1.0212877695205562;1.043;0.009994466301645353
56:18.3;0.10386421825340364;-0.10119247392053016;-1.0049620601925606;1.016;0.010562429824975236
56:18.4;0.10336814792409324;-0.11135605913064284;-0.9877395861635059;0.972;0.01136954401972165
56:18.4;0.1045155410920035;-0.12242932870055695;-0.9703900635759477;0.96;0.012416885671470947
56:18.4;0.10737756265589236;-0.1338466185430134;-0.9536531072745669;0.96;0.013706020394963426
56:18.4;0.1119204948746064;-0.14505888717652402;-0.9381925124935355;0.9470000000000001;0.015231614019906164
56:18.4;0.11800383823231321;-0.155577996608324;-0.9245686822899049;0.937;0.016973972212558218
56:18.4;0.12538770362256138;-0.1650079232719613;-0.9132261123762282;0.937;0.01889461591731586
56:18.4;0.13375001825949961;-0.17306475437594745;-0.9044910754338805;0.937;0.02093662943470602
56:18.4;0.1427105463150691;-0.17958606092301;-0.8985754222845777;0.937;0.023029432125629645
56:18.4;0.1518557632925156;-0.1845284634226179;-0.8955827077564034;0.9329999999999999;0.02509575951085241
56:18.4;0.16075914155746365;-0.18795280322403507;-0.8955131871890308;0.9309999999999999;0.027058048531453063
56:18.5;0.16899536102584914;-0.1899991943386714;-0.8982656223342744;0.927;0.02884239509567944
56:18.5;0.17615087596712742;-0.1908565327656928;-0.903636188702703;0.9279999999999999;0.03037983789893821
56:18.5;0.1818347612691062;-0.19073112846322182;-0.9113173050333004;0.932;0.03160589596107233
56:18.5;0.1856930490781006;-0.18981863797662932;-0.920900794935102;0.941;0.0324599127464796
56:18.5;0.18742771391094082;-0.18828363006452276;-0.9318896902231458;0.963;0.03288598678142663
56:18.5;0.1868189802798693;-0.18625022764952234;-0.9437211881994808;0.9740000000000001;0.03283685198218351
56:18.5;0.18374774650879022;-0.18380410058090033;-0.9558003487141619;1.006;0.032280808411932295
56:18.5;0.17821428452640134;-0.18100280571728358;-0.967540926651344;1.006;0.031210243921513874
56:18.5;0.1703497512973326;-0.177890718730894;-0.9784075801678371;1.021;0.029649310783198005
56:18.5;0.16041763233694592;-0.17451581696025364;-0.9879538573626984;1.04;0.027658177409924586
56:18.6;0.14880292571010265;-0.17094577247426115;-0.9958518278214152;1.045;0.025331713067669244
56:18.6;0.13598839065865662;-0.1672796664304147;-1.0019096396379548;1.043;0.022791533287158893
56:18.6;0.12251954272482149;-0.16365125808435146;-1.0060735988773875;1.0270000000000001;0.02017225586329837
56:18.6;0.1089623958096667;-0.1602221084537714;-1.0084143339786735;1.021;0.01760508379635768
56:18.6;0.09585962711075839;-0.15716698511267535;-1.0091012435839741;1.0190000000000001;0.015203087636962176
56:18.6;0.08369134745094314;-0.15465655810050713;-1.008371946104179;1.02;0.013051777318532064
56:18.6;0.07284538529811377;-0.15284156584166053;-1.0065022652689786;1.013;0.011206197692257244
56:18.6;0.06359951733572519;-0.1518402424206044;-1.0037794196778989;1.013;0.00969346385791081
56:18.6;0.0561157976482842;-0.15172973897182995;-1.000479098998215;1.0090000000000001;0.008518514586806858
56:18.7;0.05044550355621523;-0.15254230344621592;-0.9968465034025289;1.001;0.007670806923465915
56:18.7;0.04654225283111239;-0.154266164649428;-0.9930816421369638;0.9990000000000001;0.007130221756488675
56:18.7;0.044280776903514625;-0.15684984953411002;-0.9893298442845114;0.9940000000000001;0.00687132434087218
56:18.7;0.04347904683533328;-0.16020856808252296;-0.9856787130666164;1.0;0.006865957819911077
56:18.7;0.04392132797603571;-0.16423168596822593;-0.9821617445045715;1.002;0.007084601523473308
56:18.7;0.04537980805389524;-0.16879012273542193;-0.9787669391913711;0.9890000000000001;0.007497025272994102
56:18.7;0.047632882136642345;-0.173742771510989;-0.975447881968536;0.987;0.008072678846019627
56:18.7;0.050478493573658724;-0.1789424668934484;-0.9721361445391102;0.991;0.00878105903157533
56:18.7;0.053741423755817086;-0.18424273296157168;-0.9687555738535881;0.991;0.009592101138280792
56:18.7;0.05727463465401281;-0.18950510596778228;-0.9652384894311473;0.9940000000000001;0.010476539984650693
56:18.7;0.06095634893146326;-0.1946052926522257;-0.9615416835238751;0.993;0.011406219107895951
56:18.8;0.0646857839173337;-0.19943697459128057;-0.9576588077480216;0.9840000000000001;0.012354504456185671
56:18.8;0.06838058982370858;-0.20391382486002413;-0.953626335914829;0.982;0.013297124949051352
56:18.8;0.07197751971605434;-0.20797144718999488;-0.949522237514727;0.98;0.014213653738337769
56:18.8;0.07543530100508193;-0.21157056536894478;-0.9454582337476706;0.9740000000000001;0.01508940873176681
56:18.8;0.07873685848858158;-0.21470091771127806;-0.941567271114967;0.965;0.01591707775219399
56:18.8;0.08188822498122941;-0.2173835494120068;-0.9379885102770134;0.958;0.01669727698506073
56:18.8;0.0849132944147586;-0.21966932234897707;-0.9348530680387657;0.961;0.01743767016352386
56:18.8;0.08784570441169814;-0.2216327793695419;-0.932273740567996;0.961;0.01815089205457888
56:18.8;0.0907205594336986;-0.2233612060848296;-0.9303402411688189;0.9590000000000001;0.018851906282902862
56:18.8;0.09356891687069553;-0.22493915437629325;-0.9291192530975001;0.9620000000000001;0.019555463768460832
56:18.9;0.09641676141068631;-0.22643003253840643;-0.9286572646098977;0.963;0.020274120764178675
56:18.9;0.09928803307856494;-0.2278579107552043;-0.928983810249328;0.9640000000000001;0.021016924482018955
56:18.9;0.10220927119060998;-0.22919312247690787;-0.9301129576502098;0.965;0.021788511777281708
56:18.9;0.1052126296055586;-0.23034465161365927;-0.9320416801506521;0.9640000000000001;0.022588185314434905
56:18.9;0.10833469122399238;-0.23116135570262294;-0.9347450134652033;0.966;0.02340862690163313
56:18.9;0.11161006333280962;-0.23144316323626005;-0.9381690708693854;0.965;0.024234207503033102
56:18.9;0.11506028885857317;-0.23096244370302466;-0.9422237821510574;0.973;0.025039225292030343
56:18.9;0.11868000483319331;-0.22949401783354303;-0.946777650712115;0.973;0.025786768551671297
56:18.9;0.12242378147495445;-0.22684953736165048;-0.9516568770947466;0.981;0.02642920370333718
56:18.9;0.12619794207422608;-0.2229098698391601;-0.9566507776963011;0.988;0.026911319976339686
56:19.0;0.1298607006520236;-0.21764935343075203;-0.9615244011826068;0.9940000000000001;0.027176619455362865
56:19.0;0.13323153468733637;-0.2111481381086732;-0.9660376213064111;1.005;0.027176174757233575
56:19.0;0.1361085118980279;-0.2035917730594759;-0.9699682681030265;1.006;0.026878376758776135
56:19.0;0.13829118669418758;-0.19525897436891448;-0.9731360085873512;1.004;0.026277197790495227
56:19.0;0.139606103447468;-0.18649906766565402;-0.9754243480263911;1.011;0.025396546428458653
56:19.0;0.13993114644267032;-0.1777018604482879;-0.9767992547579262;1.023;0.024289114744981695
56:19.0;0.13921418463396246;-0.169264713264571;-0.9773223147655671;1.021;0.023029670957350406
56:19.0;0.13748172547566864;-0.1615620142143271;-0.9771540744154432;1.021;0.021704374796216987
56:19.0;0.13483521625650446;-0.1549205563864137;-0.9765424879937268;1.0;0.020398748695890718
56:19.0;0.13143547193352506;-0.14960204479404013;-0.9757944974359741;0.988;0.019187062191018716
56:19.1;0.12747843102151507;-0.1457923460965407;-0.9752345297123772;0.976;0.01812510387066624
56:19.1;0.1231674024913711;-0.14359661884942038;-0.9751585326986799;0.975;0.017247065862767783
56:19.1;0.11868738397143593;-0.14303974773995537;-0.9757931973578903;0.978;0.01656605424883355
56:19.1;0.11418592194879386;-0.14407154873627456;-0.9772672945215524;0.977;0.016076968185640573
56:19.1;0.10976344619780971;-0.14657585685761418;-0.9795980889499987;0.985;0.015760431539800508
56:19.1;0.10547434521312668;-0.1503827239887948;-0.9826928407197061;0.995;0.015587001502368955
56:19.1;0.101337720856145;-0.15528351529200013;-0.9863634867711947;1.011;0.015521492296865804
56:19.1;0.09735404455938083;-0.16104813541024318;-0.9903507596010896;1.011;0.015527399927545496
56:19.1;0.09352208905654688;-0.1674418244163235;-0.9943528386954871;1.0170000000000001;0.015571077440368303
56:19.1;0.08985077588337326;-0.17423858420771066;-0.9980543484833858;1.022;0.015625011887082298
56:19.2;0.08636319384322395;-0.1812303170285231;-1.0011533040107936;1.0290000000000001;0.015669680086304198
56:19.2;0.08309370769769416;-0.18823252002334478;-1.003384604375768;1.031;0.015693876385209388
56:19.2;0.08008172652803022;-0.19508723156348715;-1.004538774443036;1.028;0.015693831247761813
56:19.2;0.07736613154860998;-0.20166331854050235;-1.0044751628873159;1.031;0.015671731923054655
56:19.2;0.07498292988153488;-0.20785442923047295;-1.003129847675668;1.036;0.015634314440208633
56:19.2;0.07296649850489977;-0.21357551759107563;-1.0005186311842837;1.037;0.01559193995955929
56:19.2;0.07135274415557313;-0.21875883444060265;-0.9967345234349192;1.0170000000000001;0.015558072181016371
56:19.2;0.07018145072145718;-0.22334960811871418;-0.9919392971353509;1.0170000000000001;0.015548648002339602
56:19.2;0.06949555193948226;-0.22730130169114393;-0.9863509969726033;1.011;0.015580823904646091
56:19.2;0.06933662881057437;-0.23057112624304807;-0.980230851409476;1.0090000000000001;0.015670974730016326
56:19.3;0.0697375953941561;-0.23311749185385575;-0.9738717089013887;1.005;0.015832284304491948
56:19.3;0.07071460958960052;-0.2349007195282096;-0.9675876946302233;1.002;0.016072514699701196
56:19.3;0.07226036077028378;-0.23588681329628555;-0.9617034971736946;0.996;0.016392492143399717
56:19.3;0.07434006595831724;-0.2360530154945816;-0.956541611193201;0.9940000000000001;0.0167855803846754
56:19.3;0.07689027130958324;-0.2353938911814558;-0.9524062298987771;0.992;0.017238076708114662
56:19.3;0.07981948400850637;-0.23392710644142536;-0.9495627564075074;0.986;0.01773017969863783
56:19.3;0.0830091990074407;-0.2316983235142818;-0.9482124287484086;0.9620000000000001;0.018237057111194357
56:19.3;0.08631448131014738;-0.2287848926452186;-0.9484638387483981;0.9620000000000001;0.018729741606761812
56:19.3;0.08956487398983512;-0.2252983147958073;-0.9503070963275193;0.9590000000000001;0.01917607125610213
56:19.3;0.09256795562695413;-0.22138528736222052;-0.9535986662728758;0.966;0.019542272412286777
56:19.4;0.0951180634936123;-0.2172263842198333;-0.9580630094423881;0.978;0.0197956444911676
56:19.4;0.09701127006334166;-0.21303082121023345;-0.9633126717343716;0.991;0.019908195874866145
56:19.4;0.09806543684357488;-0.20902612579289656;-0.9688840530902599;0.9990000000000001;0.019860416241744464
56:19.4;0.0981420881584243;-0.20544278582454698;-0.9742832452600281;1.008;0.019644067770306767
56:19.4;0.09716572708887182;-0.20249539644645526;-0.9790354860612888;1.023;0.01926312277687243
56:19.4;0.09513637942793375;-0.2003629183008205;-0.9827319069737261;1.026;0.01873264163788582
56:19.4;0.09213256250449571;-0.1991710422204386;-0.9850675013835717;1.016;0.018076125078750456
56:19.4;0.08830443497273001;-0.1989792453377622;-0.9858658928770955;1.016;0.017322402970512303
56:19.4;0.08385963457298573;-0.19977451821049466;-0.9850901336483542;1.012;0.016503232833356238
56:19.4;0.07904519466938469;-0.20147312847670046;-0.9828418242777146;1.02;0.015652230431129534
56:19.5;0.07412750890354246;-0.20393037560171834;-0.9793507699123472;1.0190000000000001;0.014804699404130253
56:19.5;0.06937086728141363;-0.20695609498094047;-0.9749550955604389;1.006;0.013997161022416311
56:19.5;0.06501528047558336;-0.21033221662478988;-0.970070603374587;0.991;0.013265529302800162
56:19.5;0.06125537127487482;-0.21382925819890894;-0.9651503733289518;0.9790000000000001;0.012641723547914882
56:19.5;0.058222698642998956;-0.21722066910597074;-0.9606395981559172;0.971;0.012149375723016257
56:19.5;0.055973667207014396;-0.22029558174295602;-0.9569328763536566;0.972;0.011799701576722473
56:19.5;0.05448471977034811;-0.2228706185834536;-0.9543401667040416;0.972;0.011588593870411574
56:19.5;0.053656226655802615;-0.22480042468185266;-0.9530645590872162;0.972;0.01149580994771519
56:19.5;0.05332597135229847;-0.2259858224278676;-0.9531921359767209;0.97;0.011486835972686136
56:19.5;0.05329163395665327;-0.22637875066168517;-0.9546929568046363;0.9790000000000001;0.011517505109792523
56:19.6;0.05333910661182915;-0.22598398509245826;-0.9574320365492544;0.9890000000000001;0.011540678842046024
56:19.6;0.05327102876659231;-0.22485782281299052;-0.9611884061782712;0.993;0.011513506459100827
56:19.6;0.052929367701406556;-0.2231033261618974;-0.9656788735408713;0.996;0.01140342948251805
56:19.6;0.05220785834535993;-0.22086162677161605;-0.9705827588081345;0.995;0.01119151077297341
56:19.6;0.05105353211603011;-0.21829964923008283;-0.9755654277007519;1.004;0.010872645622781627
56:19.6;0.049459482537017166;-0.2155953489697607;-0.9803003269783538;1.01;0.01045317216644942
56:19.6;0.04745229633686321;-0.2129217804370014;-0.9844895072034727;1.015;0.009946915181523418
56:19.6;0.04507763314371248;-0.21043184860939834;-0.9878813929594903;1.015;0.009370815358219374
56:19.6;0.04238712815883287;-0.20824633358810385;-0.9902838263631208;1.014;0.008741199715200107
56:19.6;0.03942901061951;-0.20644751023861144;-0.9915713923056185;1.014;0.008071412029316492
56:19.7;0.036243312417682444;-0.20507920532283172;-0.99168773494076;1.014;0.007370966723186189
56:19.7;0.032861052235442084;-0.20415242508703504;-0.9906443771782242;1.0170000000000001;0.0066458997793883276
56:19.7;0.029306094278667125;-0.20365443866811814;-0.9885170643225024;1.013;0.005899782389080407
56:19.7;0.02559838123150681;-0.20355855574410467;-0.9854397574402178;1.0070000000000001;0.00513489944484198
56:19.7;0.021757621396876703;-0.20383199671580207;-0.9815962099763145;1.003;0.00435328045553676
56:19.7;0.01780707458025761;-0.20444037058915118;-0.9772096040676185;1.002;0.0035575168334403546
56:19.7;0.013777447732425903;-0.20534878177208146;-0.9725309845369641;0.992;0.002751467260715772
56:19.7;0.009710842803352287;-0.20652043186865254;-0.9678269102784007;0.992;0.001940964721906775
56:19.7;0.005664372982685027;-0.20791355700185754;-0.9633664991964471;0.987;0.0011345566634995395
56:19.7;0.0017126290910079824;-0.20947749527520576;-0.9594079015511905;0.982;0.0003441945426144147
56:19.8;-0.002052290335033313;-0.21114898837227722;-0.9561839758788638;0.9790000000000001;0.00041435183478113113
56:19.8;-0.005524628031830344;-0.2128498331349012;-0.9538870688707474;0.973;0.0011216912140516843
56:19.8;-0.008593509654716959;-0.214486451862478;-0.9526536197679487;0.966;0.0017559229542634626
56:19.8;-0.011155388462762145;-0.21595165312064463;-0.952550479161941;0.966;0.002294717517740851
56:19.8;-0.013127615542990266;-0.21712931528525609;-0.9535658055755993;0.965;0.0027180346026443995
56:19.8;-0.014459403695196705;-0.21790312398702888;-0.9556074785948614;0.975;0.0030108795332639193
56:19.8;-0.015137534837217349;-0.2181697313404214;-0.9585106673575666;0.986;0.0031655312338875023
56:19.8;-0.015186477100275453;-0.2178548837467359;-0.9620538227007239;0.986;0.003182905241098764
56:19.8;-0.014664247162043308;-0.21692945187550575;-0.9659802348003135;0.997;0.003072886582444973
56:19.8;-0.01365563631708799;-0.21542193230745302;-0.9700217058543414;1.002;0.0028535357080686345
56:19.9;-0.012264218465069799;-0.21342460457750617;-0.9739213814022992;1.006;0.0025492255578973577
56:19.9;-0.010604585279249136;-0.21109132634363448;-0.9774532411562378;1.008;0.0021880642411988946
56:19.9;-0.008795839835040445;-0.2086261603412961;-0.9804363638054593;1.003;0.001799142191963889
56:19.9;-0.006955896760153125;-0.20626422894877697;-0.9827433485709566;1.006;0.001409993654962187
56:19.9;-0.005194780295283253;-0.20424849408818513;-0.9843035321602784;1.013;0.0010443716911214987
56:19.9;-0.003605622938848937;-0.20280682323204202;-0.9851017248202242;1.01;0.0007203506457499753
56:19.9;-0.002254144786904852;-0.20213237602213133;-0.9851723429855413;1.002;0.0004488796326566593
56:19.9;-0.0011691335864939595;-0.20236842752106918;-0.9845889551345592;1.002;0.0002329495381208018
56:19.9;-0.0003366933917096568;-0.20359762529620673;-0.9834509080627268;1.002;6.741553516635594e-05
56:19.9;0.00029995718915593923;-0.20583543696810983;-0.9818696681650672;1.003;6.0622419433233625e-05
56:20.0;0.0008348389533405554;-0.20902747242936418;-0.9799565395245821;0.997;0.00017100660673749458
56:20.0;0.0013889169903537285;-0.21305029205731751;-0.9778123013520171;0.987;0.0002893436269373742
56:20.0;0.0020974160775395537;-0.21771583698211994;-0.9755198385475486;0.991;0.0004454620588373341
56:20.0;0.003096954883461332;-0.22278068777717505;-0.9731419014165102;0.997;0.0006714112157107488
56:20.0;0.004513585039386684;-0.22796153358450638;-0.9707252530331052;1.003;0.0009988022845996373
56:20.0;0.006451857551118553;-0.23295663218739643;-0.9683095836903427;1.002;0.0014553722154719726
56:20.0;0.008985056888085527;-0.2374709216349502;-0.9659373589342926;1.001;0.002061010632391607
56:20.0;0.012147148414420198;-0.2412413166056702;-0.9636610075416587;1.001;0.002823906508253335
56:20.0;0.015927172761404106;-0.24405863484681664;-0.9615455791008483;0.997;0.0037376853989765017
56:20.0;0.020267045181037828;-0.24578324188869966;-0.9596665669316647;0.991;0.004780387135210211
56:20.1;0.02506386210634157;-0.24635276360597663;-0.958103707916587;0.991;0.00591586087517414
56:20.1;0.03017704897617178;-0.2457817040022165;-0.9569323246481891;0.99;0.007097535012981052
56:20.1;0.03543905323675642;-0.24415412656235125;-0.9562137011777839;0.9840000000000001;0.008273726150198033
56:20.1;0.04066723630441576;-0.2416113891658902;-0.9559855417952569;0.977;0.009393196027425495
56:20.1;0.04567521763648135;-0.2383371638055207;-0.9562541208165622;0.975;0.010409879732346623
56:20.1;0.05028353100775619;-0.23454191079535097;-0.956990944775174;0.982;0.011286364046342017
56:20.1;0.05433061571684547;-0.23044858966575527;-0.9581364790229334;0.987;0.011996265163216878
56:20.1;0.05768507456455162;-0.22628048099651618;-0.9596110471308481;0.987;0.01252580915773753
56:20.1;0.06025907743200576;-0.22225092438029598;-0.961330462990357;0.993;0.012874748641195477
56:20.1;0.06202166123982245;-0.21855408250954428;-0.9632232174630213;0.9990000000000001;0.013056574771262628
56:20.2;0.0630097734887747;-0.21535585319988282;-0.9652462760175173;1.006;0.013097932054284687
56:20.2;0.06333398708015821;-0.2127848396697225;-0.9673961690575437;1.005;0.013037126358212898
56:20.2;0.06317545521027552;-0.21092440924423272;-0.9697116841488015;1.001;0.01292164632237532
56:20.2;0.06277187272951697;-0.20980766208700882;-0.9722658291553515;0.9940000000000001;0.012804760281317462
56:20.2;0.062392890349925;-0.2094172105799338;-0.9751478928356049;0.9940000000000001;0.012741423819916357
56:20.2;0.06230840684019637;-0.20969099308779687;-0.9784395097384562;0.993;0.012783812870095985
56:20.2;0.06275505500302882;-0.21053407101261945;-0.9821897883576554;1.005;0.012976767315127376
56:20.2;0.06390626928873676;-0.2118347385260058;-0.9863934660579695;1.005;0.013353368468577187
56:20.2;0.06584987519755829;-0.21348194807122342;-0.9909740444698667;1.004;0.01393087492408101
56:20.2;0.06857516810452886;-0.21538074919547853;-0.9957730982149012;1.002;0.01470734071080494
56:20.3;0.07196998253883183;-0.21746302700123904;-1.0005483180640182;1.0090000000000001;0.015659391878100642
56:20.3;0.07582781256545791;-0.2196918509603008;-1.0049842592574294;1.0270000000000001;0.016741784038125488
56:20.3;0.07986522196281907;-0.22205906004773054;-1.0087181414320245;1.042;0.01788941058040547
56:20.3;0.08374915845289187;-0.22457680190879978;-1.0113782340481428;1.052;0.019022121338423317
56:20.3;0.08713130871673097;-0.22726435450419005;-1.0126276752653305;1.057;0.020051891845777638
56:20.3;0.08968353989616867;-0.23013240758783646;-1.0122051625551924;1.053;0.02089099239302007
56:20.3;0.09112756490773329;-0.23316803820324322;-1.009956083134227;1.045;0.02145958274400806
56:20.3;0.0912546176093249;-0.23632366906775354;-1.0058515393812846;1.045;0.021691818162940572
56:20.3;0.0899353465329395;-0.23951220103221624;-0.9999959285739017;1.041;0.021540525097686315
56:20.3;0.0871228557983002;-0.24260932896797247;-0.992624478184639;1.035;0.020980922523808326
56:20.3;0.08285135523186611;-0.2454629591090286;-0.9840911833444211;1.024;0.020013402190361664
56:20.4;0.07723100851368603;-0.2479081999258524;-0.9748472315151984;1.016;0.018664620355599532
56:20.4;0.07043830970809863;-0.24978521278607593;-0.9654107662043838;1.005;0.016985869697170024
56:20.4;0.06270113249988907;-0.25095701663474995;-0.9563296182937218;0.9890000000000001;0.015048123068274891
56:20.4;0.0542787613924817;-0.2513247214580648;-0.94813933837593;0.968;0.0129341324671104
56:20.4;0.04543954064667465;-0.25083833936750727;-0.9413204744546395;0.955;0.010729150922383156
56:20.4;0.0364404190329162;-0.24950267411548852;-0.9362611096146021;0.956;0.008512469150861617
56:20.4;0.02751223600614399;-0.24737916051828707;-0.9332308706284838;0.956;0.006351526234261901
56:20.4;0.018852634933855878;-0.24458442927849602;-0.9323697054093142;0.9620000000000001;0.004299213544883851
56:20.4;0.010625657008457834;-0.24128489391009952;-0.9336904822544358;0.97;0.002393805484572692
56:20.4;0.002964228354010443;-0.2376855858286301;-0.9370913350548415;0.971;0.0006602317791335379
56:20.5;-0.004028916329493185;-0.23401230607033321;-0.9423726499707905;0.9640000000000001;0.0008884840135131523
56:20.5;-0.010283801651908692;-0.23048891628687507;-0.9492548865985654;0.976;0.0022500210391469956
56:20.5;-0.015767572825790204;-0.22731435037803205;-0.9573960226090181;0.987;0.00343149458673612
56:20.5;-0.02048718138958842;-0.22464407287575197;-0.9664088396394035;0.987;0.004447726469983063
56:20.5;-0.024487786947509093;-0.22257822304895167;-0.975878149158538;0.9940000000000001;0.005318973208965656
56:20.5;-0.02784618468095364;-0.22115663649870368;-0.9853783948443907;1.011;0.006068323310117679
56:20.5;-0.03065993971404566;-0.22036078922204902;-0.9944925802731815;1.0270000000000001;0.00671903901654838
56:20.5;-0.033033579559226;-0.22012235980001268;-1.0028322193939887;1.0270000000000001;0.007292023768828346
56:20.5;-0.03506360410969119;-0.22033645586475803;-1.0100562297673283;1.037;0.0078034825813567766
56:20.5;-0.03682431674788584;-0.22087645721158364;-1.0158870302885314;1.043;0.008262843763243573
56:20.6;-0.03835647156972419;-0.2216080584086573;-1.0201237259157288;1.051;0.008671156938864125
56:20.6;-0.0396604945654793;-0.22240157623985876;-1.0226524768198593;1.0590000000000002;0.00902036395760118
56:20.6;-0.04069569259079904;-0.22314263660728764;-1.0234527204200656;1.06;0.009293916987412915
56:20.6;-0.04138631946463559;-0.22374104713049786;-1.0225967798261395;1.053;0.009469060532727558
56:20.6;-0.04163427150735501;-0.2241364883700113;-1.0202412302992492;1.0390000000000001;0.00952064570284757
56:20.6;-0.04133656187172763;-0.22429957396531525;-1.0166113116372235;1.036;0.009425789531356973
56:20.6;-0.04040428538165771;-0.22422844411271095;-1.011982641671296;1.036;0.009168350264360822
56:20.6;-0.03877933492938135;-0.2239425634765819;-1.0066646958388472;1.036;0.008742222183149856
56:20.6;-0.03644585233819536;-0.22347535385096123;-1.0009875480625408;1.033;0.00815279307951129
56:20.6;-0.03343481425757716;-0.2228665028830035;-0.995289906916019;1.023;0.007416402868910222
56:20.7;-0.02982175777939097;-0.222154694220559;-0.9899053742844826;1.0090000000000001;0.00655816614631449
56:20.7;-0.025719163107807596;-0.22137205224470463;-0.9851457544724084;0.998;0.005608931214063685
56:20.7;-0.021265953238477815;-0.22054175094885406;-0.981283610644255;0.996;0.004602250124706448
56:20.7;-0.016616400259743397;-0.2196796545435598;-0.9785383805975133;0.998;0.003571944039960396
56:20.7;-0.011929574406170547;-0.21879978524241928;-0.9770694664691814;1.0;0.002550335307353552
56:20.7;-0.007359324387995882;-0.21792208202407737;-0.9769767131288376;1.008;0.0015668354826493813
56:20.7;-0.003044788108416688;-0.2170799023259104;-0.9783058119916748;1.008;0.0006466232646632365
56:20.7;0.0008975035881957996;-0.21632470510324414;-0.9810547128177941;1.014;0.00019047392987758488
56:20.7;0.004378255396195028;-0.2157262495462665;-0.9851771811114169;1.0190000000000001;0.0009305043953118365
56:20.7;0.007335546272334045;-0.21536778176269172;-0.990580659679872;1.016;0.0015649592749827697
56:20.8;0.00972994201685539;-0.21533666656845785;-0.9971172611850064;1.016;0.0020891733271666073
56:20.8;0.011534861718674993;-0.21571179963194528;-1.0045692222739122;1.0170000000000001;0.0024995749451123426
56:20.8;0.012723970212325285;-0.21654983799869548;-1.0126329482027268;1.015;0.0027901821812611922
56:20.8;0.013258924534310112;-0.21787248482457644;-1.0209077682990206;1.014;0.002949152251141821
56:20.8;0.013081122665046718;-0.21965682648306878;-1.0288965569247122;1.022;0.002956388041314969
56:20.8;0.012109967167819978;-0.22183048317672807;-1.0360248952596054;1.065;0.002783135700969434
56:20.8;0.010248770923474064;-0.22427303315437044;-1.041681235889031;1.065;0.0023943282180166787
56:20.8;0.007398681037226012;-0.22682454311795833;-1.0452730215975077;1.085;0.0017541797415245182
56:20.8;0.0034799006200886746;-0.22930133799525693;-1.0462881109879316;1.101;0.000834881275190018
56:20.8;-0.0015431636290553772;-0.2315182339520448;-1.0443499758372103;1.102;0.00037311545694292006
56:20.9;-0.007639220477402768;-0.23331442067872268;-1.039256597763788;1.089;0.0018523089163623508
56:20.9;-0.014696908538576928;-0.2345774667258009;-1.030996139665291;1.0659999999999998;0.0035544247357149287
56:20.9;-0.022525223312573076;-0.2352593456797185;-1.0197386255069143;1.0390000000000001;0.005403869589935154
56:20.9;-0.030866827672645942;-0.2353815903534783;-1.0058099959792084;1.023;0.007307695413694203
56:20.9;-0.039419552255217004;-0.23503095774332067;-0.9896588829390497;1.0170000000000001;0.009169006582648858
56:20.9;-0.047860117214572485;-0.23434856661641978;-0.9718252708064108;0.99;0.010899943517168035
56:20.9;-0.05586534958896882;-0.23351460506793606;-0.9529156028484888;0.99;0.012431141426582177
56:20.9;-0.06312860901722002;-0.23272999961019933;-0.9335841894734954;0.976;0.013716145300470455
56:20.9;-0.06937140414026152;-0.2321963995693233;-0.9145174539810921;0.948;0.014730855351039681
56:20.9;-0.07435125351439445;-0.23209562967874187;-0.8964164377114928;0.9209999999999999;0.015469100797066471
56:21.0;-0.0778667473003446;-0.2325698930036973;-0.8799754733416507;0.909;0.01593588159303963
56:21.0;-0.07976059842276222;-0.23370505015263388;-0.8658588752739889;0.9;0.016140003101824053
56:21.0;-0.07992178949709076;-0.23551991381367635;-0.8546782768598615;0.895;0.01608775704261548
56:21.0;-0.07828822789112472;-0.23796322164104902;-0.8469705733093142;0.889;0.015778823718956562
56:21.0;-0.07485090203310191;-0.2409178378445211;-0.8431740175834571;0.883;0.015204887479120537
56:21.0;-0.06965913460916492;-0.2442107744089592;-0.8436002106492906;0.872;0.014350914438162153
56:21.0;-0.06282508694933833;-0.24762789326512258;-0.8484023240355149;0.872;0.013198801901950035
56:21.0;-0.0545253429151932;-0.2509326574591455;-0.8575435422593733;0.87;0.011733072989498676
56:21.0;-0.04499780626359675;-0.2538886107680854;-0.8707726750669489;0.883;0.009948081924908944
56:21.0;-0.03453269688012951;-0.2562848692438316;-0.88761472650982;0.912;0.007855574691238891
56:21.1;-0.023457647898355322;-0.2579623745122733;-0.9073818334896787;0.9470000000000001;0.005490740378170955
56:21.1;-0.01211862425020116;-0.25883684184554556;-0.929204447416222;0.9670000000000001;0.002914678731718669
56:21.1;-0.0008594999360436477;-0.2589135881858662;-0.9520773008142223;0.98;0.00021187167651764646
56:21.1;0.009996839844227343;-0.25829041181248397;-0.9749140165360474;1.006;0.0025173136663240365
56:21.1;0.020164062872022333;-0.2571473121384221;-0.9966074083163011;1.037;0.005167543524911925
56:21.1;0.029404387905001935;-0.2557248095431333;-1.0160940588442922;1.069;0.007640449669723174
56:21.1;0.037537382820835574;-0.2542945986597774;-1.0324192789623792;1.069;0.009855013667386335
56:21.1;0.04444526919435098;-0.253127587295273;-1.044796119437529;1.08;0.011754294604622729
56:21.1;0.05007428787570657;-0.25246539269485335;-1.0526537156381048;1.102;0.01330767432886106
56:21.1;0.05443247089138238;-0.2525008539702473;-1.055673191055424;1.114;0.014509431382948754
56:21.2;0.05758414324967167;-0.2533699550880878;-1.0538088329708577;1.114;0.015375167601056705
56:21.2;0.05964045336942631;-0.25515275540177945;-1.0472898017436378;1.101;0.015937055069711183
56:21.2;0.06074526748974572;-0.257877973119267;-1.0365981914826627;1.0759999999999998;0.016238172238981222
56:21.2;0.06105765738988057;-0.26152729911760586;-1.022423574984092;1.06;0.016326309349426003
56:21.2;0.06073419077452019;-0.26603913373542126;-1.0055990431625217;1.038;0.01624813900191945
56:21.2;0.05991446781900705;-0.2713130817524116;-0.9870269489696398;0.9790000000000001;0.016044694450861
56:21.2;0.05871207188827322;-0.27721537374406696;-0.9676053418714415;0.9790000000000001;0.015748637093464368
56:21.2;0.057211706230114394;-0.28358401410368095;-0.9481685690680693;0.9790000000000001;0.015383395309917641
56:21.2;0.05547243700650944;-0.2902332164528394;-0.9294524273997732;0.97;0.014964131861596066
56:21.2;0.053536413597666345;-0.2969588001751305;-0.9120839866672749;0.966;0.01450041077185328
56:21.3;0.05144169144620046;-0.3035469119222165;-0.8965870741870993;0.9590000000000001;0.014000177201777517
56:21.3;0.04923645582438318;-0.30978668543866045;-0.8833926279557647;0.95;0.013474209708706646
56:21.3;0.04699059088045926;-0.3154850136077635;-0.8728459255963816;0.94;0.0129397900221219
56:21.3;0.044800653523434014;-0.3204804600657221;-0.8652061894921909;0.9279999999999999;0.012422400369249686
56:21.3;0.042786425333945645;-0.32465400941673306;-0.8606374334472426;0.9159999999999999;0.011954929149286567
56:21.3;0.04108019266364947;-0.327936057320801;-0.8591926085293934;0.9129999999999999;0.011574764801209518
56:21.3;0.03981237733790785;-0.33031028895333303;-0.8607955904511929;0.9129999999999999;0.011319838924459319
56:21.3;0.03909806864319557;-0.331815026974842;-0.8652265325316957;0.9109999999999999;0.011224866477345039
56:21.3;0.039027691219836326;-0.33254181670076777;-0.8721158048109997;0.914;0.011318614858510555
56:21.3;0.039662207814792454;-0.33263039242986964;-0.8809512704661335;0.932;0.011622263034100121
56:21.4;0.04103105041516353;-0.33225918252384923;-0.891102576571549;0.9420000000000001;0.012148350873292697
56:21.4;0.04313087588392174;-0.3316313391544003;-0.9018630689104218;0.965;0.012899843615011147
56:21.4;0.04592483047910309;-0.33095755666449916;-0.9125055218386638;0.99;0.013869326265468522
56:21.4;0.04934381406688516;-0.33043766427342475;-0.922343954720986;0.996;0.015038868603137115
56:21.4;0.05329191678423637;-0.3302427250541656;-0.9307918501107376;1.006;0.01638125505680692
56:21.4;0.05765712627430017;-0.3304990501931726;-0.9374082472806932;1.012;0.017862900473161258
56:21.4;0.06232582694050233;-0.33127578209164116;-0.9419267393490965;1.012;0.01944799629912369
56:21.4;0.06719694692114471;-0.3325777265738966;-0.9442659666022623;1.014;0.021102652077621395
56:21.4;0.07219100250560236;-0.33434447038200554;-0.9445226287772566;1.008;0.02279762391354203
56:21.4;0.07725130980352603;-0.33645608280706246;-0.9429496872675757;1.004;0.024508840010087917
56:21.5;0.08233756811618058;-0.33874495143592537;-0.9399237052708513;0.998;0.026215821412577694
56:21.5;0.0874143695856646;-0.34101244895941624;-0.935906080360271;0.996;0.02789878771186067
56:21.5;0.09243846784997464;-0.34304865188475037;-0.9314027781737545;0.991;0.02953561270060663
56:21.5;0.09734854183245986;-0.34465318821762525;-0.9269261349541675;0.9890000000000001;0.031099748601198646
56:21.5;0.10206007072774541;-0.34565502444646906;-0.9229610605854063;0.987;0.03255982918357468
56:21.5;0.1064664968578275;-0.34592898073751316;-0.9199369204284058;0.985;0.03388113579050988
56:21.5;0.11044606391434494;-0.34540754849947375;-0.9182055290256503;0.985;0.035028534742573676
56:21.5;0.11387170223959159;-0.3440877143346441;-0.9180251701232127;0.985;0.03596992795551952
56:21.5;0.11662050844238549;-0.34203296994112753;-0.9195503454432915;0.987;0.036679078302481946
56:21.5;0.1185806835604089;-0.3393702949737136;-0.9228268175386506;0.9890000000000001;0.03713709957761024
56:21.6;0.11965585754245392;-0.33628147417907883;-0.927791391264289;0.992;0.03733251469204758
56:21.6;0.11976767791636289;-0.3329884723417952;-0.9342758782686486;0.998;0.0372600955742303
56:21.6;0.1188574339089972;-0.32973359540742286;-0.9420147663106557;1.0;0.03691877297108711
56:21.6;0.11688736435930132;-0.32675612268768434;-0.9506563053285499;1.002;0.03630904557463376
56:21.6;0.11384234961386681;-0.3242679611940021;-0.9597773638056696;1.008;0.03543059083245862
56:21.6;0.10973249181307657;-0.32243190372617414;-0.9689031854697512;1.0270000000000001;0.034281011872891884
56:21.6;0.10459676070290197;-0.3213463639366361;-0.9775328038382998;1.0270000000000001;0.03285662608065336
56:21.6;0.09850769941095738;-0.3210390413893914;-0.9851692821072313;1.042;0.03115579864327086
56:21.6;0.09157676231523125;-0.32146975562156177;-0.9913527635553273;1.054;0.029184592030008946
56:21.6;0.08395906723533243;-0.3225411056155133;-0.995693867254457;1.0590000000000002;0.02696363921964468
56:21.7;0.07585577346105703;-0.3241147056087668;-0.9979043043691906;1.0659999999999998;0.024534446970618323
56:21.7;0.06751215801270612;-0.3260301412573796;-0.9978211223852969;1.067;0.021963039141752724
56:21.7;0.05920974993177868;-0.3281238069977715;-0.9954213139696997;1.0659999999999998;0.019339173258173283
56:21.7;0.05125201851375027;-0.33024556032853636;-0.9908242302550365;1.057;0.016770444772856465
56:21.7;0.043944915493670605;-0.3322718659267966;-0.9842804819817358;1.044;0.014372128026244413
56:21.7;0.037574922959836894;-0.3341142921209305;-0.9761484968132697;1.022;0.012254879411687543
56:21.7;0.03238770313360119;-0.33572238040468616;-0.9668631930175865;1.022;0.010512971117534919
56:21.7;0.02857036268926769;-0.3370804534459066;-0.9569032265884794;1.011;0.009215466868178823
56:21.7;0.026239587475709286;-0.3381988423628297;-0.9467619113686347;1.004;0.008401752762937758
56:21.7;0.025436387335831513;-0.33910138121688155;-0.9369232071688003;0.9940000000000001;0.008081444314140271
56:21.8;0.026126744238180226;-0.33981236171019147;-0.9278414333018135;0.9840000000000001;0.008237553150231858
56:21.8;0.028206818827773518;-0.3403463510642893;-0.919923033269205;0.9790000000000001;0.008831341946732902
56:21.8;0.03151146866545976;-0.34070319061680815;-0.9135096156707198;0.9690000000000001;0.009807492140064223
56:21.8;0.035824977858844205;-0.340869014054209;-0.9088625092727095;0.9620000000000001;0.011098688031877283
56:21.8;0.04089277190615718;-0.3408227355983114;-0.9061501967177333;0.96;0.012629184186502166
56:21.8;0.0464330961200531;-0.3405462598076093;-0.9054408990730748;0.9690000000000001;0.014317390347821991
56:21.8;0.05214815223351715;-0.34003588280488667;-0.9067020569268528;0.9690000000000001;0.016077861185132776
56:21.8;0.05773429771172722;-0.33931200086479324;-0.9098065135498103;0.9740000000000001;0.017823055080367176
56:21.8;0.06289110900107156;-0.3384244307502738;-0.9145437286047591;0.977;0.019465046073925324
56:21.8;0.06732997643892612;-0.33745173756823527;-0.9206343134537942;0.9840000000000001;0.020917380129948416
56:21.9;0.07078348104246089;-0.33649474465781787;-0.9277465896939401;0.991;0.02209731818912617
56:21.9;0.07301644187233118;-0.33566596025449663;-0.935513875963318;0.998;0.022928635015422017
56:21.9;0.07383884525544372;-0.3350772330043417;-0.943551146721994;1.004;0.023345074462559238
56:21.9;0.0731203699878589;-0.3348276254839548;-0.9514701282164254;1.0090000000000001;0.023294576601943284
56:21.9;0.0708057028316849;-0.3349929609285724;-0.9588928917142819;1.01;0.02274437560292184
56:21.9;0.06692891668145533;-0.335618115867457;-0.9654651423726961;1.031;0.021686815708720896
56:21.9;0.061623904652703274;-0.33671277808477085;-0.9708704798097001;1.031;0.020145131517754655
56:21.9;0.05512690174984137;-0.33825099644102;-0.9748452865809943;1.037;0.018177676312134194
56:21.9;0.04776737394472482;-0.3401743563172627;-0.9771923757017464;1.0390000000000001;0.01587862922198433
56:21.9;0.039945675652761164;-0.3423979416503086;-0.9777918888542263;1.0390000000000001;0.013373569742529642
56:21.9;0.03209957105724144;-0.344817863488423;-0.9766090198931865;1.042;0.010809602318636301
56:22.0;0.0246651572228452;-0.3473195516903747;-0.9736981935092023;1.043;0.00834137189088312
56:22.0;0.018038881704701262;-0.3497865007071243;-0.9692025742449939;1.0390000000000001;0.006115433025927141
56:22.0;0.012545916659283554;-0.35210881400573835;-0.9633473730548548;1.031;0.004255613835740235
56:22.0;0.00841753915761926;-0.3541904518513724;-0.9564259963118286;1.024;0.002851499940329447
56:22.0;0.0057779479610549946;-0.3559546251364331;-0.9487794938716824;1.005;0.001951342736054055
56:22.0;0.004639796796494163;-0.35734760493321405;-0.9407715810710872;1.005;0.0015598183533055692
56:22.0;0.0049074447248895;-0.3583413042995221;-0.9327628987138248;0.9940000000000001;0.0016403010017507537
56:22.0;0.006387066601830071;-0.3589347327240598;-0.9250879488922549;0.985;0.0021208011667045333
56:22.0;0.008803050409984144;-0.3591544150879623;-0.9180367514125913;0.978;0.0029025149537328073
56:22.0;0.011820224016243263;-0.35905389439646374;-0.9118425039439906;0.973;0.003869948460079564
56:22.1;0.015070912600348483;-0.3587123221743375;-0.906676423176193;0.973;0.004901603409130798
56:22.1;0.018184519727049306;-0.35823197254937644;-0.9026500646366021;0.977;0.005880111987961182
56:22.1;0.02081607706388181;-0.35773425909832957;-0.8998234764556546;0.976;0.006700647010758086
56:22.1;0.022670236041248907;-0.35735352829448963;-0.8982157112929746;0.9690000000000001;0.007276704914764767
56:22.1;0.023518601873574952;-0.35722796670350665;-0.8978141022101541;0.965;0.007542987268937828
