Time;AccX;AccY;AccZ;Acc-old;Acc-trns
54:06.7;-0.003298069835843637;-0.3014189725605027;-0.9699465008819652;1.012;0.0009642246131950117
54:06.8;-0.022098238839118323;-0.313523433397369;-0.958727453727517;1.054;0.006642366482025442
54:06.8;-0.0399078730607032;-0.3248922639070883;-0.9469178528609229;1.0659999999999998;0.012277508887382499
54:06.8;-0.05586979335751111;-0.33502870604226237;-0.9343845115132878;1.037;0.0174897948740129
54:06.8;-0.06922560755122902;-0.3435902027257337;-0.9211082934343302;0.9670000000000001;0.021908782315667705
54:06.8;-0.07937149813725954;-0.3504260542289519;-0.9071953445228507;0.9670000000000001;0.02523258698728708
54:06.8;-0.08590500274905076;-0.3555929190616814;-0.8928680461550729;0.9670000000000001;0.027274628323854015
54:06.8;-0.08865725189514573;-0.35934624745902405;-0.8784563594230721;0.983;0.027986434379056114
54:06.8;-0.08770834977819936;-0.3621074597865875;-0.8643983713079697;0.9840000000000001;0.027453160659667488
54:06.8;-0.08338531762312477;-0.36440801511829957;-0.8512423374286259;0.948;0.02586608638287578
54:06.8;-0.07624152547794612;-0.3668142024412319;-0.8396362457780642;0.9159999999999999;0.02348166554019885
54:06.9;-0.06701588736151765;-0.36984154733931207;-0.83029695269752;0.9109999999999999;0.020579125416484365
54:06.9;-0.056571226160212366;-0.37387298489380566;-0.8239601973600797;0.9079999999999999;0.017427131579431602
54:06.9;-0.04581543164610332;-0.37909607619499736;-0.8213158678914687;0.898;0.014264983886460133
54:06.9;-0.03561474180487502;-0.3854706090301902;-0.8229309474473753;0.865;0.011297555020539897
54:06.9;-0.026710941141981612;-0.3927324493712973;-0.8291643179117997;0.865;0.008698143755136813
54:06.9;-0.019651509157049177;-0.40043469177949037;-0.8400854497225155;0.878;0.0066107550666792345
54:06.9;-0.014737579973719864;-0.40802147993747195;-0.8554153155046955;0.922;0.005143825454418652
54:06.9;-0.011993704094401052;-0.41492149238417336;-0.874505954184965;0.955;0.004351931309681725
54:06.9;-0.011165115700478184;-0.42063967743010316;-0.8963669783789215;0.9790000000000001;0.004209779147911648
54:06.9;-0.011746651850598823;-0.42482433490796173;-0.9197389670746234;1.011;0.004589739851944519
54:07.0;-0.01303951133287642;-0.42729462101936116;-0.9432088678848382;1.014;0.005255289161143685
54:07.0;-0.014223151524806974;-0.4280276776820102;-0.9653595952234556;1.104;0.005877015109071376
54:07.0;-0.014428045109912087;-0.427120098996482;-0.9849385712473546;1.16;0.006069691879653262
54:07.0;-0.012801375531017033;-0.4247445339702126;-1.0010173320561822;1.166;0.005442845838220264
54:07.0;-0.008566031172369997;-0.421112381726347;-1.013107791805874;1.166;0.003654545025457557
54:07.0;-0.0010783743359247594;-0.4164425437485191;-1.0212086418136286;1.166;0.00045860534861270566
54:07.0;0.010110364076989843;-0.4109383443662764;-1.0257704422185265;1.155;0.004261805665839846
54:07.0;0.025190077977126142;-0.40477951452926647;-1.0275812738455863;1.081;0.010477657994612186
54:07.0;0.04403332886853833;-0.3981288093824698;-1.0275896950067713;1.036;0.01801460999495088
54:07.0;0.0661558799676613;-0.3911408584755153;-1.026701038104116;0.987;0.02656719089317041
54:07.1;0.09071163721308736;-0.38396292043421915;-1.0255954624719865;0.993;0.03572139267166381
54:07.1;0.11653310545744862;-0.3767322430529778;-1.0246099574178105;1.054;0.04498219910120136
54:07.1;0.14221724485720075;-0.36958164453442666;-1.0237041445588924;1.11;0.05380679400983635
54:07.1;0.16624508595241302;-0.3626556564696597;-1.0225022705614828;1.091;0.06164637639001603
54:07.1;0.18711855402048294;-0.3561282430531469;-1.0203853979402382;1.091;0.06799664814942717
54:07.1;0.2034994190959064;-0.3502115593254624;-1.0166084267898492;1.1179999999999999;0.0724514957340532
54:07.1;0.2143380826339659;-0.34515055776536624;-1.0104267732122125;1.196;0.07475027007571958
54:07.1;0.21897987502526264;-0.3412037015633418;-1.0012176486029267;1.149;0.07480772266535493
54:07.1;0.21723559189974256;-0.3386130343328338;-0.9885725284575528;1.068;0.07271821181098755
54:07.1;0.20940642006045665;-0.33756828127806604;-0.9723429656400429;1.04;0.0687339181659968
54:07.2;0.19626092127594832;-0.3381723633379634;-0.9526448243210008;1.044;0.063227055641802
54:07.2;0.17896888161367977;-0.3404194203835747;-0.9298400935040314;1.04;0.05665002691884515
54:07.2;0.1590009776554674;-0.34419525433839715;-0.9045060621760727;1.015;0.0495012487355338
54:07.2;0.13800407292856418;-0.3493015401442318;-0.8773869990066535;0.922;0.042294471188794945
54:07.2;0.11766252259074081;-0.3554948950786139;-0.8493248261403707;0.922;0.035525920744710636
54:07.2;0.09955878541681648;-0.3625262924875453;-0.8211792931401174;0.877;0.029638559283432835
54:07.2;0.08504828289292345;-0.3701676634706376;-0.7937568288900979;0.831;0.024989151040492416
54:07.2;0.075160717699248;-0.3782198572585561;-0.7677647171489865;0.8;0.021825459455774115
54:07.2;0.07053620630389573;-0.38650571992465904;-0.7438011385867364;0.8640000000000001;0.020277988026940523
54:07.2;0.07140181383581412;-0.39485833795497527;-0.7223820232094591;0.857;0.020366550920711875
54:07.2;0.07759030098224887;-0.403112587637087;-0.7039895825759409;0.862;0.02201912357886024
54:07.3;0.08859608108787817;-0.4111001194311821;-0.6891155378371085;0.861;0.025098869309645003
54:07.3;0.10365596426896728;-0.41864341368080094;-0.6782744301646261;0.8170000000000001;0.029433642068805558
54:07.3;0.12183965620351558;-0.4255482623149246;-0.6719748051278905;0.782;0.03484098915331497
54:07.3;0.14213737971378804;-0.4315997217172503;-0.6706525714336474;0.782;0.04114215680828966
54:07.3;0.16353557718679287;-0.43656774712021407;-0.67458610563259;0.787;0.04816164226899772
54:07.3;0.1850759452237971;-0.4402257235833598;-0.6838177094446133;0.8079999999999999;0.05571417910436749
54:07.3;0.2058969350365632;-0.44238065391059833;-0.6981001233258497;0.816;0.06358632460543352
54:07.3;0.22525756047540857;-0.4429099587920275;-0.716878754197535;0.87;0.07152214511524368
54:07.3;0.24254500573525617;-0.441796968968807;-0.7393131336045379;0.925;0.07922157818159405
54:07.3;0.2572756319077166;-0.43915348209986427;-0.7643321712424036;0.907;0.08635691592946697
54:07.4;0.2691042322420684;-0.4352184814203918;-0.7907101351629049;0.951;0.09260728730337853
54:07.4;0.27784474536946907;-0.43033451778358656;-0.8171501502079583;0.995;0.09770352563808281
54:07.4;0.28348746794883894;-0.42491485783553284;-0.8423674380793148;0.988;0.10146992814306292
54:07.4;0.28619685891682684;-0.419409831524622;-0.8651691250162583;0.988;0.10384951728410476
54:07.4;0.2862887024388501;-0.4142722504334484;-0.8845303400196318;1.018;0.1049065941924786
54:07.4;0.28419565547804204;-0.4099240808592921;-0.8996678280383382;1.06;0.10481008098770797
54:07.4;0.2804302594305325;-0.40673010230179774;-0.9101087101254035;1.079;0.10380647899183008
54:07.4;0.27555054957680636;-0.404980084735629;-0.9157440717577888;1.08;0.10219015651506412
54:07.4;0.27012859756131896;-0.4048762170923743;-0.9168529781219733;1.072;0.10027496761469792
54:07.4;0.2647185679360866;-0.4065229666158443;-0.9140869753286163;1.054;0.09836871806434441
54:07.5;0.25982055963093914;-0.4099189520508146;-0.9084143335813739;1.03;0.09675100609687462
54:07.5;0.2558393982161353;-0.4149515137310775;-0.9010317451218199;1.006;0.09565438204336117
54:07.5;0.25304221927870774;-0.4213956422468792;-0.893256349038728;0.983;0.0952487181638822
54:07.5;0.25152438497802315;-0.4289204059542546;-0.886412450049956;0.983;0.09562966873956441
54:07.5;0.25119746190001657;-0.43710608764986336;-0.8817255505183684;0.991;0.09681341236588528
54:07.5;0.2518105224134799;-0.44547300514229554;-0.8802325939927467;0.978;0.09873990651079173
54:07.5;0.2530046253897576;-0.45352032317442087;-0.8827146675274598;0.997;0.10128509912367457
54:07.5;0.2543861531050287;-0.4607716571908187;-0.889658682612151;1.025;0.10428038995383593
54:07.5;0.2555978803905147;-0.4668210279564326;-0.9012550199084773;1.051;0.10753636579000637
54:07.5;0.2563694383096121;-0.47136713329666763;-0.9174342823762984;1.11;0.11086654511792832
54:07.6;0.25653555165347347;-0.4742248708742162;-0.9379349951835307;1.158;0.11410498725237249
54:07.6;0.2560188423359049;-0.47531332008783517;-0.9623774464578592;1.181;0.11711090879405532
54:07.6;0.254784164262263;-0.4746267489804583;-0.9903092673772;1.141;0.11975550467325895
54:07.6;0.2527795672575257;-0.4721948922358897;-1.021197925442411;1.141;0.12189143077391308
54:07.6;0.2498822264631294;-0.468039871055844;-1.054369854877741;1.085;0.12331366300572788
54:07.6;0.24586646284571562;-0.4621417678581136;-1.0889213299069995;1.082;0.12372886229438658
54:07.6;0.24040622226794142;-0.45442677951943833;-1.1236423065594967;1.141;0.12275457956213376
54:07.6;0.2331172820920721;-0.4447887467230171;-1.1569945729105688;1.204;0.11996638818483495
54:07.6;0.22363545732074838;-0.4331458312272191;-1.1871680917281997;1.2670000000000001;0.11499713380711082
54:07.6;0.21171663076324682;-0.41951940926942577;-1.2122152669120947;1.334;0.10766803371745665
54:07.7;0.19733573638320714;-0.40410959432981614;-1.2302449206009929;1.383;0.0981062064412873
54:07.7;0.1807581689592992;-0.38734023333732526;-1.2396471542430034;1.429;0.08679378560008641
54:07.7;0.1625598592041935;-0.3698559016784221;-1.2393132103064288;1.406;0.07451212454182517
54:07.7;0.14358388414572035;-0.35246807252046247;-1.2288120568344107;1.406;0.062188623613775924
54:07.7;0.12484043499760553;-0.33606048564791074;-1.208490664125164;1.345;0.05070094144616062
54:07.7;0.10737247351454743;-0.32147049383525156;-1.179477800804333;1.2670000000000001;0.04071213206783858
54:07.7;0.09211497787167437;-0.30936598038290675;-1.1435887544275107;1.188;0.03258912369622206
54:07.7;0.0797755903530739;-0.3001404006865435;-1.1031461862699237;1.1179999999999999;0.026413597318057286
54:07.7;0.07075962806243487;-0.293848207226574;-1.060745112054209;1.05;0.022055638050511184
54:07.7;0.06514979020412982;-0.2901942093362191;-1.0189949510911103;0.9940000000000001;0.019265212146850213
54:07.8;0.06273468137291865;-0.2885764265026337;-0.9802704397832718;0.953;0.017746571139282585
54:07.8;0.06306874308169631;-0.28817030566951723;-0.9464986977008458;0.924;0.017202177468353556
54:07.8;0.06554372706812636;-0.28803670485164357;-0.919002896221544;0.898;0.017349854913522426
54:07.8;0.06945743799576203;-0.28723583887793513;-0.898414957656425;0.898;0.017923976272571477
54:07.8;0.07407422046564047;-0.2849323054130818;-0.8846618009140856;0.895;0.01867179441520527
54:07.8;0.07867815992765465;-0.2804811448223178;-0.8770219833133507;0.904;0.019353893425683753
54:07.8;0.08262186752181624;-0.2734897666569;-0.8742428648681801;0.92;0.019754597457067223
54:07.8;0.08537207537991459;-0.26385304895904366;-0.8747040648223483;0.9359999999999999;0.019703305945014484
54:07.8;0.08655019735075228;-0.2517591272328427;-0.8766107276835482;0.9470000000000001;0.019101174316035707
54:07.8;0.08596318692021583;-0.23766433510175725;-0.8781985972153475;0.976;0.017941934273085266
54:07.9;0.08361847583943827;-0.2222391749112981;-0.877931194243883;0.985;0.016314859708311816
54:07.9;0.0797169995836507;-0.2062914788189056;-0.8746674032181391;0.99;0.01438385098136044
54:07.9;0.07462117927583332;-0.1906763931331273;-0.8677777278730019;0.941;0.012347173071627388
54:07.9;0.06880108363643003;-0.17620599630259226;-0.8571929324890742;0.941;0.010391890062056207
54:07.9;0.06276928555234991;-0.16357325254589913;-0.8433792986026145;0.887;0.008659292536173036
54:07.9;0.057017557761509234;-0.15330223090023315;-0.8272456820455363;0.838;0.007230887338813475
54:07.9;0.05196515348285823;-0.14572979223311217;-0.8099969701594568;0.787;0.006134002581947514
54:07.9;0.047923501818295924;-0.14101802499012955;-0.7929575049639467;0.735;0.005358868333832104
54:07.9;0.04507881115680469;-0.1391928196385974;-0.7773950214735944;0.7070000000000001;0.004877879207824576
54:07.9;0.043491828928595114;-0.14020041405708505;-0.7643770928196574;0.7090000000000001;0.004660844682629543
54:08.0;0.04311236243593005;-0.14397091259175132;-0.7546855393018563;0.7390000000000001;0.004684277419400005
54:08.0;0.043805104020667666;-0.15047655016952516;-0.7487993658768201;0.7709999999999999;0.004935816550603723
54:08.0;0.045382408803100585;-0.1597723854288636;-0.746937690429236;0.804;0.005415937418394468
54:08.0;0.047638572584751446;-0.17200885338849498;-0.7491389872032809;0.804;0.006138636826037186
54:08.0;0.05037925969234681;-0.1874109863775066;-0.7553483523495288;0.8079999999999999;0.007131717210555415
54:08.0;0.05344027812153119;-0.2062273011348735;-0.7654907340471625;0.826;0.008436354215149478
54:08.0;0.05669229673146825;-0.2286583183557117;-0.7795188103778781;0.8390000000000001;0.010105031142205005
54:08.0;0.060031324200099136;-0.25477724601424556;-0.7974321425342287;0.845;0.012196417970951274
54:08.0;0.06335814778828577;-0.2844541755498027;-0.8192685358754304;0.863;0.014765258744006887
54:08.0;0.06655317102409526;-0.3172933130801375;-0.8450723395624897;0.893;0.017845287915619852
54:08.1;0.06945505865178526;-0.3525925852070776;-0.8748471499440906;0.9309999999999999;0.021424428153237095
54:08.1;0.071851096544967;-0.3893363989813639;-0.9084994230993328;0.968;0.025414587435279207
54:08.1;0.073484059664952;-0.4262322578890731;-0.9457762159978331;1.047;0.029622918529029915
54:08.1;0.07407553427930286;-0.4617950201282887;-0.9861989088165382;1.047;0.03373560907939324
54:08.1;0.07336102609081066;-0.4944699836846698;-1.0289980675352268;1.101;0.03732672521024379
54:08.1;0.07112996459064236;-0.5227777730166123;-1.0730621226142134;1.139;0.03990199153036577
54:08.1;0.06726371508007138;-0.5454633486771941;-1.1169202361066244;1.187;0.04097968202229823
54:08.1;0.06176491473635282;-0.5616311114696019;-1.1587823040216916;1.255;0.040197112572538996
54:08.1;0.0547721949941666;-0.5708468745815926;-1.196652969229268;1.3430000000000002;0.03741519353249361
54:08.1;0.04655837793509486;-0.5731905875917587;-1.2285200768586262;1.439;0.03278529907888536
54:08.2;0.03751695693743111;-0.569250996117308;-1.2525934294305339;1.505;0.02675109312938951
54:08.2;0.028144966289215815;-0.5600608413104622;-1.2675469720926504;1.5219999999999998;0.019980207925560236
54:08.2;0.01902546014716391;-0.5469775794807261;-1.2727098419647218;1.474;0.013244455148334194
54:08.2;0.010803775619410158;-0.5315227404066972;-1.268163821603606;1.474;0.007282370411356086
54:08.2;0.004147159308182347;-0.5152023419173115;-1.2547279213624483;1.395;0.002680884535446896
54:08.2;-0.00031900172234933016;-0.49933416432808253;-1.2338332662944047;1.291;0.00019653539897054021
54:08.2;-0.002095012450753486;-0.4849041451772463;-1.2073110336245352;1.2109999999999999;0.0012264834003403544
54:08.2;-0.0008950270481928508;-0.47247124872620544;-1.1771342051381075;1.155;0.0004977800938777048
54:08.2;0.003285144874574168;-0.4621384533745724;-1.1451635646305824;1.122;0.0017385779007831905
54:08.2;0.010145560765126942;-0.45359965970087585;-1.112942966777357;1.1159999999999999;0.005121789031229457
54:08.3;0.019119910225534578;-0.4462558857090728;-1.0815726961112515;1.1340000000000001;0.009228381099170855
54:08.3;0.02947002740096879;-0.43937380832478484;-1.0516710424933158;1.159;0.013617413335851132
54:08.3;0.040413581910646486;-0.4322451751472265;-1.0234170087010617;1.128;0.01787763758259407
54:08.3;0.05124983091615428;-0.42430827904129964;-0.996653509362099;1.128;0.02167295568350653
54:08.3;0.06145199165918337;-0.4152128362311396;-0.9710235791526474;1.103;0.024776303369686666
54:08.3;0.07071074584637428;-0.404831244950736;-0.9461125614311827;1.083;0.027083341806116334
54:08.3;0.07893147678501136;-0.39322971188634914;-0.9215735719146293;1.054;0.028603986567690337
54:08.3;0.08619891116873385;-0.3806157497895021;-0.8972184033357812;1.022;0.02943653641684372
54:08.3;0.09272436137236495;-0.3672796658257177;-0.8730614493538854;0.972;0.029732782061698295
54:08.3;0.09878661176929478;-0.3535453654293092;-0.8493122117172632;0.9159999999999999;0.029662695060670267
54:08.4;0.10467337216963303;-0.3397395654085109;-0.8263233661989248;0.856;0.029385452059062896
54:08.4;0.11062895475590584;-0.32618144751020656;-0.8045138580066016;0.812;0.02903097315348133
54:08.4;0.11681428646076215;-0.313188941033771;-0.7842946062926104;0.835;0.028693373210947778
54:08.4;0.12328449785430114;-0.30109332810585676;-0.7660214276173052;0.835;0.02843482245446229
54:08.4;0.12998586628768227;-0.29025081674666686;-0.7499844031349719;0.838;0.028295789445259765
54:08.4;0.13676998956715833;-0.2810393448864941;-0.7364249110162988;0.815;0.028306515347992726
54:08.4;0.14342048085004075;-0.27383338423988374;-0.7255632850208299;0.799;0.028495275909765225
54:08.4;0.14968601363243653;-0.2689592843455973;-0.7176225054970797;0.809;0.02889108242958201
54:08.4;0.1553141157321048;-0.2666438001385021;-0.7128379624523283;0.7979999999999999;0.029521147772773416
54:08.4;0.16008272822327926;-0.2669715715035626;-0.7114461817186783;0.742;0.030405457887755113
54:08.5;0.1638281283495667;-0.26986235949402687;-0.713652024104924;0.745;0.031551301943234356
54:08.5;0.16646738322066448;-0.2750719005341874;-0.7195861144064342;0.765;0.032950207597155244
54:08.5;0.16801327578264838;-0.28221507048830763;-0.7292706427210596;0.831;0.034579008165521286
54:08.5;0.16857947566896025;-0.2908044372841807;-0.7426030735603066;0.831;0.03640512026611392
54:08.5;0.16837261750572916;-0.3002914528282765;-0.7593525161820767;0.858;0.038393514687416044
54:08.5;0.16766897078441786;-0.31009765923765353;-0.7791563771865182;0.875;0.04051126606810069
54:08.5;0.16677857245024721;-0.31963186434979785;-0.801507020865848;0.86;0.04272653272229873
54:08.5;0.16600440899741223;-0.3282994054466796;-0.8257250811248222;0.8540000000000001;0.045001314043782645
54:08.5;0.16560399438795065;-0.3355138306986914;-0.8509273617263655;0.85;0.047279592427193054
54:08.5;0.16575792336603726;-0.3407198510889196;-0.8760097278840566;0.8809999999999999;0.049474414512143704
54:08.6;0.16654869062637792;-0.34343291199928305;-0.8996695110530013;0.951;0.05145956822380041
54:08.6;0.16795292975907122;-0.3432945879452638;-0.9204820958607965;1.028;0.053072541631585965
54:08.6;0.1698490092422543;-0.3401337380993314;-0.9370260481191758;1.084;0.054133286420945774
54:08.6;0.17203882642713145;-0.33401760728269153;-0.9480302209401709;1.084;0.0544776059264615
54:08.6;0.17427889460749912;-0.3252795573542023;-0.9525072177012548;1.082;0.053997026180513934
54:08.6;0.17631409626922043;-0.3145155400189122;-0.949846397143434;1.0490000000000002;0.05267232922143699
54:08.6;0.17790870146954896;-0.3025457990126439;-0.9398584009444224;1.005;0.05058837677891465
54:08.6;0.17887131238865925;-0.2903456521275595;-0.9227788404386809;0.98;0.047924064925561304
54:08.6;0.17907182764867405;-0.2789590184442018;-0.8992456921787089;0.95;0.044920650677123225
54:08.6;0.17844930669292083;-0.2694116565922055;-0.8702644807114566;0.9390000000000001;0.04183911656066676
54:08.7;0.17700939959313916;-0.26263466339284186;-0.8371696329127883;0.927;0.03891901504580055
54:08.7;0.1748097301342266;-0.2594009571958155;-0.8015810832186891;0.9;0.03634834456049062
54:08.7;0.17193361506609586;-0.26027554942469877;-0.765346180152092;0.8320000000000001;0.03424933043832221
54:08.7;0.16845734948801525;-0.2655817950950341;-0.7304546595518416;0.8320000000000001;0.032679960957024
54:08.7;0.16442114312938413;-0.2753859232986938;-0.6989198172049539;0.7759999999999999;0.0316465779307572
54:08.7;0.159813609394141;-0.2894994420920602;-0.6726271761148681;0.6940000000000001;0.03111973580883983
54:08.7;0.15457363161823032;-0.3074937316615784;-0.6531637157983589;0.6409999999999999;0.031045147571325465
54:08.7;0.14860814091306854;-0.3287210099416005;-0.6416563509900646;0.623;0.03134530939631737
54:08.7;0.14182426480820962;-0.3523456637338359;-0.6386571919423313;0.636;0.03191444373651
54:08.7;0.134175666095689;-0.37739664716819665;-0.6441077913359441;0.687;0.03261597383435946
54:08.8;0.1257220979648407;-0.4028459528090628;-0.6573984262273997;0.768;0.03329502034092279
54:08.8;0.11669856544125241;-0.4277092452728664;-0.6775164313674462;0.8370000000000001;0.03381691513890646
54:08.8;0.10758549252911198;-0.4511576088985621;-0.7032555844435998;1.035;0.0341346290950002
54:08.8;0.09916308406802686;-0.4726189534180856;-0.7334415285314503;1.035;0.034373729588305285
54:08.8;0.092524990479749;-0.4918380523763315;-0.7671196900921314;1.035;0.0349095543984665
54:08.8;0.08902545487717525;-0.5088684557201298;-0.8036618568263145;1.011;0.03640768693232608
54:08.8;0.09014429552155204;-0.5239898858933486;-0.8427782552426697;0.983;0.039808377314868394
54:08.8;0.09727307894670868;-0.5375685234996455;-0.8844541093481649;1.014;0.046248941563413797
54:08.8;0.1114492810149257;-0.5498930133567428;-0.9288418747491214;1.088;0.05692424238998777
54:08.8;0.13308725065249957;-0.5610225529273362;-0.9761309088215127;1.103;0.07288276464468811
54:08.8;0.16176569309729494;-0.5706754638075574;-1.0264013178606315;1.094;0.09475296839081448
54:08.9;0.19612420358683305;-0.5781728371565362;-1.0794684875938845;1.092;0.12240491204916047
54:08.9;0.2338996406673449;-0.5824428744898416;-1.134741384252139;1.177;0.15458942617902324
54:08.9;0.27210569463044404;-0.5820921318340238;-1.191130599272551;1.177;0.18866387108612367
54:08.9;0.30733497834782614;-0.5755517062949426;-1.2470380391116413;1.318;0.2205850311075395
54:08.9;0.3361506140258397;-0.5612968361519274;-1.3004458785340676;1.501;0.24536848744512627
54:08.9;0.3555285656112467;-0.5381148754251975;-1.3491012928339785;1.682;0.2581035968718827
54:08.9;0.36329663297602427;-0.5053725069291282;-1.3907626879236092;1.7530000000000001;0.2553442105327973
54:08.9;0.3584919703810073;-0.46322581580014965;-1.4234483229168218;1.712;0.23638172225755355
54:08.9;0.34154988138952613;-0.41272631396093745;-1.4456348724049342;1.7169999999999999;0.20378626689198606
54:08.9;0.3142637632344476;-0.35578904198780936;-1.4563860469038312;1.633;0.1628408588591325
54:09.0;0.2795158993638311;-0.2950087885298032;-1.4554152544409196;1.508;0.12001302789568644
54:09.0;0.24084125987853183;-0.23335039186714482;-1.4430891821748757;1.485;0.08110219269464604
54:09.0;0.2019215665124198;-0.1737849333522287;-1.4203789340289026;1.485;0.0498424120357677
54:09.0;0.16610757246488592;-0.11895989498640779;-1.3887670577018871;1.395;0.02744223062219488
54:09.0;0.13604217138058713;-0.07096425619859711;-1.3501165645162498;1.329;0.013034202859116883
54:09.0;0.11342155107431526;-0.031203496412956243;-1.3065100110568946;1.287;0.004623933549604392
54:09.0;0.09890343595991168;-0.0003688744155583919;-1.260075760276875;1.216;4.597127735007714e-05
54:09.0;0.09215331151103351;0.021520999980428397;-1.2128229111906794;1.149;0.0024053084985784373
54:09.0;0.09200498919536718;0.03502433013915977;-1.1665034518268858;1.126;0.0037589560230593217
54:09.0;0.09670117198733563;0.041140783014841045;-1.1225154799266;1.1059999999999999;0.004465772855678973
54:09.1;0.10417475823681338;0.041150819626893986;-1.0818538493706198;1.064;0.004637774044394708
54:09.1;0.11233085810085214;0.03644630130786221;-1.0451051335444568;1.035;0.004278706715425994
54:09.1;0.11929292532535807;0.028372655337148153;-1.0124791460519238;1.035;0.003426894684134275
54:09.1;0.12358532628803941;0.018102941593066968;-0.9838691917340073;1.014;0.002201169164623487
54:09.1;0.12423791926073917;0.006557506681853178;-0.9589314005748903;0.981;0.0007812327679452072
54:09.1;0.12081245440496916;-0.0056271178720878065;-0.9371711274055682;0.9520000000000001;0.0006371132251539155
54:09.1;0.11336207327958728;-0.018084453430114132;-0.9180271428244973;0.9309999999999999;0.0018820393071625593
54:09.1;0.10234175029603491;-0.03066909648845799;-0.9009500831170189;0.9309999999999999;0.002827838166609786
54:09.1;0.08848968132528837;-0.043386553718303016;-0.8854733807599232;0.9229999999999999;0.0033995645793275554
54:09.1;0.0726990144343062;-0.05631856726496302;-0.8712712650005674;0.914;0.0035672497168301822
54:09.2;0.055896807737646874;-0.06955897131705967;-0.8581944454519518;0.897;0.0033367668029017305
54:09.2;0.03894307844916751;-0.08316925294300315;-0.8462748480218419;0.8540000000000001;0.002740971459779677
54:09.2;0.022558494362240562;-0.0971554371850986;-0.8356970976649543;0.8540000000000001;0.0018315809342475072
54:09.2;0.007285318509930248;-0.11146187717606482;-0.8267425300872301;0.826;0.0006713440993794087
54:09.2;-0.006518770530108528;-0.12597625470786128;-0.8197162829918831;0.805;0.0006731594519516929
54:09.2;-0.018660402349096585;-0.14054286295841842;-0.8148691748697693;0.7929999999999999;0.0021370647914264853
54:09.2;-0.029073871048220543;-0.15498263031641435;-0.8123270890896024;0.784;0.0036603011923798143
54:09.2;-0.0377775445615725;-0.16911672308384085;-0.8120414949987069;0.7809999999999999;0.0051879825122855905
54:09.2;-0.04483042115224999;-0.18279011120252212;-0.8137729810651896;0.8029999999999999;0.0066685096217350415
54:09.2;-0.05029519217913049;-0.1958933580406968;-0.8171143163454028;0.846;0.008050613972052664
54:09.3;-0.054214306017230485;-0.20838123559949046;-0.8215502856671733;0.889;0.00928125409710038
54:09.3;-0.056603360267890895;-0.22028409332081827;-0.8265399327229136;0.893;0.010305977557580514
54:09.3;-0.05746064938882944;-0.23170608544889848;-0.831599411723454;0.893;0.011071899713023123
54:09.3;-0.05678569578926452;-0.242807362669256;-0.8363663608065685;0.897;0.011531806864010726
54:09.3;-0.05459719848841563;-0.25377399415445473;-0.8406366235155375;0.892;0.011647313910313158
54:09.3;-0.05094298068003512;-0.2647844340735902;-0.8443732055375579;0.887;0.011389672748397561
54:09.3;-0.045898570865533526;-0.2759810731533978;-0.847692540322345;0.8859999999999999;0.010737837409627516
54:09.3;-0.039554973466915326;-0.28745140737802527;-0.8508360728885925;0.885;0.009674119132852444
54:09.3;-0.031999900844900085;-0.2992196806625708;-0.8541361661840804;0.9009999999999999;0.0081783538869142
54:09.3;-0.023300175212866942;-0.31124755995997677;-0.8579834278247336;0.9279999999999999;0.006222201077403078
54:09.4;-0.013494961836237255;-0.3234400110291612;-0.8627977422473;0.934;0.003765948735461084
54:09.4;-0.0026076414753816463;-0.3356507928084827;-0.868999844808292;0.9359999999999999;0.0007605981350965643
54:09.4;0.009322805890150363;-0.3476832494878761;-0.8769785446595381;0.9359999999999999;0.0028426237373602235
54:09.4;0.022199194442886674;-0.35928642090930973;-0.8870522374805866;0.94;0.00707501254737746
54:09.4;0.035826438216572346;-0.37015163349580854;-0.8994281200611781;0.9570000000000001;0.011927509342770546
54:09.4;0.04988866751910026;-0.37991819090617956;-0.9141641967347817;0.968;0.017326713773120592
54:09.4;0.06395268236902023;-0.3881962920995295;-0.9311383905887113;0.976;0.023116622479681017
54:09.4;0.07750176883464589;-0.39460913960949395;-0.9500299290098411;1.002;0.029054676318254993
54:09.4;0.0899976302174628;-0.3988463899118154;-0.9703215286070768;1.0390000000000001;0.034829914358742525
54:09.4;0.10095980945865228;-0.40071468059992177;-0.9913314247390378;1.0759999999999998;0.04010538124547451
54:09.5;0.11004328431380567;-0.4001722284947113;-1.0122780337262816;1.123;0.04457694507772453
54:09.5;0.11709198607154439;-0.397339626312931;-1.032369681561762;1.189;0.04803129468196956
54:09.5;0.12215284475975843;-0.3924845440506637;-1.0509007269220778;1.187;0.05038344240314905
54:09.5;0.1254481984184125;-0.3859848166383945;-1.0673273164370225;1.187;0.05168116257693004
54:09.5;0.1273161020062482;-0.37827924947851044;-1.0812990595884608;1.173;0.05207648673469949
54:09.5;0.12813316754113077;-0.3698146320917291;-1.092638876273516;1.143;0.05177526155713679
54:09.5;0.12823495151051462;-0.36099523406988415;-1.1012814714078807;1.114;0.050980749108954226
54:09.5;0.12784913393029834;-0.35214175590961977;-1.1071926788119208;1.094;0.04984694209106822
54:09.5;0.12705704803980483;-0.34346734654307154;-1.110297058125604;1.103;0.048453304937210125
54:09.5;0.1257956684720718;-0.33507598648323006;-1.110438744301156;1.147;0.04680622311483704
54:09.6;0.1239023032803942;-0.3269834668934385;-1.107388450700695;1.1740000000000002;0.044864740877262006
54:09.6;0.12119022610497174;-0.3191543829424267;-1.1008918469966664;1.173;0.0425807262218945
54:09.6;0.11753212730771895;-0.3115439355754058;-1.0907414676501819;1.173;0.03993904932482224
54:09.6;0.11292576065659526;-0.3041345470571487;-1.0768519671025356;1.1740000000000002;0.03698407706428146
54:09.6;0.1075229067166628;-0.29696112141506925;-1.0593225747945216;1.169;0.03382430006366667
54:09.6;0.10161436156732985;-0.29012042526632975;-1.0384738530106532;1.12;0.030614626436285354
54:09.6;0.09557614925971274;-0.28376177253907464;-1.014848753355621;1.056;0.02752356845059763
54:09.6;0.08979346312649836;-0.2780624771478441;-0.9891757857454267;1.006;0.024697931720344023
54:09.6;0.08458522599830169;-0.27319914093261527;-0.9623043290101448;0.9740000000000001;0.022237516478085993
54:09.6;0.08014927282690369;-0.2693264147656881;-0.935130713944006;0.958;0.020186027369811087
54:09.7;0.07653765213426299;-0.266567392012583;-0.9085324092756084;0.946;0.018536280076275027
54:09.7;0.07366070243442646;-0.26501230428495537;-0.8833185898853324;0.9129999999999999;0.017243255557128606
54:09.7;0.07131213115577414;-0.26472013694302066;-0.8601962571278131;0.9129999999999999;0.01623857602211241
54:09.7;0.06920494312238755;-0.2657192615343577;-0.8397468776583557;0.889;0.015442177871441297
54:09.7;0.06700839007634028;-0.2680054641196621;-0.822407873007618;0.866;0.01476930610305094
54:09.7;0.06437827473933791;-0.2715382636162974;-0.8084542533437167;0.853;0.014132722146989714
54:09.7;0.06097621492895274;-0.27623804120191114;-0.7979787380997069;0.83;0.013441114102771651
54:09.7;0.056478296018156654;-0.2819860383629326;-0.7908731460588593;0.804;0.012595517652186673
54:09.7;0.05057987673082965;-0.2886279225674774;-0.7868181460594923;0.8;0.011486573011056423
54:09.7;0.043007942518042686;-0.2959810646628187;-0.7852912861197027;0.83;0.00999639418045268
54:09.8;0.033550946531832535;-0.3038451104669793;-0.7856010206777084;0.85;0.008008645458079328
54:09.8;0.022107507734975884;-0.31201370657549515;-0.7869456121269667;0.868;0.0054282291954774985
54:09.8;0.008743749631798548;-0.3202843671592003;-0.788485868723593;0.868;0.002208143886838726
54:09.8;-0.00625856568876732;-0.32846618990068377;-0.7894169619755435;0.857;0.0016228259414250272
54:09.8;-0.022379693796012887;-0.3363898122567293;-0.7890290250376972;0.833;0.005940047993804808
54:09.8;-0.03887323953950045;-0.34392509030846313;-0.7867558796916496;0.871;0.01051851890174384
54:09.8;-0.054810443188832866;-0.35100608532424943;-0.7822194078122559;0.863;0.01504896203792538
54:09.8;-0.0691541131650911;-0.3576545360623124;-0.7752775793385623;0.847;0.019175159200297956
54:09.8;-0.08085849389103231;-0.36399113535933403;-0.7660785985584294;0.905;0.022547052941136063
54:09.8;-0.08898445076505929;-0.3702293440834567;-0.7551163617310968;0.95;0.024877047901550393
54:09.9;-0.09280639029507845;-0.37665016728687145;-0.7432721422187367;0.932;0.02598148090431349
54:09.9;-0.0918811783924503;-0.38355611636842485;-0.7318174576358004;0.8690000000000001;0.025790409297761052
54:09.9;-0.08606085609908123;-0.3912065859823406;-0.7223551933154709;0.8690000000000001;0.02431994670942141
54:09.9;-0.07545335959545614;-0.3997457699882233;-0.7166914408913597;0.8340000000000001;0.021616962863768817
54:09.9;-0.06035142281812391;-0.4091371436738116;-0.7166472601887125;0.775;0.01769546041813794
54:09.9;-0.04115332370815218;-0.4191127648081347;-0.723833315399686;0.691;0.01248459253845545
54:09.9;-0.018295684107956248;-0.42914502064389437;-0.7394253868791437;0.652;0.005805599707395362
54:09.9;0.00778816693394278;-0.43846015675235694;-0.7639905612118884;0.769;0.002608875651945849
54:09.9;0.036678034314032784;-0.4461181240586351;-0.79740658473309;1.008;0.013047753320873847
54:09.9;0.06794425851159758;-0.4511591210922928;-0.8388823233284752;0.998;0.02571482354678347
54:10.0;0.1010986595733462;-0.4527750260973346;-0.8870488852889024;0.9570000000000001;0.04060461679867573
54:10.0;0.13553310075868427;-0.4504444220995993;-0.9400861364632732;1.133;0.05739238013403124
54:10.0;0.1704623875222195;-0.4439919298582365;-0.9958708460889274;1.133;0.07537141383177376
54:10.0;0.20488291546319903;-0.43356994016062084;-1.052139171127414;1.148;0.0934626519346071
54:10.0;0.2375548912555788;-0.4195847864354578;-1.1066460575781352;1.236;0.1103043020687706
54:10.0;0.267021135906629;-0.4026014162667766;-1.1573029382835616;1.273;0.12441363902577386
54:10.0;0.2916811239677319;-0.3832668857348004;-1.2022799467236487;1.311;0.13440493836953638
54:10.0;0.3099326659904794;-0.36228425166055966;-1.240061334549221;1.3719999999999999;0.13923870458636273
54:10.0;0.3203719157719527;-0.3404411684259068;-1.269451707090214;1.357;0.13845629136145812
54:10.0;0.3220128163943978;-0.31866491094947463;-1.2895484503429813;1.367;0.13232596384432416
54:10.1;0.31446642861592355;-0.298051374893609;-1.2997141685351792;1.3869999999999998;0.12181850665993654
54:10.1;0.2980242410646745;-0.2798120898832501;-1.2995892032162437;1.4040000000000001;0.10837376478005689
54:10.1;0.27362341419270036;-0.2651196278195358;-1.2891623526151001;1.4040000000000001;0.09351962427410303
54:10.1;0.2427220356933154;-0.25490143376134783;-1.2688731784809206;1.435;0.07850543086069078
54:10.1;0.2071404950458452;-0.24967450053040607;-1.2396873755198332;1.361;0.06411377933487321
54:10.1;0.16890908135284183;-0.24948365700653347;-1.203092472019209;1.32;0.05069838332298262
54:10.1;0.13012909558294639;-0.25394268254267693;-1.1609920258843276;1.199;0.03836536649096805
54:10.1;0.0928401928985759;-0.26234040951704013;-1.115509449263449;1.055;0.027169051671350055
54:10.1;0.05889274678184301;-0.27377251421066423;-1.0687404531628593;0.978;0.01723153248519854
54:10.1;0.029833924602418536;-0.2872706409189289;-1.0225137454062383;0.9470000000000001;0.008763362684877108
54:10.2;0.0068169616136816045;-0.30190970407482015;-0.9782215461700287;0.971;0.0020132844781726622
54:10.2;-0.009462995623413987;-0.3168821042059932;-0.9367564117093461;0.986;0.002809008328435783
54:10.2;-0.018803748177873416;-0.3315362745501311;-0.8985510915390621;0.986;0.005601679480717628
54:10.2;-0.021491836453332372;-0.3453840353053589;-0.8636875829102152;0.961;0.006411098688685985
54:10.2;-0.018247522154668107;-0.35808535981721823;-0.832032669623309;0.9640000000000001;0.005436643355280522
54:10.2;-0.010117617127282501;-0.36942170184053075;-0.8033641325920394;0.919;0.0030027078786943467
54:10.2;0.0016705752731331941;-0.37926884932236954;-0.7774644397182591;0.853;0.0004925992622097072
54:10.2;0.015871255155423043;-0.38757669380759835;-0.7541745198532932;0.855;0.004639175293150391
54:10.2;0.03137121030038933;-0.39435855685526255;-0.7334156784769407;0.882;0.009073455895341339
54:10.2;0.04730407564614673;-0.3996865481219243;-0.715192726943983;0.836;0.013522007785887571
54:10.3;0.0631077159109593;-0.4036828247816476;-0.699586198039173;0.773;0.017822308904840673
54:10.3;0.07851532426607605;-0.40649674997706287;-0.6867405397174998;0.7829999999999999;0.021918164989969305
54:10.3;0.09348640343207369;-0.408268496207762;-0.676860039262726;0.7829999999999999;0.025834091655716346
54:10.3;0.10809985320198208;-0.40909256722364323;-0.6702192986243719;0.838;0.029639005139536663
54:10.3;0.12243803543132281;-0.4089979148435534;-0.6671777284230078;0.836;0.03341019318170851
54:10.3;0.13648552042224518;-0.4079521601013566;-0.6681746337129779;0.797;0.037203671531849426
54:10.3;0.1500583641909444;-0.4058849330858987;-0.6736864875351886;0.795;0.04103183829449777
54:10.3;0.16277518893603943;-0.4027194967944912;-0.6841462803888679;0.815;0.04484766473101912
54:10.3;0.17407560555193008;-0.3984045103984404;-0.6998396854209423;0.762;0.04853563626368965
54:10.3;0.18327992533347387;-0.3929443121653912;-0.7207990872234203;0.708;0.051911088325875376
54:10.4;0.18967168601295947;-0.38643037905793054;-0.7467252136435776;0.843;0.054731150998407176
54:10.4;0.19258277914927852;-0.37907267526192934;-0.7769712741171568;0.943;0.05672113237539031
54:10.4;0.19147121306484885;-0.371217886648872;-0.8106034940932652;0.943;0.05761570152009493
54:10.4;0.18598865299920417;-0.3633352566423592;-0.8465141758290373;1.01;0.05720424085128647
54:10.4;0.17602962594642088;-0.355960402933616;-0.8835453614619684;1.044;0.05536257823855518
54:10.4;0.16174860442624342;-0.3496067785546367;-0.9205893751721179;0.965;0.05205786407484371
54:10.4;0.1435394480437726;-0.344671995497642;-0.9566489884952967;0.981;0.047329278833304025
54:10.4;0.12198851834503704;-0.3413734650959675;-0.9908595222688907;1.053;0.0412630004159708
54:10.4;0.09781927961989871;-0.33973696652336566;-1.0224913586451287;1.09;0.03398027671875348
54:10.4;0.07183643818745093;-0.3396361933616254;-1.0509509912904755;1.069;0.025641369658623046
54:10.4;0.04486735950153555;-0.34085993978008444;-1.075789935064598;1.0959999999999999;0.016452577727541693
54:10.5;0.017702469449527608;-0.3431809263160074;-1.0967280789763512;1.245;0.006662787439585592
54:10.5;-0.008950361592239543;-0.34640926711428127;-1.1136917376733166;1.245;0.0034529880906208647
54:10.5;-0.034477428971964534;-0.35041907119191396;-1.1268479583213729;1.24;0.013614068415460751
54:10.5;-0.05832994245862165;-0.3551386230000648;-1.1366052295455957;1.227;0.023545022205300453
54:10.5;-0.07996990456486977;-0.3605039757882187;-1.1435615493637405;1.249;0.032968271709837765
54:10.5;-0.09882293970401691;-0.3663937115541991;-1.1483966472036837;1.246;0.04158126485031897
54:10.5;-0.11426966538139595;-0.37257540153733043;-1.1517104418454012;1.147;0.0490329968972687
54:10.5;-0.12569114367955633;-0.3786879189936017;-1.1538193839300135;1.025;0.05491916923917155
54:10.5;-0.13255695860298333;-0.3842617129039211;-1.1545533977387044;1.028;0.05880898300083291
54:10.5;-0.1345193571044993;-0.38876200669944017;-1.1531289731575973;1.13;0.060304050316878015
54:10.6;-0.1314733824026333;-0.391640354053876;-1.1481662305328058;1.192;0.059119403030703094
54:10.6;-0.12356770958065283;-0.39238797944329307;-1.1378639383906668;1.192;0.05517102151413621
54:10.6;-0.11118223322999028;-0.39058618861657973;-1.120292429341996;1.244;0.04865009319365192
54:10.6;-0.09489766412772994;-0.3859471618427998;-1.0937454906482944;1.2919999999999998;0.0400589581161326
54:10.6;-0.07546872066727182;-0.3783404925384262;-1.0570941183848777;1.295;0.030183074056850587
54:10.6;-0.053798671515439794;-0.36780569525924967;-1.01008408513657;1.256;0.019986996189657796
54:10.6;-0.030911751896737227;-0.3545530666843749;-0.9535212382094801;1.146;0.010450455875233267
54:10.6;-0.007924599176144216;-0.33895324815816236;-0.889307498817781;1.053;0.002388740975981404
54:10.6;0.01398259864846795;-0.3215122337269815;-0.8203215234984645;0.99;0.00368781818380884
54:10.6;0.0336041215360053;-0.30282751908860317;-0.7501618006347931;0.861;0.00763383609108101
54:10.7;0.04977407293450092;-0.2835257130715273;-0.6827798463125988;0.593;0.00963554590363257
54:10.7;0.06146802265318655;-0.26419180499346706;-0.622043395161799;0.593;0.010101579074393189
54:10.7;0.06792240442926346;-0.2453086117169123;-0.5712910615565336;0.479;0.009518823523010686
54:10.7;0.06873364101636541;-0.22722187562071255;-0.5329503916433892;0.386;0.008323505607640428
54:10.7;0.06390420775767179;-0.21013412949793048;-0.508281970732845;0.335;0.00682544160607055
54:10.7;0.05382383057599891;-0.19412365012139615;-0.4972954975522899;0.498;0.005195981291908058
54:10.7;0.039197939341087874;-0.1791856020686265;-0.49885318072101814;0.617;0.0035037982584768274
54:10.7;0.020953067036289404;-0.1652883726916797;-0.5109229637007066;0.589;0.0017694786588620937
54:10.7;0.00014851916741885954;-0.15243079221206154;-0.5309003146363018;0.644;1.2018996132547751e-05
54:10.7;-0.022096524869647437;-0.14068578075482524;-0.5559195548089223;0.6409999999999999;0.001728168693110641
54:10.8;-0.0446716662535602;-0.13021954623070695;-0.5831121370204078;0.644;0.003392035670458392
54:10.8;-0.06655031484863377;-0.12127905311462583;-0.6098027193567797;0.644;0.004921814809814284
54:10.8;-0.08686716464296133;-0.11414850639793521;-0.6336508626905751;0.6659999999999999;0.006283128040022673
54:10.8;-0.10498693128587924;-0.1090846776131071;-0.652752853415865;0.6829999999999999;0.007475629568308621
54:10.8;-0.1205540988590906;-0.1062450860732525;-0.6657181760974713;0.7040000000000001;0.008526705206479008
54:10.8;-0.1335117474206007;-0.10562457081091874;-0.6717299471532829;0.742;0.009472817007189178
54:10.8;-0.14407785560531894;-0.1070147090168096;-0.6705897753914575;0.7659999999999999;0.01033945478381986
54:10.8;-0.15267914588264778;-0.1099944403511419;-0.6627355112888292;0.799;0.011129885541036761
54:10.8;-0.1598585581164932;-0.11395327322792156;-0.6492084176987157;0.7809999999999999;0.011826244083521995
54:10.8;-0.16618027728342105;-0.11814356907571648;-0.63154257238444;0.6920000000000001;0.012399158098806994
54:10.9;-0.17215385431904875;-0.12175282783943703;-0.6115638414124959;0.527;0.012818511795790634
54:10.9;-0.1781885282061426;-0.12398156724178468;-0.5911216844365955;0.527;0.013059115221868055
54:10.9;-0.18457335280909135;-0.12411191106045331;-0.5718151662186113;0.528;0.01309899975909804
54:10.9;-0.19146774802616306;-0.1215565217374464;-0.5547815742660213;0.524;0.012912071504548518
54:10.9;-0.19889017737627915;-0.1158828693898296;-0.5405861442570753;0.52;0.012459410233818677
54:10.9;-0.20670953235404607;-0.10681109189845742;-0.5292136770359196;0.5670000000000001;0.011684440430798766
54:10.9;-0.21466254038481916;-0.09418637222823888;-0.5201391708640083;0.552;0.01051632248103679
54:10.9;-0.2224229115857197;-0.07793139169428308;-0.5124455743363898;0.561;0.00888259171074469
54:10.9;-0.22972709649824985;-0.05798994758207532;-0.5049618290752921;0.557;0.0067270319456762965
54:10.9;-0.23653014696710395;-0.03427672632150979;-0.4964116967558631;0.586;0.004024647463581062
54:11.0;-0.24314196708875624;-0.006649119302059068;-0.48557885124981875;0.7120000000000001;0.0007850255912651674
54:11.0;-0.25029103749554477;0.025087010795253873;-0.47148647984364644;0.7120000000000001;0.002960489048162954
54:11.0;-0.25908077304115334;0.06113540972364359;-0.4535609978954363;0.603;0.0071839568235927045
54:11.0;-0.2708371973028907;0.10163948715048837;-0.43173260903034316;0.493;0.011884628983990649
54:11.0;-0.2868867632342464;0.14659753033348108;-0.40644528622808884;0.518;0.017093825090403324
54:11.0;-0.3083330147149483;0.19578059827804598;-0.3785812497275046;0.496;0.022853292651321917
54:11.0;-0.33590131850512117;0.24867985730671724;-0.34931582894205926;0.406;0.02917901208135646
54:11.0;-0.36989314177157784;0.3045129999838268;-0.3199200925801797;0.455;0.036034925934134744
54:11.0;-0.4102538190766891;0.3623029032623742;-0.2915507404757652;0.625;0.043334979514070705
54:11.0;-0.4567219465146335;0.42101245448394387;-0.26509677240387775;0.922;0.05097429928791024
54:11.1;-0.5089999040753621;0.4796876500083981;-0.24115236787928263;1.0070000000000001;0.05887999553841236
54:11.1;-0.566873624354174;0.5375395615869224;-0.22013703132970286;1.0070000000000001;0.06707949566794312
54:11.1;-0.6302223789545508;0.593918215578439;-0.2024992400986829;0.904;0.07579557709059134
54:11.1;-0.6988995542056107;0.6482027438410681;-0.1888719865932533;0.8270000000000001;0.08556441330976201
54:11.1;-0.7725274923093887;0.6996907952670504;-0.1800618391814071;0.899;0.09732889353867503
54:11.1;-0.8502993451657758;0.7475619895974873;-0.17684808594504878;0.961;0.11241374583754785
54:11.1;-0.9308828774085495;0.79093358453666;-0.1796792781715149;1.172;0.13229183883417925
54:11.1;-1.0124781605839288;0.8289763970799391;-0.18840752874759462;1.432;0.15813430079565324
54:11.1;-1.0930185838790998;0.8610394172724384;-0.2021715382129194;1.57;0.19027012119120518
54:11.1;-1.1704477793617167;0.8867314689604037;-0.21946507849720415;1.6569999999999998;0.22777685280166474
54:11.2;-1.242978883736083;0.9059256527951175;-0.23835459552650412;1.682;0.2683983477210466
54:11.2;-1.3092578203777459;0.9186900335978622;-0.2567598194143553;1.682;0.30883125280927887
54:11.2;-1.368394413922736;0.9251838227869041;-0.2727043902235976;1.652;0.3452482235447243
54:11.2;-1.4198723463181608;0.9255660747291109;-0.2844861579243331;1.5819999999999999;0.3738676332518206
54:11.2;-1.4633891501712788;0.9199479087931657;-0.29077519358248777;1.5730000000000002;0.3914537166455798
54:11.2;-1.4987028354150402;0.9084015912690583;-0.29067330919436124;1.662;0.3957296310777505
54:11.2;-1.5255605959052327;0.8910253232790303;-0.28375123420275633;1.837;0.38570677636130796
54:11.2;-1.5437475874673858;0.8680415340663876;-0.2700518588461136;1.9369999999999998;0.3618794892636642
54:11.2;-1.5532302118052885;0.8398869867680876;-0.2500431251603889;1.949;0.3261907189912603
54:11.2;-1.5543150739923972;0.8072566148727245;-0.22452227814761636;1.9040000000000001;0.28171509066495387
54:11.3;-1.5477372031632783;0.7710892263605559;-0.19449281319789863;1.7830000000000001;0.23211618032291453
54:11.3;-1.534630977126216;0.7325083249245733;-0.1610397762614015;1.67;0.1810296382829599
54:11.3;-1.5163939388388428;0.6927398809449361;-0.1252182139103189;1.67;0.13153754599709264
54:11.3;-1.4944911453256406;0.6530242155958804;-0.08795538671472398;1.554;0.08583908405352164
54:11.3;-1.4702525534495603;0.6145301692853686;-0.04996211223267085;1.486;0.045141495379109935
54:11.3;-1.4447045931667981;0.5782752851388464;-0.011657229426111694;1.46;0.00973888032024226
54:11.3;-1.418465591431266;0.5450602692220922;0.026874792209410747;1.474;0.02077822509521156
54:11.3;-1.3917183506046158;0.5154322262723875;0.0658606732117483;1.526;0.04724426400561355
54:11.4;-1.3642497667552271;0.4896881425706095;0.10571508406259576;1.391;0.07062369496651283
54:11.4;-1.3355337917941348;0.4679178667621729;0.14680345959917993;1.391;0.0917404360068063
54:11.4;-1.3048412891655279;0.4500747737435014;0.1891272737047207;1.391;0.11106993678160394
54:11.4;-1.2713721589296991;0.4360585547795371;0.23201516486752957;1.391;0.12862751513262832
54:11.4;-1.2344022615742913;0.42579452837181936;0.27390869540521595;1.357;0.14396688383508352
54:11.4;-1.1934274604348996;0.4192940040715935;0.312313339807221;1.308;0.15628065157064258
54:11.4;-1.1482867696300776;0.41668127211145856;0.34398232198399203;1.2919999999999998;0.16458508122676177
54:11.4;-1.0992543022677028;0.4181739736126839;0.3653975938082574;1.496;0.16796579768911876
54:11.4;-1.047089252449615;0.4240073431946749;0.37353095025843236;1.9709999999999999;0.16583785530459713
54:11.4;-0.9930207170157327;0.4343142004241073;0.36667297173164076;1.4869999999999999;0.1581398187962584
54:11.4;-0.9386429068209738;0.44901422770582483;0.34496069539219903;1.057;0.14538852138672637
54:11.4;-0.8857263702666753;0.4677807850757779;0.3103465687079678;1.03;0.12858458317131516
54:11.5;-0.8359901865897277;0.49009802335708647;0.266083264579438;0.8909999999999999;0.10901887363146719
54:11.5;-0.790893160709746;0.5153476572540691;0.21602968121151156;0.8909999999999999;0.0880504441169064
54:11.5;-0.7514878796898938;0.5428596851470959;0.16404956519683375;0.857;0.06692442594135233
54:11.5;-0.7183576819414469;0.5719160877666623;0.11361358055438488;0.828;0.0466770392315443
54:11.5;-0.6916339748069862;0.6017435280188912;0.06759020958674068;0.8170000000000001;0.028130117087873
54:11.6;-0.671076839732862;0.6315432037834388;0.028153600090863276;1.071;0.011931890357367247
54:11.6;-0.6561943131860317;0.660582114913364;-0.003262321679871276;1.071;0.0014141193197685612
54:11.6;-0.6463691115538236;0.6883155089660501;-0.025984810521621313;1.071;0.011560795095671142
54:11.6;-0.6409603314321586;0.7144715897612617;-0.040071613729046995;1.001;0.01835071323908168
54:11.6;-0.6393600941363451;0.7390495567197259;-0.04620763798357992;1.001;0.021833977380786528
54:11.6;-0.6410058622402609;0.7622315254126667;-0.045550042856072274;1.001;0.022255517548976454
54:11.6;-0.6453625854710456;0.7842372482530886;-0.039565987542547386;1.001;0.020025033879159798
54:11.6;-0.651888258048494;0.8051527342654993;-0.02989588701381436;1.001;0.01569144265929003
54:11.6;-0.6599903896741689;0.8247587860231097;-0.018252923299447048;1.001;0.009935666172471614
54:11.7;-0.6689784148362758;0.8423821298631179;-0.006355710747398401;1.001;0.0035816683918792683
54:11.7;-0.6780181755207693;0.8567900765610575;0.004114369303653983;1.001;0.002390116307531204
54:11.7;-0.6860961312348938;0.8661479908607155;0.011541633449283538;1.001;0.00685874016075249
54:11.7;-0.6920017383276179;0.8680564330768147;0.014401112149165302;1.001;0.008650698537619567
54:11.7;-0.6943363603769219;0.8596811463565217;0.011289475327929184;1.001;0.0067387767645030495
54:11.7;-0.6915559554242247;0.8379835506127726;0.0009682219318862623;1.001;0.0005610967268001992
54:11.7;-0.6820526759351687;0.8000496571500939;-0.017578227630800893;1.089;0.009592017108365344
54:11.7;-0.6642789220668223;0.7434965040573019;-0.045068603124843336;0.988;0.022258889864990025
54:11.7;-0.6369186057134402;0.6669102902478209;-0.08183316405166366;1.046;0.03476007441971758
54:11.7;-0.5991099280681796;0.5702532064710654;-0.1277051665520153;1.055;0.04362974957731063
54:11.7;-0.5507079411346886;0.4551704602536622;-0.18190795097499715;1.115;0.04559813608004773
54:11.7;-0.4925357252482864;0.32512320972394837;-0.24296773217450066;1.261;0.0389075882011835
54:11.7;-0.42652328096350284;0.18525954753183332;-0.30870144829625223;1.147;0.024392819791066018
54:41.8;-0.3556152553102021;0.04194124518479453;-0.3763403206739228;0.8640000000000001;0.005613095791704694
54:41.8;-0.2834025825096696;-0.09805894398381952;-0.4428160330244547;0.8640000000000001;0.012305927506380755
54:41.8;-0.2135855778139233;-0.22848921339000447;-0.5051446873296921;0.8640000000000001;0.024652071367567245
54:41.8;-0.14946702646434235;-0.34438376590333936;-0.5607778129872295;0.8640000000000001;0.02886548693249118
54:41.8;-0.09361164486964728;-0.44247856941889624;-0.6078283384166704;0.8640000000000001;0.0251769467757194
54:41.8;-0.04768735556999842;-0.5212810915120839;-0.6451663695959277;0.905;0.016037879013429786
54:41.8;-0.012444041807334948;-0.5808901428545916;-0.672421732811113;0.905;0.00486068200870659
54:41.8;0.012213314093188574;-0.6226687448252928;-0.6899231498703452;0.905;0.005246761346400007
54:41.8;0.02708682291502588;-0.6488562807966829;-0.6985890607508887;0.905;0.012278020723141695
54:41.8;0.033506787912885014;-0.6621860877777715;-0.6997810464403705;0.905;0.015526552079221698
54:41.8;0.033133234865605356;-0.6655535700209654;-0.6951328033665573;0.872;0.015329028784283482
54:41.9;0.0277582747525865;-0.6617591806271573;-0.6863712596444475;0.872;0.012608154882189882
54:41.9;0.01913002949911008;-0.6533307545193111;-0.6751521322852089;0.872;0.008438211094771478
54:41.9;0.008816432982022447;-0.6424158442393493;-0.662933027623048;0.872;0.003754730846110836
54:41.9;-0.0018822005959068789;-0.6307309906716408;-0.6508963543197229;0.872;0.0007727195782322755
54:41.9;-0.011974177281541914;-0.6195565791621916;-0.6399197601759659;0.872;0.004747360127890565
54:41.9;-0.020779567211340635;-0.6097668111734036;-0.6305839638778696;0.872;0.007989934200216538
54:41.9;-0.0279055499772505;-0.6018839618360748;-0.623206487220435;0.872;0.010467315694316805
54:41.9;-0.03320363782998848;-0.5961463062904058;-0.6178906442868489;0.872;0.012230667085805022
54:41.9;-0.0367173672807572;-0.5925802325692564;-0.6145806052583126;0.872;0.013372036231239615
54:41.9;-0.03862753624847943;-0.5910687709815668;-0.6131151699081406;0.872;0.01399835762601061
54:41.9;-0.03920036216872849;-0.591410776065567;-0.6132748479229027;0.872;0.014217867624701232
54:41.9;-0.03874223825774763;-0.5933670807895626;-0.6148187885991698;0.872;0.014133681068709497
54:41.9;-0.0375632109808184;-0.5966919522562776;-0.6175099200252135;0.872;0.013840660909654471
54:41.9;-0.0359499827157015;-0.6011500191788779;-0.6211282813334644;0.872;0.013423409998783485
54:41.9;-0.03414820657817717;-0.6065204646397206;-0.625473930794042;0.872;0.012954557183711655
54:41.9;-0.03235309610005369;-0.6125916657817102;-0.6303619825484349;0.872;0.012493293548799703
54:41.9;-0.03070690423532952;-0.6191506161987983;-0.6356132752659862;0.872;0.01208440587227898
54:41.9;-0.029301598756156084;-0.6259723945711518;-0.6410449213856638;0.872;0.01175804078005048
54:41.9;-0.02818502868850584;-0.6328156500432094;-0.6464655379243331;0.872;0.01153031230469914
54:41.9;-0.027369005238264604;-0.6394296757043448;-0.6516796302884503;0.943;0.011404754654309814
54:41.9;-0.026838009896157845;-0.645574476639634;-0.6565023050398178;0.943;0.011374515734516064
54:41.9;-0.02655764901561978;-0.6510472997649243;-0.6607792238660043;0.943;0.011425061551869418
54:41.9;-0.02648233598284779;-0.6557044502242411;-0.6644030383762378;0.943;0.011537083403741115
54:41.9;-0.026561876689194058;-0.6594711925643049;-0.6673206453688894;0.943;0.011689317273870148
54:41.9;-0.026746736472393118;-0.6623398548019154;-0.6695313360899101;0.943;0.011861035217055916
54:41.9;-0.026991891185606555;-0.664359899602958;-0.6710787655304624;0.943;0.012034005958781919
54:41.9;-0.027259305951280993;-0.6656237605198507;-0.6720396874422061;0.943;0.01219378495337906
54:41.9;-0.027519194721366633;-0.6662513763710187;-0.6725117195359028;0.943;0.012330301538611022
54:41.9;-0.02775027974815911;-0.6663755317793251;-0.6726017581149943;0.943;0.012437823964771328
54:41.9;-0.02793929862101434;-0.6661293688881622;-0.6724160847640703;0.943;0.012514461735804044
54:41.9;-0.028080005225055705;-0.6656368026035555;-0.672052721124953;0.943;0.012561394464527587
54:41.9;-0.028171887854509706;-0.665006063871942;-0.6715962018148706;0.943;0.012582003095156646
54:41.9;-0.02821879047572223;-0.664326214961419;-0.6711146511811675;0.943;0.012581038907844578
54:41.9;-0.028227578650597027;-0.6636662204448404;-0.6706588602784207;0.943;0.012563915476181384
54:41.9;-0.028206945611972813;-0.66307600394297;-0.6702629542802659;0.943;0.01253616180809879
54:41.9;-0.02816641085409259;-0.6625888562158063;-0.6699462024154839;0.943;0.012503038456649027
54:41.9;-0.028115526514646542;-0.6622245660774302;-0.6697155361315902;0.943;0.012469294498258275
54:41.9;-0.028063277765285343;-0.6619927036417879;-0.669568390569647;0.943;0.012439030726905144
54:41.9;-0.028017643381746143;-0.6618955793378025;-0.6694955551179159;0.943;0.01241563057315829
54:41.9;-0.02798527180900086;-0.6619305184539399;-0.6694837985924906;0.943;0.012401722397435592
54:41.9;-0.027971225917623646;-0.6620912191369719;-0.6695181138977974;0.943;0.012399142764783485
54:41.9;-0.027978755335207103;-0.6623680939481441;-0.6695834989787015;0.943;0.012408878649684329
54:41.9;-0.028009067440193453;-0.6627476255661815;-0.669666251152109;0.943;0.012430976409188747
54:41.9;-0.02806108524618653;-0.663210891610466;-0.6697547983651987;0.943;0.012464416330243642
54:41.9;-0.02813120065293725;-0.6637315277963174;-0.6698401232149178;0.943;0.01250696325828882
54:41.9;-0.028213052826313194;-0.664273498149187;-0.6699158546471458;0.943;0.012555015823768712
54:41.9;-0.02829738148623741;-0.6647891199280958;-0.6699781099816351;0.943;0.0126034884036608
54:41.9;-0.028372021094393983;-0.6652178415908246;-0.670025168611159;0.943;0.012645770026429158
54:41.9;-0.02842211162111919;-0.6654862850052177;-0.6700570508844721;0.943;0.012673811158485001
54:41.9;-0.028430601912540637;-0.6655100269785065;-0.6700750636877675;0.943;0.01267839020153134
54:41.9;-0.028379109903608483;-0.6651974979892473;-0.6700813601985642;0.943;0.012649603539508525
54:41.9;-0.028249177527351198;-0.6644562061047659;-0.6700785469304332;0.943;0.012577603040714834
54:41.9;-0.028023915207130018;-0.6632012418639366;-0.6700693578244995;0.943;0.012453570945588969
54:41.9;-0.02768997023314567;-0.6613656798946715;-0.6700564036625902;0.943;0.012270874244297634
54:41.9;-0.0272396753239095;-0.6589120659496965;-0.6700419959838682;0.943;0.012026282765176519
54:41.9;-0.02667314007316173;-0.6558436729001695;-0.6700280381659001;0.943;0.011721075285889306
54:41.9;-0.0259999424749974;-0.6522136449210283;-0.6700159723131472;0.943;0.011361807407843634
54:41.9;-0.025239965985621393;-0.6481295551281434;-0.6700067688286256;0.943;0.010960485239922494
54:41.9;-0.024422817152178335;-0.6437503177203668;-0.6700009456575495;0.943;0.010533886389712251
54:41.9;-0.02358528490614906;-0.6392725468530089;-0.6699986057514665;0.9129999999999999;0.010101853828961282
54:41.9;-0.022766853394714258;-0.634906426689623;-0.6699994838539229;0.9129999999999999;0.009684722968189613
54:41.9;-0.02200436415217612;-0.6308469947838616;-0.6700029968112292;0.9129999999999999;0.009300570888241558
54:41.9;-0.021327536155071245;-0.6272500448728174;-0.6700082948527857;0.9129999999999999;0.008963168632933307
54:41.9;-0.020756438308369603;-0.6242185632978586;-0.6700143142959757;0.9129999999999999;0.008681076710971054
54:41.9;-0.020300923785150023;-0.6217997860625392;-0.6700198345909323;0.9129999999999999;0.008457734118764854
54:41.9;-0.01996148379304269;-0.6199899987256251;-0.6700235442627412;0.9129999999999999;0.008292157990564259
54:41.9;-0.01973095139985118;-0.6187440530439868;-0.6700241209203102;0.9129999999999999;0.008179928400560489
54:41.9;-0.019596595894755167;-0.6179871555978518;-0.6700203299305993;0.9129999999999999;0.00811424405728555
54:41.9;-0.019542259705779073;-0.6176270679439224;-0.6700111445228532;0.9129999999999999;0.008086919649743177
54:41.9;-0.019550295718623916;-0.6175654051207198;-0.6699958869926586;0.9129999999999999;0.00808925315937117
54:41.9;-0.019603157377557884;-0.6177072000394171;-0.6699743864244111;0.9129999999999999;0.0081127275201874
54:41.9;-0.019684573600259485;-0.617968297215034;-0.669947143168275;0.9129999999999999;0.008149533453648258
54:41.9;-0.019780303552366818;-0.6182804429781679;-0.6699154845581916;0.9129999999999999;0.00819291553971795
54:41.9;-0.019878512502936423;-0.6185941526223435;-0.6698816905569696;0.9129999999999999;0.00823735535062188
54:41.9;-0.01996984029808868;-0.6188795671047329;-0.6698490628334459;0.9129999999999999;0.008278615078327261
54:41.9;-0.02004725021664651;-0.6191255773349987;-0.6698219070268885;0.9129999999999999;0.0083136723459262
54:41.9;-0.020105750309668078;-0.6193375102101154;-0.6698053965541155;0.9129999999999999;0.008340581126404662
54:41.9;-0.02014207410997172;-0.6195336559008897;-0.6698052882314439;0.9129999999999999;0.008358294434874429
54:41.9;-0.020154395077865487;-0.6197408883195056;-0.6698274661414823;0.9129999999999999;0.008366481780468853
54:41.9;-0.02014213135805485;-0.6199896059192225;-0.669877301339588;0.9129999999999999;0.008365368845562006
54:41.9;-0.020105876125603255;-0.6203082104026776;-0.6699588316278864;0.9129999999999999;0.008355619380142459
54:41.9;-0.020047465515057768;-0.6207173546996262;-0.6700737877183007;0.9129999999999999;0.008338270741498262
54:41.9;-0.019970172204717626;-0.6212242319318135;-0.6702205190095815;0.9129999999999999;0.008314725524797706
54:41.9;-0.01987898945440308;-0.6218172418274359;-0.6703929024585177;0.9129999999999999;0.008286792629160449
54:41.9;-0.019780949116576806;-0.622461452394861;-0.6705793492311276;0.9129999999999999;0.008256761928877508
54:41.9;-0.019685399373168738;-0.6230953593175335;-0.6707620525525158;0.9129999999999999;0.008227487513063248
54:41.9;-0.0196041554546847;-0.6236295151204806;-0.6709166419951643;0.9129999999999999;0.008202445691072915
54:41.9;-0.01955143140089985;-0.6239476321073945;-0.6710124190193602;0.9129999999999999;0.008185727018829133
54:41.9;-0.019543465266667816;-0.6239107319520529;-0.6710133399338843;0.9129999999999999;0.00818191910857419
54:41.9;-0.019597766389549895;-0.6233647942856956;-0.6708798793873726;0.9129999999999999;0.0081958426985293
54:41.9;-0.01973194361244735;-0.622152121821269;-0.6705718441975321;0.9129999999999999;0.008232121406816995
54:41.9;-0.019962119458476008;-0.6201262701780962;-0.6700521090315359;0.9129999999999999;0.008294598298213763
54:41.9;-0.020300998162571107;-0.6171698741653542;-0.6692911093502977;0.9129999999999999;0.00838565839500535
54:41.9;-0.02075573497345904;-0.613214037738173;-0.6682717531199757;0.9129999999999999;0.008505567771303752
54:41.9;-0.021325848501785788;-0.6082571555942013;-0.666994204716355;0.9129999999999999;0.008651981992768457
54:41.9;-0.022001523519050225;-0.6023801308440743;-0.6654797601185003;0.9129999999999999;0.008819790005234944
54:41.9;-0.022762762953892197;-0.5957539937342027;-0.6637727843673191;0.9129999999999999;0.009001427334197684
54:41.9;-0.023579957488683505;-0.5886349760977254;-0.6619394370514669;0.9129999999999999;0.00918771125285014
54:41.9;-0.024416414073422037;-0.5813423375267489;-0.6600619732668785;0.853;0.009369114519612887
54:41.9;-0.025232832755107105;-0.5742190689294958;-0.6582286494255564;0.853;0.009537189256308467
54:41.9;-0.025992636137373598;-0.5675850910862764;-0.6565217043663025;0.853;0.009685686205341656
54:41.9;-0.02666644197796899;-0.5616979321900895;-0.6550072666030967;0.853;0.009811016725927173
54:41.9;-0.027234582541819794;-0.5567304981869904;-0.65372965817548;0.853;0.009912060040015602
54:41.9;-0.027687658827312923;-0.5527660546298793;-0.6527101244845839;0.853;0.009989596563349627
54:41.9;-0.028025669340953963;-0.5498057072037924;-0.6519487775362325;0.853;0.010045665494422588
54:41.9;-0.028256280141006344;-0.5477834267016616;-0.651428478255679;0.853;0.010083019721320042
54:41.9;-0.02839269357642156;-0.5465846167506806;-0.651119628631987;0.853;0.010104731726459818
54:41.9;-0.028451462627354752;-0.5460651868547343;-0.6509850924035124;0.853;0.010113934359903695
54:41.9;-0.028450493429533007;-0.5460690043667811;-0.6509846971165307;0.853;0.010113654391580004
54:41.9;-0.02840738596918592;-0.5464424083234065;-0.6510789782309613;0.853;0.010106699241577654
54:41.9;-0.02833818557844675;-0.5470451447882408;-0.6512319996164027;0.853;0.010095572228109716
54:41.9;-0.028256557351810062;-0.5477576131968722;-0.6514132206693489;0.853;0.010082407336240412
54:41.9;-0.02817335193289661;-0.5484846960592951;-0.6515984784296049;0.853;0.010068924773222772
54:41.9;-0.02809650302891303;-0.5491566910794903;-0.6517702163415745;0.853;0.01005641205755037
54:41.9;-0.028031182384221576;-0.5497279936198936;-0.6519171244868959;0.853;0.010045733652023166
54:41.9;-0.027980134189433112;-0.5501742110359578;-0.6520333650877742;0.853;0.010037367880967867
54:41.9;-0.02794411526572202;-0.5504883527121096;-0.6521175480756894;0.853;0.010031465538833986
54:41.9;-0.027922377191942818;-0.55067665379627;-0.6521716005331177;0.853;0.010027921771568608
54:41.9;-0.02791313946399409;-0.5507544773701559;-0.6521996461817858;0.853;0.010026452040247187
54:41.9;-0.027914016818063308;-0.5507426163895239;-0.6522069812177672;0.853;0.010026664016975882
54:41.9;-0.027922377486973994;-0.5506641965807596;-0.6521992040347884;0.853;0.010028119456767534
54:41.9;-0.027935621316954873;-0.5505422740901214;-0.652181531019323;0.853;0.010030382698115538
54:41.9;-0.027951376689721932;-0.5503981329704869;-0.6521583099408003;0.853;0.010033054875838202
54:41.9;-0.02796762276393226;-0.5502502204241239;-0.6521327269399418;0.853;0.010035794825241562
54:41.9;-0.027982748642682014;-0.5501136125460994;-0.6521066924986972;0.853;0.010038328887357584
54:41.9;-0.027995563865051178;-0.5499998788157483;-0.6520808853235801;0.853;0.010040452426376866
54:41.9;-0.028005275416878916;-0.5499172072943445;-0.652054929751182;0.853;0.010042025966270705
54:41.9;-0.02801144563643072;-0.5498706613007945;-0.6520276809204608;0.853;0.010042968592876494
54:41.9;-0.028013943353644377;-0.5498624589101955;-0.6519975914074871;0.853;0.01004325078457085
54:41.9;-0.028012897733904682;-0.5498921956396465;-0.6519631323009747;0.853;0.010042888231655833
54:41.9;-0.028008660952148576;-0.5499569650175667;-0.6519232400955828;0.853;0.010041937552132254
54:41.9;-0.0280017823116152;-0.5500513684657676;-0.65187775792888;0.853;0.010040494155790173
54:41.9;-0.02799299301277902;-0.5501674423376051;-0.6518278356247261;0.853;0.010038691881872527
54:41.9;-0.027983197705278132;-0.550294563445888;-0.6517762481958258;0.853;0.010036703466027334
54:41.9;-0.027973466425625322;-0.550419422406576;-0.6517275877852063;0.853;0.010034740410922123
54:41.9;-0.02796501872460358;-0.5505261740161002;-0.6516882807478867;0.853;0.010033050480733888
54:41.9;-0.027959190895691505;-0.550596883039549;-0.6516663812354798;0.853;0.010031910861927703
54:41.9;-0.027957377390645636;-0.550612379635909;-0.6516710969512453;0.853;0.010031615089268064
54:41.9;-0.02796093888877201;-0.550553618846091;-0.6517120133757875;0.853;0.010032452186721639
54:41.9;-0.02797107217109876;-0.5504036013146537;-0.65179800116787;0.853;0.010034677165305329
54:41.9;-0.027988640973614434;-0.5501498568344823;-0.6519358185611295;0.853;0.010038473067273103
54:41.9;-0.02801397229266189;-0.5497874189361065;-0.6521284565525999;0.853;0.010043906100724812
54:41.9;-0.028046628996320128;-0.54932213006917;-0.6523733185663605;0.853;0.010050876938460367
54:41.9;-0.028085176696711997;-0.5487740178739776;-0.6526603757545058;0.853;0.010059072733933146
54:41.9;-0.028126970100753414;-0.5481803814290422;-0.6529704902457832;0.853;0.010067925537806865
54:41.9;-0.02816799070591673;-0.5475981331412655;-0.6532741458156319;0.853;0.010076583276248345
54:41.9;-0.02820277275158253;-0.5471048712130957;-0.6535308612571313;0.853;0.010083899075728717
54:41.9;-0.02822445659195165;-0.5467981262480602;-0.6536895772929687;0.853;0.0100884435277023
54:41.9;-0.028225006803195302;-0.5467922523905082;-0.6536902932186697;0.853;0.010088542867194652
54:41.9;-0.028195625009533522;-0.547212537958183;-0.6534671742637279;0.853;0.010082344718563169
54:41.9;-0.028127373325409766;-0.5481863111905774;-0.652953245149116;0.853;0.010067912875495036
54:41.9;-0.02801200242083062;-0.5498311284302769;-0.652086621567647;0.853;0.0100433539614174
54:41.9;-0.027842947908880176;-0.5522405636078799;-0.65081800459438;0.853;0.010006981052642337
54:41.9;-0.027616420036758686;-0.5554686692455448;-0.6491188733178385;0.853;0.009957519923919588
54:41.9;-0.027332465350311856;-0.5595148387438136;-0.6469894643148849;0.853;0.009894358081700036
54:41.9;-0.026995826861180905;-0.5643115423592828;-0.6444652361514209;0.853;0.009817819944389884
54:41.9;-0.026616374047587675;-0.5697181955321843;-0.6416201036347537;0.853;0.009729419840463178
54:41.9;-0.026208819477149124;-0.5755251951858533;-0.6385643178996788;0.853;0.009631999411642637
54:41.9;-0.0257914525070992;-0.5814719646517297;-0.6354349712304008;0.8690000000000001;0.009529622432329177
54:41.9;-0.0253838964716148;-0.5872789153653021;-0.6323791753923165;0.8690000000000001;0.009427146512112362
54:41.9;-0.025004438208170054;-0.592685503569029;-0.6295340306865234;0.8690000000000001;0.009329548314903515
54:41.9;-0.02466778551806778;-0.5974821891079406;-0.6270098035572551;0.8690000000000001;0.00924122317268749
54:41.9;-0.024383801409734725;-0.6015284745288986;-0.6248804299608367;0.8690000000000001;0.009165465491126953
54:41.9;-0.02415722152546221;-0.6047569326098609;-0.6231813932691945;0.8690000000000001;0.009104211018550199
54:41.9;-0.02398808518787256;-0.6071670630188722;-0.6219129556267007;0.8690000000000001;0.009058022411929307
54:41.9;-0.023872596819393785;-0.6088130139173578;-0.6210466188964195;0.8690000000000001;0.009026259028400712
54:41.9;-0.02380418900797147;-0.609788427600661;-0.6205331000358622;0.8690000000000001;0.009007359994689232
54:41.9;-0.023774613661329137;-0.6102108833551297;-0.620310519282079;0.8690000000000001;0.008999172229478538
54:41.9;-0.023774939799051292;-0.6102076684901271;-0.620311890069942;0.8690000000000001;0.008999268153783888
54:41.9;-0.023796382807303222;-0.6099039494313006;-0.6204713463914666;0.8690000000000001;0.009005215760494682
54:41.9;-0.02383092866510287;-0.6094138639040438;-0.6207288331377956;0.8690000000000001;0.009014781726848782
54:41.9;-0.02387174693340292;-0.6088346241158767;-0.6210332117876575;0.8690000000000001;0.009026063208538304
54:41.9;-0.023913408177080462;-0.6082434094524476;-0.6213438976271727;0.8690000000000001;0.009037554434554076
54:41.9;-0.02395193558789904;-0.6076966266140135;-0.6216312502069737;0.8690000000000001;0.009048160163184915
54:41.9;-0.02398472794388845;-0.6072310103130082;-0.6218759938796729;0.8690000000000001;0.009057170242971714
54:41.9;-0.02401039296861593;-0.6068660101630385;-0.6220679597422593;0.8690000000000001;0.009064209088034054
54:41.9;-0.024028528012996955;-0.6066069396176144;-0.6222044244591153;0.8690000000000001;0.009069171950118013
54:41.9;-0.024039480094107443;-0.6064484318683127;-0.6222882852166436;0.8690000000000001;0.009072157338863645
54:41.9;-0.024044110870499395;-0.6063778386138222;-0.6223262623484558;0.8690000000000001;0.009073402385211727
54:41.9;-0.024043585094771447;-0.6063783065311059;-0.6223272693599374;0.8690000000000001;0.009073225659088347
54:41.9;-0.024039194221419355;-0.6064313623026432;-0.6223010398624919;0.8690000000000001;0.009071980044451316
54:41.9;-0.02403222069773491;-0.606518922596664;-0.6222570562808386;0.8690000000000001;0.009070016739908404
54:41.9;-0.024023843359433084;-0.6066247158558181;-0.622203788523431;0.8690000000000001;0.009067660251659669
54:41.9;-0.02401508044863673;-0.6067351560647343;-0.6221482231566663;0.8690000000000001;0.00906519333821263
54:41.9;-0.024006764091142937;-0.606839744796819;-0.6220956449739333;0.8690000000000001;0.009062850226471759
54:41.9;-0.023999538535853796;-0.606931098207496;-0.6220496223943052;0.8690000000000001;0.009060816029268597
54:41.9;-0.023993873933173048;-0.6070047026045794;-0.6220121445534563;0.8690000000000001;0.009059230139592781
54:41.9;-0.02399008774091546;-0.6070584986232149;-0.6219838596955723;0.8690000000000001;0.009058191436218105
54:41.9;-0.023988366817865363;-0.6070923828031966;-0.6219643699208199;0.8690000000000001;0.009057763381213738
54:41.9;-0.023988784726621293;-0.6071076992782668;-0.6219525449705465;0.8690000000000001;0.009057977487786872
54:41.9;-0.023991310565304062;-0.6071067757542763;-0.6219468262311937;0.8690000000000001;0.009058834149313666
54:41.9;-0.023995807646848114;-0.6070925389409103;-0.62194550046702;0.8690000000000001;0.009060300408772357
54:41.9;-0.024002022424434666;-0.6070682266025854;-0.6219469302053926;0.8690000000000001;0.009062304874161134
54:41.9;-0.02400956610931753;-0.607037197458607;-0.6219497337422972;0.8690000000000001;0.009064730612216472
54:41.9;-0.024017893328957943;-0.6070028269661403;-0.6219529122219254;0.8690000000000001;0.009067407440954767
54:41.9;-0.02402628380577964;-0.6069684669478976;-0.6219559242119346;0.8690000000000001;0.009070105549201806
54:41.9;-0.024033834261407802;-0.6069374402650503;-0.6219587098641204;0.8690000000000001;0.009072532751834604
54:41.9;-0.0240394684122854;-0.6069130383487504;-0.6219616674661123;0.8690000000000001;0.009074337891985843
54:41.9;-0.02404197285123003;-0.606898489392828;-0.6219655853773959;0.8690000000000001;0.009075122872348554
54:41.9;-0.024040065634608265;-0.6068968683486088;-0.6219715324529893;0.8690000000000001;0.009074465484219418
54:41.9;-0.024032502361001212;-0.6069109264970418;-0.6219807105195345;0.8690000000000001;0.009071954557981533
54:41.9;-0.024018221320371777;-0.606942828196677;-0.6219942736441487;0.8690000000000001;0.009067237946721526
54:41.9;-0.023996524871378787;-0.6069937952046098;-0.6220131210809681;0.8690000000000001;0.009060082457791064
54:41.9;-0.02396728863531298;-0.6070636743463711;-0.622037674003496;0.8690000000000001;0.009050443072841342
54:41.9;-0.023931183589129948;-0.6071504616097902;-0.6220676503650561;0.8690000000000001;0.009038536687638607
54:41.9;-0.023889889084899116;-0.6072498339499489;-0.6221018572059157;0.8690000000000001;0.009024913249737978
54:41.9;-0.02384626780629623;-0.607354757798778;-0.6221380249604926;0.8690000000000001;0.009010514732719563
54:41.9;-0.023804467489904026;-0.6074552586128765;-0.6221727131152225;0.8690000000000001;0.008996710107520386
54:41.9;-0.023769909878827194;-0.6075384464847907;-0.6222013200395545;0.8690000000000001;0.008985292712871172
54:41.9;-0.02374912597770524;-0.6075888962718314;-0.6222182309261592;0.8690000000000001;0.008978425667352262
54:41.9;-0.023749399454230276;-0.6075894740858497;-0.6222171354278875;0.8690000000000001;0.008978521786564657
54:41.9;-0.023778188153970266;-0.6075226826591549;-0.6221915396994041;0.8690000000000001;0.008988047486094964
54:41.9;-0.023842308139541298;-0.6073725638290927;-0.6221354852443833;0.8690000000000001;0.009009245881500249
54:41.9;-0.023946886027003466;-0.6071271458269939;-0.6220444686769514;0.8690000000000001;0.00904378296084524
54:41.9;-0.024094113671851148;-0.6067813562617023;-0.6219165321965366;0.8690000000000001;0.009092331992900412
54:41.9;-0.024281873635504735;-0.6063402406088656;-0.6217534649369616;0.8690000000000001;0.009154124203066893
54:41.9;-0.024502342490637857;-0.605822235019699;-0.6215620219773543;0.8690000000000001;0.009226506366386578
54:41.9;-0.024740718844326413;-0.6052621485318959;-0.6213550333438448;0.8690000000000001;0.00930455590952712
54:41.9;-0.024974259608838267;-0.60471342354652;-0.6211522435795214;0.8690000000000001;0.009380808911408753
54:41.9;-0.02517183586742884;-0.6042491780204954;-0.6209806983436111;0.8690000000000001;0.00944515438369817
54:41.9;-0.02529423185558467;-0.6039615041973999;-0.6208744839482685;0.8690000000000001;0.009484939503730172
54:41.9;-0.025295399479082596;-0.603958524756884;-0.6208736353933937;0.8690000000000001;0.009485317587594614
54:41.9;-0.025124838507568165;-0.6043588065677533;-0.6210220652045977;0.8690000000000001;0.0094298582623903
54:41.9;-0.024731191661786195;-0.6052829222713124;-0.6213644357070257;0.8690000000000001;0.009301432875541313
54:41.9;-0.024067018188879102;-0.6068422449296942;-0.6219420065597223;0.8690000000000001;0.00908339045409486
54:41.9;-0.02309453559197354;-0.6091254693952889;-0.622787640569202;0.8690000000000001;0.008761046346027087
54:41.9;-0.021791896941749034;-0.6121838758992861;-0.6239203440065809;0.8690000000000001;0.008323501647626623
54:41.9;-0.02015930529730961;-0.6160169757014397;-0.6253399488310076;0.8690000000000001;0.007765768071746565
54:41.9;-0.018223967314920382;-0.6205608817422598;-0.6270228045807114;0.8690000000000001;0.007091051827425358
54:41.9;-0.016042571046002124;-0.6256824917146319;-0.6289196233889721;0.8690000000000001;0.006312815829564285
54:41.9;-0.013699659558228517;-0.6311833067266458;-0.6309568940606981;0.8690000000000001;0.005455882004743069
54:41.9;-0.011300350788936101;-0.6368165237885751;-0.6330432126371186;0.9209999999999999;0.004555537286676609
54:41.9;-0.008957440907872611;-0.6423173146707618;-0.6350804969892067;0.9209999999999999;0.003653947953807655
54:41.9;-0.006776047585742525;-0.6474388805261091;-0.6369773407053961;0.9209999999999999;0.0027944684264625845
54:41.9;-0.004840713368576369;-0.6519827305592311;-0.6386602278027057;0.9209999999999999;0.0020156509692580457
54:41.9;-0.003208125555806117;-0.6558157741146882;-0.6400798635388195;0.9209999999999999;0.0013466892087379261
54:41.9;-0.0019054898616589454;-0.6588741386925482;-0.6412125888873227;0.9209999999999999;0.0008050282931489043
54:41.9;-0.0009330082723213026;-0.6611573520763329;-0.6420582261301382;0.9209999999999999;0.0003960634266632779
54:41.9;-0.0002688327358866285;-0.6627167116991629;-0.6426357715276979;0.9209999999999999;0.0001144919548182316
54:41.9;0.0001248203113313062;-0.6636409286350161;-0.6429780785391082;0.9209999999999999;5.326164680637598e-05
54:41.9;0.00029539250337013296;-0.664041389157828;-0.6431263993494941;0.9209999999999999;0.0001261510750394941
54:41.9;0.00029424166362327644;-0.6640386737597992;-0.6431253920746927;0.9209999999999999;0.00012565888382882798
54:41.9;0.00017186806348786388;-0.6637513492387647;-0.6430189697981006;0.9209999999999999;7.33540987871719e-05
54:41.9;-2.568083384714391e-05;-0.6632875276967616;-0.6428471743453126;0.9209999999999999;1.0950115278949579e-05
54:41.9;-0.0002591907219320333;-0.6627392779507454;-0.6426441064615775;0.9209999999999999;0.00011039075171189816
54:41.9;-0.0004975350879279155;-0.6621796799265024;-0.6424368348201864;0.9209999999999999;0.00021165571398988847
54:41.9;-0.0007179742500058464;-0.661662122631076;-0.6422451359252244;0.9209999999999999;0.0003051026405165087
54:41.9;-0.0009057111872781418;-0.6612213470352128;-0.6420818802056287;0.9209999999999999;0.0003845271528147015
54:41.9;-0.001052927652959865;-0.6608757091417146;-0.6419538699471286;0.9209999999999999;0.0004467063667904236
54:41.9;-0.0011575118914091043;-0.6606301670911493;-0.6418629452947551;0.9209999999999999;0.0004908244260677057
54:41.9;-0.0012216614694682683;-0.6604795614525195;-0.6418071987481946;0.9209999999999999;0.0005178629531429429
54:41.9;-0.0012505080940144837;-0.6604118438700397;-0.6417821704422074;0.9209999999999999;0.0005300160340256126
54:41.9;-0.0012508714846745624;-0.660411002690373;-0.6417819311295213;0.9209999999999999;0.0005301691807398275
54:41.9;-0.001230210766213164;-0.660459524834037;-0.6417999933696773;0.9209999999999999;0.0005214653301486837
54:41.9;-0.001195807494080159;-0.6605403138276983;-0.6418300213168129;0.9209999999999999;0.0005069680922597995
54:41.9;-0.0011541861776117317;-0.6606380502403809;-0.6418663340832305;0.9209999999999999;0.000489422634277972
54:41.9;-0.0011107568345951804;-0.6607400308497646;-0.6419042162219163;0.9209999999999999;0.00047110730853621726
54:41.9;-0.0010696496948485088;-0.6608365567126065;-0.6419400614202052;0.9209999999999999;0.0004537640764296219
54:41.9;-0.001033704069780953;-0.6609209593327249;-0.6419713825464687;0.9209999999999999;0.00043859272071962495
54:41.9;-0.0010045706376542163;-0.6609893606159257;-0.641996723592407;0.9209999999999999;0.0004262925676629174
54:41.9;-0.0009828877837464614;-0.6610402590360555;-0.6420155078250204;0.9209999999999999;0.00041713570557413195
54:41.9;-0.0009684969627858852;-0.6610740242694125;-0.6420278526607864;0.9209999999999999;0.00041105716718107415
54:41.9;-0.0009606681738945781;-0.6610923681716676;-0.6420343763926993;0.9209999999999999;0.0004077498677016947
54:41.9;-0.0009583135638483499;-0.6610978437012383;-0.6420360158007432;0.9209999999999999;0.00040675487509265806
54:41.9;-0.0009601741065285835;-0.6610934071052708;-0.6420338675520777;0.9209999999999999;0.0004075404812314682
54:41.9;-0.0009649706599784494;-0.6610820637531203;-0.6420290606618336;0.9209999999999999;0.0004095662571377216
54:41.9;-0.0009715160967323384;-0.6610666053223946;-0.6420226624776897;0.9209999999999999;0.00041233061114746947
54:41.9;-0.0009787894391527394;-0.6610494360826665;-0.6420156168554936;0.9209999999999999;0.0004154022133087732
54:41.9;-0.0009859759603653491;-0.6610324788988334;-0.6420087104664621;0.9209999999999999;0.00041843696667620995
54:41.9;-0.000992479097778919;-0.6610171471400729;-0.642002561480523;0.9209999999999999;0.000421183021010291
54:41.9;-0.0009979109125448295;-0.6610043665995695;-0.6419976241013683;0.9209999999999999;0.0004234767009713134
54:41.9;-0.0010020679018423297;-0.6609946313678412;-0.6419942024447837;0.9209999999999999;0.00042523224509502137
54:41.9;-0.0010048984357432715;-0.6609880788816741;-0.6419924678945681;0.9209999999999999;0.0004264280161220309
54:41.9;-0.0010064671461929866;-0.6609845716247563;-0.6419924751814061;0.9209999999999999;0.00042709143606343395
54:41.9;-0.001006920422157063;-0.6609837757638616;-0.6419941738606124;0.9209999999999999;0.0004272843985109342
54:41.9;-0.0010064559131366278;-0.660985230011125;-0.6419974134799323;0.9209999999999999;0.0004270903799715868
54:41.9;-0.0010052977311108954;-0.6609884009290193;-0.6420019424075153;0.9209999999999999;0.00042660396042665006
54:41.9;-0.0010036779539341783;-0.660992723534889;-0.6420074019220549;0.9209999999999999;0.0004259230058267243
54:41.9;-0.00100182412719725;-0.6609976282777911;-0.6420133186463794;0.9209999999999999;0.0004251433844950653
54:41.9;-0.0009999517678988769;-0.6610025571683024;-0.6420190996269372;0.9209999999999999;0.00042435579804529143
54:41.9;-0.0009982604044245643;-0.6610069730000209;-0.6420240352154379;0.9209999999999999;0.000423644110428115
54:41.9;-0.0009969314424182938;-0.6610103661970866;-0.6420273152817167;0.9209999999999999;0.00042308445572395174
54:41.9;-0.0009961261156396783;-0.6610122638617449;-0.6420280640638376;0.9209999999999999;0.0004227443924108284
54:41.9;-0.0009959819500475918;-0.6610122450989714;-0.6420253980347244;0.9209999999999999;0.000422681443007601
54:41.9;-0.0009966065199284821;-0.6610099656909629;-0.6420185094466166;0.9209999999999999;0.00042294050568177923
54:41.9;-0.0009980677854528792;-0.6610051937244997;-0.6420067756562027;0.9209999999999999;0.00042354983958880983
54:41.9;-0.0010003809456891988;-0.6609978558981421;-0.6419898909455115;0.9209999999999999;0.0004245155972279449
54:41.9;-0.001003492487100569;-0.6609880920393549;-0.6419680134320056;0.9209999999999999;0.0004258151906191873
54:41.9;-0.0010072629123757722;-0.6609763129650992;-0.6419419150090839;0.9209999999999999;0.00042739011485083835
54:41.9;-0.0010114504428208972;-0.6609632543891998;-0.6419131174061338;0.9209999999999999;0.000429139188253037
54:41.9;-0.0010156987291949147;-0.6609500173333083;-0.6418839928753652;0.9209999999999999;0.00043091347288238185
54:41.9;-0.0010195321948165967;-0.660938083705883;-0.6418578043096468;0.9209999999999999;0.00043251437635358664
54:41.9;-0.001022362970813325;-0.6609292946930021;-0.6418386575015103;0.9209999999999999;0.00043369656641404876
54:41.9;-0.001023513356617639;-0.6609257797060707;-0.6418313385814266;0.9209999999999999;0.0004341773114378172
54:41.9;-0.0010222572375649846;-0.6609298252112472;-0.64184101325669;0.9209999999999999;0.0004336536530448105
54:41.9;-0.0010178828139234613;-0.660943676149516;-0.641872772076065;0.9209999999999999;0.00043182838586282795
54:41.9;-0.0010097772652945616;-0.6609692680910605;-0.6419310181538447;0.9209999999999999;0.00042844513639146015
54:41.9;-0.0009975315579697317;-0.6610078958615734;-0.6420187108692533;0.9209999999999999;0.0004233318811359395
54:41.9;-0.0009810605311375042;-0.6610598340383737;-0.6421365008211517;0.9209999999999999;0.0004164510212400425
54:41.9;-0.0009607297854927619;-0.6611239360818141;-0.6422818169642082;0.9209999999999999;0.00040795265485771666
54:41.9;-0.0009374769615877452;-0.6611972512607751;-0.6424479948449043;0.9209999999999999;0.00039822600888415286
54:41.9;-0.0009129110668100319;-0.6612747109054284;-0.6426235628303898;0.9209999999999999;0.00038794220667574147
54:41.9;-0.0008893700395970351;-0.6613489464559531;-0.6427918279618234;0.9209999999999999;0.0003780798291328223
54:41.9;-0.0008699142880558974;-0.6614103095042715;-0.6429309205551547;0.9209999999999999;0.0003699233428194491
54:41.9;-0.00085823315374205;-0.6614471665086756;-0.6430144622898428;0.9209999999999999;0.00036502380571421433
54:41.9;-0.0008584428177537401;-0.6614465359283105;-0.6430130113432168;0.9209999999999999;0.00036511180808876967
54:41.9;-0.0008747587497702551;-0.66139512107969;-0.642896405385177;0.9209999999999999;0.0003719548959868649
54:41.9;-0.0009110339552359626;-0.6612807663118289;-0.6426370649721539;0.9209999999999999;0.00038715620628225364
54:41.9;-0.0009701663392984187;-0.6610943260632527;-0.6422142336448114;0.9209999999999999;0.00041189788210908515
54:41.9;-0.001053394479255038;-0.6608318859982636;-0.6416190168244006;0.9209999999999999;0.00044664168725778563
54:41.9;-0.0011595205177915373;-0.660497214177521;-0.64085994271561;0.9209999999999999;0.0004908090417310181
54:41.9;-0.0012841207113640906;-0.660104251395613;-0.6399686123316618;0.9209999999999999;0.0005424716602928141
54:41.9;-0.0014188266641323157;-0.659679378862349;-0.6390048448106153;0.9209999999999999;0.0005980898071134512
54:41.9;-0.001550780981203759;-0.6592631360929849;-0.6380605760301137;0.9209999999999999;0.0006523357349748595
54:41.9;-0.0016623867838864094;-0.6589110123021754;-0.6372616560517128;0.9209999999999999;0.0006980340875037741
54:41.9;-0.001731477393916882;-0.6586929129100446;-0.6367666416790104;0.9209999999999999;0.0007262399248676637
54:41.9;-0.001732026201854627;-0.6586909225647327;-0.6367617252429717;0.9209999999999999;0.000726462309238374
54:41.9;-0.001635492815768011;-0.6589950614680096;-0.6374511116290881;0.9209999999999999;0.0006870331355282172
54:41.9;-0.0014128558277857288;-0.6596968760476134;-0.6390424826834317;0.9209999999999999;0.0005956237482619408
54:41.9;-0.0010373115117244952;-0.660880928963629;-0.641727696012096;0.9209999999999999;0.0004399296167953447
54:41.9;-0.00048751944191596205;-0.6626145634853826;-0.6456595683932022;0.9209999999999999;0.0002085722413293557
54:41.9;0.0002488495984608502;-0.66493671343895;-0.6509264925875615;0.9209999999999999;0.00010770830821065535
54:41.9;0.001171658340567661;-0.667847003915024;-0.657527711478928;0.9209999999999999;0.0005145078807907278
54:41.9;0.0022655045421819957;-0.6712969217119275;-0.6653532843154808;0.9209999999999999;0.0010118867238705907
54:41.9;0.003498322628357988;-0.6751853996876079;-0.6741740619989026;0.9209999999999999;0.001592410165320619
54:41.9;0.0048223058630925165;-0.6793617177682363;-0.6836482556039415;0.9209999999999999;0.0022396932101153505
54:41.9;0.006178024848743855;-0.6836384828839049;-0.6933508639916102;1.016;0.002928392012162773
54:41.9;0.007501721121438488;-0.6878146212727649;-0.7028258101830838;1.016;0.003626436027361169
54:41.9;0.008733991507904862;-0.6917027563494378;-0.7116480243917803;1.016;0.004299297712571382
54:41.9;0.009827081842531017;-0.6951522010788387;-0.7194755800650261;1.016;0.004914966173455047
54:41.9;0.010749005440053814;-0.6980619378822044;-0.7260791215410691;1.016;0.005448114044449586
54:41.9;0.0114844645785896;-0.7003835191952543;-0.7313484343355839;1.016;0.00588262286551739
54:41.9;0.012033450085728516;-0.702116650508498;-0.7352824257679451;1.016;0.006212317149189021
54:41.9;0.012408438614837258;-0.7033003581274098;-0.7379691022503201;1.016;0.006440152539038552
54:41.9;0.012630930127832793;-0.7040020853122065;-0.7395608623470351;1.016;0.006576323950233574
54:41.9;0.012727889037449175;-0.7043064953328225;-0.740249142227618;1.016;0.0066358412358749706
54:41.9;0.012728483487310645;-0.7043052263544244;-0.7402412386112404;1.016;0.006636068349133417
54:41.9;0.012661367373426198;-0.7040883693397048;-0.7397410580698605;1.016;0.006594585520405453
54:41.9;0.012552624654436313;-0.7037380443455702;-0.7389346415090506;1.016;0.006527570928312853
54:41.9;0.012424397874129743;-0.7033241409812487;-0.7379806076083045;1.016;0.0064487542159116715
54:41.9;0.012294152592201317;-0.7029020653505069;-0.7370051490362103;1.016;0.006368892824195502
54:41.9;0.012174484496618924;-0.7025121920669157;-0.7361008859407857;1.016;0.006295667559765205
54:41.9;0.012073352844538098;-0.7021806450443613;-0.7353287082335579;1.016;0.0062338775773175086
54:41.9;0.011994618229996395;-0.7019210113700182;-0.7347216916668213;1.016;0.006185823646593213
54:41.9;0.01193876990745314;-0.7017366144802568;-0.7342902209836272;1.016;0.006151789464567115
54:41.9;0.011903743558274114;-0.7016230223947831;-0.7340275660221007;1.016;0.006130554581123157
54:41.9;0.01188575047810714;-0.701570531687594;-0.7339153064142236;1.016;0.0061198939015547835
54:41.9;0.011880060352936756;-0.7015664380058526;-0.7339281648805345;1.016;0.006117035572131431
54:41.9;0.011881699513169006;-0.7015969714489394;-0.7340379707110295;1.016;0.006119061195362895
54:41.9;0.011886043034755512;-0.7016488345148736;-0.734216621610453;1.016;0.0061232405168948545
54:41.9;0.011889291281861626;-0.7017103283354166;-0.734438036114094;1.016;0.006127297915530034
54:41.9;0.011888829132926944;-0.7017720881858471;-0.7346791865893513;1.016;0.006129610982333599
54:41.9;0.011883469467389598;-0.7018274719426311;-0.7349203737514622;1.016;0.00612934272615581
54:41.9;0.011873582259395235;-0.7018726565953572;-0.735144948997348;1.016;0.006126508869575307
54:41.9;0.011861107936489347;-0.7019065001958269;-0.7353387132187503;1.016;0.006121980657931742
54:41.9;0.01184944987115543;-0.7019302222769739;-0.7354892230432519;1.016;0.006117422038004697
54:41.9;0.011843237465870389;-0.7019469474670404;-0.7355852205068615;1.016;0.006115158552573467
54:41.9;0.011847949762542002;-0.7019611473297477;-0.7356163723864235;1.016;0.006117974546597501
54:41.9;0.011869391234476823;-0.7019780066594536;-0.73557346267593;1.016;0.006128836045899808
54:41.9;0.011913017536731853;-0.7020027343974673;-0.7354491274020651;1.016;0.006150539640384841
54:41.9;0.011983120246394374;-0.7020398373142374;-0.7352391564083797;1.016;0.006185293358244187
54:41.9;0.0120818962352423;-0.7020923773003095;-0.7349443134218535;1.016;0.0062342439614497215
54:41.9;0.012208448827238904;-0.7021612405234375;-0.7345725459371328;1.016;0.006296975922168952
54:41.9;0.012357793042967132;-0.7022444581196093;-0.7341413737764438;1.016;0.00637101956112571
54:41.9;0.012519963859147196;-0.7023366320433514;-0.7336801649120367;1.016;0.0064514178863505365
54:41.9;0.012679351396453145;-0.7024285340510166;-0.7332319366511563;1.016;0.006530411617215488
54:41.9;0.012814406245218816;-0.7025069577277213;-0.7328542691533544;1.016;0.006597307697903888
54:41.9;0.012897866890438191;-0.7025549096630382;-0.7326188980776348;1.016;0.0066385966262921155
54:41.9;0.01289765398369774;-0.7025522226556319;-0.7326095770562802;1.016;0.006638377192077514
54:41.9;0.012778547423713387;-0.7024766574198779;-0.7329178823801559;1.016;0.006579133589298517
54:41.9;0.012504706577735386;-0.7023055261686982;-0.7336367847629276;1.016;0.006442889605529508
54:41.9;0.01204300721827535;-0.7020178188137115;-0.7348520469406631;1.016;0.006212737304426438
54:41.9;0.011367048312664526;-0.7015967386483252;-0.7366318274144844;1.016;0.0058747007185477275
54:41.9;0.010461527655978523;-0.7010324591753226;-0.7390152796795566;1.016;0.00541984232868807
54:41.9;0.009326500703695263;-0.7003247991950832;-0.7420014242395337;1.016;0.0048464414640551476
54:41.9;0.007980828876227026;-0.6994853837865967;-0.7455401191268767;1.016;0.004161957696843276
54:41.9;0.006463903158705159;-0.6985387213466094;-0.7495275345422586;1.016;0.0033843316685699663
54:41.9;0.0048345108664196905;-0.6975214907318619;-0.7538091097431262;1.016;0.002541976405389143
54:41.9;0.0031657682228477236;-0.6964793667201131;-0.7581928262766339;1.04;0.0016717334844123576
54:41.9;0.001536145235613759;-0.6954614017247428;-0.7624727333846142;1.04;0.0008145722808591587
54:41.9;1.8779080641438254e-05;-0.6945133375266829;-0.7664569649212783;1.04;9.996378514160698e-06
54:41.9;-0.0013275009107535727;-0.6936719873115466;-0.7699912654790612;1.04;0.0007090466069033364
54:41.9;-0.002463240668749699;-0.6929620610845724;-0.7729722634935354;1.04;0.0013194113473410471
54:41.9;-0.003369495133688846;-0.692395451083722;-0.77535042416964;1.04;0.0018089104525201684
54:41.9;-0.004046106256334807;-0.6919723036042759;-0.7771255122312025;1.04;0.0021757909320469183
54:41.9;-0.0045082580364111165;-0.6916831691916908;-0.7783375378819655;1.04;0.0024270792081128967
54:41.9;-0.0047822234403193855;-0.6915116592595753;-0.7790555868043697;1.04;0.0025763082078628973
54:41.9;-0.004900997496369525;-0.691437174958482;-0.7793663558168483;1.04;0.0026410636031938195
54:41.9;-0.004900302572859694;-0.6914374042738184;-0.7793636689093266;1.04;0.002640680892681688
54:41.9;-0.004815266878700955;-0.6914903989361392;-0.7791397628291216;1.04;0.0025943100946394983
54:41.9;-0.00467792262644995;-0.6915761393769496;-0.7787787256393827;1.04;0.002519457949705024
54:41.9;-0.004515549299941735;-0.691677571626966;-0.7783521541843939;1.04;0.002431030532274965
54:41.9;-0.004349800071082858;-0.691781154725462;-0.7779168671380918;1.04;0.0023408372031444215
54:41.9;-0.004196493108621146;-0.6918769924477102;-0.7775143626891479;1.04;0.0022574795429136027
54:41.9;-0.004065920096805637;-0.6919586415946055;-0.7771716328373389;1.04;0.00218653240118969
54:41.9;-0.003963516547618008;-0.6920226939621287;-0.7769029261183077;1.04;0.002130923062447811
54:41.9;-0.0038907469418831097;-0.6920682238565843;-0.7767120728826216;1.04;0.002091423336446594
54:41.9;-0.0038460770642434047;-0.6920961809607322;-0.7765950380971919;1.04;0.0020671835776082527
54:41.9;-0.003825931364835844;-0.6921087924481896;-0.7765424335734524;1.04;0.002056253874644085
54:41.9;-0.003825560845395902;-0.6921090209525358;-0.7765417942165183;1.04;0.002056053724278675
54:41.9;-0.003839773793663301;-0.6921001082218855;-0.7765794933692846;1.04;0.002063766106100753
54:41.9;-0.0038635055522445298;-0.692085219359127;-0.7766422350211678;1.04;0.0020766443242168976
54:41.9;-0.00389222312152639;-0.6920671902677153;-0.7767181121926766;1.04;0.0020922299820106487
54:41.9;-0.003922175195291289;-0.6920483716487471;-0.7767972597097881;1.04;0.0021084879567048785
54:41.9;-0.00395050821837557;-0.6920305566260379;-0.7768721558589118;1.04;0.0021238693462552367
54:41.9;-0.003975274659954926;-0.6920149755514489;-0.7769376421650449;1.04;0.002137316293312049
54:41.9;-0.003995361603142298;-0.6920023403352515;-0.7769907355621878;1.04;0.0021482236592375056
54:41.9;-0.004010366787253796;-0.6919929212432255;-0.7770303046812231;1.04;0.0021563720977399283
54:41.9;-0.00402044625815525;-0.6919866409725058;-0.7770566740961095;1.04;0.002161845566506227
54:41.9;-0.00402615358739676;-0.6919831734630939;-0.7770712092378149;1.04;0.0021649441177824173
54:41.9;-0.0040282859080616315;-0.6919820378888127;-0.7770759221210511;1.04;0.0021661002922003514
54:41.9;-0.004027747341190063;-0.6919826812533161;-0.7770731254854921;1.04;0.0021658049116861262
54:41.9;-0.004025436157197568;-0.6919845457391354;-0.777065151495802;1.04;0.002164545759539723
54:41.9;-0.0040221584903467065;-0.6919871192561915;-0.7770541414612017;1.04;0.0021627607015493734
54:41.9;-0.00401856872645798;-0.6919899694266722;-0.7770419054764107;1.04;0.0021608053185112517
54:41.9;-0.004015134828360155;-0.6919927625084197;-0.7770298455236051;1.04;0.002158934099940196
54:41.9;-0.004012125776854107;-0.6919952695328734;-0.7770189322686802;1.04;0.002157293652362782
54:41.9;-0.0040096178525726115;-0.6919973622854455;-0.7770097242474246;1.04;0.0021559261290482667
54:41.9;-0.0040075164943853755;-0.6919990017759903;-0.7770024179962614;1.04;0.0021547810960379186
54:41.9;-0.004005590756165704;-0.6920002216329463;-0.7769969185343267;1.04;0.0021537342085148708
54:41.9;-0.004003517762969544;-0.6920011085028237;-0.7769929210560502;1.04;0.0021526112813406804
54:41.9;-0.00400093487699153;-0.6920017811332273;-0.7769899963960393;1.04;0.002151216508937467
54:41.9;-0.0039974973928980735;-0.6920023694335625;-0.7769876744952382;1.04;0.00214936365202653
54:41.9;-0.00399293940427928;-0.6920029944954678;-0.7769855215202173;1.04;0.0021469089152500796
54:41.9;-0.00398713498199202;-0.6920037503472022;-0.7769832073391498;1.04;0.0021437839714094644
54:41.9;-0.003980156001511594;-0.6920046881246654;-0.7769805606926493;1.04;0.0021400271564990326
54:41.9;-0.003972321929765908;-0.692005803358816;-0.7769776096445516;1.04;0.0021358103083446924
54:41.9;-0.003964235770982909;-0.692007027179487;-0.7769746048524553;1.04;0.002131458125506854
54:41.9;-0.003956799369383544;-0.6920082223780067;-0.7769720230097148;1.04;0.0021274563864270343
54:41.9;-0.003951200613569279;-0.6920091854024434;-0.7769705476679518;1.04;0.0021244450201100746
54:41.9;-0.003948865053884581;-0.692009655418343;-0.7769710247618392;1.04;0.0021231920037813197
54:41.9;-0.003951365310509251;-0.692009331489977;-0.7769743907371857;1.04;0.002124544529758851
54:41.9;-0.003960283678749498;-0.6920078986606767;-0.7769815724191331;1.04;0.002129354973150492
54:41.9;-0.003977026737466782;-0.6920050631840335;-0.7769933597931042;1.04;0.0021383810156413675
54:41.9;-0.004002595650577703;-0.6920005963467086;-0.7770102557774339;1.04;0.0021521619008712605
54:41.9;-0.0040373221944073594;-0.6919943852209414;-0.77703231081368;1.04;0.002170876203309365
54:41.9;-0.004080588135479887;-0.6919864873183071;-0.7770589545334646;1.04;0.0021941905781140887
54:41.9;-0.00413055398994875;-0.6919771845565426;-0.7770888415786443;1.04;0.0022211134980885173
54:41.9;-0.004183931729981848;-0.6919670303179714;-0.7771197333962075;1.04;0.0022498726119528738
54:41.9;-0.004235843712927843;-0.6919568818426042;-0.7771484418849331;1.04;0.002277838564594837
54:41.9;-0.0042798157968993175;-0.691947908982542;-0.7771708633825685;1.04;0.0023015212490515376
54:41.9;-0.0043079548744249605;-0.6919415697098101;-0.7771821317950302;1.04;0.002316665734221973
54:41.9;-0.004311358400125066;-0.6919395430061545;-0.7771769167920651;1.04;0.0023184736816499662
54:41.9;-0.004280794435204861;-0.6919436111613375;-0.7771498860916429;1.04;0.0023019710886745823
54:41.9;-0.004207674021396898;-0.6919554863251393;-0.7770963392664022;1.04;0.0022625339611737462
54:41.9;-0.00408531251177194;-0.6919765805830936;-0.7770130038828479;1.04;0.0021965695938138607
54:41.9;-0.003910442709522595;-0.6920077249199443;-0.7768989632525455;1.04;0.0021023325381782035
54:41.9;-0.0036849011605832654;-0.6920488500853802;-0.7767566593915958;1.04;0.0019808317110604694
54:41.9;-0.003417361818704292;-0.6920986512433658;-0.7765928864877896;1.04;0.0018367598346650006
54:41.9;-0.003124942127368272;-0.6921542677550259;-0.7764196616957525;1.04;0.0016793507191577466
54:41.9;-0.0028344605247517082;-0.6922110185955513;-0.7762548347998829;1.04;0.0015230467675333894
54:41.9;-0.0025830882784157495;-0.6922622415028186;-0.7761222805023461;1.04;0.0013878420566077114
54:41.9;-0.0024181206552694704;-0.6922992884710855;-0.7760515118844741;1.04;0.001299159284396933
54:41.9;-0.002395602068428928;-0.6923117298775137;-0.7760765665302379;1.04;0.0012871256336351841
54:41.9;-0.002577586810143152;-0.6922878124790832;-0.7762340535410093;1.04;0.0013851368336056035
54:41.9;-0.0030279106480269793;-0.6922152008932125;-0.7765603153640187;1.04;0.0016276438451758941
54:41.9;-0.0038064967537940705;-0.692082006366471;-0.7770877569506133;1.04;0.0020471661341358673
54:41.9;-0.004962427121150847;-0.6918780695148034;-0.7778405282005976;1.04;0.002670633388826181
54:41.9;-0.006526278541107061;-0.6915964149081791;-0.7788299130605494;1.04;0.0035152884096525784
54:41.9;-0.008502545500987873;-0.6912347355069814;-0.7800499755905292;1.04;0.00458455245587776
54:41.9;-0.01086333960872828;-0.6907966959028555;-0.7814742312697899;1.04;0.0058644632652375015
54:41.9;-0.013544947755723074;-0.6902927682995246;-0.7830543380151166;1.04;0.0073215419943357864
54:41.9;-0.0164492239095972;-0.6897402387543385;-0.7847220192573041;1.04;0.008903214043197584
54:41.9;-0.019451709678022743;-0.6891620279855922;-0.7863953534048317;1.05;0.0105419282984449
54:41.9;-0.02241646800496334;-0.6885843040797798;-0.7879893653658002;1.05;0.012163110728388325
54:41.9;-0.025213842499687736;-0.6880335297559813;-0.7894285194408404;1.05;0.013694981525424374
54:41.9;-0.02773523588893822;-0.687533957910654;-0.7906573748169853;1.05;0.0150769794638999
54:41.9;-0.029901177250138567;-0.6871061953072233;-0.791646933396156;1.05;0.016264611181660546
54:41.9;-0.03166277141939722;-0.6867667696445185;-0.7923964829583413;1.05;0.01723061338042932
54:41.9;-0.03299857604371292;-0.6865282897376327;-0.792931887213022;1.05;0.017963440530094552
54:41.9;-0.03390905694452639;-0.6863997791852685;-0.7933013216528827;1.05;0.018464222487343362
54:41.9;-0.03441038428039674;-0.6863868502101722;-0.7935692312902122;1.05;0.01874318095770948
54:41.9;-0.0345289182858876;-0.6864914836005102;-0.7938090865694358;1.05;0.018816298447544753
54:41.9;-0.03429731567826605;-0.6867112891254687;-0.7940953581659366;1.05;0.01870281487646225
54:41.9;-0.03375278247325954;-0.6870382347234135;-0.7944950354990862;1.05;0.01842390455940833
54:41.9;-0.0329376173824545;-0.6874569481246134;-0.7950589861148211;1.05;0.018002674803806254
54:41.9;-0.031901840093610634;-0.6879428065759738;-0.7958134942897208;1.05;0.01746543338756918
54:41.9;-0.03070738682688282;-0.6884601329795722;-0.7967524196030896;1.05;0.01684399280924639
54:41.9;-0.02943308828070045;-0.6889609024829187;-0.797830563682852;1.05;0.01617860528615431
54:41.9;-0.028179431368523848;-0.6893844231176369;-0.7989590015157124;1.05;0.01552094591372289
54:41.9;-0.02707195859384052;-0.689658476704246;-0.8000032908098116;1.05;0.014936386020937126
54:41.9;-0.026262094392741898;-0.6897023801910269;-0.8007855809661315;1.05;0.014504652460010809
54:41.9;-0.02592422712654627;-0.6894323411782135;-0.8010916602762642;1.05;0.014317911725646292
54:41.9;-0.026248042003293302;-0.6887693243885555;-0.8006838629896684;1.05;0.014475440379487375
54:41.9;-0.027425417390039952;-0.6876494114380369;-0.7993204667463825;1.05;0.015074442334720314
54:41.9;-0.02963168441030754;-0.6860363231529876;-0.796781713199853;1.05;0.016197306797908016
54:41.9;-0.03300171883035426;-0.6839353885082244;-0.792901861586613;1.05;0.017896622321627528
54:41.9;-0.037602183095544216;-0.6814078038639014;-0.7876057373181914;1.05;0.020180365786435686
54:41.9;-0.043402244510824146;-0.678583559493805;-0.7809470919586262;1.05;0.02300049246404987
54:41.9;-0.05024621936783804;-0.6756709595943118;-0.7731448049727229;1.05;0.0262481975170573
54:41.9;-0.05783276244595144;-0.6729602823901919;-0.7646116240161659;1.05;0.029758036128474667
54:41.9;-0.0657063399344037;-0.67081888546206;-0.7559688876582806;1.05;0.03332088127391907
54:41.9;-0.07326767046925438;-0.6696750326471449;-0.7480396632235967;1.05;0.03670296224795363
54:41.9;-0.07981009288679765;-0.6699882632973885;-0.7418125584116254;1.02;0.03966607169699694
54:42.0;-0.08458636895940008;-0.6722062589304616;-0.7383708699247021;1.005;0.041983388609942836
54:42.0;-0.08690266607809827;-0.67671222227662;-0.7387878447285295;1.005;0.0434467067058548
54:42.0;-0.08622584328498906;-0.6837701394353594;-0.7439960293186517;1.0;0.04386500661707664
54:42.0;-0.08228409719923852;-0.6934743137008624;-0.7546443255677204;0.971;0.04306144495279787
54:42.0;-0.0751416589110553;-0.7057052619181688;-0.7709631291310695;0.971;0.04088252802440636
54:42.0;-0.06523136924325984;-0.7200923791428085;-0.7926661529665979;0.981;0.03723359954826076
54:42.0;-0.053334606072531425;-0.7359881688244595;-0.8189181939598464;1.024;0.0321455192039717
54:42.0;-0.04050924914509947;-0.7524657469785342;-0.8483845228464222;1.078;0.0258603063671659
54:42.0;-0.027979296276264092;-0.7683537596451777;-0.8793559222393894;1.195;0.01890439140568412
54:42.0;-0.017005959558612865;-0.7823162004597981;-0.9099249128117438;1.195;0.012105675314250098
54:42.1;-0.008756791715541687;-0.7929718603931603;-0.9381815462542358;1.252;0.006514628910961717
54:42.1;-0.0041820784199611775;-0.7990385726616952;-0.9624025590242473;1.35;0.0032160047846615534
54:42.1;-0.0039043417248262086;-0.7994846988378221;-0.9812142487785446;1.396;0.003062822469446805
54:42.1;-0.008130842248794179;-0.7936693424891812;-0.9937060516508984;1.364;0.006412584112603302
54:42.1;-0.016606288027382645;-0.7814515800293514;-0.9994702342278637;1.324;0.012970135241688772
54:42.1;-0.02862495580513772;-0.7632501455990369;-0.9985614443635332;1.297;0.021816572120066376
54:42.1;-0.04311261830905337;-0.7400375431791809;-0.9913993649630959;1.2570000000000001;0.03163055324988136
54:42.1;-0.0587709926822834;-0.7132566844712139;-0.9786536424134389;1.183;0.04102398961701934
54:42.1;-0.0742581158306054;-0.6846616278341694;-0.9611444715145911;1.109;0.04886620202323586
54:42.1;-0.08836622359176692;-0.656108587988171;-0.9397767161771857;1.109;0.054486222382093906
54:42.2;-0.10016150164939049;-0.6293419820478847;-0.9155117311567893;1.1159999999999999;0.057710049147506756
54:42.2;-0.10906583127597565;-0.6058164845445976;-0.8893681472085243;1.103;0.05876400288934977
54:42.2;-0.11487822630849684;-0.5865785057964447;-0.8624285339782222;1.06;0.05811483157039839
54:42.2;-0.11774401879791938;-0.5722161761394234;-0.835823257057792;0.988;0.05631361885763872
54:42.2;-0.11808421498593541;-0.5628750259790853;-0.8106775674382762;0.988;0.05388302665967264
54:42.2;-0.1165000047803813;-0.5583216996928536;-0.7880333445911512;0.971;0.05125721965998297
54:42.2;-0.11366752395642413;-0.5580290332933162;-0.7687687202024241;0.9420000000000001;0.04876282964804675
54:42.2;-0.11023485671979948;-0.5612609788297953;-0.7535310961537418;0.927;0.046621363455644126
54:42.2;-0.10673085825330847;-0.567148176854433;-0.7426885155024047;0.927;0.04495657842710617
54:42.2;-0.10349622784789272;-0.5747536219978858;-0.7363006107835989;0.937;0.04379871800046464
54:42.3;-0.10064734423651314;-0.583130614430994;-0.734108673559191;0.9079999999999999;0.043085240111854335
54:42.3;-0.09807819361062502;-0.5913754677747884;-0.7355439109454045;0.9079999999999999;0.04266231005357644
54:42.3;-0.09549738448573987;-0.5986776561828863;-0.7397574545499209;0.927;0.04229352438855355
54:42.3;-0.09249128319051997;-0.6043691900167822;-0.7456803903032174;0.992;0.041682700076782375
54:42.3;-0.0886023670555381;-0.6079704789374277;-0.7521179425241182;0.992;0.04051480618086426
54:42.3;-0.08341160141700416;-0.6092236183113037;-0.7578704792846742;1.0190000000000001;0.03851218699349198
54:42.3;-0.07661368953566963;-0.6081028320721787;-0.7618649555300321;1.028;0.03549452761856518
54:42.3;-0.06807505899009154;-0.6047983184907286;-0.763277360920443;1.031;0.03142541217737827
54:42.3;-0.05786684658618215;-0.5996780890484006;-0.7616267413711757;1.014;0.02642957511796918
54:42.3;-0.04626887075340507;-0.5932363872669338;-0.7568247115001344;0.992;0.020773610555647932
54:42.4;-0.03374538058575761;-0.5860366052471782;-0.7491733052207492;0.9490000000000001;0.01481567247160414
54:42.4;-0.020898640563390528;-0.5786543390774992;-0.7393157755498692;0.9490000000000001;0.00894061150449124
54:42.4;-0.008410019412618442;-0.5716244206265104;-0.7281530765487166;0.92;0.003500503057201231
54:42.4;0.0030227865192819494;-0.5653947705314337;-0.7167397644317056;0.88;0.0012249567738401702
54:42.4;0.012747994753319057;-0.5602903820414212;-0.706170827908794;0.8590000000000001;0.005043880820331457
54:42.4;0.02021890978303945;-0.5564927265644178;-0.6974710325472981;0.858;0.00784771824034411
54:42.4;0.02504545170908177;-0.55404027434543;-0.6914989943150193;0.863;0.009595370694172574
54:42.4;0.02703117002777748;-0.5528516305486944;-0.6888749746196681;0.867;0.010294703599573976
54:42.4;0.02618963102575584;-0.5527665204358968;-0.6899361470549594;0.846;0.009988033954189264
54:42.4;0.02273867379930725;-0.553596819306034;-0.6947207570250001;0.878;0.008745184829297965
54:42.4;0.01707685512304217;-0.5551793842865597;-0.7029837325365568;0.9159999999999999;0.006664790465439156
54:42.5;0.009748102744743305;-0.5574195610712219;-0.714245323818511;0.9540000000000001;0.0038810542078540353
54:42.5;0.0013971951996895758;-0.5603112972816559;-0.7278662525593323;0.938;0.0005698204714721812
54:42.5;-0.007283407465982364;-0.5639253217507874;-0.7431330429995527;0.9329999999999999;0.0030522687859637692
54:42.5;-0.015611510124178904;-0.5683706456214591;-0.7593364237375116;0.9540000000000001;0.006737686312669008
54:42.5;-0.022970011630926233;-0.5737461662235611;-0.775833319489535;0.978;0.010224673267279083
54:42.5;-0.028851330670118278;-0.5801011902685332;-0.7920881511253789;0.988;0.013256934838122703
54:42.5;-0.032887385659598665;-0.5874178491808532;-0.8076897759295752;0.9790000000000001;0.015603465871955314
54:42.5;-0.03486304397241147;-0.595618124804061;-0.822345098887534;1.037;0.01707604603932301
54:42.5;-0.03471243897973051;-0.6045862496435819;-0.8358595924132729;1.037;0.017541903830996863
54:42.5;-0.032500806028368356;-0.6141891133392503;-0.8481178303792709;1.073;0.016929823857051465
54:42.6;-0.028398326533598583;-0.6242782655382456;-0.859070277896836;1.082;0.01522999136873404
54:42.6;-0.022654191914462263;-0.6346657418826218;-0.8687242092975853;1.068;0.012490377266806775
54:42.6;-0.015576875341758136;-0.6450775834144323;-0.8771334823130045;1.052;0.00881369432039335
54:42.6;-0.007519935102100744;-0.6551012166129245;-0.8843843455845122;1.055;0.004356759081479976
54:42.6;0.0011347170655001445;-0.6641513210505834;-0.8905791149281358;1.087;0.0006711616506976262
54:42.6;0.010005304707293128;-0.6714765246492284;-0.8958211935235014;1.11;0.006018419920266659
54:42.6;0.01875258973997749;-0.6762167377178624;-0.9002016694544955;1.11;0.011415290885011383
54:42.6;0.027128992587807495;-0.6775059925038825;-0.9037849532249678;1.148;0.016611617192581855
54:42.6;0.0350214849311384;-0.6746032616559793;-0.9065938608469197;1.148;0.02141883113765267
54:42.6;0.04247416506541205;-0.6670253877098569;-0.9085997508125438;1.148;0.025741854297767413
54:42.7;0.04967993798991589;-0.6546551847794136;-0.9097244605708837;1.16;0.029587176944055122
54:42.7;0.05693823982599328;-0.6378042585572018;-0.9098575379013004;1.149;0.03304188759506676
54:42.7;0.06458360125509581;-0.6172183124856612;-0.9088879120672408;1.129;0.036230254805747354
54:42.7;0.07289566922532836;-0.5940198304933374;-0.9067458854545032;1.11;0.039263432546623366
54:42.7;0.08200589722509413;-0.5695918405125272;-0.9034492841120644;1.09;0.042200016621213546
54:42.7;0.09181914694101083;-0.5454177239904612;-0.8991449450252158;1.075;0.04502899015528247
54:42.7;0.10196790319565469;-0.5229032098170704;-0.8941321258812382;1.0659999999999998;0.04767453829341289
54:42.7;0.11181143034021253;-0.5032141409062182;-0.8888512986963097;0.978;0.0500113008617865
54:42.7;0.12048268634296502;-0.48716162379214883;-0.8838284569180265;0.978;0.05187590570554988
54:42.7;0.1269762431913117;-0.47515165239426377;-0.8795842602775953;0.925;0.05306793234217319
54:42.7;0.13026542787198186;-0.46719649429895277;-0.8765377933748181;0.892;0.05334569674105126
54:42.8;0.1294347778141745;-0.4629727677425217;-0.8749419471367706;1.041;0.05243070135601868
54:42.8;0.12380993900944165;-0.46191037001521706;-0.8748731351734074;1.047;0.050033202612398964
54:42.8;0.11306284472570141;-0.4632989085742311;-0.8762662843155211;1.035;0.045900486360469034
54:42.8;0.09727150623516258;-0.4663956210855824;-0.8789633364503929;1.038;0.03987593369675445
54:42.8;0.07692323850862386;-0.470515544025312;-0.8827508410206876;1.008;0.031949912668205606
54:42.8;0.052863988284634976;-0.47509045296161273;-0.8873829288008361;1.01;0.022286778560022487
54:42.8;0.02620866900419212;-0.4796951066807949;-0.8925964967827685;1.025;0.011221875143464219
54:42.8;-0.0017665766710551973;-0.484047342000009;-0.898124962612628;1.025;0.0007679927107455802
