Time;AccX;AccY;AccZ;Acc-old;Acc-trns
50:59.0;0.03473890254891995;-0.25927879164974876;-0.7676017284131291;0.8109999999999999;0.006913835342913438
50:59.0;0.043186793165551365;-0.2713861295026505;-0.7660016167721405;0.8109999999999999;0.008977766177457259
50:59.0;0.05131605400579056;-0.28361375411401374;-0.7635488199540988;0.8109999999999999;0.011112642737554357
50:59.0;0.05874047903654337;-0.2959986869757624;-0.7598754900361939;0.8590000000000001;0.013212034679256746
50:59.0;0.065184623403449;-0.3084775646813997;-0.7548464509809956;0.902;0.015178447818303683
50:59.0;0.0705194920582522;-0.3208703130594536;-0.7486241694446825;0.8959999999999999;0.01693957686085713
50:59.1;0.07478455889346937;-0.3328868855669929;-0.741685096168475;0.8370000000000001;0.018464101315164703
50:59.1;0.07818218488739795;-0.3441561832564943;-0.7347713569470082;0.7759999999999999;0.01977040645515595
50:59.1;0.08103675139755197;-0.35427345537341903;-0.7287871870654191;0.769;0.02092287519615666
50:59.1;0.08372236342909241;-0.36285987893407334;-0.7246733280994083;0.8220000000000001;0.022015203702371793
50:59.1;0.08657391707620966;-0.36962442747743646;-0.7232938237035047;0.812;0.02314528267781217
50:59.1;0.08980256775436989;-0.3744153851340192;-0.7253502873641169;0.812;0.024388788543261656
50:59.1;0.09343679935161807;-0.3772510109254712;-0.7313208977906419;0.812;0.02577842321351156
50:59.1;0.09730495844752825;-0.37832588056011895;-0.7414188123154434;0.8009999999999999;0.027293838939961516
50:59.1;0.10106512282997979;-0.37799651407261;-0.7555708991861411;0.821;0.028864519055156815
50:59.1;0.10427454862815139;-0.37675364018122437;-0.7734221260452722;0.855;0.030384519159280463
50:59.2;0.10647792095095869;-0.37518757879603704;-0.794369990187498;0.897;0.031734440334860343
50:59.2;0.10728860456329792;-0.37394776874015895;-0.8176279187822728;0.912;0.03280350542449344
50:59.2;0.10644342249312846;-0.3736920884761325;-0.8423106191716342;0.9259999999999999;0.03350464412769141
50:59.2;0.10382408152778891;-0.37502316518553847;-0.8675321431505377;0.958;0.03377860948953932
50:59.2;0.09944915185511184;-0.37841747315206337;-0.8925069911942497;1.048;0.03358798045296143
50:59.2;0.09344596427533652;-0.38415970390659715;-0.9166399759866817;1.048;0.03290570132333302
50:59.2;0.08601289001793264;-0.3922924367672884;-0.9395840949019781;1.048;0.03170364028983489
50:59.2;0.07738017518830463;-0.40258441381109245;-0.9612491808785207;1.035;0.02994488491830261
50:59.2;0.06777354239965296;-0.41451822699962365;-0.9817610942381799;1.035;0.02758097632995882
50:59.2;0.057383336383177524;-0.4272994577950406;-1.0013891615227477;1.058;0.02455393058089717
50:59.3;0.046343901662088544;-0.4398896839570441;-1.0204658050857294;1.09;0.020803424338202824
50:59.3;0.03472849752513602;-0.45106497995842326;-1.0393158977525474;1.121;0.016280685070697805
50:59.3;0.022561603844308307;-0.4595007296445449;-1.058201483091127;1.15;0.010970452477258964
50:59.3;0.009845257457214542;-0.4638815520650527;-1.0772784962053783;1.172;0.004919966776028732
50:59.3;-0.0034073989315995677;-0.4630301988975507;-1.0965600776663234;1.2009999999999998;0.0017300742016591395
50:59.3;-0.01713817789178108;-0.4560424675436046;-1.1158840608813176;1.2009999999999998;0.008721456269773418
50:59.3;-0.0312143460460782;-0.44241056731627043;-1.1348866404435667;1.2009999999999998;0.01567228123070562
50:59.3;-0.04540818625290781;-0.4221175988585177;-1.1529889136342657;1.213;0.022100024016722834
50:59.3;-0.059392808406964585;-0.39568891610128293;-1.1694069210447164;1.213;0.027482320906240792
50:59.3;-0.07276184778277199;-0.3641897049225732;-1.1831958657618238;1.236;0.03135364434802125
50:59.4;-0.08507410784037682;-0.32916338648691135;-1.1933329541252198;1.278;0.03341723856491055
50:59.4;-0.09591298180533357;-0.2925139860251888;-1.1988309395607168;1.307;0.033634267313853515
50:59.4;-0.10494302209471801;-0.25634498126581773;-1.1988593965648682;1.319;0.03225125636262027
50:59.4;-0.111948165905086;-0.22277344430393167;-1.1928405236218713;1.3090000000000002;0.02974834345919209
50:59.4;-0.1168454294229863;-0.19374090175882838;-1.1804896255804516;1.12;0.02672361587414296
50:59.4;-0.11967657620392452;-0.17084385921919426;-1.1617931648820634;1.12;0.023754032502478734
50:59.4;-0.12058303624674509;-0.155207078806316;-1.1369508689920356;1.12;0.021278422996790176
50:59.4;-0.11976772444133335;-0.14741612284137623;-1.1063248991981576;1.08;0.019532933418701943
50:59.4;-0.11744654505837604;-0.1475118278549146;-1.0704240289991507;1.073;0.018544833552708806
50:59.4;-0.11379561537581565;-0.15503642075964794;-1.029924762548492;1.101;0.01817041147909041
50:59.5;-0.10890678306739511;-0.16911425779380032;-0.985713726969181;1.072;0.01815456964225675
50:59.5;-0.10276811349899566;-0.18854882860908895;-0.9389249015240979;1.013;0.018193366997361852
50:59.5;-0.09528035815469242;-0.2119220815255258;-0.89094344266559;0.937;0.017989940532952862
50:59.5;-0.0863048693953537;-0.2376919456246148;-0.8433614863333001;0.872;0.017300694189313317
50:59.5;-0.07572355910882715;-0.26429208966748274;-0.7978928335946235;0.826;0.01596833912777218
50:59.5;-0.06348979249300812;-0.2902348976322846;-0.7562683140426558;0.826;0.013935720999594088
50:59.5;-0.04966086373185072;-0.3142063313667087;-0.7201337820119523;0.826;0.011236793122207796
50:59.5;-0.034413757660273034;-0.3351364542214624;-0.690958826048769;0.784;0.00796903868889609
50:59.5;-0.018046391377505633;-0.352239918560206;-0.6699486763234166;0.74;0.0042586355703764945
50:59.5;-0.0009633169373143566;-0.3650331468805215;-0.6579510201434294;0.715;0.0002313636159960747
50:59.6;0.016353367974467126;-0.37333723693218496;-0.6553635591895803;0.711;0.004001205040883193
50:59.6;0.033382462059470736;-0.3772713811218557;-0.6620609826324602;0.716;0.008338159919343457
50:59.6;0.049603587792757274;-0.3772367544290718;-0.6773618209854906;0.7340000000000001;0.012674995209692091
50:59.6;0.06453222221330618;-0.37388689250805773;-0.700050319650869;0.746;0.01689064052103915
50:59.6;0.07774761004589437;-0.3680793770956706;-0.7284605494767531;0.862;0.02084656816479704
50:59.6;0.08891443103336194;-0.36080785902995405;-0.7606165172424503;0.862;0.02440135788386552
50:59.6;0.09779865554660506;-0.35312141155756543;-0.7944047825083411;0.862;0.027434609722952856
50:59.6;0.10427716034179374;-0.3460422651144932;-0.8277510940074989;0.922;0.029868822745216798
50:59.6;0.10834240776299311;-0.34048976926060154;-0.858785269583896;0.977;0.03168014324639358
50:59.6;0.11010475740843788;-0.33721484758863896;-0.8859878609016338;1.022;0.03289580695152222
50:59.7;0.10979266742400733;-0.33674993846746887;-0.9083057552795121;1.0290000000000001;0.03358249258155901
50:59.7;0.10774755672714416;-0.3393800113144452;-0.9252177811396769;1.023;0.03383277817743971
50:59.7;0.10440923467521143;-0.3451375569971784;-0.9367393803400987;1.014;0.03375591707585946
50:59.7;0.10029010231441222;-0.35382113977612417;-0.9433709946589611;1.013;0.03347529174133514
50:59.7;0.09593956041303811;-0.36503435520316485;-0.9460060710522793;1.018;0.033130301468612684
50:59.7;0.09190248428877197;-0.3782373368139111;-0.9458175866848899;1.018;0.032877518694862405
50:59.7;0.0886770104231678;-0.39279749329455377;-0.9441393844204876;1.018;0.03288636444538441
50:59.7;0.08667654777948981;-0.4080270734298712;-0.9423533301312813;1.024;0.03332762420121841
50:59.7;0.08619891980530445;-0.42320433963441534;-0.9417871162541717;1.026;0.03435616508396348
50:59.7;0.08740421643452612;-0.4375842714040063;-0.9436228489072884;1.023;0.036090469797029116
50:59.8;0.09030318730863511;-0.45040742085147895;-0.9488157448810357;1.0170000000000001;0.038591396930104244
50:59.8;0.09475786499182012;-0.4609140982307463;-0.9580255515842376;1.021;0.04184199195693962
50:59.8;0.1004949180147408;-0.4683691763899004;-0.9715680387212337;1.0390000000000001;0.04573046590110332
50:59.8;0.10713173488251078;-0.47210069532719484;-0.9893961981839583;1.0590000000000002;0.05004065840010513
50:59.8;0.11421570146830182;-0.47155185016115975;-1.0111176302325855;1.177;0.05445740562625161
50:59.8;0.121275239612679;-0.4663404188687006;-1.0360442904790963;1.177;0.05859405056902603
50:59.8;0.12787556058154148;-0.45631397636043775;-1.0632577656905025;1.177;0.062042585066902876
50:59.8;0.13366853137767082;-0.4415868953905123;-1.0916704548454794;1.213;0.0644372369646073
50:59.8;0.13842851665376318;-0.42254833005450343;-1.1200744616394833;1.202;0.06551622263445586
50:59.9;0.1420696677564722;-0.39983818078423555;-1.1471825403856775;1.178;0.06516556367717008
50:59.9;0.14464222980885286;-0.37429788987384816;-1.1716710868832398;1.209;0.06343343068582158
50:59.9;0.14630942137711883;-0.3469107118558936;-1.1922365022992196;1.2690000000000001;0.0605135201641786
50:59.9;0.14731055667614926;-0.3187457962594503;-1.2076707246108236;1.2770000000000001;0.05670572078667606
50:59.9;0.14791544672906706;-0.29090931811048704;-1.2169498751281718;1.27;0.05236533091251471
50:59.9;0.14837293113103228;-0.26449293104165045;-1.2193235214597717;1.284;0.047850634111894906
50:59.9;0.1488590404785394;-0.24051076458479081;-1.2143941492150758;1.284;0.04347798420166886
50:59.9;0.14943572996605334;-0.21983137662410182;-1.2021771306537399;1.284;0.03949231486606611
50:59.9;0.1500320433872225;-0.20312015078737972;-1.1831282699733348;1.2670000000000001;0.03605527946652796
50:59.9;0.15045397249592404;-0.19080019204207613;-1.1581257844911341;1.227;0.033245907898304256
50:59.9;0.1504210482285095;-0.18303029953974426;-1.1283988249605477;1.179;0.031066635825261122
51:00.0;0.14962055964881343;-0.17969901468969401;-1.095403421735466;1.099;0.029451747191023562
51:00.0;0.14776642725409775;-0.18043809233121133;-1.0606583177680207;1.02;0.028280006303035506
51:00.0;0.14465055287506612;-0.18465952374501862;-1.0255659528327294;0.9690000000000001;0.027393996982404745
51:00.0;0.1401786685831916;-0.1916172728475627;-0.9912525561535261;0.9440000000000001;0.026625692121147907
51:00.0;0.1343869397182276;-0.2004891920006164;-0.9584595154775419;0.937;0.02582389832801251
51:00.0;0.12743888409732312;-0.21046665165775366;-0.92750524791795;0.937;0.0248772074307502
51:00.0;0.11960544103126836;-0.2208334912950271;-0.8983190102559108;0.937;0.02372719861637295
51:00.0;0.11123238835664283;-0.23101845689895562;-0.870532645178383;0.929;0.022369846444189486
51:00.0;0.10269777440797061;-0.24061578623867882;-0.8436070990580173;0.9179999999999999;0.02084612678005105
51:00.0;0.0943618393809029;-0.24937877735577227;-0.8169684203846846;0.894;0.019224770262897446
51:00.1;0.08651538812025665;-0.2571958955020394;-0.7901312552410366;0.873;0.01758152876384149
51:00.1;0.07933576184385913;-0.26405942866528376;-0.7627940328997618;0.846;0.01598004370810274
51:00.1;0.07285893233748657;-0.270034539107248;-0.734896937560059;0.81;0.014458677042419387
51:00.1;0.06697302291017555;-0.2752325083852832;-0.7066404189042191;0.772;0.013025611021040153
51:00.1;0.06143529496246175;-0.27978776656250093;-0.6784691000217362;0.6940000000000001;0.011662099495792432
51:00.1;0.055911736916921514;-0.2838360293914837;-0.6510343592548253;0.6940000000000001;0.010331762550588533
51:00.1;0.05003508989234384;-0.2874913469628293;-0.6251546949677865;0.6940000000000001;0.008992634851649564
51:00.1;0.04347413126212621;-0.29082210763298544;-0.6017882360810178;0.682;0.007608552183931696
51:00.1;0.036005055198665356;-0.29382833795787855;-0.5820171479134068;0.6759999999999999;0.006157337229790493
51:00.1;0.02757369220169207;-0.2964241655095937;-0.5670317384434422;0.664;0.004634638847856742
51:00.2;0.018335356048796804;-0.2984301482715598;-0.5581002830094525;0.6559999999999999;0.0030538259784139462
51:00.2;0.008660365640365918;-0.2995800989326585;-0.5565148655171367;0.6409999999999999;0.0014438629013890157
51:00.2;-0.0009009478695046344;-0.2995455550631313;-0.5635092131764108;0.644;0.00015207700926520208
51:00.2;-0.009692152625683063;-0.2979782566727409;-0.580150220552273;0.662;0.0016755032754057343
51:00.2;-0.017054432377098847;-0.29456714773941983;-0.6072090109934343;0.682;0.003050421032900839
51:00.2;-0.022442942394899416;-0.2891020362618972;-0.645019685965651;0.682;0.004185081451675399
51:00.2;-0.0255310900428595;-0.2815330285551789;-0.6933378284879076;0.682;0.004983604914584426
51:00.2;-0.026277738904059312;-0.27201510272523655;-0.7512196318387571;0.6859999999999999;0.00536967424298962
51:00.2;-0.02494191310772192;-0.2609304865524793;-0.8169531899512615;0.748;0.005316817567348027
51:00.3;-0.022041857898130086;-0.2488861764832237;-0.8880764621668292;0.8490000000000001;0.004871910861399907
51:00.3;-0.01826555600345832;-0.23668740551563913;-0.9615038945275535;0.9540000000000001;0.004156799655846837
51:00.3;-0.014349785523482391;-0.22528752413080427;-1.033759555228173;1.064;0.0033419664760675457
51:00.3;-0.010953687394810056;-0.21571155081948828;-1.1012924192545341;1.155;0.0026021743605375786
51:00.3;-0.008556539174811804;-0.2089493212516644;-1.1608383349094744;1.239;0.002075443186071889
51:00.3;-0.007404090380297701;-0.20581917263446392;-1.2097899207698388;1.422;0.0018436034044542972
51:00.3;-0.007510247689490669;-0.20681692372462576;-1.2465296523704454;1.422;0.0019361675997410005
51:00.3;-0.00869717753961697;-0.2119830600827352;-1.2706726036237928;1.422;0.002342681020911374
51:00.3;-0.01064465911962776;-0.2208283304652195;-1.2831703973779363;1.475;0.003016274616441189
51:00.3;-0.0129275316752812;-0.23234481069585358;-1.2862511245225483;1.4569999999999999;0.003863441630108591
51:00.4;-0.015037353350002558;-0.24510545465392605;-1.2831911130740752;1.413;0.004729505386524701
51:00.4;-0.016398572018076287;-0.25743410296226;-1.2779261257713905;1.3219999999999998;0.005394831179761053
51:00.4;-0.01639706078670774;-0.2676144965825544;-1.2745282509660352;1.163;0.005592746161262735
51:00.4;-0.014436437405276406;-0.274101366823686;-1.2766092137456064;1.034;0.005051602946471078
51:00.4;-0.010023845920040667;-0.2756988589279198;-1.2867501350330317;0.9940000000000001;0.0035560149118746445
51:00.4;-0.002870508310759269;-0.2716797131128714;-1.3060764213824512;1.222;0.001018555287801175
51:00.4;0.007015921942031838;-0.2618321665187786;-1.3340659834438042;1.222;0.0024506712634997357
51:00.4;0.019269639282861184;-0.24643852097478156;-1.368607512485123;1.222;0.006499217905465863
51:00.4;0.033154048104923756;-0.22620053705812462;-1.4062695151719462;1.4080000000000001;0.01054626688189162
51:00.4;0.04761080521984756;-0.20212760517532663;-1.4427291516755498;1.546;0.01388404345359493
51:00.5;0.061373107580496244;-0.17540427169704684;-1.473304473909684;1.645;0.015860277707694406
51:00.5;0.07313056714174158;-0.14725946778962604;-1.4935106310276538;1.694;0.0160838674874197
51:00.5;0.08171631661783839;-0.11886122500669032;-1.4995503655278266;1.6740000000000002;0.014564984989008723
51:00.5;0.08627696128899541;-0.09125300233088728;-1.4886719831621538;1.618;0.011720361788185411
51:00.5;0.08638921831834943;-0.06533760823191916;-1.4593677738972348;1.548;0.00823735017879408
51:00.5;0.08210243597093303;-0.04190725601187848;-1.4114231583642112;1.3619999999999999;0.004856266446466274
51:00.5;0.07390745170583563;-0.02170967709843207;-1.3458546049703493;1.3619999999999999;0.002159433015820425
51:00.5;0.06265141441736778;-0.00552625336287915;-1.2647859260775407;1.3619999999999999;0.0004379037825624171
51:00.5;0.04942470015197585;0.0057732042473881634;-1.1712959601640611;1.2819999999999998;0.0003342162877798282
51:00.5;0.03543764665191479;0.011233073748605644;-1.0692333891416994;1.133;0.00042563368958071135
51:00.6;0.02189494421785378;0.009893911752153074;-0.9629734037131751;0.932;0.0002086056985466899
51:00.6;0.00987463013794776;0.0009547820649376229;-0.8571094832393872;0.745;8.08093084993148e-06
51:00.6;0.00022283503519161514;-0.016016796709827537;-0.7561133673661641;0.654;2.698646834478128e-06
51:00.6;-0.006520631058797843;-0.04089564947660963;-0.6640225566607191;0.609;0.00017707186866743933
51:00.6;-0.010148986424212901;-0.07290797766143638;-0.5842065627153387;0.5720000000000001;0.0004322790165379066
51:00.6;-0.010756414896254188;-0.1106806830720384;-0.5192278399990712;0.49200000000000005;0.0006181549434260716
51:00.6;-0.008654198701737748;-0.15240946100161612;-0.47078210651571284;0.49200000000000005;0.0006209530112086229
51:00.6;-0.004263394912145935;-0.19607664300042052;-0.43969697939683844;0.49200000000000005;0.0003675656406214135
51:00.6;0.0019813166518971043;-0.23965318848390377;-0.4259743978736927;0.488;0.00020226493475969634
51:00.6;0.009695657436736243;-0.2812605807670058;-0.428862684437879;0.515;0.0011695112172404373
51:00.7;0.01857515050757955;-0.3193006667028482;-0.44694459703737177;0.557;0.002650854301524166
51:00.7;0.028396741711121644;-0.3525609429951882;-0.47823770562455425;0.607;0.00478791602240788
51:00.7;0.0389999053052765;-0.38028771844510806;-0.5203138816201546;0.672;0.00771687144060097
51:00.7;0.050252701727733134;-0.40221351655945164;-0.5704446966301149;0.7290000000000001;0.01153000839951712
51:00.7;0.062009172600333756;-0.4185309012640203;-0.6257709458238828;0.78;0.016240479977413274
51:00.7;0.07406793562434776;-0.4298158571139672;-0.6834838396692847;0.898;0.021759099832758654
51:00.7;0.08614263004506834;-0.43691587219109185;-0.7409949154687485;0.898;0.02788888664625954
51:00.7;0.09785002827150598;-0.44082606566304966;-0.7960665705111178;0.898;0.03433820652694984
51:00.7;0.10871656938922376;-0.44257564134554966;-0.8468866876604297;0.943;0.0407482116348816
51:00.7;0.1182033692490064;-0.4431378931432584;-0.8920960705994002;0.9890000000000001;0.046728341889861226
51:00.8;0.12574871010737007;-0.4433664866879612;-0.9307933775417698;1.035;0.05189430333013341
51:00.8;0.13082155480986044;-0.4439537379080497;-0.9625373543254191;1.08;0.05590293581349276
51:00.8;0.13297425892897755;-0.4454044075886668;-0.9873519578285003;1.129;0.05847821136880186
51:00.8;0.1318825786466658;-0.44802003206363145;-1.0057277001133214;1.169;0.059424464215386684
51:00.8;0.12736624395017887;-0.4518922054765984;-1.0186034550489722;1.178;0.05862654985967258
51:00.8;0.11939098837970226;-0.45690664855438995;-1.0273091911774073;1.138;0.05604026739467423
51:00.8;0.10805969966534912;-0.46276049254961726;-1.0334576083472287;1.138;0.05167883296979655
51:00.8;0.09360270301842259;-0.4689918397131311;-1.0387898968710765;1.138;0.045601737845406644
51:00.8;0.0763730717921995;-0.47501749176065333;-1.0449948110893146;1.104;0.03791089127969252
51:00.8;0.05684527316511686;-0.4801752301157547;-1.0535240407727753;1.0859999999999999;0.028756667861168327
51:00.9;0.035611081888331474;-0.48376812716457285;-1.0654280510326848;1.102;0.018354668558766246
51:00.9;0.013368452879639477;-0.4851075163506213;-1.0812381039630161;1.1320000000000001;0.007011977205591674
51:00.9;-0.009096686919793668;-0.48355107167927724;-1.1009137825799737;1.171;0.004842603446724409
51:00.9;-0.03093367054087934;-0.47853467604582306;-1.1238596594058634;1.203;0.01663630799005518
51:00.9;-0.05125470089668027;-0.46959966131165976;-1.1489998556564796;1.229;0.027655496044554848
51:00.9;-0.0691691318637081;-0.4564188084620259;-1.1748925033869644;1.2830000000000001;0.037091465300370434
51:00.9;-0.08382707838980587;-0.43882496360960793;-1.1998658342163655;1.2830000000000001;0.044137562204708235
51:00.9;-0.09447131875301172;-0.41684488715801193;-1.222160509182873;1.2830000000000001;0.04812854177619363
51:00.9;-0.10049362686938328;-0.3907362650847359;-1.2400701480411598;1.3090000000000002;0.048693219958793534
51:00.9;-0.10149227378692471;-0.3610179009858183;-1.2520819133922658;1.3330000000000002;0.04587694196625373
51:01.0;-0.09732540561896437;-0.3284770816154272;-1.2570218167241372;1.3630000000000002;0.04018593812483535
51:01.0;-0.08814823374974748;-0.2941395930892039;-1.2542000948235335;1.396;0.03251875658647524
51:01.0;-0.07441874902507212;-0.25919745379874;-1.2435362944633643;1.413;0.023986758440386006
51:01.0;-0.0568630065239293;-0.22490261648341459;-1.225629943882349;1.392;0.015674138836591918
51:01.0;-0.03640333121794417;-0.19244588842933436;-1.201738046015267;1.328;0.008418981880921871
51:01.0;-0.014064241104756901;-0.162845828232675;-1.173633598944848;1.06;0.002687976542198849
51:01.0;0.009122102144928878;-0.1368711874637833;-1.1433561250701452;1.06;0.00142754066599237
51:01.0;0.032188299126553396;-0.11501154270212899;-1.112910708820472;1.06;0.004120024312403498
51:01.0;0.054267720570390976;-0.09749608863958259;-1.083988106501572;0.981;0.005735262369381064
51:01.0;0.07459572613094723;-0.08434694254908665;-1.0577540786708142;0.932;0.006655305551423817
51:01.1;0.0924917329001978;-0.07544671606816628;-1.0347282640043214;0.938;0.00722053819620235
51:01.1;0.10734287952446768;-0.07060117203235751;-1.0147644889890461;0.965;0.007690426272319089
51:01.1;0.11860614778118114;-0.0695840937186706;-0.9971364557446908;1.002;0.008229468181992038
51:01.1;0.12583516069134376;-0.0721601925948066;-0.9807126326384576;1.0390000000000001;0.008905154552687037
51:01.1;0.12872486477295808;-0.07808975334415229;-0.9641839215369375;1.0590000000000002;0.009692066389944838
51:01.1;0.12715837257988638;-0.0871227778273855;-0.9462986563129031;1.051;0.010483466179740594
51:01.1;0.12123903586302902;-0.09898962597396739;-0.9260633806810038;0.986;0.011114063366661606
51:01.1;0.11129693120501613;-0.11339164838216706;-0.9028826552504209;0.986;0.011394507760299674
51:01.1;0.0978686496610634;-0.12999279030427355;-0.8766297848919872;0.94;0.01115267597623767
51:01.2;0.08165613290835992;-0.14841308329442388;-0.8476526057606029;0.8909999999999999;0.010272564995027572
51:01.2;0.06347142245982725;-0.16822518514321746;-0.8167229106215533;0.838;0.008720552176629842
51:01.2;0.04417315689853498;-0.18895427108789448;-0.7849419348530728;0.7929999999999999;0.006551680078031122
51:01.2;0.024600178414893564;-0.21008137709428606;-0.7536193213569559;0.762;0.003894734313847077
51:01.2;0.0055072465516438265;-0.23105169843565923;-0.724144253947049;0.7390000000000001;0.0009214436338754596
51:01.2;-0.012491877608616565;-0.2512908090485498;-0.6978632405785306;0.722;0.0021906583328181036
51:01.2;-0.028967380091550005;-0.27023154373682756;-0.6759728905650912;0.698;0.005291448082000889
51:01.2;-0.043695019111434294;-0.28735071997650435;-0.6594328943569161;0.698;0.008279704370386196
51:01.2;-0.05665086303519638;-0.3022092035478063;-0.6489049585568858;0.698;0.011109520367925478
51:01.2;-0.06797856669208559;-0.31448762332979796;-0.6447223428887954;0.7070000000000001;0.01378314366050263
51:01.2;-0.07793490112454556;-0.3240154300927769;-0.6468892072202618;0.722;0.016335317746581323
51:01.3;-0.08682334667243853;-0.33079473524459274;-0.6551040887204662;0.74;0.018815051915526893
51:01.3;-0.09492627101641773;-0.3350173969686713;-0.6688011755712181;0.757;0.02126918303010401
51:01.3;-0.10244522648694214;-0.3370695615182832;-0.6872045419391851;0.773;0.023729975193663048
51:01.3;-0.10945774442320018;-0.3375173631080463;-0.7093922381529154;0.785;0.026207708294944915
51:01.3;-0.11589805790255878;-0.33706973499788856;-0.7343695752393068;0.7979999999999999;0.028688681831015417
51:01.3;-0.1215671628778754;-0.3365176382227826;-0.7611526053262331;0.899;0.03113836834949826
51:01.3;-0.12617144048244144;-0.3366540801396388;-0.7888581870858996;0.899;0.0335076430920086
51:01.3;-0.1293795965982154;-0.33818528429600236;-0.8167864506114094;0.899;0.03573789951350113
51:01.3;-0.13088283343782003;-0.3416459669192062;-0.8444782921978727;0.934;0.03776134692130746
51:01.3;-0.1304466263884639;-0.3473290697883795;-0.8717414306218587;0.96;0.03949677827234436
51:01.4;-0.12794741461254597;-0.35523673478539464;-0.8986497400605686;0.98;0.0408450881079877
51:01.4;-0.12338933358122564;-0.36505760264664194;-0.925521480231207;1.01;0.04168938790342191
51:01.4;-0.11689854822207199;-0.37617331769912854;-0.9528788252594053;1.053;0.041902002775175744
51:01.4;-0.10869788900446321;-0.38769320020751724;-0.9813888005596071;1.089;0.0413571298400238
51:01.4;-0.09906906901615267;-0.398513159799841;-1.0117826464259372;1.111;0.039945510474502455
51:01.4;-0.08831141446062962;-0.40739503535793087;-1.0447485712172182;1.128;0.037587579436273416
51:01.4;-0.07670644123011393;-0.41306328663557346;-1.0807967646378895;1.128;0.034244629078854213
51:01.4;-0.06449793403920943;-0.4143145891031682;-1.1201059948581396;1.128;0.02993195968490445
51:01.4;-0.051894612781181924;-0.4101341363350792;-1.162373566240099;1.147;0.02473967094007497
51:01.4;-0.03909597044482841;-0.399811394594886;-1.2066994347189373;1.176;0.01886193632091442
51:01.5;-0.02633566239834549;-0.3830440817563272;-1.2515374249268394;1.224;0.012625158637623618
51:01.5;-0.013932967076200705;-0.360012746561974;-1.2947401859663796;1.296;0.006494476000516645
51:01.5;-0.0023390057472591815;-0.3314064635908208;-1.3337091443263835;1.3940000000000001;0.0010338401449496814
51:01.5;0.007839071842991128;-0.29838529203057146;-1.36563769875469;1.474;0.0031943136246630217
51:01.5;0.01585224055559374;-0.26247333557046865;-1.3878113668325884;1.517;0.00577439228830786
51:01.5;0.020871564115536204;-0.22538773284879354;-1.3979129287409275;1.504;0.00657605433463898
51:01.5;0.02209360067957487;-0.18882884846541267;-1.394281748681014;1.504;0.005816816819548926
51:01.5;0.018868179958302218;-0.15427778503089862;-1.3760916125690426;1.504;0.00400572151065141
51:01.5;0.010819602945709572;-0.12284667636995004;-1.3434288633394555;1.426;0.0017856215119028329
51:01.5;-0.0020610346598445364;-0.09520211882702355;-1.2972655278070115;1.337;0.00025454278247452383
51:01.6;-0.019363577650803696;-0.0715592021574285;-1.239334801843081;1.247;0.0017172745612140682
51:01.6;-0.040251828972078595;-0.05173716283959276;-1.1719312749300679;1.135;0.0024405649630819155
51:01.6;-0.06350283791053356;-0.03526484751576455;-1.09766957180388;1.038;0.0024581408826994935
51:01.6;-0.08758531859137757;-0.021516639467945214;-1.019238062016658;0.9690000000000001;0.0019207966533523
51:01.6;-0.1107611612228149;-0.009854212021810834;-0.939179189941113;0.907;0.0010250802438807026
51:01.6;-0.13119157837925088;0.00024789030671124317;-0.8597173051483443;0.742;2.795897016466919e-05
51:01.6;-0.14703472244630894;0.009106356328975017;-0.7826466752033592;0.742;0.001047925216042108
51:01.6;-0.15652955152495257;0.016767404841152852;-0.7092897629480989;0.742;0.0018615979114556128
51:01.6;-0.15806777729181914;0.02297887868661345;-0.640525737702379;0.6679999999999999;0.002326530573480693
51:01.6;-0.15026180843141781;0.02719476005460526;-0.5768677714589578;0.608;0.002357274287447843
51:01.7;-0.1320211495999526;0.028610295652951916;-0.5185561942341929;0.539;0.001958671852360102
51:01.7;-0.10265029164547945;0.02622771197403138;-0.4656446475997818;0.46799999999999997;0.0012536468350593814
51:01.7;-0.061975216660970195;0.018959797799252498;-0.4180736710705458;0.42200000000000004;0.0004912522732351564
51:01.7;-0.010493919800836896;0.005785055618763764;-0.37573681271526765;0.377;2.2810196499797137e-05
51:01.7;0.05046907368472704;-0.014039528854064122;-0.33854574587287434;0.46299999999999997;0.00023988065628333496
51:01.7;0.11864286404158876;-0.040730162484109815;-0.3064939519957003;0.34700000000000003;0.0014810839433111514
51:01.7;0.1907739869457523;-0.07374856318651271;-0.27970913417555765;0.34700000000000003;0.003935313799866156
51:01.7;0.2627078215132704;-0.11166276166561313;-0.25848100747987285;0.34700000000000003;0.007582457863136798
51:01.7;0.32959667248705626;-0.15214700841804737;-0.2432529917588554;0.38;0.012198443707037075
51:01.7;0.38623252910616934;-0.19214456723244233;-0.23456794957927624;0.631;0.01740786977256766
51:01.8;0.4274819588302224;-0.22818632015451668;-0.23296116588401136;0.6990000000000001;0.022724321587848796
51:01.8;0.4487558405806019;-0.2568194680732549;-0.2388024823706021;0.69;0.027521803713231197
51:01.8;0.44642464870424275;-0.27507149123350544;-0.25210378270664263;0.77;0.030958015229121557
51:01.8;0.4181167842457343;-0.28087185084962857;-0.27232622086843233;0.8059999999999999;0.03198123841377957
51:01.8;0.36287142586129734;-0.27336637467591557;-0.29823778948052065;0.7440000000000001;0.029584248122550526
51:01.8;0.2811339469631589;-0.25307299744791545;-0.3278745656721105;0.47200000000000003;0.02332742636304921
51:01.8;0.17461117129972017;-0.22185233656013376;-0.3586366646620078;0.47200000000000003;0.01389282994024109
51:01.8;0.046048727388738935;-0.18270612920847817;-0.3875069543280967;0.47200000000000003;0.0032602450947048665
51:01.8;-0.10100133180145031;-0.13944261983063294;-0.4113495852975812;0.48700000000000004;0.005793402439537544
51:01.8;-0.26240250772930995;-0.09624833130951825;-0.4272467321543739;0.557;0.010790459513469946
51:01.9;-0.4336656428053385;-0.057211026354678444;-0.43284063465953715;0.652;0.01073897374616023
51:01.9;-0.6102091177348239;-0.02585841522538174;-0.426644677361902;0.841;0.006732043745896654
51:01.9;-0.787649374848464;-0.004779800364542649;-0.40828438865479566;1.097;0.0015371118300978616
51:01.9;-0.9621052771367203;0.004622418650159507;-0.3786300543795765;1.3430000000000002;0.0016838637877664032
51:01.9;-1.1304697809693591;0.0022189588035480103;-0.33978208115432174;1.5530000000000002;0.0008523317547057769
51:01.9;-1.2905714610834078;-0.010947676118835264;-0.2948845701596755;1.514;0.004166352837103224
51:01.9;-1.4411484711928677;-0.032939576683420034;-0.2477895291394474;1.514;0.011762772279146242
51:01.9;-1.581607784327979;-0.061288857819227015;-0.20265151661021608;1.514;0.019644011513145744
51:01.9;-1.7116203247531032;-0.09332692077227149;-0.16354635650401259;1.55;0.02612493660075828
51:01.9;-1.830658227414516;-0.12640098276270417;-0.1341633781262971;1.617;0.031045003080543736
51:02.0;-1.9375881873851366;-0.15798974346947461;-0.11757124636840618;1.705;0.035990799500622256
51:02.0;-2.0304086017628036;-0.18577909985333993;-0.11604763484874125;1.83;0.04377403617628353
51:02.0;-2.106181997113759;-0.2077521769142499;-0.1309757846670262;1.915;0.05731027447360436
51:02.0;-2.1611823748436065;-0.22231643332426282;-0.16281115641124275;2.004;0.07822528325497705
51:02.0;-2.191255237189021;-0.22845201191433973;-0.21110934270157772;2.176;0.10568063344585454
51:02.0;-2.1923671347647207;-0.2258260135420077;-0.2746047212211941;2.46;0.13595502085668074
51:02.0;-2.1612813408551306;-0.2148111043472912;-0.35132974616576906;2.46;0.16311088864315762
51:02.0;-2.0962444146548402;-0.19639413692576843;-0.43874322276329986;2.46;0.18062624678261177
51:02.0;-1.9975490753468825;-0.17201258944439612;-0.5338194291228605;2.356;0.18342227172063652
51:02.0;-1.8678693880489865;-0.1433692356760436;-0.633077081563967;2.325;0.16953488117702126
51:02.1;-1.7123077321457185;-0.11226561829846274;-0.7325716899700443;2.185;0.14082466338880203
51:02.1;-1.538118891748188;-0.08047655763450659;-0.8279007568341641;1.7730000000000001;0.10247963672580226
51:02.1;-1.354107986349769;-0.04965974111702039;-0.9142839585209396;1.4269999999999998;0.06148070666254629
51:02.1;-1.1697696661406245;-0.02128126791028878;-0.9867763125153156;1.325;0.024564988780029155
51:02.1;-0.994318546015537;0.0034506943589123983;-1.0406338609521;1.296;0.0035705078071980676
51:02.1;-0.8357890022298295;0.023643599282532984;-1.0717941024168915;1.341;0.02117978783717416
51:02.1;-0.700344543711339;0.03876737802415808;-1.0773913335535714;1.341;0.02925173675217916
51:02.1;-0.5918754291976942;0.04867624776454126;-1.056214803926776;1.341;0.030429838999673473
51:02.1;-0.511901076338803;0.05358182686968625;-1.009032807727104;1.254;0.027676352070267494
51:02.1;-0.4597386511643532;0.053969325800512696;-0.938735968848479;1.285;0.023291715075685365
51:02.2;-0.43287098161433396;0.05048024576495113;-0.8502756025132895;1.176;0.01857974081594775
51:02.2;-0.4274449552519458;0.043803558504886465;-0.7503798573201869;1.046;0.014049819879106596
51:02.2;-0.4388317267343531;0.03460331358845542;-0.6470422744438832;0.848;0.009825357547507595
51:02.2;-0.4621783317096499;0.023480919356116285;-0.5488117374849957;0.8320000000000001;0.005955909207253338
51:02.2;-0.492890153341083;0.010960022752732782;-0.46394825038317017;0.7829999999999999;0.002506288949032717
51:02.2;-0.5270057322281436;-0.0025109709152647875;-0.3995199486749669;0.691;0.0005286831762912768
51:02.2;-0.5614477251130451;-0.01654781021135863;-0.3605336294069956;0.691;0.003349620750510351
51:02.2;-0.5941482982588798;-0.03083337438830595;-0.3492461270516655;0.691;0.006398048274292637
51:02.2;-0.6240563307167891;-0.04515543810368629;-0.3648345053210856;0.727;0.010280867447006639
51:02.2;-0.6510427050792553;-0.05947212947030364;-0.40353442086175306;0.769;0.015624407292801238
51:02.3;-0.6757296581672834;-0.07395915694998545;-0.45922019709415446;0.927;0.02295017034960794
51:02.3;-0.6992804192690585;-0.0889842343190056;-0.5242749159583634;1.0390000000000001;0.03262297135285814
51:02.3;-0.723189256500368;-0.10499923813164531;-0.5905375254480879;1.0390000000000001;0.044842065994840447
51:02.3;-0.7490957731160656;-0.12239814387083998;-0.6501495028479883;1.078;0.05961086354407559
51:02.3;-0.7786131412575648;-0.14140668972045292;-0.6962371694160954;0.995;0.07665648300237038
51:02.3;-0.8131356979398937;-0.1620474574468287;-0.723475196770425;1.4069999999999998;0.09532984690238748
51:02.3;-0.8536086983659593;-0.18418073262924378;-0.7285881357423406;1.4069999999999998;0.11454737021017855
51:02.3;-0.900300722945057;-0.2075731398382395;-0.7107412512056012;1.4069999999999998;0.13282207970737026
51:02.3;-0.9526653433125357;-0.23192879395514968;-0.6716668043370438;1.308;0.14840513245049206
51:02.3;-1.0093622414517651;-0.25685988326403786;-0.6153995652666772;1.1159999999999999;0.15955136367492698
51:02.4;-1.0684423964987568;-0.2818418894762242;-0.5476361707180128;1.212;0.16491067888124566
51:02.4;-1.127641095951951;-0.3062233878748462;-0.4748709052069128;1.31;0.16397770870401895
51:02.4;-1.1846979382621254;-0.3293164992298738;-0.40351642724072867;1.383;0.15742813202437705
51:02.4;-1.2376317504564813;-0.35052602806299804;-0.3391806485741258;1.47;0.14714407538496513
51:02.4;-1.284924332785845;-0.36943840200142797;-0.2861820000772611;1.517;0.1358507076764417
51:02.4;-1.325593119796621;-0.3858048744776739;-0.24730172148052276;1.3840000000000001;0.12647511742254688
51:02.4;-1.3591532118798544;-0.39940969824321165;-0.22372777062597451;1.3840000000000001;0.1214526280672654
51:02.4;-1.3854904852207004;-0.4098824349156198;-0.21514296020465548;1.3840000000000001;0.12217715134669976
51:02.4;-1.4046874088449413;-0.4165454222684478;-0.21992868145046432;1.308;0.12868381453968128
51:02.4;-1.4168523420739352;-0.41836513460142016;-0.23547307730744027;1.3119999999999998;0.13957940296001634
51:02.5;-1.4220044309784037;-0.4140291920602687;-0.2585772333450378;1.421;0.15223769408999374
51:02.5;-1.4200594489301077;-0.4021260773196753;-0.28593243581422606;1.605;0.16327969757607866
51:02.5;-1.4109309200763516;-0.3813700597778995;-0.3145972059768715;1.7919999999999998;0.16928060678885834
51:02.5;-1.3947045167283794;-0.35080144809686764;-0.3423665199256947;1.784;0.16750773767274868
51:02.5;-1.3717954084346922;-0.3099140367245095;-0.3679251558434485;1.734;0.15641920500856613
51:02.5;-1.3429983243601218;-0.25870927405654265;-0.39071721702370693;1.249;0.13575318167940026
51:02.5;-1.309398630581039;-0.19771746997989093;-0.4105515089753117;1.249;0.10628808431932533
51:02.5;-1.272192490130115;-0.1280263853036956;-0.42707752823608025;1.249;0.06955991327852488
51:02.5;-1.2325008615791715;-0.05131918731475179;-0.43932835404328013;1.213;0.027787932495785535
51:02.5;-1.1912340218674533;0.030116870507235702;-0.4454890497428682;1.102;0.015982472413604804
51:02.6;-1.1490208051104287;0.11345880360742319;-0.44296935534327686;1.1179999999999999;0.05774837592203185
51:02.6;-1.1062032927165872;0.1955085405499535;-0.42879167127734735;1.232;0.09273571436287478
51:02.6;-1.0628967029026481;0.27291337320789694;-0.4002366911895086;1.3090000000000002;0.11610014890265284
51:02.6;-1.0191020003762576;0.34240329018461335;-0.35560761481389414;1.4569999999999999;0.12408710014617355
51:02.6;-0.9748419987076525;0.4010442320958997;-0.2949044548110601;1.527;0.11529430058554375
51:02.6;-0.9302836847117874;0.4465378151227524;-0.22018872503325965;1.198;0.09146790335387302
51:02.6;-0.8858186446330882;0.47755301701134373;-0.1355134840954668;1.198;0.0573256412439315
51:02.6;-0.8420989296116401;0.49399030323893744;-0.04646549519537984;1.198;0.019329121201205016
51:02.6;-0.8000417392810986;0.4970525634544376;0.04052368804182857;1.179;0.016114763146876793
51:02.6;-0.7608020014502059;0.4890539356895442;0.11896648271793099;1.056;0.0442642414748415
51:02.7;-0.7256924303417533;0.47298389013661957;0.18312871341857326;0.898;0.06285725136093226
51:02.7;-0.6960456299938339;0.4519309966024243;0.22875567064217708;0.98;0.07195843494529776
51:02.7;-0.673055009444888;0.42854148845732104;0.25356038155387894;0.9179999999999999;0.07313492684683663
51:02.7;-0.657649731067611;0.4046839882750483;0.25733888316195747;0.7809999999999999;0.06848825169833819
51:02.7;-0.6504290352777904;0.38139115925977113;0.24168734604716344;0.82;0.0599548684705204
51:02.7;-0.6516390093597553;0.35902492560002724;0.20943856729281268;0.787;0.04899912604848495
51:02.7;-0.6611620833310645;0.3375471588048121;0.1640185195022584;0.787;0.03660456782897651
51:02.7;-0.6785051013492646;0.31678505524757455;0.10890144521801373;0.787;0.02340730669377609
51:02.7;-0.7027907780036488;0.29662231191734306;0.04725436279659724;0.79;0.009850806332048876
51:02.7;-0.7327641061994536;0.27708642869344485;-0.01822155539687476;0.7929999999999999;0.003699686190554807
51:02.8;-0.7668203298609932;0.2583304589033056;-0.0852922675025674;0.8009999999999999;0.01689580521562682
51:02.8;-0.8030536507540782;0.24053198291166955;-0.152091084161067;0.773;0.029377927048526792
51:02.8;-0.839326398678974;0.22375096237757988;-0.2169743593698714;0.768;0.04074780409874054
51:02.8;-0.873368988523227;0.20779485146289942;-0.2783831853757408;0.84;0.05052142011654336
51:02.8;-0.9029284794556622;0.192137537226793;-0.3347552866102193;0.9179999999999999;0.05807550774375097
51:02.8;-0.9259724501757179;0.17593056161284737;-0.3845184271943673;1.166;0.06264068697066269
51:02.8;-0.9409264686806444;0.1581215856045178;-0.4261655861182422;1.166;0.06340525051299288
51:02.8;-0.946896662451252;0.13765928324847593;-0.458373732616884;1.166;0.05974861078162349
51:02.8;-0.9438255136989739;0.11374041164932393;-0.48011543169995774;1.178;0.05154092089781136
51:02.8;-0.9325516120959935;0.08605429829739976;-0.4907329897919967;1.16;0.03938135904195699
51:02.9;-0.9147715029651234;0.054985765910388396;-0.48996669311232993;1.131;0.02464503642767573
51:02.9;-0.8929148114746662;0.02173872932235294;-0.4779354849891756;1.089;0.00927712607247674
51:02.9;-0.8699432261066592;-0.011653112477726147;-0.4550754467161588;1.006;0.004613348394266322
51:02.9;-0.8490815231966183;-0.042447787504441115;-0.42205518230854877;0.9;0.015211557594253558
51:02.9;-0.8334948577120794;-0.0674441657907221;-0.37969869984506016;0.804;0.021344521443318568
51:02.9;-0.8259416945029717;-0.08332512360712466;-0.3289512317436353;0.7759999999999999;0.022638980941830793
51:02.9;-0.8284464810080684;-0.08703632088705494;-0.27091795403628255;0.7759999999999999;0.01953452112984757
51:02.9;-0.84203978250039;-0.07613279089726514;-0.20698370337460553;0.7759999999999999;0.013269070883338802
51:02.9;-0.8666038090060103;-0.049037599451632004;-0.13898934363122833;0.794;0.005906514840368147
51:02.9;-0.9008455440354882;-0.005184320225905782;-0.06941299429975976;0.812;0.000324177548051999
51:03.0;-0.9424065364171257;0.05495502903105798;-0.0014897034473638656;0.8740000000000001;7.715170961144464e-05
51:03.0;-0.9881077505552057;0.12993235646972984;0.06079914100646331;0.9940000000000001;0.007805829559571112
51:03.0;-1.0343113713747527;0.21744255842738006;0.11292585628189969;1.207;0.025397398952979235
51:03.0;-1.0773500997917314;0.31447341343005586;0.15024270692655725;1.44;0.050901923113513846
51:03.0;-1.1139321317893416;0.41748253027639765;0.16862173519582;1.621;0.07841706664420629
51:03.0;-1.1414108250264683;0.5226170921962331;0.16520253252733613;1.4;0.09854674791866903
51:03.0;-1.1578578288735584;0.6259786478534687;0.13905171362818095;1.4;0.10078388640115701
51:03.0;-1.1619823340161217;0.7238865661235616;0.09154471800422011;1.4;0.07700223550673169
51:03.0;-1.1530078792072451;0.813070815401516;0.02637757216535455;1.4;0.024728368711493816
51:03.0;-1.130600804562273;0.8907716315943408;-0.0508039295993862;1.2990000000000002;0.051164999394313765
51:03.1;-1.0948870363594803;0.9547903609189492;-0.13312111973946955;1.554;0.1391631663576598
51:03.1;-1.046544145197332;1.0035535957718866;-0.21340556620507667;1.75;0.2241320000660087
51:03.1;-0.9869098117016543;1.0362175681352743;-0.2851682363933484;1.746;0.29162823373966673
51:03.1;-0.918017619635982;1.0527882673797062;-0.3434037620542395;1.746;0.3318922426808201
51:03.1;-0.8424951159906435;1.0541967700013475;-0.38510836673886306;1.903;0.3420361640866381
51:03.1;-0.7633319174319002;1.042260632084114;-0.40943866123757633;1.156;0.32574563480968777
51:03.1;-0.683591399742465;1.0194906749321389;-0.417487687426418;1.156;0.29095345568884645
51:03.1;-0.6061531835915303;0.9887703174859335;-0.4117619717451481;1.156;0.2467880042753045
51:03.1;-0.533534967690701;0.9529923507433659;-0.3955401262961675;0.9640000000000001;0.20111425328716162
51:03.1;-0.46779062611267785;0.9147361394082003;-0.37227695079537004;0.879;0.1592991654216819
51:03.2;-0.4104587682475645;0.8760371070178812;-0.3451318689222224;0.889;0.12410152064677339
51:03.2;-0.3625422558182195;0.8382797655401276;-0.3166450466741222;0.915;0.09623217787681267
51:03.2;-0.3245075313060551;0.8022202411976856;-0.2885639383282375;0.888;0.07512084298688994
51:03.2;-0.2962953577147591;0.7681086653510371;-0.2618075766397264;0.843;0.059584009260759116
51:03.2;-0.2773428727645551;0.7358630656625426;-0.23654606897750752;0.82;0.04827583011474386
51:03.2;-0.2666310105154287;0.7052532912546119;-0.2123697551225134;0.841;0.03993451795571381
51:03.2;-0.2627742287480546;0.6760683581397692;-0.18851630858732932;0.841;0.03349055212726258
51:03.2;-0.2641514718272517;0.6482486066353316;-0.16411459998086286;0.841;0.028102298684742996
51:03.2;-0.26905662344025927;0.6219648705881169;-0.13840274740991357;0.763;0.0231608372502064
51:03.2;-0.275844566987829;0.597629823189655;-0.11089064686249214;0.6940000000000001;0.018280649131246544
51:03.3;-0.2830589774622387;0.5758407869763819;-0.08145966829051567;0.634;0.013277673760127924
51:03.3;-0.2895341962841354;0.5572747507036909;-0.05041298493570895;0.605;0.008134140012180413
51:03.3;-0.2944645232657657;0.5425703857315173;-0.01849745495827538;0.612;0.002955296388953218
51:03.3;-0.29743471538157146;0.5322292752685748;0.013092364105301445;0.625;0.002072566576821017
51:03.3;-0.29840681604095987;0.5265534253902227;0.04274006711385065;0.617;0.006715624130593584
51:03.3;-0.29766139605060543;0.5256204351386575;0.06849512719500037;0.59;0.010716536123327281
51:03.3;-0.2956972407110844;0.5292909957142469;0.08824966741560096;0.59;0.013811945471996198
51:03.3;-0.2931011093544119;0.5372448441599066;0.09999709465059836;0.59;0.015746248484992655
51:03.3;-0.2904027328332793;0.5490447616180482;0.10213340206043489;0.626;0.016284568291971467
51:03.3;-0.2879283839900854;0.5642301681364106;0.0937532063181216;0.711;0.015230947189456046
51:03.4;-0.28566804210177177;0.5824387540612025;0.07488429482243374;0.718;0.012459558882473128
51:03.4;-0.28318026292510795;0.6035444431666289;0.04659144519236621;0.669;0.007963031214990503
51:03.4;-0.2795624912748966;0.6277913725417859;0.010900078071087749;0.706;0.0019130391312006452
51:03.4;-0.2735007837868038;0.6559056071423527;-0.029449781204729963;0.792;0.005283016795767677
51:03.4;-0.2633906864862062;0.6891707731539009;-0.07135456285526855;0.866;0.012952363238215412
51:03.4;-0.24750962646914101;0.729446575826948;-0.1117228181581004;1.0290000000000001;0.02017100173598802
51:03.4;-0.2242242121144811;0.7790929009454007;-0.14780576071409787;1.0290000000000001;0.025820408847377605
51:03.4;-0.19221854601022295;0.8407549717545917;-0.1774306750543282;1.0290000000000001;0.028674340420097928
51:03.4;-0.15072339061172063;0.9169830931169498;-0.1991088470379418;0.9890000000000001;0.02751899322100635
51:03.4;-0.09971810775920517;1.0097036970560669;-0.21201993113377915;0.8390000000000001;0.02134738409939061
51:03.5;-0.04007534856861561;1.1196130036087395;-0.21590284888749872;0.772;0.009687319316677276
51:03.5;0.026377963360588463;1.245613885695436;-0.21090229389625845;0.89;0.006929565513733467
51:03.5;0.09690543610001055;1.384437427654618;-0.19742701013652328;0.965;0.026486711469794776
51:03.5;0.16803183351168174;1.5305689168419572;-0.1760662831846336;1.053;0.04528148404321335
51:03.5;0.23585356465427582;1.676554725736004;-0.14758216058994167;1.339;0.05835714579560416
51:03.5;0.2964792141962323;1.81371551136944;-0.11295971711509865;2.3569999999999998;0.060741710029870895
51:03.5;0.3465431409247392;1.9331941914630528;-0.07347959445550473;2.3569999999999998;0.04922656586156962
51:03.5;0.3836886958118683;2.0271337281246207;-0.030782760899832163;2.3569999999999998;0.02394247115816522
51:03.5;0.40691510617310056;2.0897296791954134;0.013092835400572937;2.733;0.011133395359185227
51:03.5;0.4167268243365758;2.1179785809045315;0.055727407323202964;2.803;0.04918603999361751
51:03.6;0.4150686557575277;2.1120249099378468;0.09441622566340448;2.5980000000000003;0.08276860011374347
51:03.6;0.4050529957314849;2.0750417451719434;0.12636664814874154;2.218;0.10621140472541027
51:03.6;0.39051204233672726;2.01264654088701;0.1489830327322172;1.909;0.11709510832658866
51:03.6;0.3754475223215178;1.9319730180290868;0.1601946301829819;1.724;0.11619789312548358
51:03.6;0.36348316716412604;1.8406070416184934;0.15875169448243223;1.605;0.10620959488152737
51:03.6;0.3574307420393983;1.7455975219562578;0.14438875632927203;1.4080000000000001;0.0900885081519006
51:03.6;0.3590453012109485;1.6526980901530712;0.11777738319646668;1.4080000000000001;0.06988833170303846
51:03.6;0.368977410043266;1.5659200240750668;0.08029735195769229;1.4080000000000001;0.04639493590987301
51:03.6;0.38687546889534036;1.4874027266227645;0.0337552916826831;1.443;0.019424132465231597
51:03.6;0.41158305692800246;1.4175521938643227;-0.01983002073652291;1.4369999999999998;0.011569636525538097
51:03.7;0.44138842238690107;1.3553727807667402;-0.07833271924995791;1.464;0.046862224480654635
51:03.7;0.47428502686321916;1.298917127176014;-0.13952673909620894;1.507;0.08595641657144076
51:03.7;0.5082021818499631;1.2457847394605819;-0.20103399704982652;1.525;0.1272767389545466
51:03.7;0.5411778199097335;1.19360060495098;-0.2602759444751346;1.464;0.16812529142139582
51:03.7;0.5714704336115496;1.1404087103126157;-0.3145013738736203;1.371;0.20496364639256925
51:03.7;0.5976338753804549;1.0849357292413022;-0.3609436636039949;1.421;0.23403383012972306
51:03.7;0.6185840927224349;1.0267172939946192;-0.3970994936150308;1.421;0.2522022508457955
51:03.7;0.6336592687400352;0.9661099953646124;-0.42104825299157894;1.421;0.25775923662704997
51:03.7;0.642645538917431;0.904212405181851;-0.4317090540827948;1.3;0.2508609803580876
51:03.7;0.6457445471017312;0.842700191751718;-0.42897422635088195;1.176;0.2334344988001444
51:03.8;0.6434842165632643;0.783581751466503;-0.4137113247743898;1.0590000000000002;0.2086025540937556
51:03.8;0.6365918965021836;0.7289072088545244;-0.3876520778091177;0.95;0.17987693030371296
51:03.8;0.6258567232501858;0.6804824400712134;-0.35319593704206503;0.865;0.15042067864199243
51:03.8;0.6120112470771066;0.6396341906452945;-0.31316213668557963;0.8079999999999999;0.1225914893149829
51:03.8;0.5956576198661945;0.6070560714867113;-0.2705264990213157;0.7959999999999999;0.0978217259292885
51:03.8;0.5772497765421394;0.5827501405249845;-0.2281742739115188;0.7929999999999999;0.07675608897206332
51:03.8;0.55712675719384;0.5660639327052034;-0.18869065090118659;0.7929999999999999;0.059507250415074604
51:03.8;0.5355800189076841;0.5558089917814766;-0.15420053579145138;0.7929999999999999;0.04590244484298384
51:03.8;0.5129315152584705;0.550439916331572;-0.12625810669847812;0.8059999999999999;0.0356474588471413
51:03.8;0.4895988331956007;0.5482722482495317;-0.10577689434485767;0.807;0.028394056998351576
51:03.9;0.46612716885467304;0.5477162206606525;-0.09299156823162168;0.805;0.02374125057223323
51:03.9;0.44317508577129305;0.5474998336033664;-0.08745147724098266;0.775;0.02121907652116608
51:03.9;0.42145171448855384;0.5468550306126696;-0.08805000790515938;0.738;0.020293148611536357
51:03.9;0.401615096973363;0.545648436585826;-0.09308942030589297;0.715;0.020399676052804846
51:03.9;0.38415124911113513;0.544448982445745;-0.10037538529363309;0.69;0.02099358778659328
51:03.9;0.3692587233190102;0.5445322136226192;-0.10733306067262458;0.6890000000000001;0.021581809489450637
51:03.9;0.3567636673964087;0.5478224369422704;-0.11113728025199848;0.6890000000000001;0.021721019210839375
51:03.9;0.3460854570967721;0.5567716129823772;-0.10885381328342725;0.6859999999999999;0.020975102041334386
51:03.9;0.3362628023775173;0.5741732454032433;-0.09759544162507196;0.6859999999999999;0.018843054904431025
51:03.9;0.3260385870358931;0.60291355682865;-0.07470184496105316;0.687;0.014684372057422266
51:04.0;0.3139941194238355;0.6456695785800293;-0.037953025265173794;0.703;0.007694461638055527
51:04.0;0.29872015914933703;0.7045714816897477;0.014177614962212442;0.73;0.002983958440719978
51:04.0;0.27900916397165465;0.7808533311374423;0.08223257259607154;0.757;0.01791561876194357
51:04.0;0.25404946308007637;0.874523195772189;0.16545907716341554;0.777;0.03676039863525301
51:04.0;0.2235998846984989;0.9840921113598602;0.2615157815119589;0.7979999999999999;0.057544686417852334
51:04.0;0.18812457830372528;1.1064094637863007;0.3662553383843687;1.047;0.07623341670280899
51:04.0;0.14887144979505382;1.2366481169015826;0.4736519519331939;1.047;0.08720008127014786
51:04.0;0.10787996159658321;1.368465143101303;0.5759472110813613;1.047;0.08502706781408101
51:04.0;0.06789974198855749;1.4943599660789417;0.6640976173712734;1.254;0.06738376458174412
51:04.0;0.032192041565047146;1.6062624531847685;0.7286264241513065;1.838;0.03767644733805067
51:04.1;0.0041929958824293255;1.6963461475899575;0.7609422384162324;3.134;0.005412408960547374
51:04.1;-0.012930020848009679;1.7579444011373786;0.7549662149218922;3.241;0.017160576662509176
51:04.1;-0.016718599363543123;1.786345527060666;0.7085733030768598;2.676;0.021161680004077938
51:04.1;-0.0057235072131073235;1.7792828231161015;0.62424022525994;2.0780000000000003;0.0063570989482176635
51:04.1;0.020403186016798643;1.7370907498615247;0.5086045918730626;1.889;0.01802605839175862
51:04.1;0.06099093436892599;1.6626148111890062;0.37113395776913954;1.839;0.03763462774927708
51:04.1;0.11452162575405293;1.560958393724821;0.22241300370268877;1.839;0.03975932542691183
51:04.1;0.17880929724799677;1.439083523647955;0.07255762461628873;1.839;0.018670637785468826
51:04.1;0.2511512560355267;1.3052348319079072;-0.06993938411644553;1.2670000000000001;0.022926925146171846
51:04.1;0.32846013861668566;1.1681707560593524;-0.19885780057727617;0.991;0.07630124659713143
51:04.2;0.40741088472345804;1.0362729466801264;-0.3104567120158431;0.934;0.13107137092034782
51:04.2;0.4846251444852772;0.916697352447372;-0.40333761470230717;0.925;0.1791845853923665
51:04.2;0.5568832741309064;0.8147348564961745;-0.47806168343706323;0.9229999999999999;0.2169024250283542
51:04.2;0.6213305357251252;0.7334727937189626;-0.5366144703529858;0.948;0.24455079949605438
51:04.2;0.6756442492526791;0.6737719997334122;-0.5818068453312811;0.987;0.2648560331377069
51:04.2;0.718142677138383;0.6345307127097868;-0.6166910539075535;1.189;0.2810159901290412
51:04.2;0.7478282601767998;0.6131713888081958;-0.6440521064591254;1.189;0.29532809227134166
51:04.2;0.7643631032825133;0.606247284843683;-0.6660132339194756;1.189;0.30862590780219906
51:04.2;0.7679807637722107;0.610051327912304;-0.6837793979479616;1.199;0.3203559026125826
51:04.2;0.7593534689266671;0.6211348249521274;-0.6975364091096495;1.188;0.32900063934183577
51:04.3;0.7394532633490303;0.6366785047851048;-0.7065177160485159;1.183;0.3326243002440185
51:04.3;0.7094500586525178;0.6546850046416195;-0.7092399352567188;1.236;0.3294180591383347
51:04.3;0.6706671596460971;0.6739909435653993;-0.7038879328158941;1.354;0.3181739515796557
51:04.3;0.6245802962322377;0.6941269044819974;-0.6887924728668479;1.4280000000000002;0.2986177025773429
51:04.3;0.5728232414919714;0.7150756027989863;-0.6628907938278048;1.351;0.2715279739304515
51:04.3;0.5171622517834743;0.7369932994246212;-0.6260344897950536;0.9640000000000001;0.23860998715601286
51:04.3;0.4594256350590966;0.7599612744188725;-0.579062522386356;0.9640000000000001;0.20217718458039688
51:04.3;0.4014119924949298;0.7838141083904515;-0.5236686316480096;0.9640000000000001;0.1647631094749598
51:04.3;0.3448154051579278;0.8080631875849679;-0.4621608300442195;0.9440000000000001;0.12877309006326224
51:04.4;0.29118338824480144;0.8319149447446805;-0.39718940456307283;0.9440000000000001;0.09621508682568593
51:04.4;0.24189812431634086;0.8543686547384245;-0.3314753360874943;0.932;0.06850606573591583
51:04.4;0.19817050718190324;0.8743636491739003;-0.2675603127277464;0.9329999999999999;0.04636100156394294
51:04.4;0.16104539923679956;0.8909424078374845;-0.20760287599851332;0.961;0.029787312343791422
51:04.4;0.13141728024271382;0.9034049331177723;-0.15323793624479615;0.986;0.01819287045740836
51:04.4;0.11005049038513698;0.9114366567769854;-0.10550402007680945;1.004;0.010582480614002288
51:04.4;0.0975951983747856;0.9151927031269959;-0.06483167206032267;0.97;0.005790662087329272
51:04.4;0.09459083328146439;0.9153245931487026;-0.031080923900013886;0.97;0.0026910272934157087
51:04.4;0.10145111980542802;0.9129452345337801;-0.003617509128988698;0.97;0.0003350512224692027
51:04.4;0.11842793186749152;0.9095371583515618;0.018580146188445636;0.943;0.002001353100474135
51:04.5;0.1455553875895741;0.9068119706530844;0.036794147341714815;0.934;0.004856509836848652
51:04.5;0.18258050774560172;0.9065301308342167;0.052434274732762486;0.898;0.008678644907691425
51:04.5;0.22889053024139241;0.9102947731698351;0.06691042310631835;0.877;0.013941312122282976
51:04.5;0.2834494172322787;0.9193405455249535;0.08151858990892782;0.872;0.021242647442245965
51:04.5;0.34475895341588086;0.9343442764575964;0.0973475051920245;0.879;0.03135792443131378
51:04.5;0.41086367346290487;0.9552854903652247;0.11521187915736586;0.89;0.04521975306103073
51:04.5;0.4794194606731649;0.9813817248553318;0.13561554113057744;1.025;0.06380623022725017
51:04.5;0.5478340379367491;1.0111188802381932;0.1587418922768838;1.025;0.08793115649217645
51:04.5;0.6134668145859051;1.0423926881300452;0.1844617012245432;1.025;0.11795833685179907
51:04.5;0.6738681436940724;1.0727720998745263;0.21234830873308586;1.403;0.15350806683408527
51:04.6;0.7270440450325836;1.099871986750784;0.2417012843450833;1.7209999999999999;0.19327773196017986
51:04.6;0.7717173166557295;1.1217662809162372;0.2715880363883254;1.692;0.23511008694642785
51:04.6;0.8075206758281654;1.1373217347427904;0.30090791582492116;1.645;0.2763570844755782
51:04.6;0.8350511317372907;1.146350380977871;0.3284749556870489;1.617;0.31443632466785737
51:04.6;0.8557523614800309;1.1495590611863444;0.35310614206239826;1.5759999999999998;0.3473638880562339
51:04.6;0.8716403493636928;1.1483515892049443;0.3736680565448924;1.4580000000000002;0.37402288441009035
51:04.6;0.8849248889286196;1.1445742325689705;0.388995902895284;1.369;0.3939992559661681
51:04.6;0.8976033079466497;1.1402824757498058;0.3976521931102527;1.369;0.40700549847852147
51:04.6;0.9111065167854778;1.1375577418135123;0.39765230184226685;1.369;0.4121412691885453
51:04.6;0.9260591969088311;1.1383567187640364;0.3863921167843093;1.386;0.40732904749710613
51:04.7;0.94218838945727;1.1443654975481508;0.36094969644084524;1.4869999999999999;0.3891788088216863
51:04.7;0.9583901308445487;1.1568424004995161;0.3187592087225783;1.83;0.35341035551062644
51:04.7;0.9729402381514439;1.1764438199877336;0.25846771694823617;1.837;0.2958446121172666
51:04.7;0.9838060813759147;1.2030416214478346;0.18065338416919954;1.618;0.21381405854649185
51:04.7;0.9889874813329961;1.2355703269964864;0.08810603094520586;1.5659999999999998;0.1076623614961312
51:04.7;0.9868048451263947;1.271971021789172;-0.014435446348163058;1.5930000000000002;0.01811918700846876
51:04.7;0.9760731754561904;1.3092912678888544;-0.12097340403878484;1.764;0.15459966565563477
51:04.7;0.9561497363412104;1.3439447860861378;-0.22513681739685973;1.764;0.2893036139552506
51:04.7;0.9268993876752798;1.372068787041746;-0.32101716010014847;1.764;0.4082599033526482
51:04.7;0.8886448843739849;1.3898968412580268;-0.4037760582678713;1.714;0.49871379001907123
51:04.8;0.8421446972398735;1.3941008426107382;-0.46996793776080603;1.715;0.5517586348712743
51:04.8;0.7886017212571167;1.3820986595503304;-0.5176329007675937;1.761;0.5641812370368419
51:04.8;0.729684183786579;1.352332871931337;-0.5462544755719526;1.8359999999999999;0.5390307560567283
51:04.8;0.6675323733082537;1.3045031252116501;-0.5566461221262909;1.899;0.48472636723999896
51:04.8;0.6047208379415931;1.2397034309814925;-0.5507733984644452;1.786;0.41290077077547166
51:04.8;0.544145421229388;1.1603983513905873;-0.5314865880779241;1.614;0.3355941578926376
51:04.8;0.48881713095256546;1.0701883108151753;-0.5021627495716258;0.902;0.2626945811893642
51:04.8;0.4415805467756658;0.9733810256579541;-0.4663136510948708;0.902;0.20043378993236846
51:04.8;0.40481835439734154;0.8744787225148797;-0.4272451206366858;0.902;0.15124692491165068
51:04.8;0.3802138496621659;0.7777227510914675;-0.38782629671661734;0.902;0.11468060870313357
51:04.9;0.3686076324990618;0.6867667406039888;-0.35037671319643143;0.78;0.08869697580630079
51:04.9;0.3699443277956314;0.6044604123844737;-0.3166442389754743;0.6890000000000001;0.07080694009092324
51:04.9;0.38329373662067967;0.5327063413603003;-0.28783464770402994;0.614;0.058770943052711744
51:04.9;0.4069382214849861;0.47238360260140455;-0.26465623230211693;0.5489999999999999;0.05087511713306897
51:04.9;0.43852389371360173;0.42335804854851533;-0.24735746653339608;0.546;0.04592256170991429
51:04.9;0.47527121005694833;0.38459996111822875;-0.23575838670382906;0.598;0.04309410785981182
51:04.9;0.5142313515598883;0.3544143405536327;-0.22929378283150495;0.792;0.04178901327096468
51:04.9;0.5525587243561397;0.33076450380693134;-0.22708485009102392;0.792;0.04150357416954644
51:04.9;0.5877556103558076;0.3116444592270999;-0.2280393224538344;0.792;0.04177014041563745
51:04.9;0.617849909162108;0.29544456578958916;-0.2309667219679206;0.836;0.042160757384083904
51:05.0;0.6414918612806123;0.28126284170330834;-0.23469461986894974;0.861;0.042345439528345095
51:05.0;0.6579764634105996;0.2691275995391958;-0.2381753853646986;0.88;0.042176008198747415
51:05.0;0.6672011031325242;0.2601054485302437;-0.24057024613510458;0.922;0.04174919614662284
51:05.0;0.6695647075869664;0.2562756102988815;-0.2412876804718358;0.804;0.04140330206636055
51:05.0;0.665818996879799;0.2605634162646401;-0.2399493984720046;0.7070000000000001;0.04162835862426059
51:05.0;0.6568949967036628;0.276444422163543;-0.23627953109533187;0.65;0.04290717147492113
51:05.0;0.6437398759608444;0.3075491614741163;-0.2299556788475723;0.669;0.0455270068083291
51:05.0;0.6271990762616092;0.3572061014404427;-0.22048575990386263;0.669;0.0493974834355942
51:05.0;0.607964380490829;0.4279569501961171;-0.2071595665787656;0.669;0.053899310939745
51:05.0;0.5865897047795409;0.5210782817599754;-0.18908999675006577;0.669;0.057797088713431775
51:05.1;0.5635625970517514;0.636155753543345;-0.16533591440327675;0.713;0.059275171996569655
51:05.1;0.5394113212562557;0.7707737811261649;-0.1350905848401755;0.772;0.056165815919918906
51:05.1;0.5148213804663915;0.9203895012352452;-0.0979150775801898;0.873;0.0463957076559313
51:05.1;0.4907315798026261;1.0784487141328607;-0.053987271429183414;1.035;0.028571621099232912
51:05.1;0.4683813143759619;1.236776102529911;-0.004321789769347919;1.2109999999999999;0.0025035385498730464
51:05.1;0.4492865057697105;1.3862392769092242;0.04910275382086156;1.4240000000000002;0.030582108434224906
51:05.1;0.43512791850692745;1.517643729565941;0.10337689389832737;2.221;0.06826691228530264
51:05.1;0.42754839940238737;1.622740005070382;0.1548813039382993;2.221;0.10745663191641319
51:05.1;0.4278812066209692;1.6951278147936755;0.19964743068960786;2.221;0.1448069437318786
51:05.1;0.4368548370641289;1.7308259636506675;0.23377009695840734;1.7990000000000002;0.17675817425731627
51:05.2;0.45432959431392844;1.7284087737191733;0.2538225627440634;1.744;0.19931854760375248
51:05.2;0.4791355640100853;1.6887948881977997;0.25726682348419805;1.715;0.20817045799401837
51:05.2;0.5090973639570416;1.6148712098615678;0.24281453775087566;1.579;0.199624308822757
51:05.2;0.5413038815591508;1.5111146979283168;0.21063044571155348;1.578;0.17228985990674192
51:05.2;0.5725972257851649;1.383299807233747;0.16229448489366036;1.76;0.12854918211159966
51:05.2;0.6001599021097748;1.238294731215819;0.10054303879762853;1.9240000000000002;0.0747210572410307
51:05.2;0.6220238244753372;1.0838609389334508;0.028884193580859967;2.004;0.019473357246505625
51:05.2;0.6373355597359643;0.9283114996114055;-0.04882741574257381;0.7959999999999999;0.028888541758141553
51:05.2;0.6463047409960425;0.7799380565902748;-0.12881109647656455;0.7959999999999999;0.0649307965650719
51:05.2;0.649907473148882;0.6462862252773766;-0.20773134910916632;0.7959999999999999;0.08725261907540585
51:05.3;0.6495089790538704;0.5334767783464606;-0.28295464113763125;0.736;0.09804320526255815
51:05.3;0.6465412703784225;0.44571725506018545;-0.35265012152622627;0.754;0.10162480782227808
51:05.3;0.6422843425467741;0.3850396911306356;-0.41574489520365515;0.789;0.10281577670415855
51:05.3;0.6377408632587639;0.35126386939476895;-0.4717684750799662;0.794;0.10568336746751943
51:05.3;0.6335764127677384;0.3421892720543286;-0.5206213490850008;0.7829999999999999;0.11287229714506816
51:05.3;0.6300981702290185;0.3540020996279494;-0.5623113542088128;0.809;0.1254269637286595
51:05.3;0.6272544113272513;0.38184773388544896;-0.5967171443003297;1.0190000000000001;0.142923109920387
51:05.3;0.6246511581218094;0.42047883669500674;-0.6234344320297767;1.0190000000000001;0.1637466697062171
51:05.3;0.6215949021311278;0.46486155182085853;-0.6417299078461425;1.0190000000000001;0.18543143182663926
51:05.3;0.6171747338321804;0.5106358331856006;-0.6505984632948812;1.0190000000000001;0.20503710400615563
51:05.4;0.6103920099534187;0.5543836974967374;-0.6489151687134803;1.055;0.2195872990548249
51:05.4;0.6003355257829363;0.5937216679834096;-0.6356748775903671;1.153;0.22657500128146263
51:05.4;0.5863857948297692;0.6272689296026991;-0.6102901496799813;1.284;0.22447789312941657
51:05.4;0.5684107951499467;0.6545496853439429;-0.5728789263632571;1.296;0.21314138455214884
51:05.4;0.5468955147504617;0.6758709977866127;-0.5244524318663627;1.254;0.1938537809939637
51:05.4;0.522947288068779;0.6921837363116373;-0.4669346974586951;1.183;0.16901897089193332
51:05.4;0.4981500858274407;0.7049077658801396;-0.40299609823385624;0.752;0.14151202511701824
51:05.4;0.4742977432756544;0.715707613380397;-0.33574242154642575;0.752;0.11397062077583801
51:05.4;0.45308910216910653;0.7262378626397875;-0.26835177486108414;0.752;0.08830127526703099
51:05.4;0.4358769182244885;0.7379042350295756;-0.20375931828441324;0.752;0.06553621471191597
51:05.5;0.4235224235126927;0.7516832589295633;-0.14443744181135004;0.747;0.045982340700566324
51:05.5;0.4163591720323163;0.7680246850731272;-0.09225858847184022;0.8;0.029501909123459538
51:05.5;0.41424342546057336;0.7868456673109963;-0.04841382518224988;0.866;0.015780275453468003
51:05.5;0.416659915667768;0.8076117420225378;-0.013379067636234646;0.9470000000000001;0.0045020487716420044
51:05.5;0.4228522309329559;0.829481208367694;0.013065242131089611;1.01;0.004582607278834505
51:05.5;0.43195296904043595;0.8514738479500952;0.03175596941705761;1.0290000000000001;0.011679739381300057
51:05.5;0.4430960224659331;0.8726228391457799;0.044012981172397124;1.036;0.01701787044650935
51:05.5;0.455499787658791;0.8920823570798808;0.051461093160474876;1.036;0.020910871663030343
51:05.5;0.4685168288695675;0.909183825050655;0.0558309616369195;1.036;0.023782198743688834
51:05.5;0.48165269969076885;0.9234496200453958;0.058765251993347645;1.032;0.026137726460386312
51:05.6;0.49456228892114346;0.9345801052457592;0.06165116585716936;1.0390000000000001;0.028495666755879858
51:05.6;0.507034525141797;0.9424305874953967;0.06549330562273524;1.0490000000000002;0.031295638500674884
51:05.6;0.518976189674734;0.9469914500377525;0.07083702474710457;1.06;0.034813990224069676
51:05.6;0.5304047973481214;0.9483783775909652;0.07775045692390326;1.08;0.03911038014528436
51:05.6;0.5414585907937559;0.9468324662002184;0.08587099970468033;1.105;0.044023534611221535
51:05.6;0.5524264144755886;0.9427244313684229;0.09451735486984503;1.122;0.04922330359103335
51:05.6;0.5637915237020296;0.9365543801466368;0.10286013849501208;1.146;0.05431235649369757
51:05.6;0.5762734291237787;0.9289400252206924;0.11013267054907469;1.146;0.05895660157281448
51:05.6;0.5908448176557312;0.9205911143200246;0.11585239331633645;1.146;0.06301518554759529
51:05.6;0.6087021294175183;0.9122706820933432;0.1200176171030879;1.271;0.06664591561229002
51:05.7;0.6311764382414736;0.9047414082246037;0.12323578040629828;1.1740000000000002;0.07037397227260729
51:05.7;0.6595771045275494;0.8986974235901779;0.12672299201632853;1.046;0.07511635173111422
51:05.7;0.6949685459032753;0.8946980340901889;0.13212619717153104;1.035;0.08215435067384814
51:05.7;0.7379031031478888;0.8931348661901027;0.1411853359418947;1.07;0.0930477705845796
51:05.7;0.7881629098178278;0.8942524139776101;0.1553210745417214;1.12;0.10947286929232664
51:05.7;0.8445769651446707;0.8982100545697383;0.17524307043377818;1.159;0.13294071140084227
51:05.7;0.9049642447868333;0.905153034660599;0.20064170000475162;1.3019999999999998;0.16435186293719922
51:05.7;0.966215963745253;0.9152649919145723;0.2300031259657355;1.3019999999999998;0.2034018030642934
51:05.7;1.0244913196289933;0.9287928691845655;0.2605868692729044;1.3019999999999998;0.24795889009957064
51:05.7;1.0754914481762077;0.9460499435465434;0.2886097492100716;1.376;0.29365136435323885
51:05.8;1.1147984416095351;0.9674074373717352;0.30967729608126726;1.464;0.3339759094539004
51:05.8;1.1382814243613895;0.9932805321946376;0.31947973225241266;1.82;0.3612142575033576
51:05.8;1.1425539285671915;1.0241011937741797;0.31468215987542086;2.204;0.36820671347301465
51:05.8;1.1254318138823631;1.060253757551259;0.2937785081894952;1.9709999999999999;0.35054923938273036
51:05.8;1.086313144852509;1.1019510447763938;0.2575759829384716;1.8;0.3083349119511067
51:05.8;1.0263940084999756;1.1490632671591412;0.20908262295609736;1.71;0.24659030025985665
51:05.8;0.9486568090988885;1.2009502194353006;0.15282304154071696;1.535;0.17410970233474965
51:05.8;0.8576267095760007;1.25634406182373;0.09381503111159313;1.535;0.10108327783122971
51:05.8;0.758963823161858;1.3132914229511647;0.036518595845099255;1.535;0.03639957002931346
51:05.8;0.6589828603499179;1.3691409346264263;-0.01597226797174648;1.484;0.014410825592633725
51:05.9;0.5641536205440415;1.420576297831325;-0.062351074357004106;1.409;0.049969601380479386
51:05.9;0.48060219848198793;1.4637179242571157;-0.10311668644887426;1.341;0.0725390883481655
51:05.9;0.41363994404377724;1.494327810852582;-0.14023803834362125;1.386;0.08668304884364489
51:05.9;0.3673550211258108;1.50815124235545;-0.1765463477150486;1.556;0.09781143129146558
51:05.9;0.34429142518696715;1.501399406375269;-0.21496868960141105;1.8559999999999999;0.11112138746200538
51:05.9;0.3452429876509819;1.4713055069305823;-0.2577681429797532;2.003;0.13093536690451235
51:05.9;0.3692090538149075;1.41661148638046;-0.30598956209942885;1.5319999999999998;0.16004043138086124
51:05.9;0.41354586178791103;1.3378439086736085;-0.35924556717067346;1.5319999999999998;0.19875613500861541
51:05.9;0.474283355041708;1.2373365688319145;-0.4158214388771797;1.5319999999999998;0.24402403763680336
51:05.9;0.5465270401672079;1.119051941473002;-0.47297401245027554;1.393;0.2892671909771165
51:06.0;0.6248816941312434;0.9882587216170599;-0.527325190886515;1.331;0.32564692121136984
51:06.0;0.7038715894286528;0.8510945024586264;-0.5753109572307762;1.325;0.3446464955390543
51:06.0;0.7783365517574812;0.714052163016323;-0.6136524189126563;1.339;0.3410513834306566
51:06.0;0.8437723345792818;0.5834519061987895;-0.6397889757787832;1.357;0.31496848193930654
51:06.0;0.8965879172781221;0.46496087421044013;-0.6522017349588517;1.359;0.27188875171641275
51:06.0;0.9342681024969189;0.36320529919277056;-0.6505668659273636;1.334;0.22075758695412573
51:06.0;0.955443061887878;0.28150150420501885;-0.6357092122469581;1.138;0.17097949730580272
51:06.0;0.9598741647877909;0.22171797958027828;-0.6093760084345604;1.138;0.12968823115163675
51:06.0;0.9483709701974944;0.18427131576531824;-0.5739025179670932;1.138;0.10029380745499479
51:06.0;0.9226560011068161;0.16824772999894705;-0.5318566220659402;1.06;0.08256264452453108
51:06.1;0.8851894223521647;0.17162758564389832;-0.4857183929792581;0.995;0.07379175820852817
51:06.1;0.8389605738890912;0.1915809406839291;-0.4376163755236081;0.953;0.0703375793795697
51:06.1;0.7872517872762207;0.22480130704063944;-0.38913355234764563;0.914;0.06886700021920379
51:06.1;0.7333811439469554;0.26784651335505016;-0.34119409064961187;0.767;0.0670219775085939
51:06.1;0.6804416163324349;0.3174553099552834;-0.29402796715866497;0.7390000000000001;0.06351292362093822
51:06.1;0.6310749964964147;0.3708069384559648;-0.24719331275118273;0.855;0.05784496241910298
51:06.1;0.5873208048012283;0.4256933319985613;-0.19963515219741035;0.743;0.049912491350881216
51:06.1;0.5505475802463633;0.4805848230595079;-0.14978020536624279;0.743;0.039629567394052954
51:06.1;0.5214454241571818;0.5345884006811643;-0.09569070452982105;0.743;0.026674614037342538
51:06.1;0.500062184891576;0.5873173945190608;-0.0352978701054618;0.705;0.010366815709495466
51:06.2;0.4858779331370758;0.6387086042873384;0.03329205788535041;0.713;0.010331671358866569
51:06.2;0.47791658569386;0.6888318732102579;0.1114532263064733;0.746;0.03669086763595446
51:06.2;0.4748946281045033;0.7377347655365257;0.1997023502927696;0.8109999999999999;0.06996497495703245
51:06.2;0.4754010816107395;0.7853542922223445;0.29741549683840984;0.9009999999999999;0.11104253833605313
51:06.2;0.47808800312531924;0.8315123885336364;0.40264772503985086;1.006;0.16006700524255613
51:06.2;0.48183904810788414;0.8759928499259363;0.512100902956183;1.097;0.2161514210929731
51:06.2;0.485886461160179;0.9186739001283916;0.621272314092113;1.4380000000000002;0.2773180747632045
51:06.2;0.48986207795966114;0.9596626756841674;0.7247845008187045;1.4380000000000002;0.34072289885487833
51:06.2;0.4937824305129807;0.9993566499263973;0.8168557869126514;1.4380000000000002;0.403089541208427
51:06.2;0.4979729471200943;1.0383651958934494;0.8918587922231324;1.651;0.46116036148978
51:06.3;0.5029363669344217;1.0772683256491564;0.9449221371777119;1.911;0.5119563740540937
51:06.3;0.5091783288362755;1.1162523839850271;0.9724893751762161;1.5630000000000002;0.5527352676952066
51:06.3;0.5170236842861252;1.1547284653517678;0.972680037278233;1.3880000000000001;0.5807113476645279
51:06.3;0.5264762878287339;1.1910803066204072;0.9453302977379433;1.3419999999999999;0.5927935053588057
51:06.3;0.5371731667157807;1.2226651000494932;0.8917369166966416;1.3969999999999998;0.5856775435841824
51:06.3;0.5484597760252031;1.2461110004235592;0.8142388850695008;1.5190000000000001;0.5564848568309894
51:06.3;0.5595764325010106;1.2578675544733806;0.7157710163015272;1.8090000000000002;0.5038119202510905
51:06.3;0.5699029547160263;1.2548925837248766;0.5994834444199038;1.8090000000000002;0.4287307712895564
51:06.3;0.579174302778996;1.2353089014289884;0.46849850002832394;1.8090000000000002;0.3351915487738106
51:06.3;0.5875819757528394;1.1988661214917218;0.32584593529349926;1.6880000000000002;0.22953634440285087
51:06.4;0.5957200653009693;1.147104459311225;0.1745606435263537;1.4909999999999999;0.11928656446904248
51:06.4;0.6043938658844488;1.0831980856573475;0.01788137861616638;1.242;0.011706550169800855
51:06.4;0.6143532446659579;1.0115229886047634;-0.1405211121521088;1.004;0.0873243762055375
51:06.4;0.626029533873997;0.937048078160367;-0.296353666451938;0.863;0.17384692012337902
51:06.4;0.6393435421731278;0.8646822768489922;-0.44461294139076185;0.836;0.24579494099666144
51:06.4;0.6536261684363898;0.798705394188976;-0.57966120210436;0.88;0.3026148819281381
51:06.4;0.6676673968374177;0.7423646437083858;-0.6955094405529075;1.27;0.3447311106422275
51:06.4;0.6798841156900661;0.6976607847858467;-0.7863011213115033;1.27;0.37296502018829175
51:06.4;0.6885692046241971;0.6653119039889028;-0.8469142193629339;1.27;0.3879826581577409
51:06.4;0.6921693158163128;0.6448718319313947;-0.8735638057331125;1.5030000000000001;0.3899243724765709
51:06.5;0.6895445626403142;0.6349740515420732;-0.8643187197410633;1.587;0.37843581880216665
51:06.5;0.6801698510741012;0.6336591246984851;-0.8194765982593821;1.6280000000000001;0.35319099866297143
51:06.5;0.6642381844582637;0.6387277355760952;-0.7417335542150009;1.496;0.3146933305226104
51:06.5;0.6426404000841305;0.6480550011856593;-0.6360852110947223;1.249;0.26490807040315784
51:06.5;0.6168271949728327;0.6598184540075722;-0.5094393025732973;1.068;0.20733872228065003
51:06.5;0.5885884151711722;0.67262815898741;-0.36998322743085676;0.9640000000000001;0.14647678229694436
51:06.5;0.5597969791100623;0.6855779405361448;-0.22639776525105565;0.89;0.08688794409490447
51:06.5;0.5321637647425546;0.6982419635732757;-0.08703833770298189;0.89;0.032341624755263775
51:06.5;0.5070441683764028;0.7106271394460935;0.04077627541230712;0.89;0.01469248092745871
51:06.5;0.4853250213644854;0.7230804059886241;0.15125525510641122;0.89;0.05307985745886495
51:06.6;0.4673992870244367;0.7361518244275453;0.24038268508033045;0.897;0.08271011416334516
51:06.6;0.4532166760776953;0.7504242698727329;0.30597540255624334;0.914;0.10406370102284083
51:06.6;0.4423907388277228;0.7663316642436199;0.34761562311546074;0.9390000000000001;0.11784796413926199
51:06.6;0.43434159015296103;0.7839975827314262;0.36648453787476154;0.9440000000000001;0.12479632514689842
51:06.6;0.4284506584378001;0.8031302950169807;0.3650951288752191;0.929;0.1256298558626851
51:06.6;0.42420040318986457;0.8230058415123283;0.34692604124284737;0.9209999999999999;0.1211186147619623
51:06.6;0.42127290396298595;0.8425567213564679;0.3159842778009439;1.048;0.1121574555593151
51:06.6;0.4195914445851411;0.8605551702530644;0.2763559276858384;1.048;0.09978703695441896
51:06.6;0.4193066116940642;0.8758425955139563;0.23182188940625836;1.048;0.08513579862734087
51:06.6;0.4207409857100535;0.8875404770273306;0.18560044321264615;1.07;0.06930778150460606
51:06.7;0.4243071363586913;0.8951981506202903;0.1402340248187013;1.062;0.053266346671491244
51:06.7;0.4304110035774179;0.8988623820522695;0.09759404153763782;1.048;0.037757208158394014
51:06.7;0.4393557152117824;0.8990680191603105;0.058957475575889505;1.013;0.02328883208098185
51:06.7;0.45126526763396857;0.8967557402898056;0.025110303823895494;0.976;0.010161505147559856
51:06.7;0.4660456281621472;0.8931330673429253;-0.0035532295772878627;0.96;0.0014789989846871845
51:06.7;0.483391988293513;0.8895052536475743;-0.02694533577178436;0.973;0.01158594774610394
51:06.7;0.5028386597827499;0.8871064345309171;-0.04520228952422325;0.991;0.020163449051512863
51:06.7;0.5238356837262214;0.8869573686887227;-0.058584215814024745;0.991;0.02721939364503597
51:06.7;0.5458289898551311;0.8897687037395139;-0.06734487446262338;0.991;0.032706816302406135
51:06.7;0.5683255752351302;0.8959009634036015;-0.07157711591263308;1.0659999999999998;0.03644444987478737
51:06.7;0.5909373246254757;0.9053815892526212;-0.07105163787748131;1.149;0.03801431545448297
51:06.8;0.6134016165476823;0.9179642678670571;-0.06506827386657753;1.125;0.03663869348085258
51:06.8;0.6355705124596202;0.9332073610365113;-0.05233694292723364;1.107;0.031042039474867545
51:06.8;0.6573582744759355;0.9505587290614917;-0.030911645453097554;1.148;0.01931537800945678
51:06.8;0.6786498792742431;0.969452174188328;0.001780181996260655;1.198;0.001171214848460802
51:06.8;0.6991941224156655;0.9894205749539061;0.0487571616803544;1.232;0.0337300606463354
51:06.8;0.7185188942867379;1.010210630222312;0.11311279888932989;1.3119999999999998;0.08210353871347378
51:06.8;0.7359009358363362;1.0318672634656274;0.1974625028431101;1.3119999999999998;0.14994356321227875
51:06.8;0.7503994323768445;1.0547578642076363;0.3032753971215456;1.3119999999999998;0.24003935387254424
51:06.8;0.7609427813242939;1.079524053441243;0.4301950666820134;1.3030000000000002;0.35338633406809383
51:06.8;0.766454173545065;1.1069714880032635;0.5754604523761222;1.3519999999999999;0.4882453448180334
51:06.9;0.7660010066424908;1.13792636362726;0.7335283198098803;1.4369999999999998;0.6393819698471239
51:06.9;0.758944369827693;1.1730892735551095;0.8959858608199824;1.531;0.7977047232787539
51:06.9;0.7450583498929096;1.212899044524091;1.0518278896160955;1.6019999999999999;0.9505164170479669
51:06.9;0.7245934701145514;1.257396543260648;1.1881568040297996;1.642;1.082531237973686
51:06.9;0.6982678173214674;1.3060745907790816;1.2913460790853064;1.64;1.177694521821577
51:06.9;0.6671790723628467;1.3577223826051945;1.3486671629206848;2.737;1.2216820032486582
51:06.9;0.6326493099530467;1.410307553174045;1.3502437203361703;2.737;1.2047280900751198
51:06.9;0.5960414810206095;1.4609655947666487;1.2909660900241355;2.737;1.1241682323262796
51:06.9;0.5585983713942078;1.5061674766572946;1.1718531113174135;3.511;0.9859300601022761
51:06.9;0.5213444275535771;1.5420950791415613;1.0004184022658686;2.38;0.80429905607367
51:07.0;0.4850788581735742;1.5651654997590174;0.7898272080665799;2.035;0.5996594792520092
51:07.0;0.4504698894848085;1.5725547497789223;0.5569820500145998;1.903;0.39455971477395146
51:07.0;0.4182155429812386;1.5625595149744274;0.32005353313253154;1.8030000000000002;0.20915071950740358
51:07.0;0.38918950956362014;1.5347242891897266;0.09610459274758176;1.732;0.057403138069825076
51:07.0;0.3644788271885325;1.4897763093549148;-0.10074049448894942;1.646;0.05470127472648416
51:07.0;0.3452524126497206;1.429466383006872;-0.2604276347699066;1.607;0.1285279957433417
51:07.0;0.3324758697224336;1.3563934909888113;-0.37744441625938135;1.607;0.17021539337067915
51:07.0;0.32658137643798696;1.2738353808902108;-0.45073718044762756;1.607;0.18751158553129998
51:07.0;0.32723898940080676;1.1855593071110855;-0.4831784143122989;1.367;0.18745449170076825
51:07.0;0.3333211517909384;1.0955722897119364;-0.4806890022382078;1.1320000000000001;0.1755367684469534
51:07.1;0.34306115473419857;1.0077983910263555;-0.45114486607636506;0.958;0.15597723786119055
51:07.1;0.3543468720333071;0.9257225989942686;-0.4032233993173496;0.873;0.13226812463880602
51:07.1;0.36507380400927886;0.8520755432884908;-0.345342094968318;0.873;0.10742572430172408
51:07.1;0.3734834116100534;0.7886273670622441;-0.28481010046723715;0.8759999999999999;0.08388775040477744
51:07.1;0.37841745967045026;0.73612715364889;-0.2272706350586422;0.857;0.0633092734308563
51:07.1;0.379431051677132;0.6943916152994354;-0.1764649227060244;0.8170000000000001;0.04649387331748823
51:07.1;0.37674430698555966;0.6625188487911103;-0.13429448186036894;0.8170000000000001;0.03351993014264394
51:07.1;0.3710715756145406;0.6391748380274971;-0.10110847287532342;0.8170000000000001;0.023980868592967962
51:07.1;0.36340425538681054;0.6228836394550066;-0.0761210400766021;0.807;0.017230649412416758
51:07.1;0.3548110787718858;0.6122611925560889;-0.05787782011714711;0.799;0.012573207146981229
51:07.2;0.3462880283846838;0.6061577561759205;-0.044712938291275255;0.748;0.009385477104433049
51:07.2;0.33867145408694793;0.6036999351652906;-0.03514325298174866;0.695;0.007185246642918881
51:07.2;0.3326171827395412;0.6042485017224846;-0.028147803820718267;0.675;0.005657242280383814
51:07.2;0.3286345767678351;0.6073096769096943;-0.023295722555550003;0.6809999999999999;0.0046494292312519725
51:07.2;0.32715040062306655;0.61244541522684;-0.02070903144066632;0.6990000000000001;0.004149298048464169
51:07.2;0.32856888191780254;0.619217869461961;-0.020869219450513125;0.735;0.004245962132430989
51:07.2;0.33329778874966415;0.6271793739372098;-0.024302594712784956;0.735;0.005080153605398748
51:07.2;0.34172702159266877;0.6358949784529233;-0.03120360864852104;0.735;0.006780622075747029
51:07.2;0.3541648834544719;0.6449753249898741;-0.04106044957087588;0.74;0.009379340394097432
51:07.3;0.37074695588735734;0.654106339100868;-0.052337298850848035;0.754;0.012692210217986069
51:07.3;0.3913364009692034;0.6630748593089503;-0.062266659397556996;0.785;0.016157284600447835
51:07.3;0.4154375744299741;0.6717927362360517;-0.06681257539289766;0.812;0.018646584357313225
51:07.3;0.4421445401008088;0.6803154302828796;-0.06085231447728722;0.8109999999999999;0.01830423946241095
51:07.3;0.4701422661088655;0.6888427467834779;-0.03857919501567252;0.799;0.012494030093399854
51:07.3;0.497775152629296;0.6976899732935762;0.005923675618986709;0.794;0.00205724949479246
51:07.3;0.5231936092883954;0.7072321136922584;0.07802247141853426;0.8009999999999999;0.028869821988104633
51:07.3;0.5445768690695164;0.7178422972450113;0.18187008187147255;1.036;0.07109670891575101
51:07.3;0.5604043873084958;0.7298497862983433;0.3197929757105585;1.036;0.13079885192541404
51:07.3;0.5697200153396218;0.7435280979507156;0.4917275622204914;1.036;0.20829719155304993
51:07.4;0.572327266954721;0.7591063049706628;0.6946941180487857;1.151;0.30181488698478226
51:07.4;0.5688762182411276;0.7767904723850181;0.9223429574115585;1.2409999999999999;0.40758116351111845
51:07.4;0.5608283036939595;0.7967803221219705;1.1646597707611297;1.193;0.5204363204881515
51:07.4;0.5502984031218274;0.8192649777858939;1.407947054185634;1.0659999999999998;0.6347591441829624
51:07.4;0.5397828921622623;0.8443927114447525;1.6352481221945063;0.9890000000000001;0.7453276810460426
51:07.4;0.5317928397410985;0.8722334634399878;1.8274650840203692;0.9840000000000001;0.8476651296388091
51:07.4;0.52842124957366;0.9027668869426954;1.9654247209093716;4.334;0.9375885800924654
51:07.4;0.5308966355790139;0.935906847550657;2.032826740913833;4.334;1.0100502092402504
51:07.4;0.5392195554577217;0.9715229613716232;2.0193749958178278;4.334;1.057878224979525
51:07.4;0.5520068592608258;1.009392620461954;1.9229889132866202;4.178999999999999;1.071473365876359
51:07.5;0.5666465734113669;1.0490499457713225;1.750271144533086;1.767;1.04043215424753
51:07.5;0.5797989889623719;1.0895692380758324;1.515134859708108;1.156;0.9571578761784166
51:07.5;0.5881679431853835;1.1293874909565753;1.2362019821303147;1.355;0.8211712943446952
51:07.5;0.5893412535032484;1.1662937801549096;0.9339345662852602;1.659;0.6419352902792999
51:07.5;0.582448252842897;1.1976559693443192;0.6282629326617187;1.855;0.43825902429024016
51:07.5;0.5684395393809932;1.2208349415826376;0.33693905135825175;1.756;0.23382588049378142
51:07.5;0.5499098771853647;1.2336426789731725;0.07444796190701239;1.639;0.050504923668033073
51:07.5;0.5305234837151943;1.2347013871334953;-0.14872617716256392;1.639;0.0974213097202201
51:07.5;0.514228537215645;1.223627696395737;-0.326495736122468;1.639;0.20543904461994136
51:07.5;0.5044877469930841;1.2010267970137205;-0.4571077712254122;1.4240000000000002;0.276963108368459
51:07.6;0.5036842638205657;1.168317682385007;-0.5425688895928883;1.089;0.3192818422226139
51:07.6;0.5127731829923927;1.1274493027342747;-0.5876685451630784;1.0390000000000001;0.33974632878182887
51:07.6;0.5311970437431393;1.0806026039009795;-0.598840904094134;1.043;0.343742409179669
51:07.6;0.5570461352552795;1.02996751140122;-0.5831399109071602;1.183;0.33457035523338985
51:07.6;0.587405260609832;0.9776338746879965;-0.5475200687191212;1.3969999999999998;0.31442286112456275
51:07.6;0.6188034270958678;0.925575101371806;-0.4984447501490799;1.485;0.28548375451525637
51:07.6;0.647679982190797;0.8756625431605235;-0.44169527842788414;1.173;0.2505070797933497
51:07.6;0.6707959509052118;0.8296495173202612;-0.3822320598698868;1.173;0.21272190233523683
51:07.6;0.6855460491866778;0.7891050392474525;-0.3240531629589982;1.173;0.17530234027520838
51:07.6;0.6901558297065855;0.7553149304597164;-0.27008653326811005;1.06;0.14079205917560825
51:07.7;0.6837691969034565;0.7291724548811125;-0.22215979292489407;0.985;0.11076568784249734
51:07.7;0.6664396446943703;0.7110793618345895;-0.18105822878744463;0.946;0.085801951508449
51:07.7;0.6390387904104096;0.7008916256401838;-0.14666150631472352;0.914;0.06568923940399625
51:07.7;0.603096597782904;0.6979474930438123;-0.11813882402440289;0.898;0.04972814666439191
51:07.7;0.5605953240359473;0.7011897487371125;-0.09417665152106476;0.884;0.03701930610649502
51:07.7;0.5137524311445382;0.7093568727237278;-0.07322276690070867;0.856;0.026684852499625274
51:07.7;0.46483540398688983;0.7211961586331186;-0.05374124870215523;0.965;0.018016082278391934
51:07.7;0.4160404133155481;0.7356522944043338;-0.03446236727237255;0.965;0.01054758950597272
51:07.7;0.3694360617989905;0.7519948098628831;-0.014584929594988149;0.965;0.004051897645801982
51:07.7;0.32694075173421655;0.769859978988485;0.006124543061511842;0.951;0.0015415389158181991
51:07.8;0.2902884013968694;0.7891993252594561;0.02737579334420292;0.884;0.0062716686143107405
51:07.8;0.26094623287464824;0.8101459359283301;0.04854333355289644;0.818;0.010262280617257254
51:07.8;0.23997161619010085;0.83282836524111;0.0689504896777119;0.799;0.01378011175447593
51:07.8;0.22782576028080914;0.857177889249487;0.08815856682244944;0.773;0.017216240051099525
51:07.8;0.22419476117151185;0.8827810878636132;0.10616770780514709;0.757;0.021012170759666132
51:07.8;0.22789207085336113;0.908822991654042;0.1234777353149545;0.757;0.025573912552447828
51:07.8;0.23691259555139882;0.9341496326021705;0.14101403011067523;1.0979999999999999;0.031208070816381845
51:07.8;0.24866127114845432;0.9574471136337238;0.15995953220996761;1.0979999999999999;0.03808316804126096
51:07.8;0.26030571191765267;0.9774889765615794;0.1815378442552265;1.0979999999999999;0.046191571772297345
51:07.8;0.2691620028630574;0.9933801163851745;0.20677927026601609;1.0979999999999999;0.05528867886184217
51:07.9;0.27304487961152313;1.0047480058083207;0.236292465894784;1.1540000000000001;0.06482478186874019
51:07.9;0.2705545058427345;1.0118677169933705;0.27006785386104387;1.212;0.07393522597771121
51:07.9;0.26128244144990287;1.015716804253406;0.30735265418888225;1.232;0.08156800322686321
51:07.9;0.2459062514124166;1.0179460673941672;0.346652827046436;1.1909999999999998;0.08677389355453892
51:07.9;0.2261393695426363;1.0207497657899525;0.38591620981073665;1.153;0.08908169804711903
51:07.9;0.20452597980161388;1.0266351730448744;0.4229026373882439;1.54;0.0887983742789788
51:07.9;0.1841088682017085;1.038116813005321;0.4556394471397833;1.113;0.08708477803524405
51:07.9;0.16803045532685204;1.0573790913900185;0.4827749653145521;1.113;0.08577554061871043
51:07.9;0.15913984787014904;1.08595604470719;0.5036948072313452;1.113;0.08704797232079275
51:07.9;0.15966711961764546;1.1244729265807272;0.5184122732604696;1.113;0.09307644109564132
51:08.0;0.17099683392927179;1.1724854241880884;0.527323783721092;1.197;0.10572382847468913
51:08.0;0.19354420694498653;1.2284367746161993;0.5309074252870676;1.205;0.12622686185417245
51:08.0;0.22672227252485902;1.2897316009286297;0.529430648422615;1.2229999999999999;0.15481128154462828
51:08.0;0.26898784035496226;1.3529117386606673;0.5227464387785131;1.3030000000000002;0.1902362147523438
51:08.0;0.3179633174130781;1.4139237034942547;0.5102528332141761;1.445;0.2293973620918944
51:08.0;0.37064037242848075;1.4684743126948505;0.4910462945877702;1.629;0.2672646473108655
51:08.0;0.423666979598619;1.5124591511586245;0.4642297344777053;1.921;0.2974686651856439
51:08.0;0.47369513249480993;1.5424164730260175;0.4292803352261042;1.921;0.3136473130890477
51:08.0;0.5177363692246495;1.555926781033924;0.3863762512523998;1.921;0.3112492075179064
51:08.0;0.5534679190579231;1.5518764627821906;0.3366143330092895;1.929;0.2891227081828779
51:08.1;0.5794581824185873;1.530538097946893;0.28208200300400715;1.9340000000000002;0.2501736835249555
51:08.1;0.5952986286644352;1.493460145826828;0.22575672570525243;1.7630000000000001;0.2007100953774957
51:08.1;0.6016212844787121;1.443188533089442;0.17121299467456563;1.535;0.14865618582498705
51:08.1;0.5999751809288681;1.382874799292405;0.12214999221535522;1.381;0.10134669518954667
51:08.1;0.592560001274247;1.3158553126570673;0.08181817593369534;1.2890000000000001;0.06379553206357622
51:08.1;0.581864601280206;1.245286436833904;0.052476527488118374;1.246;0.03802386713982665
51:08.1;0.5702990092296775;1.1738865389633721;0.03500898779398422;1.158;0.0234373385796148
51:08.1;0.5599072748754101;1.1037963182781092;0.028773557738679303;1.158;0.017782737410004974
51:08.1;0.5522037388766671;1.0365475792617878;0.03169151166727095;1.158;0.018139760128565177
51:08.1;0.5481249866430595;0.9731201131476792;0.040543435452120975;1.1159999999999999;0.021625521784102847
51:08.2;0.5480670827044839;0.9140555007821007;0.051422010179970334;1.112;0.025760562113516974
51:08.2;0.5519758084507532;0.8595926565805337;0.06027076569841856;1.111;0.028596932472442563
51:08.2;0.5594588681109341;0.8097964970864459;0.06341445585767277;1.088;0.028729781722229
51:08.2;0.5698936214249687;0.7646581995947027;0.05798999788438588;1.031;0.025270523509886195
51:08.2;0.5825145506674375;0.7241511807678078;0.04222000964169916;0.9740000000000001;0.017809607545644777
51:08.2;0.5964760115127982;0.6882378271841831;0.015509307345887078;0.9229999999999999;0.0063668398160389135
51:08.2;0.6108929172039658;0.6568369067070533;-0.02162299646596644;0.8590000000000001;0.008676378997082573
51:08.2;0.6248642756335338;0.6297745722719933;-0.06773215590264792;0.8590000000000001;0.026654203988253692
51:08.2;0.6374846519959994;0.6067482427067643;-0.12069087868443132;0.8590000000000001;0.046682349908571875
51:08.2;0.6478501647366876;0.5873261333990922;-0.17792760727232654;0.863;0.06770133576072249
51:08.3;0.6550689724848859;0.5709870066641002;-0.23663503175456185;0.902;0.08850999039072213
51:08.3;0.6582878777336011;0.5571887135342148;-0.2939487307052716;0.92;0.10781762417035812
51:08.3;0.6567428599924008;0.5454500056366635;-0.34709422788139455;0.9309999999999999;0.12433623199864055
51:08.3;0.6498327594609871;0.5354337814075463;-0.3934958747051323;0.963;0.136913903631309
51:08.3;0.6372066586864386;0.5270231126917367;-0.4308501349991597;0.968;0.14468922835315526
51:08.3;0.6188495122816249;0.5203821341461937;-0.45717766218853934;0.982;0.1472286850885348
51:08.3;0.5951473010912526;0.5159972660212917;-0.470867804603006;0.975;0.1446008566309595
51:08.3;0.5669144245736165;0.5147001609457772;-0.4707168996334602;0.975;0.13735092924007236
51:08.3;0.5353724072135121;0.5176733945283771;-0.4559507130144009;0.975;0.12636585163682848
51:08.3;0.5020740131972682;0.5264326539991603;-0.426220188464231;0.9059999999999999;0.1126534717524295
51:08.4;0.4687708247619468;0.5427731515526472;-0.381566910411877;0.8270000000000001;0.0970844415655556
51:08.4;0.4372365700228571;0.5686651611138124;-0.3223675273777234;0.7559999999999999;0.08015385031077883
51:08.4;0.40907999664023303;0.6060863732068347;-0.24928085620428866;0.706;0.061806149939912375
51:08.4;0.38558794892180914;0.6567934730295119;-0.16322912357913466;0.7290000000000001;0.041338044569342466
51:08.4;0.3676237667378187;0.7220548102068702;-0.06544110733226702;0.755;0.01737098261204427
51:08.4;0.35558496118280186;0.8023750394527476;0.042429794995620725;0.777;0.012105750768339361
51:08.4;0.34941351210882615;0.8972405869312631;0.158123714104972;0.9059999999999999;0.04957304694015251
51:08.4;0.3486524018922437;1.0049106463042625;0.2785668272637548;0.9059999999999999;0.09759993008167239
51:08.4;0.35254556614649446;1.1222786048406679;0.39969973130811215;0.9059999999999999;0.158142935834112
51:08.4;0.3601795294568301;1.2448408424030641;0.516424703525232;1.057;0.23154737615554186
51:08.5;0.3706579441464091;1.3668281933243849;0.6227753753798527;1.255;0.3155140280188365
51:08.5;0.3832792496915079;1.4815528442287573;0.7124196053952001;1.49;0.40454637758872125
51:08.5;0.3976619902731362;1.5819827952874124;0.7795589657296599;2.7260000000000004;0.4904162008208786
51:08.5;0.41376432913476063;1.661479793385537;0.8200944833484904;3.988;0.5637830327305715
51:08.5;0.4317925926793946;1.7145454262267281;0.8325960464919574;2.051;0.6163941782772078
51:08.5;0.45204736193646383;1.7373903112797429;0.8184909044731573;1.834;0.642828602101949
51:08.5;0.47475916859374756;1.7282404656991726;0.7813074913895509;1.839;0.6410612392466264
51:08.5;0.4999349692852914;1.6874368354328944;0.7254241776462602;1.839;0.6119741347527393
51:08.5;0.5272230628610398;1.6174223877641944;0.6549465202234294;1.839;0.5585006578449373
51:08.5;0.5558118307901281;1.5226495653475316;0.5730689932719252;1.839;0.48499209565556006
51:08.6;0.584383409496778;1.4093746302319978;0.4819844687927736;2.077;0.3969697113689042
51:08.6;0.6111413002096128;1.2852692851608525;0.3832246390629839;2.051;0.3010157271539198
51:08.6;0.6339261675380373;1.158781709427054;0.278165020453277;1.08;0.2043350304260762
51:08.6;0.650429941705723;1.0382553283530134;0.16837827745642459;0.927;0.1137079306920496
51:08.6;0.6585045213742136;0.9309495910086609;0.05569629398398328;0.929;0.034143750561451934
51:08.6;0.6565255503625019;0.8421923928776538;-0.05789793590524991;0.983;0.03201297444282157
51:08.6;0.6437306078359304;0.774853005050815;-0.1703633404915256;1.045;0.08497665430756056
51:08.6;0.6204387807839349;0.7292101770029442;-0.2796254562876806;1.006;0.1265110215693112
51:08.6;0.5880925365196777;0.7031854927780642;-0.3835776693535461;1.006;0.15862399596517118
51:08.6;0.5491260145304528;0.6928483431613943;-0.4800819689717233;1.006;0.18265248969103343
51:08.7;0.506706354493505;0.6930842534385647;-0.566956121537039;1.042;0.19910943111529136
51:08.7;0.46438999810068565;0.6983398328757292;-0.6419555708603465;1.104;0.2081874971511696
51:08.7;0.42572054956442545;0.7033725632526299;-0.7027953292803174;1.186;0.2104451417541859
51:08.7;0.3938042038862964;0.7039220355339878;-0.7472613572307016;1.276;0.2071464204039475
51:08.7;0.37092125899093115;0.697208370722568;-0.7734303057782066;1.401;0.20001635246044297
51:08.7;0.3582506321870173;0.6821804650498706;-0.7799614414967694;1.3780000000000001;0.1906160112647671
51:08.7;0.35578644696583867;0.6594809509495361;-0.7663728080074563;1.069;0.17981741201239224
51:08.7;0.3624804110383939;0.6311594694508793;-0.7332145430263127;1.069;0.16774698167655916
51:08.7;0.3765521208168381;0.600231776106829;-0.6821107292839607;1.069;0.15416967679534677
51:08.7;0.39584937926280533;0.5702017571868108;-0.6156907946891339;1.069;0.13897003919723225
51:08.8;0.41816632337762555;0.5446188856973672;-0.5374256009134822;0.899;0.12239399268434523
51:08.8;0.4414876323575602;0.5266901477422783;-0.4513603840736836;0.775;0.1049535601217148
51:08.8;0.4641565601269982;0.5189552290126809;-0.36175131229407465;0.6779999999999999;0.0871373805552368
51:08.8;0.4849657277031278;0.5230508310452018;-0.27265745262636004;0.672;0.06916276028632865
51:08.8;0.5031720192763807;0.5395933162871343;-0.18756886653826074;0.705;0.05092649631091941
51:08.8;0.5184469329652432;0.5681885557742444;-0.10913902143502115;0.745;0.03214969426008741
51:08.8;0.5307808803010199;0.6075521009963346;-0.03905214856067179;0.833;0.012593421234260495
51:08.8;0.540360414162103;0.6557062324933499;0.021973567023865194;0.833;0.007785623538813307
51:08.8;0.547437323434963;0.710216263234891;0.07405767746140524;0.833;0.02879354280817566
51:08.8;0.5522095760837427;0.7684399257171829;0.11792482760416731;0.94;0.05004020785803089
51:08.9;0.5547322451651383;0.8277813653783958;0.15460843423024784;1.061;0.07099573154217174
51:08.9;0.5548715734408871;0.8859398085197255;0.18515060783109757;1.136;0.09101685709419419
51:08.9;0.5523079941204159;0.9411220060530087;0.21035986009651306;1.181;0.10934278494533728
51:08.9;0.5465843200610896;0.9921789866172341;0.230667939430995;1.1840000000000002;0.12509340954253184
51:08.9;0.537187958721304;1.0386467184396924;0.246096920563809;1.2109999999999999;0.13730941026997018
51:08.9;0.5236539392511425;1.0806989835337415;0.2563199997476599;1.3019999999999998;0.14505463543402694
51:09.0;0.5056745489988127;1.1190361565208535;0.26077925289620935;1.295;0.1475666613368614
51:09.0;0.48320003981444704;1.154729777967711;0.2588181783746522;1.295;0.14441160775493583
51:09.0;0.4565173845266838;1.1890336269332833;0.2498019206439953;1.295;0.13559611001961966
51:09.0;0.42629753089106276;1.2231733810644587;0.2332200335023424;1.295;0.1216092729260766
51:09.0;0.3935990602363897;1.2581376763021692;0.20877514938487915;1.255;0.10338583124054851
51:09.0;0.3598137046189862;1.294501866939539;0.17645783133300005;1.2670000000000001;0.08219044263386578
51:09.0;0.3265497772763203;1.332314595098274;0.13660857665926168;1.321;0.05943388830590509
51:09.0;0.29547054515861393;1.3710646604457304;0.08997295247232581;1.341;0.03644887283735366
51:09.0;0.2681179795848813;1.4097280677367086;0.037751247480353196;1.392;0.014268968922975888
51:09.0;0.24574912960070397;1.4468846128308535;-0.018375782121360387;1.431;0.006533888503471609
51:09.0;0.22920279844665636;1.4808902138783142;-0.07628008298619639;1.6130000000000002;0.025891304710462908
51:09.0;0.21881014951532232;1.5100817242060511;-0.13349678087519926;1.6130000000000002;0.044110167581388325
51:09.0;0.21436263783851148;1.5329743752029679;-0.18738462574630288;1.6130000000000002;0.06157691736241854
51:09.0;0.2151470001176916;1.5484098085029987;-0.2352860548746125;1.6130000000000002;0.0783821905323899
51:09.1;0.22004964410177347;1.5556342661960232;-0.27466431544717373;1.636;0.09402220037223279
51:09.1;0.2277248390796463;1.5543101037063611;-0.3032336209192213;1.6580000000000001;0.10733106182538474
51:09.1;0.23681120157501154;1.5444702364761207;-0.3191053337916198;1.6230000000000002;0.11671209055454429
51:09.1;0.24616826242236875;1.526423833734316;-0.3209555460406326;1.54;0.12060132613043698
51:09.1;0.2550949707248134;1.5006309827251172;-0.30819981462039325;1.476;0.11797994203433419
51:09.1;0.2634890807977784;1.4675862405362878;-0.2811471628933077;1.3869999999999998;0.10871762566568667
51:09.1;0.27190959978659324;1.4277675684353357;-0.24109881072639297;1.5419999999999998;0.09360027432389106
51:09.1;0.2815163613543321;1.38169029431166;-0.19036288078771113;1.5419999999999998;0.07404514976106953
51:09.1;0.2938833208004573;1.330048891772243;-0.13217536083491566;1.5419999999999998;0.051664597338868794
51:09.1;0.31070540471834496;1.2738723806734613;-0.07052981224486313;1.517;0.027915631526271363
51:09.2;0.3334366108796293;1.214606922789789;-0.00990586650350929;1.361;0.00401182061843307
51:09.2;0.36291854927936557;1.1540687870093413;0.045133240814525244;1.202;0.018903289293817398
51:09.2;0.39908034438730244;1.094257794765623;0.09049525422826032;1.107;0.039518985908085856
51:09.2;0.44079210753633413;1.0370737891969348;0.12321270932728227;1.547;0.056324711422042324
51:09.2;0.4859265478937968;0.9840242656111777;0.14199947649030123;1.018;0.06789896872613048
51:09.2;0.5316300774253837;0.9360270340257106;0.14742764164891425;1.11;0.0733629614025917
51:09.2;0.574736912915846;0.8933757669479367;0.14158631413379621;1.204;0.07269834680978571
51:09.2;0.612213075283387;0.8558595837001804;0.1273762267954169;1.204;0.06674112128644777
51:09.2;0.6415267970820194;0.8229642388771389;0.10774924446552626;1.204;0.056886602836003844
51:09.2;0.6608935060755968;0.794072077774049;0.08512913828083524;1.156;0.04467552315497147
51:09.3;0.6693914839064932;0.7686065907396998;0.06110323386448622;1.1059999999999999;0.03143753477497518
51:09.3;0.666964646191168;0.7461032193149595;0.03637551702269552;1.038;0.018101347368209127
51:09.3;0.6543312654895902;0.7262160292942517;0.010922754946041089;0.977;0.005190338631244698
51:09.3;0.6328187344955107;0.7086856665897459;-0.01572752464122281;0.9179999999999999;0.007053316160899351
51:09.3;0.6041491410312595;0.6932975764127048;-0.04418080651204134;0.865;0.018505357687885297
51:09.3;0.5702041429933302;0.6798546273670417;-0.07488978160526047;0.833;0.029031467573058373
51:09.3;0.5327983643768742;0.668178197096066;-0.10794307238587576;0.8;0.03842819258410736
51:09.3;0.4934901816232826;0.6581383779779634;-0.14294424790088464;0.8;0.046426122922564414
51:09.3;0.45345563760317115;0.6497015963362585;-0.17897192786988964;0.8;0.052727072085545106
51:09.3;0.4134385278053947;0.642978280871459;-0.21460444596530698;0.7979999999999999;0.05704872776096344
51:09.4;0.3737684676235147;0.6382553687699192;-0.24800425973111148;0.804;0.059163829522436935
51:09.4;0.33442166217402336;0.6360042682356752;-0.2770661096835729;0.8;0.05893018956257565
51:09.4;0.2950940128885663;0.636861239776599;-0.2996222508649264;0.852;0.056309189786789185
51:09.4;0.2552598164422105;0.6415844131882387;-0.31367193698694495;0.843;0.05137027882067719
51:09.4;0.21419737936898647;0.6510000528133728;-0.31757560566255605;0.772;0.04428353806993886
51:09.4;0.1709756459096418;0.6659558400688746;-0.31015260659845995;0.755;0.0353146673975515
51:09.4;0.12441771716300834;0.6872929401254073;-0.2906622607432622;0.769;0.02485494225913112
51:09.4;0.07308645591920523;0.715830411186813;-0.2587106357560499;0.769;0.01353509570225555
51:09.4;0.015353383175520768;0.7523392928302483;-0.2141669463405411;0.769;0.0024738324257428546
51:09.4;-0.050407581812820006;0.7974867916656277;-0.15716669116010515;0.794;0.006318003650601617
51:09.5;-0.12550561150345924;0.8517489026151341;-0.08822908704032335;0.991;0.009431624721229933
51:09.5;-0.21054495748354382;0.9152950421458129;-0.008455540450604896;1.092;0.0016294735903711526
51:09.5;-0.3050378662077311;0.9878299474702283;0.08026476670639787;0.938;0.024185824118800985
51:09.5;-0.40709839095197997;1.0683725564014175;0.1751224928100326;0.897;0.07616650714800446
51:09.5;-0.5132801417250028;1.1549961966423787;0.2723938867825893;0.873;0.16148506883471414
51:09.5;-0.6186055070243642;1.2446207775338411;0.36764493447941554;0.935;0.28306059497124186
51:09.5;-0.7168344768457857;1.3329706737099174;0.4561902680432426;1.963;0.43589862180032174
51:09.5;-0.8009945984732607;1.4147675327318563;0.5337750136112994;1.963;0.6048851357338948
51:09.5;-0.8641131450327384;1.4841540452215651;0.5972595210976113;1.963;0.7659716106223136
51:09.5;-0.9000320692612456;1.5353053931595775;0.6449820594057772;2.003;0.8912517472746351
51:09.6;-0.9042021419348505;1.5631849194329517;0.6766221184925785;2.272;0.9563614871630386
51:09.6;-0.8743803667335098;1.564371499476892;0.6926800891950085;2.501;0.9474864258898671
51:09.6;-0.8111392340715728;1.5378067479620827;0.6938797437202486;2.513;0.8655285143347125
51:09.6;-0.7180762095834509;1.485260058959372;0.6807756949810906;2.3480000000000003;0.7260676430015968
51:09.6;-0.601629092728799;1.411351054179713;0.653685759643571;2.176;0.5550510200949293
51:09.6;-0.47045489119543243;1.323068962639817;0.612907063342813;1.8530000000000002;0.38150048647161566
51:09.6;-0.33440642846144486;1.2288356907290545;0.5590882583533876;1.157;0.22974644802108163
51:09.6;-0.2032569807488114;1.1372834552171749;0.4936055780772739;1.157;0.11410226098559888
51:09.6;-0.08545879456228245;1.0560473072282743;0.4187868982343689;1.157;0.03779490189717975
51:09.6;0.012747649552399296;0.9908899149701731;0.3378412120227499;1.077;0.0042674471416991825
51:09.7;0.08770437431667055;0.9453061703578033;0.2544246907318676;1.153;0.021093711538060823
51:09.7;0.13822645712541162;0.9205194803466209;0.17193132973761016;1.013;0.021876567580871475
51:09.7;0.16518140928834768;0.9156685401187807;0.09276575735554039;0.935;0.014030952517922508
51:09.7;0.1709519705935941;0.9280481246122128;0.017911353082525453;0.795;0.0028416658225158885
51:09.7;0.15892701075075924;0.9534008705487554;-0.053012457809958405;0.83;0.008032508593081125
51:09.7;0.13308056343314117;0.9863223133622935;-0.12124005311284584;0.956;0.015914009282475897
51:09.7;0.09763141436346742;1.0208129113227502;-0.18813395111535147;1.236;0.018750070791296567
51:09.7;0.05675408716501505;1.050942276127187;-0.2545244548870223;1.2919999999999998;0.0151811797174598
51:09.7;0.014328927209772918;1.0715276076979745;-0.3202750881934715;1.2919999999999998;0.004917452810478632
51:09.7;-0.026257798176677647;1.0787075073919918;-0.3840910593687133;1.2919999999999998;0.010879181073608179
51:09.8;-0.062252090058803895;1.0703290551553966;-0.44354380808799104;1.301;0.02955342183814091
51:09.8;-0.09161332935914263;1.0461212784386835;-0.49530590751516396;1.329;0.0474694511137158
51:09.8;-0.11305054911611306;1.0076589161286298;-0.5355851840769897;1.297;0.061011932737451625
51:09.8;-0.12601792652359642;0.9581295223572166;-0.5607041834268738;1.272;0.06770026177940218
51:09.8;-0.13066245559648765;0.9019260820481474;-0.5677362901613195;1.288;0.06690651629091693
51:09.8;-0.12771489939765635;0.8441066172159367;-0.5550921484281809;1.27;0.059841704453274386
51:09.8;-0.11832853134612974;0.7897910253747251;-0.5229348470280732;0.826;0.048870777871090926
51:09.8;-0.10389343998836723;0.743589545008473;-0.47332171150907465;0.826;0.03656603136465726
51:09.8;-0.08586784408112083;0.7091519849969448;-0.41005390651263984;0.826;0.024969556900042798
51:09.8;-0.06565806919874405;0.6888863034233631;-0.3382957763511033;0.691;0.015301437511865398
51:09.9;-0.044553622095194284;0.6838483499166338;-0.26403377288239865;0.628;0.008044560120999746
51:09.9;-0.023701972485539242;0.6937818902031796;-0.1934210866766417;0.61;0.0031806162086086874
51:09.9;-0.00410118079532301;0.7172880300026878;-0.13206223863271488;0.7879999999999999;0.00038849117104569907
51:09.9;0.013403625799392353;0.7521044679960652;-0.08433105571064059;0.8029999999999999;0.0008501352038925038
51:09.9;0.028123775244709586;0.7954623413445477;-0.05284334295308279;0.992;0.001182179779388777
51:09.9;0.039531516420622886;0.8444633764035472;-0.03817596500135273;1.09;0.0012744251027559104
51:09.9;0.04726538634681566;0.8964017101771071;-0.0388568910791634;0.987;0.0016463188035820593
51:09.9;0.05113118754139133;0.9489683997252256;-0.051608844077234824;0.987;0.0025041582020728175
51:09.9;0.05109113632099452;1.000324043015871;-0.0718090225275091;0.987;0.0036699934095242833
51:09.9;0.047239358970196724;1.0490731376721778;-0.09410509337535752;1.043;0.004663617167849326
51:10.0;0.03976733986267677;1.0941922357997131;-0.11311487970264207;1.138;0.004921980713981523
51:10.0;0.028923623950689446;1.1349551481709659;-0.1241199236936303;1.212;0.004074486709416288
51:10.0;0.014972070573579402;1.1708796021976489;-0.12363499959548252;1.236;0.002167382375936211
51:10.0;-0.001846096871182568;1.201699965282054;-0.1097466552695378;1.242;0.00024346796629181312
51:10.0;-0.021342021867141923;1.227355272776476;-0.08218409632935883;1.25;0.002152750195768078
51:10.0;-0.04339914260073901;1.2479771573440592;-0.042162525523373136;1.258;0.0022835703891894003
51:10.0;-0.06798231481215627;1.2638678200685207;0.007925583832053263;1.2930000000000001;0.000680971393932311
51:10.0;-0.0951307663185936;1.275465501609706;0.06489506981292956;1.2930000000000001;0.007874108877480294
51:10.0;-0.12492534642270305;1.283298304162081;0.12516247159558838;1.2930000000000001;0.020065607526540782
51:10.0;-0.15742534713236034;1.2879287398077315;0.18510540129521172;1.297;0.03753060674470396
51:10.1;-0.19258384111335333;1.2898945926100633;0.241372711578896;1.314;0.059960084469069856
51:10.1;-0.23016162740731064;1.2896561123175418;0.29114413238522335;1.327;0.08642012345773925
51:10.1;-0.2696605394743883;1.2875621770963892;0.33232393150526446;1.35;0.11538443469059391
51:10.1;-0.31029111041681273;1.2838460889851326;0.36364087910932363;1.385;0.14486217283120428
51:10.1;-0.3509836674607205;1.2786539451683967;0.3846356984919642;1.412;0.1726193670152265
51:10.1;-0.3904456051919437;1.2720965793806136;0.3955388499079402;1.429;0.1964580233327818
51:10.1;-0.42725774472770406;1.2643049585623671;0.3970675171603094;1.409;0.21448955353711385
51:10.1;-0.4599887424747854;1.2554668026455484;0.39019568042692077;1.409;0.22533823791255533
51:10.1;-0.4872952782594383;1.245832193899448;0.37595987561224864;1.409;0.2282407837019871
51:10.1;-0.5079807357101119;1.235688829616163;0.3553459668811755;1.337;0.22305283840480095
51:10.2;-0.5210095176988357;1.2253156648036845;0.3292716231189142;1.265;0.21020737415165297
51:10.2;-0.5255021500737398;1.2149326198962416;0.29865216948245876;1.2930000000000001;0.19067438919015975
51:10.2;-0.5207495677128454;1.2046730894314004;0.2645139718785736;1.389;0.16593834102261637
51:10.2;-0.5062749162338898;1.1945984691177032;0.2280947274645959;1.454;0.1379506054136132
51:10.2;-0.48193957372067464;1.1847446147951068;0.19085887782504873;1.459;0.1089757078146008
51:10.2;-0.44805228823135423;1.1751607499427474;0.15438231307726402;1.389;0.08128745393847614
51:10.2;-0.40542307331415856;1.1658994206257962;0.12011954974614811;1.114;0.05677841223026291
51:10.2;-0.35532782621786085;1.1569495983170865;0.0891258537008847;1.114;0.036639316338988724
51:10.2;-0.2994010759369357;1.1481510444195009;0.06183423551619181;1.114;0.021255991987573865
51:10.2;-0.23950211562684878;1.1391474101649497;0.03796880996053445;1.104;0.010358962637538119
51:10.3;-0.17758199957335954;1.1294146955630695;0.016624926477109954;1.13;0.0033343570987367176
51:10.3;-0.11555469361431671;1.118364895791147;-0.0035062345896360956;1.199;0.00045311880552608
51:10.3;-0.05517655562563822;1.1054947755767683;-0.023827611247665446;1.248;0.0014534221908395293
51:10.3;0.0020530900789143057;1.090529849858161;-0.04551938819598735;1.238;0.0001019159080234539
51:10.3;0.05496102787454068;1.0735076773116143;-0.0692932720097083;1.169;0.004088378257845003
51:10.3;0.1027396026326162;1.0547607030662658;-0.09527245927272021;1.073;0.010324266311610325
51:10.3;0.14496226060286221;1.0347952382537235;-0.12301234198213923;0.9490000000000001;0.018452620985340114
51:10.3;0.1815772083446809;1.0141058226368442;-0.15163285108065924;0.9490000000000001;0.027921446391712696
51:10.3;0.21287439504525646;0.9929921297291909;-0.1800017224417084;0.9490000000000001;0.0380492318963492
51:10.4;0.239422082664051;0.9714407192289096;-0.2069090019566548;0.9359999999999999;0.04812379783607767
51:10.4;0.26197951598242386;0.9491032227866883;-0.2312036869099023;0.9309999999999999;0.0574877801297367
51:10.4;0.2813994463999217;0.9253743700682088;-0.25189285362016156;0.9590000000000001;0.06559285763368831
51:10.4;0.29853268590612025;0.8995590560482831;-0.2682138167499874;1.024;0.0720282253574941
51:10.4;0.31414249698912233;0.8711026601857811;-0.2796874039313876;1.17;0.07653656011708361
51:10.4;0.32883144986450913;0.8398342077273008;-0.28614819605922137;1.158;0.07902380185111979
51:10.4;0.3429756209767479;0.8061518573113855;-0.2877296939853734;1.0490000000000002;0.07955450792526428
51:10.4;0.3566570265966612;0.7710893187241417;-0.2847841449528023;0.7809999999999999;0.07831974749073187
51:10.4;0.3695923077042552;0.7362510094389499;-0.27775008308735905;0.7809999999999999;0.0755793277083392
51:10.4;0.38106838995526615;0.7036654586344261;-0.2670125835004738;0.7809999999999999;0.07159799932334969
51:10.4;0.38990274004250136;0.6756285695627408;-0.2527994034424858;0.778;0.06659480288553668
51:10.5;0.3944441650965278;0.654576172013006;-0.23513219183651615;0.813;0.06070966274672072
51:10.5;0.3926244591538792;0.6429792850958209;-0.2138328958025862;0.8109999999999999;0.0539819849750078
51:10.5;0.38206513944859566;0.6432322904742552;-0.18857814147921384;0.79;0.04634432943882809
51:10.5;0.36023734119492123;0.657505978105152;-0.1589917764133481;0.778;0.03765850683023011
51:10.5;0.32466518262158833;0.687554681873319;-0.12476377216825141;0.763;0.02785040132067471
51:10.5;0.27315415008477884;0.7344884778352935;-0.0857833011425418;0.7509999999999999;0.017210581545100776
51:10.5;0.20402356927392332;0.7985354662984445;-0.04227498747989214;0.789;0.0068874433287235476
51:10.5;0.11633465105638728;0.878821267350232;0.005077600738217058;0.789;0.0005191205224250757
51:10.5;0.01012374729240421;0.9731910837654372;0.055054455976434026;0.789;0.0005424152517869178
51:10.6;-0.11335373108718325;1.0781072127241145;0.10591991352160494;0.851;0.012944205191561635
51:10.6;-0.25139665063321415;1.1886709540128313;0.1555991779136648;0.97;0.04649737503988698
51:10.6;-0.3997088849771285;1.2988206643067062;0.20205356913012557;1.222;0.10489614264453773
51:10.6;-0.5523941681942098;1.401730819013973;0.24382183131824506;2.845;0.18879317744841942
51:10.6;-0.7021460219435153;1.4903949046940517;0.2804923364707243;1.5390000000000001;0.2935281767036798
51:10.6;-0.8406629279244128;1.5583453189381948;0.3126972470319001;2.004;0.40964688291320156
51:10.6;-0.959306680992323;1.600438443092217;0.3414375173773083;2.449;0.524212875591962
51:10.6;-1.049990055344504;1.613582661589992;0.36707916943729724;2.503;0.6219223220520355
51:10.6;-1.10618489106054;1.5972474020013547;0.3885987828449919;2.503;0.686596126065838
51:10.6;-1.123831346016954;1.55363422460649;0.4033915255368136;2.503;0.7043308177990271
51:10.7;-1.1019170792688477;1.4874848267039211;0.4076263273908094;2.302;0.6681341726203043
51:10.7;-1.0425953951273066;1.4055564595429537;0.397042151813904;2.119;0.5818361672406611
51:10.7;-0.9508314111199097;1.315814422758617;0.3680766509374556;2.4290000000000003;0.4605072071891437
51:10.7;-0.8336672834380738;1.2264263000697415;0.31907509694116526;2.322;0.3262324242080946
51:10.7;-0.6993036602259793;1.1446987955382353;0.2510906248678576;0.789;0.20099605093855452
51:10.7;-0.5562458732281159;1.0761463035170673;0.16781219502067607;0.862;0.10045270554891285
51:10.7;-0.4126678988730539;1.0238854429727795;0.07462835103140619;1.089;0.03153231823084378
51:10.8;-0.2759705726703628;0.9884800768424146;-0.022658783272245953;1.114;0.006181121502965116
51:10.8;-0.15243209837788962;0.9682231356270553;-0.11890592573111909;1.114;0.017549121567199292
51:10.8;-0.04691429161651627;0.9597094069373198;-0.21023612816378826;1.114;0.009465689721661789
51:10.8;0.03733734643172288;0.9585171952070037;-0.2942045259485141;1.109;0.010529135316565274
51:10.8;0.09877381184619327;0.9598755172682187;-0.3696396487656755;1.139;0.03504574347954469
51:10.8;0.13751808672628474;0.9592629847270672;-0.436285586852048;1.1740000000000002;0.05755305398070107
51:10.8;0.1552488070059407;0.9529124657983542;-0.4943702057334878;1.181;0.07313639829676623
51:10.8;0.15498016601209927;0.9381981464021637;-0.5442151768402104;1.188;0.07913003200342052
51:10.8;0.14072477060401886;0.9138835940138067;-0.5859700803681974;1.225;0.07535930280211574
51:10.8;0.1170545953512188;0.8802117780971748;-0.6195058102500158;1.21;0.06382943900506405
51:10.8;0.08860974825693524;0.8388206453332245;-0.6444611400081438;1.09;0.04790130539273567
51:10.8;0.05962419566293849;0.7924887885069405;-0.6604037520055812;1.09;0.031205072237722193
51:10.8;0.03353757704865954;0.7447574405578918;-0.6670398833040809;1.09;0.016660895329842766
51:10.9;0.012743927619735997;0.699497208773105;-0.6643992905806864;1.003;0.005922682367124326
51:10.9;-0.0015024530138999094;0.6604700897963943;-0.6529456404683032;0.8859999999999999;0.0006479344635471358
51:10.9;-0.009031480793363572;0.6309200230013021;-0.6335962937278857;0.8190000000000001;0.00361032169661393
51:10.9;-0.01057969331860457;0.6132344002917156;-0.6076573478127093;0.7809999999999999;0.003942378717815857
51:10.9;-0.007535817493792245;0.6087259738071338;-0.5766899328816423;0.726;0.002645419650311389
51:10.9;-0.0016627012365206585;0.6175681514436299;-0.5423298421142562;0.674;0.0005568812725568319
51:10.9;0.005161050761355979;0.6388882322782699;-0.506092269171317;0.721;0.0016687555487271742
51:10.9;0.01115352068622301;0.6709939536492808;-0.46920634808979733;0.9129999999999999;0.0035115144757088203
51:10.9;0.01478307567869967;0.7116788353092024;-0.43252310855095527;0.9129999999999999;0.004550490020655303
51:10.9;0.014862236790411145;0.7585308606088611;-0.3965146328407592;0.9129999999999999;0.004470093939682087
51:11.0;0.010591529422639709;0.8091791953791464;-0.36134782525638;0.978;0.0030969117547511365
51:11.0;0.0015658151807138305;0.8614537023810697;-0.32699362512962404;0.9740000000000001;0.0004410742731693822
51:11.0;-0.012247868729337644;0.9134685013733599;-0.29332734768037133;0.948;0.0032817587716018463
51:11.0;-0.03055589573839893;0.9636540962137716;-0.26019164464521605;0.971;0.007661424700637551
51:11.0;-0.05280454820270492;1.0107628761775076;-0.22742536985157039;1.0290000000000001;0.012138346295547154
51:11.0;-0.07826403019803943;1.0538685875959872;-0.19488179487670898;1.1079999999999999;0.016073851019134163
51:11.0;-0.10612174081888982;1.0923687896117964;-0.16245033197496067;1.177;0.018831904885109562
51:11.0;-0.13557255781363572;1.1259825197613111;-0.1300763996917571;1.1840000000000002;0.019856465524450542
51:11.0;-0.16589365220958252;1.1547254384692818;-0.09776898282751227;1.1840000000000002;0.018728784764248243
51:11.0;-0.19649351194497958;1.1788511056707525;-0.06559263250708458;1.1840000000000002;0.015193653973199652
51:11.1;-0.22693109759872798;1.1987645355958945;-0.03364397587170764;1.162;0.009152404643420117
51:11.1;-0.2569114350890835;1.214929415186157;-0.0020109853476170665;1.171;0.0006276873675928584
51:11.1;-0.28627013500631393;1.2277959708682267;0.029279737815579732;1.235;0.01029128084808871
51:11.1;-0.31495633661446;1.2377698773061512;0.0603070980692433;1.31;0.02351032814343955
51:11.1;-0.3430160600186321;1.2452231046399487;0.09126677501122557;1.364;0.03898291662789241
51:11.1;-0.37057110928348214;1.2505241938450542;0.12243995906512174;1.3659999999999999;0.05673967341030912
51:11.1;-0.3977869415821337;1.2540549595875463;0.15412627472720736;1.327;0.07688538151964933
51:11.1;-0.4248299488662234;1.25619172327012;0.18655194359237964;1.3;0.09955677755357781
51:11.1;-0.4518236862669476;1.2572543183385199;0.219760786138881;1.3;0.12483671457563482
51:11.1;-0.4788138233210183;1.2574478011455177;0.2534954104244918;1.3;0.15262537587862166
51:11.2;-0.5057468422276529;1.2568261574661082;0.287082620510536;1.327;0.18248000848479948
51:11.2;-0.5324664066102475;1.2552955656177704;0.31934645003623796;1.376;0.21345203552582817
51:11.2;-0.5587274285089789;1.2526587003145584;0.3485790622210499;1.423;0.24396866412288162
51:11.2;-0.5842153367741241;1.248688588622793;0.37260222224780215;1.456;0.2718144480012061
51:11.2;-0.6085483120769726;1.2432114713913998;0.38894806761883943;1.49;0.2942603106575281
51:11.2;-0.6312454176889137;1.2361741277419458;0.3951714661828819;1.473;0.3083638552515702
51:11.2;-0.651662639047747;1.227675304220481;0.3892743200221979;1.44;0.31143118432441114
51:11.2;-0.668923328848652;1.2179550491039657;0.3701796463036671;1.55;0.30159222313410805
51:11.2;-0.681886546982276;1.2073546002361137;0.3381465420255393;1.55;0.2783888994079325
51:11.2;-0.6891947699207083;1.1962702236103102;0.29497972259705174;1.55;0.24319992057746231
51:11.3;-0.689422857202777;1.1851183476311105;0.24389790144172202;1.474;0.19927621388283334
51:11.3;-0.6813178445368342;1.1743111591186792;0.1890279212852618;1.4769999999999999;0.15123729816216502
51:11.3;-0.6640751352699661;1.16422673728779;0.1346582015765042;1.47;0.10410883779471734
51:11.3;-0.6375623198965649;1.155159686996207;0.08449159507201676;1.416;0.06222690138167144
51:11.3;-0.6024105606361291;1.1472541008277017;0.041100416716102525;1.306;0.028405237227540986
51:11.3;-0.5599434081999769;1.1404351562687827;0.005669073247321811;1.189;0.0036201519655408017
51:11.3;-0.5119690606878555;1.1343635611640426;-0.021985703655394855;1.112;0.012768396300062221
51:11.3;-0.4604986468664702;1.1284403615617855;-0.04317585551260409;1.181;0.022436128644948383
51:11.3;-0.407466379625129;1.121879308964322;-0.0599638139429536;1.181;0.02741114436048344
51:11.3;-0.35451947385678906;1.1138360291567857;-0.07472950399524655;1.181;0.02950892969378739
51:11.4;-0.302916098285883;1.1035586268368833;-0.08975702927030514;1.2329999999999999;0.030004488978394167
51:11.4;-0.2535279162907826;1.0905207080089228;-0.10689380798495453;1.229;0.029553726679996537
51:11.4;-0.20691185144768637;1.0745049906675332;-0.12731438862901034;1.177;0.028305530097697637
51:11.4;-0.1634050145456198;1.0556147395695363;-0.15140774050778827;1.094;0.02611673630112501
51:11.4;-0.12320138489505607;1.0342090197930975;-0.1787897048319231;1.0190000000000001;0.02278066608252698
51:11.4;-0.0863820463384321;1.010785009347146;-0.20841722260839313;0.9620000000000001;0.01819767416352994
