Time;AccX;AccY;AccZ;Acc-old;Acc-trns
53:25.6;-0.1608750766317485;0.08369699708646663;-0.9386923650601455;0.948;0.012639268179219409
53:25.6;-0.17374799342332217;0.08946003710470771;-0.9780272406600613;1.085;0.015201968311123967
53:25.7;-0.18511166950083244;0.09420505221819517;-1.015443578601148;1.167;0.017707766634145587
53:25.7;-0.19354312885834146;0.09665283013979699;-1.0491266367936372;1.0959999999999999;0.01962547815508584
53:25.7;-0.19787948260516644;0.09559420630650449;-1.0775023289227459;1.138;0.020382176374701577
53:25.7;-0.19737180556782027;0.09000476740122755;-1.09930455156068;1.138;0.01952848957020524
53:25.7;-0.1918054694507575;0.07917977231871755;-1.1135955949649066;1.158;0.016912302583135887
53:25.7;-0.18153346451301489;0.06283875363402758;-1.1197765700034492;1.119;0.012773668310019607
53:25.7;-0.16739646662014201;0.04116118146256505;-1.1176112538086185;1.127;0.007700605673581251
53:25.7;-0.15054903119579344;0.014751897848480966;-1.1072686136407635;1.173;0.0024591150695506335
53:25.7;-0.132247227236163;-0.015441350495399037;-1.0893731914233724;1.198;0.002224582618082204
53:25.7;-0.11365781166793974;-0.04823482764860299;-1.0650371299373418;1.1440000000000001;0.0058388157350616155
53:25.8;-0.09572460173071294;-0.08232084941092209;-1.03584180120921;1.073;0.008162568595738154
53:25.8;-0.0790973193746569;-0.11636540449808054;-1.0037516540302869;0.9790000000000001;0.009238722506121472
53:25.8;-0.06411142667797999;-0.14907527262943138;-0.9709712420866741;0.9520000000000001;0.009279988135074045
53:25.8;-0.050806721317893766;-0.17923172342432847;-0.9397768329788623;0.9520000000000001;0.00855777345172321
53:25.8;-0.03897915391329618;-0.2057018652066653;-0.9123524032237774;0.904;0.007315318812582316
53:25.8;-0.028264690128832197;-0.2274449150773317;-0.8906440745664254;0.863;0.005725647977406856
53:25.8;-0.018252276712872273;-0.24353038757269543;-0.8762367273152432;0.877;0.003894858252379424
53:25.8;-0.008615712181961926;-0.25317990512164845;-0.8702571441002984;0.905;0.0018983138326267163
53:25.8;0.0007595395469862619;-0.25583481503233896;-0.8733076555695889;0.895;0.00016969822635739184
53:25.8;0.00969560443503086;-0.25124457588997073;-0.8854282392555713;0.9009999999999999;0.002156874878617791
53:25.9;0.017730070989662682;-0.23956962746580612;-0.9060844157739948;0.8340000000000001;0.003848671934055992
53:25.9;0.024219861592199455;-0.22148449099304293;-0.9341899722528835;1.075;0.005011297424031663
53:25.9;0.02849285872521447;-0.19824098924771344;-0.9681821832148878;1.023;0.005468731073411665
53:25.9;0.029976202619571055;-0.17163358639250542;-1.0061521930144768;1.023;0.005176575722362828
53:25.9;0.0282605255906552;-0.14383687280785007;-1.0460085585312155;1.088;0.004251926073231582
53:25.9;0.023105723200977542;-0.1171492871283382;-1.085647033836591;1.173;0.002938650020197007
53:25.9;0.014423124109425204;-0.09372583437938792;-1.1231068596054699;1.149;0.0015182375754009853
53:25.9;0.00227566288528024;-0.07537456642534918;-1.1566969133846288;1.1079999999999999;0.0001984048709584675
53:25.9;-0.013081593279918802;-0.06343862557111879;-1.1850872730663613;1.165;0.0009834782091045124
53:25.9;-0.031137647630115256;-0.05874508560075182;-1.2073830905541576;1.276;0.00220852555997885
53:26.0;-0.05108713542214571;-0.06159993184282704;-1.223198295536043;1.328;0.003849361074365674
53:26.0;-0.07186182272849168;-0.07181585245773822;-1.232719198400841;1.324;0.00636183950006007
53:26.0;-0.09224055617372927;-0.08875867480984755;-1.236723627988245;1.3619999999999999;0.01012524126925718
53:26.0;-0.11100864530154844;-0.11140537899999765;-1.2365220162602026;1.3619999999999999;0.01529201856410458
53:26.0;-0.1271212740689965;-0.13842545057567937;-1.2338018014638978;1.311;0.02171098777279915
53:26.0;-0.1398324053068558;-0.16830238823515445;-1.2303742549692518;1.122;0.028955784916209565
53:26.0;-0.14877235862472774;-0.1994866679656076;-1.227853805673526;1.0190000000000001;0.036440370617777086
53:26.0;-0.15397809248195707;-0.2305408607637481;-1.227344784014014;1.078;0.04356858213526848
53:26.0;-0.15588616947251077;-0.26023761940233225;-1.2292331037703597;1.194;0.04986684711765948
53:26.0;-0.15528968109719343;-0.28759815731426525;-1.2331466616879936;1.272;0.05507359528405213
53:26.1;-0.15325025385559402;-0.3118841804690057;-1.2380779583829262;1.335;0.059175582454642134
53:26.1;-0.1509593608934502;-0.332566170573942;-1.242608486086006;1.345;0.062383887314465286
53:26.1;-0.14956201218124263;-0.349287204062205;-1.2451635888837365;1.3419999999999999;0.06504746674970184
53:26.1;-0.14997721461982313;-0.36183147012825534;-1.2442464988374489;1.3419999999999999;0.06752087283148873
53:26.1;-0.15275703890247563;-0.3701012944901818;-1.2386262768433929;1.361;0.07002645228951232
53:26.1;-0.1580145712226675;-0.37410888099219664;-1.2274697276202826;1.3619999999999999;0.07256144875998896
53:26.1;-0.1654287567908195;-0.37399028607289275;-1.2104105765303208;1.321;0.07488658702894742
53:26.1;-0.17431458578201847;-0.37004233683640897;-1.1875511903629212;1.2770000000000001;0.07660153676433283
53:26.1;-0.18373846117293893;-0.3627699971812093;-1.1594022950098373;1.244;0.0772797293012717
53:26.1;-0.19265936300718492;-0.35291858008217053;-1.1267805872288477;1.193;0.07661327002604752
53:26.2;-0.20007949506230033;-0.3414609217570841;-1.0906928972419112;1.092;0.07451540667594561
53:26.2;-0.20518700104212753;-0.32952250304498765;-1.0522376110869085;1.033;0.07114571412569999
53:26.2;-0.2074684245341978;-0.31825626789136424;-1.0125514106947198;1.126;0.06685687263062867
53:26.2;-0.20677131032023835;-0.3087036564287831;-0.97281261059045;1.126;0.06209565966827836
53:26.2;-0.20331378954234555;-0.3016776026741856;-0.9342779715051815;1.075;0.05730414176532038
53:26.2;-0.19765260659393985;-0.2976826761527747;-0.8983040545157243;1.006;0.052854195563425396
53:26.2;-0.19062020360817064;-0.2968711313040569;-0.8663129125564338;0.98;0.04902433194580554
53:26.2;-0.18323494627585893;-0.2990329233346302;-0.8396913448980796;0.875;0.04600944435329482
53:26.2;-0.1765887622166154;-0.30362506597944366;-0.8196358814381882;0.833;0.04394623229213469
53:26.2;-0.17172178147491995;-0.3098455774719025;-0.8069704484267223;0.7659999999999999;0.04293666592080896
53:26.3;-0.16949852235078228;-0.31674428222853895;-0.8019775307041148;0.757;0.043056319291696205
53:26.3;-0.1705018996368475;-0.3233501943281785;-0.8042896523586099;0.8029999999999999;0.04434195425662927
53:26.3;-0.17495858003785786;-0.3287943137993242;-0.8128762794425183;0.894;0.04676102196209208
53:26.3;-0.18270352736542;-0.3324112818779115;-0.8261335589248469;0.894;0.050173332941187816
53:26.3;-0.19318635284487323;-0.33380686022256895;-0.842055623136972;0.9490000000000001;0.054301581925132715
53:26.3;-0.20551912926496976;-0.3328830772159494;-0.8584529920120472;0.997;0.058730065794520905
53:26.3;-0.21856362987396183;-0.32982045511424585;-0.8731846976804767;1.0290000000000001;0.06294505213674578
53:26.3;-0.23105329285263307;-0.3250246492468502;-0.8843733433282953;1.034;0.06641468301565577
53:26.3;-0.241740031099386;-0.3190509634921724;-0.8905754582871457;1.036;0.06868776055047682
53:26.3;-0.24954815632378197;-0.3125225687661804;-0.890889796334293;1.044;0.06947998816188332
53:26.4;-0.2537102425860315;-0.3060560598581107;-0.8849996319757327;1.041;0.06871982953757932
53:26.4;-0.25385837581677745;-0.3002034862259229;-0.8731522464470542;1.02;0.06654220748578887
53:26.4;-0.2500515296222643;-0.29541572027033786;-0.8560803972539142;0.912;0.06323793361224846
53:26.4;-0.24273411112402346;-0.29202781352049423;-0.8348768841631073;0.858;0.05918034122170012
53:26.4;-0.2326384924163367;-0.2902622189358911;-0.8108472083074469;0.858;0.0547534023930936
53:26.4;-0.2206575518274214;-0.2902420130475672;-0.7853732561352078;0.826;0.05029851709895931
53:26.4;-0.20771436662038886;-0.2920055461100328;-0.7598116562221511;0.804;0.04608542400965157
53:26.4;-0.19464945586887605;-0.2955165701555691;-0.7354327321703256;0.8079999999999999;0.04230366427235094
53:26.4;-0.18213888416050913;-0.3006684821015551;-0.7133931380003588;0.818;0.03906784934851854
53:26.4;-0.17064789886337448;-0.30728513159253174;-0.6947279478681563;0.799;0.03642983987991702
53:26.4;-0.1604151399419484;-0.315122402192915;-0.6803434486492098;0.792;0.034391636355756705
53:26.5;-0.1514589997607458;-0.3238766639812874;-0.670992071628983;0.7809999999999999;0.032914868950522036
53:26.5;-0.14360105137304163;-0.33320754632986993;-0.667217964970721;0.7;0.03192568169944627
53:26.5;-0.13650474987118064;-0.3427777506116535;-0.6692776406480108;0.705;0.031316030277250995
53:26.5;-0.12972725522764267;-0.35230204774430524;-0.6770621171335944;0.705;0.03094389022956158
53:26.5;-0.12277939696271863;-0.3615902673713539;-0.6900598632778573;0.752;0.030635783813260528
53:26.5;-0.1151862710677431;-0.3705709284412094;-0.7073902239942916;0.8059999999999999;0.030194727760827437
53:26.5;-0.10654178346123376;-0.37928993402808736;-0.7279105648094532;0.873;0.02941503044647501
53:26.5;-0.09655458568526123;-0.38788720350096184;-0.7503725854395097;0.922;0.028103170347257057
53:26.5;-0.0850857516993262;-0.396560251081962;-0.7735859712667162;0.938;0.02610204933930438
53:26.5;-0.07217673111644765;-0.40552522917226347;-0.7965478227170387;0.934;0.023314544888847103
53:26.6;-0.05806214026542372;-0.41498312816595595;-0.8185132040486944;0.9420000000000001;0.019721918984324897
53:26.6;-0.04316085770090703;-0.4250945433117393;-0.8390049071501156;0.948;0.015393596466954434
53:26.6;-0.028042550687604507;-0.4359622682949785;-0.8577769683001002;0.948;0.010486747184905191
53:26.6;-0.013373269372484814;-0.4476186499120064;-0.8747529564881078;0.9229999999999999;0.0052363803504549555
53:26.6;0.00015059304701321973;-0.46001677106692385;-0.8899605962312548;0.995;6.16523115276402e-05
53:26.6;0.011868819419215557;-0.47302833491188206;-0.9034804523158144;1.026;0.00507239935979601
53:26.6;0.02121598768478934;-0.48644987187936634;-0.9154155463425837;1.053;0.00944755941137023
53:26.6;0.027768614898234994;-0.5000140554407261;-0.92587512943641;1.052;0.012855496325761391
53:26.6;0.031278685467211895;-0.5134029710454103;-0.9349604085983791;1.045;0.015014127214763213
53:26.6;0.03168891127417838;-0.5262656163057889;-0.9427460371663676;1.072;0.01572197242629672
53:26.7;0.02912547156985531;-0.538243011621395;-0.949260874731126;1.101;0.014881165498479282
53:26.7;0.02387086592242394;-0.5489957645311234;-0.9544767591561544;1.08;0.01250842202067974
53:26.7;0.016326115009564365;-0.5582205479771477;-0.9583136974223685;1.08;0.008733661710880863
53:26.7;0.006970187375953912;-0.5656465330942292;-0.960667216166195;1.123;0.003787586439297045
53:26.7;-0.0036812093076840783;-0.5710153217248984;-0.9614588712687621;1.133;0.0020210124271529727
53:26.7;-0.01511623117225057;-0.5740535686183692;-0.960702578293684;1.1440000000000001;0.008336522032276627
53:26.7;-0.026861346559365736;-0.574445563426675;-0.9585710667008794;1.156;0.0147911171186047
53:26.7;-0.038502345048655864;-0.571812831413447;-0.9554431058349039;1.155;0.021035164343957802
53:26.7;-0.04968908709123377;-0.5657106201211085;-0.9519130556179479;1.131;0.02675793737094431
53:26.7;-0.060127449287634416;-0.555651199700972;-0.9487498110070839;1.105;0.031697626189154796
53:26.8;-0.06956486068812902;-0.5411585934156236;-0.9468039222527044;1.079;0.0356430227178123
53:26.8;-0.0777755182822123;-0.5218510554227925;-0.9468766230243707;1.033;0.0384311052471769
53:26.8;-0.08455072409295283;-0.49753930357525034;-0.9495771423626606;1.033;0.03994615448025971
53:26.8;-0.08969958557576715;-0.4683216161474034;-0.9552010604658125;1.041;0.040126329614083855
53:26.8;-0.09306370186430755;-0.4346527976565326;-0.9636589357440698;1.037;0.03898038784904928
53:26.8;-0.0945450090776755;-0.39736522217717735;-0.9744713709707179;1.043;0.036609816064081147
53:26.8;-0.09414001641493366;-0.3576293432347626;-0.9868308118143954;1.067;0.03322386212549147
53:26.8;-0.09196949320477726;-0.3168574696710346;-0.9997166125346354;1.067;0.02913296264706358
53:26.8;-0.08829306150256165;-0.2765711343468251;-1.0120396042791857;1.099;0.02471331103007097
53:26.8;-0.08350252259770878;-0.23825982551143413;-1.0227876834160938;1.136;0.020348664181183244
53:26.9;-0.07809242512011676;-0.20325441210372586;-1.0311447489127714;1.1;0.016366979032156594
53:26.9;-0.07261097142356726;-0.1726286758808634;-1.0365609276071723;1.064;0.01299301742130707
53:26.9;-0.06760069545875397;-0.14713564025943685;-1.0387650504219201;1.064;0.010332047081723186
53:26.9;-0.0635417678449417;-0.12718275976705157;-1.0377276769572439;1.022;0.00838631049983208
53:26.9;-0.06080654036018336;-0.11284606166965878;-1.0335946251913042;0.992;0.00709229748373091
53:26.9;-0.05962750592156108;-0.1039172121207355;-1.0266142730599153;1.002;0.0063612348448043275
53:26.9;-0.06007848015221569;-0.09997290202681178;-1.0170797972377619;1.014;0.00610880503011643
53:26.9;-0.06206906577486352;-0.10045332814369945;-1.0052988000376653;1.01;0.006268082484465829
53:26.9;-0.06535333151925071;-0.10473581705046335;-0.9915892977694871;1.016;0.0067872647082225296
53:26.9;-0.06955502025659048;-0.11219318211507984;-0.9762909176597909;1.013;0.007618582882128676
53:27.0;-0.07421111592528401;-0.12223292304962709;-0.9597771021667184;0.992;0.008706178041906085
53:27.0;-0.07883149057350711;-0.13431815911165276;-0.9424565604915116;0.9440000000000001;0.0099792019446983
53:27.0;-0.08296664992152634;-0.14797332823555853;-0.9247594341760903;0.9440000000000001;0.011353134081481333
53:27.0;-0.08627153682443378;-0.16277959072238427;-0.9071124954264452;0.92;0.012738803428818264
53:27.0;-0.08855355119192515;-0.17836629264898154;-0.8899115844553592;0.9009999999999999;0.014056125557281144
53:27.0;-0.08979712467255248;-0.1944033468389925;-0.8734977667478393;0.8859999999999999;0.01524852959832154
53:27.0;-0.09016143334822031;-0.21059635816110828;-0.8581418247616724;0.868;0.01629411336104329
53:27.0;-0.08995062131309083;-0.2266852611015951;-0.8440414462559166;0.8640000000000001;0.01721041029540134
53:27.0;-0.08956035341226608;-0.24244637843149605;-0.8313344793108497;0.872;0.018051250496480598
53:27.0;-0.0894114203916706;-0.25769463152357563;-0.8201283150976235;0.877;0.01889644777412444
53:27.1;-0.089886288636102;-0.2722809924429287;-0.8105399764953208;0.879;0.019837421142040287
53:27.1;-0.09128356721499699;-0.28608315395535366;-0.8027364997152443;0.88;0.020963215494503397
53:27.1;-0.09379746894876662;-0.2989917005222885;-0.796964051853058;0.88;0.022350589648576377
53:27.1;-0.09751913156167998;-0.31089655550404727;-0.7935568131944225;0.88;0.02405934280797955
53:27.1;-0.10245196516064681;-0.3216791180884855;-0.7929201858753532;0.879;0.026131999228058582
53:27.1;-0.10853547632200389;-0.3312143328278193;-0.7954864882473622;0.863;0.02859655030099967
53:27.1;-0.11567464256358659;-0.3393828376923916;-0.8016468110274998;0.867;0.031471041242110705
53:27.1;-0.12377052989688314;-0.34608841096038256;-0.8116697729466275;0.867;0.03476831790863791
53:27.1;-0.13274520984630755;-0.35127501386484666;-0.8256222998703556;0.871;0.038498830119028576
53:27.1;-0.14255441602215266;-0.3549408616655565;-0.8433073171438256;0.884;0.042669990209617224
53:27.2;-0.15318567566422597;-0.35714958053981904;-0.864230825346022;0.909;0.047282241135075294
53:27.2;-0.16464499816324374;-0.3580382607107522;-0.8876071383584575;0.976;0.052323738511130584
53:27.2;-0.1769379619980326;-0.35782052352591287;-0.9124040074920513;0.976;0.057766153720845904
53:27.2;-0.19005087468603638;-0.35678188684034606;-0.9374207477637981;1.015;0.0635634164786378
53:27.2;-0.20393676436039837;-0.35526591437779553;-0.9613885759310893;1.057;0.06965431462246856
53:27.2;-0.21850967477801952;-0.3536522162826351;-0.9830830502392258;1.101;0.07596914926751037
53:27.2;-0.23364817784084235;-0.3523290438103431;-1.0014371276077019;1.13;0.08243934492465917
53:27.2;-0.2492058716475883;-0.35166249676102085;-1.0156397389905527;1.15;0.08900696881242613
53:27.2;-0.26502403287733467;-0.35196280130043733;-1.0252049081484578;1.153;0.0956296795944585
53:27.2;-0.28094031400660807;-0.3534483762124413;-1.030002045561631;1.139;0.10227703785216624
53:27.3;-0.29678895748608336;-0.3562106838435505;-1.0302463124983805;1.131;0.10891701943735849
53:27.3;-0.312392756918972;-0.3601848428910723;-1.026455950513584;1.111;0.11549593676689894
53:27.3;-0.32755171567184255;-0.36513116697877157;-1.0193888713054167;1.1159999999999999;0.121918236404299
53:27.3;-0.3420345859792402;-0.3706321826241755;-1.0099716371980099;1.1159999999999999;0.12803311986102806
53:27.3;-0.35557797617151654;-0.3761092753383561;-0.9992294665094021;1.128;0.1336331267424494
53:27.3;-0.36789593170636287;-0.38086186421889334;-0.9882184689667;1.121;0.1384667313556537
53:27.3;-0.37870016958763125;-0.3841283751001083;-0.9779568543531905;1.105;0.14226287584152802
53:27.3;-0.3877266927091548;-0.3851629130075062;-0.9693544887558394;1.104;0.1447614048211771
53:27.3;-0.39476170916647674;-0.38331777581270615;-0.9631462340492698;1.1079999999999999;0.14574249867784111
53:27.3;-0.3996620592264563;-0.37812237269721394;-0.9598361291752846;1.0959999999999999;0.14505155511716894
53:27.4;-0.4023710131621402;-0.3693515393516355;-0.9596556344581366;1.097;0.14262052062687142
53:27.4;-0.40293393210245576;-0.35707652717371885;-0.9625365919503367;1.102;0.1384880795980087
53:27.4;-0.40151575078335455;-0.3416903833346281;-0.968101142507383;1.102;0.13281773668677244
53:27.4;-0.39841533728451833;-0.3238996137026484;-0.9756725628474895;1.107;0.12590720142483458
53:27.4;-0.39406725976811424;-0.30467731639689066;-0.9843098858325166;1.101;0.1181795474358256
53:27.4;-0.389022981845904;-0.2851793904439687;-0.992866131329885;1.095;0.11014989590446703
53:27.4;-0.38390807999160403;-0.26663438209425105;-1.0000672603819363;1.091;0.10236997867032939
53:27.4;-0.37935656720399;-0.25022493263539564;-1.0046079957767646;1.094;0.09536188303707444
53:27.4;-0.3759279966287873;-0.23698012937236274;-1.0052601771758853;1.0979999999999999;0.08955608112728429
53:27.4;-0.37401812855011807;-0.22769349783006845;-1.0009869182204751;1.115;0.08524554337346009
53:27.5;-0.3737786233269362;-0.22287415275799902;-0.9910510577600269;1.114;0.08256009704413177
53:27.5;-0.37506349789381793;-0.22273191044620444;-0.9751020915427941;1.074;0.08145867277443192
53:27.5;-0.3774176018509671;-0.22719190924904806;-0.953227284625313;1.074;0.08173564174667436
53:27.5;-0.380114935697189;-0.23592992650666597;-0.9259608061493004;1.065;0.08304061774504232
53:27.5;-0.3822448038847512;-0.24841841057532948;-0.8942512742699488;1.046;0.08491510225082437
53:27.5;-0.3828338658182274;-0.26397733065103396;-0.8593884415601266;0.985;0.08684933353719629
53:27.5;-0.38098404213109255;-0.28182787931349573;-0.8228918087498074;0.9740000000000001;0.08835547728096847
53:27.5;-0.3760025058701131;-0.3011438382769478;-0.7863728828268833;0.9490000000000001;0.08904166036100497
53:27.5;-0.3675013285734067;-0.32108950960952587;-0.75139146066348;0.813;0.08866480953056143
53:27.5;-0.355449282875083;-0.3408397011823738;-0.7193289679891021;0.879;0.08714758734793672
53:27.6;-0.34016554338876986;-0.35959766869965143;-0.691298525707643;0.825;0.08456152731625233
53:27.6;-0.3222556386974926;-0.37663373291549385;-0.6681012535476946;0.8270000000000001;0.08108901527644757
53:27.6;-0.3025055390127408;-0.39134402317690303;-0.6502257785802203;0.8270000000000001;0.07697615604738843
53:27.6;-0.28176252598161844;-0.4033038869006525;-0.6378794324483742;0.871;0.07248601737454874
53:27.6;-0.2608291930694652;-0.41229263216696266;-0.631033586084989;0.759;0.06786006110409255
53:27.6;-0.24038426946488972;-0.41828405250711687;-0.6294644855783286;0.802;0.06329196563670869
53:27.6;-0.22093538262716242;-0.4214107805761969;-0.6327805743814792;0.7859999999999999;0.058914751923611154
53:27.6;-0.20280330607354466;-0.42191856638710384;-0.6404382191739688;0.74;0.05480004417280746
53:27.6;-0.1861289736324156;-0.42013072245689276;-0.6517511273565659;0.772;0.050965960638402065
53:27.6;-0.17089149541918788;-0.41643761419094394;-0.6659016690049656;0.797;0.047389322871988056
53:27.7;-0.15693259004192434;-0.411309741442141;-0.681965979092309;0.804;0.044019473890930014
53:27.7;-0.14399013460651355;-0.4053173220787278;-0.6989610659534369;0.8440000000000001;0.04079255308238247
53:27.7;-0.1317423891586981;-0.3991375201260655;-0.7159127397162733;0.8440000000000001;0.037645076204729545
53:27.7;-0.11985868974336274;-0.393539961487155;-0.7319352479840531;0.8859999999999999;0.03452478849474481
53:27.7;-0.10804931437874879;-0.3893487346801739;-0.746309608916371;0.91;0.031396397317319275
53:27.7;-0.09610831586759447;-0.38738002379388903;-0.7585462024170041;0.9059999999999999;0.028241010156421033
53:27.7;-0.08394423903640406;-0.3883562034564976;-0.7684168699265125;0.893;0.025050594338683924
53:27.7;-0.07159172404393406;-0.3928060556079991;-0.7759458487559152;0.8220000000000001;0.021820887460015412
53:27.7;-0.05919554256664164;-0.40097432158508217;-0.78136200492119;0.74;0.01854632456920874
53:27.7;-0.04696419327424938;-0.41277253750197873;-0.785034296669205;0.871;0.015218305304276395
53:27.8;-0.03510252574578314;-0.42779429490922655;-0.7874216320037236;0.9840000000000001;0.011824443122048708
53:27.8;-0.023742270844305483;-0.4453885601851292;-0.7890509607788156;0.9129999999999999;0.008343847653982247
53:27.8;-0.012889171641412196;-0.46475533536311076;-0.7905099112938241;0.9129999999999999;0.004735400445497864
53:27.8;-0.0023999050553576056;-0.48502609345394604;-0.7924375061349435;0.8759999999999999;0.000922410390731249
53:27.8;0.008005018454020582;-0.5053151688584059;-0.7955167834312067;0.955;0.0032179109337534292
53:27.8;0.018696581404698598;-0.524749134129878;-0.8004819992972467;1.0759999999999998;0.007853540824932163
53:27.8;0.03007489649585526;-0.5424806223766162;-0.8081352215134721;1.069;0.013184765389298837
53:27.8;0.04250287242833469;-0.5576829919439618;-0.8193414287056094;0.992;0.019420955630490396
53:27.8;0.056239723422244065;-0.5695279808917573;-0.8349671358371216;0.9470000000000001;0.02674407762339946
53:27.8;0.07137335684171071;-0.5771710548378636;-0.8557543148291931;0.94;0.03525248721013852
53:27.9;0.08776057434303647;-0.5797782628501039;-0.8821577459710946;1.0170000000000001;0.04488566226426361
53:27.9;0.10499806612263032;-0.576605286602539;-0.9141919706098237;1.083;0.055347412537676166
53:27.9;0.12244545192678795;-0.5671059516355339;-0.9513240333289941;1.083;0.06605950758278388
53:27.9;0.13930023778931225;-0.551036551090317;-0.9924249304961468;1.0490000000000002;0.07617806387872514
53:27.9;0.15470260907660824;-0.5285350644419265;-1.0357831596542637;1.111;0.08469159046786517
53:27.9;0.167841602885966;-0.5001663723857952;-1.0791936843257701;1.21;0.09059693452963816
53:27.9;0.17803921246601487;-0.4669239285601788;-1.120136859350941;1.315;0.09311783796810227
53:27.9;0.18479759766141626;-0.4301764278273183;-1.1560343124646333;1.335;0.09189960710956407
53:27.9;0.18780611652181708;-0.39155605256970255;-1.1845337979169948;1.347;0.08710661370978522
53:27.9;0.1869172999861421;-0.3527993291381933;-1.2037649286505294;1.3730000000000002;0.07938143322434775
53:27.9;0.18210950305047208;-0.3155652937082386;-1.2125232048802732;1.3159999999999998;0.06968060309087247
53:28.0;0.17345546049544033;-0.28126537339379415;-1.2103615547084272;1.266;0.059049927159699464
53:28.0;0.16110892949677394;-0.25093939943648197;-1.197589293237139;1.266;0.04841683216770413
53:28.0;0.14530938173652083;-0.22519775824325075;-1.175195345134651;1.266;0.03845632509369289
53:28.0;0.1263945561511812;-0.20422857558760962;-1.1447167198833188;1.112;0.029549007871332526
53:28.0;0.10480747707578415;-0.18785515040436973;-1.1080673703864903;1.248;0.021816322231721193
53:28.0;0.08109206722626648;-0.17562499850233626;-1.0673365990740658;1.08;0.015200788170306179
53:28.0;0.05588622214406415;-0.16691043477531373;-1.024564917608292;0.725;0.009557135031134907
53:28.0;0.029920862087138355;-0.1610039696629702;-0.9815245606914874;0.973;0.004728374404814158
53:28.0;0.004011555929887422;-0.1572021466902913;-0.939562803677562;0.9670000000000001;0.0005925119845017676
53:28.0;-0.020978123926471415;-0.15487397417870738;-0.8995526614959838;0.877;0.0029226154936433896
53:28.1;-0.04420096430206221;-0.15350340649706445;-0.8619370689174595;0.875;0.005848241797981941
53:28.1;-0.06490317118564559;-0.15269966932208384;-0.8268220701354487;0.875;0.008194379519184619
53:28.1;-0.08250449085664313;-0.15218340655482843;-0.7940878511316223;0.848;0.00997041973537074
53:28.1;-0.09667463626997054;-0.15176223084812834;-0.7634990820293202;0.831;0.01120172142131237
53:28.1;-0.10739403695565491;-0.15130579456392484;-0.7347971920193679;0.7959999999999999;0.011939969472506246
53:28.1;-0.11498275288089056;-0.15072575523835605;-0.707762702698518;0.748;0.012266137918440704
53:28.1;-0.1200832387348343;-0.14996015482295036;-0.6822467777032419;0.7120000000000001;0.01228569603043153
53:28.1;-0.12359284151762102;-0.14895615642663212;-0.6581806857012765;0.674;0.01211705023771259
53:28.1;-0.12655504079663607;-0.14764579797588526;-0.6355753916261871;0.679;0.011875929567946919
53:28.1;-0.13002612094593033;-0.1459172124324085;-0.6145197798995025;0.612;0.011659313964223825
53:28.2;-0.13493757822980285;-0.14359097797510414;-0.5951793925599422;0.632;0.011532088077787404
53:28.2;-0.14197681561522443;-0.140411488041346;-0.5777935750181288;0.632;0.011518416579555718
53:28.2;-0.15150463370132508;-0.13605756652067294;-0.5626667095412762;0.599;0.011598446817548702
53:28.2;-0.16351651646612372;-0.1301698019562856;-0.5501473734515462;0.588;0.01170983874176793
53:28.2;-0.17764310797684169;-0.12238755094900884;-0.5405925436786917;0.5579999999999999;0.011753187334059981
53:28.2;-0.19317978578213046;-0.11238671580329657;-0.5343227072910864;0.563;0.011600595705969628
53:28.2;-0.20913613363778;-0.0999100926479489;-0.5315784447412165;0.633;0.0111072308622589
53:28.2;-0.22430018100504723;-0.08478553428743939;-0.5324846954411341;0.44;0.01012648013789648
53:28.2;-0.23732002319947695;-0.06693238272646333;-0.5370236346874478;0.6779999999999999;0.00853029533441575
53:28.2;-0.24681704587410722;-0.04635911252786198;-0.5450147102036313;0.631;0.0062361777832668315
53:28.3;-0.2515457345586067;-0.02315070311328172;-0.5560929175061752;0.584;0.0032383852062574784
53:28.3;-0.25059337606164483;0.0025601695604800553;-0.5696739884075117;0.584;0.00036548091756984444
53:28.3;-0.243585496707033;0.030639305231366976;-0.5849155933470069;0.6779999999999999;0.004365394923009848
53:28.3;-0.2308509616206823;0.06100560444530572;-0.6007052382546432;0.6659999999999999;0.008459853483385819
53:28.3;-0.21350472844662077;0.09367084130655162;-0.6157003132092097;0.73;0.012313493716159939
53:28.3;-0.1934189761284414;0.128725633382336;-0.6284254162521479;0.763;0.015646523577493347
53:28.3;-0.17307310791460756;0.1662473268168589;-0.6374114700426745;0.703;0.018340202961078203
53:28.3;-0.1552993448518954;0.20616076663796734;-0.6413423360428773;0.736;0.02053362155464192
53:28.3;-0.14296608255341736;0.24812228914009937;-0.639170654580264;0.696;0.022673346440914063
53:28.3;-0.13865802082543546;0.29148410488356874;-0.6301846510688018;0.451;0.025469926693759387
53:28.4;-0.14442014749739496;0.33536569658490833;-0.6140421068307035;0.9329999999999999;0.0297402472907975
53:28.4;-0.1616187553999764;0.3788246276148037;-0.5908093858009044;0.9329999999999999;0.036172402028750224
53:28.4;-0.19091892064091556;0.42106118364322787;-0.5610203868781874;0.846;0.04509961357298707
53:28.4;-0.23232265457782028;0.46155640895007094;-0.5257209093150045;0.818;0.05637305844963616
53:28.4;-0.28521371003001456;0.5000924944508137;-0.48644360931487085;0.9179999999999999;0.06938302598240069
53:28.4;-0.3483935055032259;0.5366872870776538;-0.4450730621743344;0.7190000000000001;0.08321903360620259
53:28.4;-0.42011439814779716;0.5715043050373764;-0.40359006550887233;0.59;0.09690083949022422
53:28.4;-0.49812541133588184;0.6047803940973984;-0.36374009013151953;0.721;0.10957906012549651
53:28.4;-0.5797606977563532;0.6367900166379;-0.3267319216221782;0.868;0.12062479383216587
53:28.4;-0.6621047600249623;0.6678447563163122;-0.2930731808113541;0.9420000000000001;0.12959203461438532
53:28.5;-0.742245111861458;0.6983051613535455;-0.26257953143203067;1.274;0.13609854028036328
53:28.5;-0.8175834552226295;0.7285714548481947;-0.23451757157508926;1.274;0.1396946051870731
53:28.5;-0.8861391962653934;0.7590258285277875;-0.20780591396221074;1.32;0.13977078506681107
53:28.5;-0.9467670614731659;0.7899203682300712;-0.1812065202784887;1.339;0.13551902647634287
53:28.5;-0.9992330438512214;0.821235648958066;-0.15347587594658046;1.3230000000000002;0.12594319353633276
53:28.5;-1.0441309748800027;0.8525565295328809;-0.12348994220477849;1.2830000000000001;0.10992836076470981
53:28.5;-1.082659817468971;0.8830095195756852;-0.09037718055455198;1.27;0.08640048748063667
53:28.5;-1.1163153480701118;0.9112883898639073;-0.05367811774068355;1.413;0.05460595560691673
53:28.5;-1.146566213895094;0.9357708820686218;-0.013511181283379452;1.411;0.014496460903118546
53:28.5;-1.174575786100507;0.9547025966927204;0.029304910121165602;1.4169999999999998;0.03286166326826142
53:28.6;-1.201011028877794;0.966406780819782;0.07320891387726916;1.561;0.08497103882431145
53:28.6;-1.225956879802408;0.9694825575793716;0.11593650201789284;1.561;0.137795611978628
53:28.6;-1.2489277683495974;0.9629705150323283;0.15464266173175928;1.565;0.18598573172181265
53:28.6;-1.2689514575394725;0.9464761007737618;0.18613452042636333;1.5719999999999998;0.2235535577015176
53:28.6;-1.2847105310795768;0.9202420336517249;0.20723737186695354;1.585;0.24500527039275277
53:28.6;-1.2947468644355455;0.8851559220596144;0.21527902204429006;1.6369999999999998;0.24672113775435803
53:28.6;-1.297734506134272;0.8426778565363817;0.20864078452570842;1.76;0.22816374755228622
53:28.6;-1.2927981400998678;0.794683063265697;0.18728921481152666;1.8330000000000002;0.19241434412468592
53:28.6;-1.2798109763092371;0.7432378467453373;0.15316463473237105;1.876;0.1456908062122302
53:28.6;-1.2595704335426159;0.6903564763151121;0.11027916348052497;1.905;0.09589353401086792
53:28.7;-1.2337531088537435;0.6378044762306173;0.06439654066282606;1.183;0.050673203518048736
53:28.7;-1.2046223320392708;0.5870003168704063;0.022269458270287774;1.183;0.015747038825527086
53:28.7;-1.1745801118168298;0.5390287069620067;-0.009409600215934212;1.183;0.005957522757365947
53:28.7;-1.1457234519418025;0.4947417744241568;-0.02507326094798453;1.183;0.014212458374879076
53:28.7;-1.1195229392939783;0.4549055570818841;-0.021151500190944847;1.183;0.010771976927683214
53:28.7;-1.096654025779087;0.42034531996074376;0.0033231028652037703;1.24;0.0015318619842932752
53:28.7;-1.076961282737591;0.39204706257484545;0.04639605443846463;1.244;0.019589319250502814
53:28.7;-1.059525020637769;0.3711823223785692;0.10320252881996224;1.198;0.04058717656936567
53:28.7;-1.0428029277937634;0.3590386689691555;0.16638550461493604;1.048;0.06229582694450604
53:28.7;-1.0248337867526067;0.35685294190485495;0.2269830660156412;1.068;0.08301110103964544
53:28.8;-1.0035074595155316;0.36555737422346485;0.27576695356255143;2.063;0.10116222567761869
53:28.8;-0.9768965617729352;0.3854856786002462;0.3048225258289727;2.063;0.11478995522299607
53:28.8;-0.9436028880771737;0.41615192651205246;0.30891179481649933;1.4509999999999998;0.1213041507563597
53:28.8;-0.9030344744140385;0.4562242560324041;0.2861402237058125;1.1840000000000002;0.11788583237678228
53:28.8;-0.8555375728053088;0.5037045182447029;0.2378118750286166;1.099;0.10248220732069917
53:28.8;-0.8023592486466739;0.5562015244401479;0.16776950393851747;1.011;0.07487107318768707
53:28.8;-0.7454734173477843;0.6111808382085294;0.08158696557892113;0.987;0.037172577224281654
53:28.8;-0.6873277821412344;0.6661510775433439;-0.01420468219783385;0.9490000000000001;0.006503814636820954
53:28.9;-0.6305585632545024;0.7188035456059118;-0.11282115822762784;0.977;0.05113593397315214
53:28.9;-0.5777074859569832;0.7671323389790581;-0.2078380022137049;0.977;0.09210924987884546
53:28.9;-0.530981027299215;0.8095459162820665;-0.2936661356621281;1.105;0.1262334227867651
53:28.9;-0.49209204863087513;0.8449594210508322;-0.3658529961354487;1.105;0.15212087549512793
53:28.9;-0.4621972408506327;0.8728467433996123;-0.4212136873560184;1.105;0.16992912440523708
53:28.9;-0.441910822669596;0.8932377499809696;-0.45783138769768644;1.105;0.18072043787657416
53:28.9;-0.43136165296334267;0.9066626109862201;-0.47497863986006184;1.105;0.185763900273984
53:28.9;-0.43026469295155123;0.9140590982240303;-0.4730077353501866;1.105;0.18602796218850207
53:28.9;-0.4379865439754974;0.9166617878058828;-0.45324557572720797;1.105;0.18197153948189027
53:28.9;-0.4535941991919774;0.9158874205396252;-0.4179105819702361;1.105;0.1736172824716543
53:28.9;-0.47588543017601476;0.9132248066782969;-0.3700506504244189;1.105;0.16082045277739246
53:28.9;-0.5034079088010401;0.9101329572640027;-0.3134838583281884;1.105;0.14362831276267157
53:29.0;-0.534482257383536;0.9079471055168924;-0.25270757014178225;1.156;0.12263433865609782
53:29.0;-0.5672521099618829;0.9077877639247487;-0.19272440445048827;1.138;0.09924237680619823
53:29.0;-0.5997864970170566;0.9104634260686169;-0.13871995077413274;1.255;0.07575269967999657
53:29.0;-0.6302396665422028;0.9163562056533282;-0.09554760155355717;1.166;0.055181035856821506
53:29.0;-0.6570261682359487;0.9252897376787681;-0.06706777635642981;1.3780000000000001;0.04077315517633558
53:29.0;-0.6789306226031433;0.9364088306469104;-0.05552880789445385;1.15;0.03530280779722841
53:29.0;-0.6950862545816527;0.9481331190158271;-0.061250498972490866;1.23;0.04036617962565432
53:29.0;-0.7048189198193751;0.958235818561776;-0.0827650000635428;1.2009999999999998;0.05589805206968002
53:29.0;-0.7074196018265535;0.9640348246858343;-0.11733074856817714;1.1059999999999999;0.08001688738354462
53:29.0;-0.7019494574314871;0.9626299734959529;-0.1615735956370329;1.094;0.10917812026416147
53:55.2;-0.687193038006615;0.9511256673313248;-0.21204955102498835;1.23;0.1385970575078711
53:55.2;-0.6618419305132704;0.9268125109838673;-0.26565864412990625;1.265;0.1629559106322401
53:55.2;-0.6248957121033256;0.8873125568745498;-0.31991336153843203;1.265;0.17738486076301746
53:55.2;-0.5761499113152619;0.8307270949159568;-0.37306415348910293;1.265;0.17855721194686355
53:55.2;-0.5165871810528115;0.7558448218034378;-0.4240797216104965;1.265;0.1655860603027022
53:55.2;-0.44852312300781677;0.6624384793939705;-0.47249999103722473;1.265;0.14038871329775168
53:55.2;-0.3754314813229901;0.5516154839391197;-0.5182064325723682;1.14;0.10731734876621232
53:55.2;-0.301465960559341;0.4261190166121361;-0.5611753296856175;1.285;0.07208879534358402
53:55.2;-0.23080743573884316;0.2904107996391067;-0.6012849223526191;1.255;0.040303510209705996
53:55.2;-0.16703567851636103;0.15036217637659144;-0.6382273349442139;0.9059999999999999;0.01602962083235736
53:55.2;-0.11270334359871918;0.01252149136400467;-0.6715410446566518;0.9059999999999999;0.0009476880858962193
53:55.2;-0.06918897770104067;-0.1168321020636738;-0.700734490372931;0.9059999999999999;0.00566438284142003
53:55.2;-0.03678168203849193;-0.2325148431622106;-0.7254296040850814;0.9059999999999999;0.006204082194501189
53:55.2;-0.01488947992477639;-0.3309291743456486;-0.7454590127678246;0.9059999999999999;0.0036731473796325245
53:55.2;-0.002287586931690828;-0.4102068270409346;-0.7608981943928257;0.9059999999999999;0.00071401452143686
53:55.2;0.0026357949081757875;-0.47009517112883203;-0.7720481035355019;0.9059999999999999;0.0009566250857619776
53:55.2;0.0016591586484107285;-0.5116848214160763;-0.779388556726468;0.9059999999999999;0.0006616746167045455
53:55.2;-0.0034532386473038875;-0.5370583544532667;-0.7835181953844765;0.9059999999999999;0.0014531055313745497
53:55.2;-0.011086632009602203;-0.5489214023657563;-0.7850926435894349;0.9059999999999999;0.004777830128453605
53:55.2;-0.019865005183198354;-0.5502596510180375;-0.7847687188552922;0.9059999999999999;0.008578236879801863
53:55.2;-0.028698306282587235;-0.544049363277249;-0.7831593544152882;0.9059999999999999;0.012227698236255543
53:55.2;-0.03679430098100527;-0.5330356204838619;-0.7808013128878835;0.9059999999999999;0.015313600869554246
53:55.2;-0.043643108523062205;-0.5195818474378687;-0.7781358223844953;0.9059999999999999;0.017645137821546628
53:55.2;-0.04898274184156909;-0.5055863980464285;-0.7755009121359142;0.9059999999999999;0.019205286304000955
53:55.2;-0.052753438492142146;-0.49245684922440225;-0.7731333981311808;0.9059999999999999;0.02008507181994109
53:55.2;-0.05504749476925074;-0.48112984393782793;-0.7711780822683397;0.9059999999999999;0.020424645777094345
53:55.2;-0.056059942990936286;-0.4721234137549638;-0.7697016840851979;0.9059999999999999;0.02037185738757936
53:55.2;-0.056043942182013556;-0.4656092354170381;-0.768709225469119;0.9059999999999999;0.02005914212775056
53:55.2;-0.05527333923669213;-0.46149378367452204;-0.7681609464979102;0.9059999999999999;0.01959448176174053
53:55.2;-0.05401360820204413;-0.4594994264107679;-0.7679882677767889;0.9059999999999999;0.019060871301529014
53:55.2;-0.052501353517278776;-0.4592388250974675;-0.7681077694597502;0.9059999999999999;0.01851958520006407
53:55.2;-0.05093179592678762;-0.4602782863500881;-0.7684325836967721;0.9059999999999999;0.018014211180912613
53:55.2;-0.04945314524206092;-0.4621877681276791;-0.7688809649920585;0.9059999999999999;0.017574034517257475
53:55.2;-0.04816647894246351;-0.4645769581284531;-0.7693820950089274;0.9059999999999999;0.017216491046155705
53:55.2;-0.04712965313088983;-0.46711815554908204;-0.7698793891472906;0.9059999999999999;0.016948984552479635
53:55.2;-0.04636382925558677;-0.46955759398588187;-0.770331704869542;0.9059999999999999;0.016770497224103148
53:55.2;-0.04586136172115336;-0.47171737317207635;-0.7707129154321831;0.9059999999999999;0.016673295760586074
53:55.2;-0.04559401638489576;-0.47349037506692193;-0.7710103201965188;0.9059999999999999;0.01664482362125212
53:55.2;-0.0455207419695454;-0.4748304931608173;-0.7712223284066079;0.9059999999999999;0.016669690180022505
53:55.2;-0.04559446681377676;-0.4757402740603019;-0.7713557915191275;0.9059999999999999;0.016731574228113135
53:55.2;-0.04576762103548451;-0.4762577253863313;-0.771423282850445;0.9059999999999999;0.016814854536722677
53:55.2;-0.04599627545448095;-0.4764436433738035;-0.7714405434148182;0.9059999999999999;0.016905836435893152
53:55.2;-0.04624293649902077;-0.47637040574792766;-0.7714242378386151;0.9059999999999999;0.01699352434839859
53:55.2;-0.04647813928085323;-0.4761127966174486;-0.7713901000414293;0.9059999999999999;0.01706996569048453
53:55.2;-0.04668104174572497;-0.47574110432844247;-0.7713514983991648;0.9059999999999999;0.017130243769069565
53:55.2;-0.046839246893298304;-0.47531647364452173;-0.7713184155656231;0.9059999999999999;0.017172221059018326
53:55.2;-0.04694807487153822;-0.4748883043642051;-0.7712968183988179;0.9059999999999999;0.017196133270139143
53:55.2;-0.04700948041172699;-0.4744933666840865;-0.7712883864366916;0.9059999999999999;0.01720411704661591
53:55.2;-0.047030771691810185;-0.47415624155688013;-0.7712905699676761;0.9059999999999999;0.017199728761067373
53:55.2;-0.04702324181840224;-0.4738906813992578;-0.7712969571595643;0.9059999999999999;0.017187485834991748
53:55.2;-0.04700078024561016;-0.4737015110171833;-0.7712979398651671;0.9059999999999999;0.017172440053689814
53:55.2;-0.04697849393607758;-0.473586738923091;-0.7712816755784317;0.9059999999999999;0.017159776862239
53:55.2;-0.04697134092008034;-0.4735396147982718;-0.7712353448958723;0.9059999999999999;0.017154426346050647
53:55.2;-0.04699276474751683;-0.47355044085725956;-0.7711466967407771;0.9059999999999999;0.01716067018896894
53:55.2;-0.047053318392026124;-0.4736080163850008;-0.7710058554968235;0.9059999999999999;0.017181733484276273
53:55.2;-0.04715928030645185;-0.47370066076123274;-0.7708073343011103;0.9059999999999999;0.017219359676036366
53:55.3;-0.04731129200901662;-0.47381681761644173;-0.7705521578311798;0.9059999999999999;0.01727337973817106
53:55.3;-0.04750308287855943;-0.47394528955301857;-0.7702499485348253;0.9059999999999999;0.01734130133145824
53:55.3;-0.047720389459545695;-0.4740751883203996;-0.7699207769030268;0.9059999999999999;0.01741795824892132
53:55.3;-0.047940217902106265;-0.47419570930637467;-0.7695965256162409;0.9059999999999999;0.017495272935363917
53:55.3;-0.04813063236079442;-0.4742958518499782;-0.7693214777005963;0.9059999999999999;0.0175621932271208
53:55.3;-0.04825127143918114;-0.47436420837605503;-0.7691518203934091;0.9059999999999999;0.017604866949769475
53:55.3;-0.048254790677477934;-0.4743889357414518;-0.7691537705794835;0.9059999999999999;0.017607113377706467
53:55.3;-0.04808939315364273;-0.47435800132007677;-0.7694000861303875;0.9059999999999999;0.017551238095932477
53:55.3;-0.04770253468722657;-0.47425976396179814;-0.7699648412520089;0.9059999999999999;0.017419217077512938
53:55.3;-0.0470457686545746;-0.4740839058002926;-0.7709165219529053;0.9059999999999999;0.017194245928754348
53:55.3;-0.04608052441249872;-0.4738226750114598;-0.7723097453140746;0.9059999999999999;0.016862608927207638
53:55.3;-0.04478439286135536;-0.47347233268766753;-0.774176223473713;0.9059999999999999;0.016415764992658823
53:55.3;-0.043157227563134504;-0.4730346205537787;-0.7765159735096465;0.9059999999999999;0.01585246703362634
53:55.3;-0.04122607037772471;-0.47251798304136877;-0.7792902031950307;0.9059999999999999;0.015180619622329675
53:55.3;-0.03904759292291559;-0.47193819131214726;-0.7824177570456489;0.9059999999999999;0.014418433844366075
53:55.3;-0.03670643084260861;-0.4713179335151819;-0.7857774565033384;0.9059999999999999;0.013594263626008242
53:55.3;-0.03430786549651051;-0.47068495589619785;-0.7892185551327503;0.9309999999999999;0.012744456039909912
53:55.3;-0.03196489336021104;-0.4700687541283456;-0.7925792531425073;0.9309999999999999;0.011909056179914246
53:55.3;-0.029782841416975965;-0.4694966293713064;-0.7957087406583266;0.9309999999999999;0.011126350489098213
53:55.3;-0.02784644963888227;-0.46899038551043143;-0.7984857089592576;0.9309999999999999;0.010427997508312222
53:55.3;-0.026212577046927452;-0.46856448584455607;-0.8008288000647698;0.9309999999999999;0.009836005706009718
53:55.3;-0.024908568111283544;-0.4682256756709352;-0.8026989408376998;0.9309999999999999;0.00936174219835148
53:55.3;-0.02393472896441115;-0.4679736649016563;-0.8040957850925673;0.9309999999999999;0.009006534428702046
53:55.3;-0.023269283870830184;-0.46780244565416995;-0.8050506007157522;0.9309999999999999;0.00876332027267655
53:55.3;-0.022874495649149295;-0.46770190253669347;-0.8056174896413055;0.9309999999999999;0.008618854512461664
53:55.3;-0.02270295080944078;-0.46765945676783016;-0.8058643739815504;0.9309999999999999;0.008556063236615388
53:55.3;-0.022703309684349436;-0.46766156378956086;-0.8058647522763053;0.9309999999999999;0.00855624105199171
53:55.3;-0.022825087850716158;-0.4676949535443812;-0.8056908485098481;0.9309999999999999;0.008600893544691
53:55.3;-0.023022257528740053;-0.4677475605041143;-0.80540845772485;0.9309999999999999;0.008673125380889272
53:55.3;-0.023255631749167737;-0.4678091357000389;-0.8050735423664267;0.9309999999999999;0.008758553657824292
53:55.3;-0.023494119898586737;-0.46787156546224307;-0.8047304528677546;0.9309999999999999;0.008845782753917742
53:55.3;-0.023715024392761307;-0.46792894231270754;-0.8044115292384336;0.9309999999999999;0.008926511527795954
53:55.3;-0.023903590759701384;-0.46797744408852787;-0.8041377788124545;0.9309999999999999;0.008995359652664781
53:55.3;-0.024052034799241485;-0.46801507987048335;-0.8039203081570967;0.9309999999999999;0.009049501781679778
53:55.3;-0.024158258640460846;-0.4680413577419729;-0.8037622031150977;0.9309999999999999;0.009088190811871337
53:55.3;-0.024224440068951983;-0.46805692180941766;-0.8036605891747712;0.9309999999999999;0.009112238766968964
53:55.3;-0.024255643244059592;-0.46806319606706365;-0.8036086551802117;0.9309999999999999;0.009123508809385802
53:55.3;-0.02425855951391981;-0.46806206207603074;-0.8035974788490267;0.9309999999999999;0.009124456725826782
53:55.3;-0.0242404487919841;-0.4680555872003673;-0.8036175466189983;0.9309999999999999;0.009117746235431616
53:55.3;-0.024208317890230056;-0.4680458111134242;-0.8036599088804594;0.9309999999999999;0.00910595039618465
53:55.3;-0.024168344100955794;-0.46803459095493855;-0.8037169523126222;0.9309999999999999;0.009091341592283255
53:55.3;-0.024125530929591864;-0.4680235001133062;-0.8037828029636557;0.9309999999999999;0.009075765163671227
53:55.3;-0.02408356813141314;-0.46801377214406303;-0.8038533971816413;0.9309999999999999;0.009060586595467636
53:55.3;-0.024044859430424028;-0.46800627967015074;-0.8039262735914016;0.9309999999999999;0.009046699092626924
53:55.3;-0.024010677466263633;-0.46800153798931576;-0.8040001495292645;0.9309999999999999;0.009034577002096363
53:55.3;-0.02398140542374998;-0.4679997242221214;-0.8040743513136679;0.9309999999999999;0.009024360530757001
53:55.3;-0.02395682724673135;-0.4680007048248162;-0.8041481709007405;0.9309999999999999;0.009015958141905084
53:55.3;-0.023936432246620502;-0.46800406681583634;-0.8042202229313564;0.9309999999999999;0.009009154513564595
53:55.3;-0.02391970442526815;-0.4680091507881662;-0.8042878764794046;0.9309999999999999;0.009003713680070868
53:55.3;-0.023906371348018835;-0.46801508639160644;-0.8043468349257928;0.9309999999999999;0.008999468708500283
53:55.3;-0.02389659161748244;-0.46802083318871823;-0.8043909346811304;0.9309999999999999;0.008996390839854729
53:55.3;-0.023891063876531782;-0.46802523136915297;-0.804412227815419;0.9309999999999999;0.00899463241664245
53:55.3;-0.023891044010589217;-0.4680270675404895;-0.804401403507277;0.9309999999999999;0.008994539191722545
53:55.3;-0.023898261201129364;-0.4680251605353432;-0.8043485869252008;0.9309999999999999;0.0089966289186933
53:55.3;-0.023914728181311268;-0.46801847077516123;-0.8042445301499945;0.9309999999999999;0.009001534660129587
53:55.3;-0.02394244694800328;-0.46800623417152987;-0.8040821769452777;0.9309999999999999;0.009009913214414553
53:55.3;-0.023983018691312464;-0.46798811787592565;-0.8038585413029152;0.9309999999999999;0.00902232159421139
53:55.3;-0.02403717602176144;-0.46796439056958616;-0.803576789641046;0.9309999999999999;0.009039067612463439
53:55.3;-0.02410426662480923;-0.4679360947105761;-0.8032483607567111;0.9309999999999999;0.009060044206043625
53:55.3;-0.02418172979075719;-0.46790520267088775;-0.8028949003889118;0.9309999999999999;0.009084560837898504
53:55.3;-0.0242646199431953;-0.4678747336107375;-0.802549734764981;0.9309999999999999;0.009111188709119646
53:55.3;-0.02434524291880325;-0.46784880401868534;-0.8022585679908345;0.9309999999999999;0.009137639073744135
53:55.3;-0.024412979445238115;-0.46783258300384784;-0.8020790715594799;0.9309999999999999;0.009160695251699444
53:55.3;-0.024454373699604414;-0.4678321246672731;-0.8020790518019745;0.9309999999999999;0.009176218762874782
53:55.3;-0.024453560373141246;-0.4678540552402252;-0.8023329444603506;0.9309999999999999;0.009179248420097014
53:55.3;-0.0243930885629779;-0.46790510312905087;-0.8029165057483032;0.9309999999999999;0.009164208473398466
53:55.3;-0.024255172446900376;-0.4679914763355252;-0.8038997552772948;0.9309999999999999;0.00912523812631091
53:55.3;-0.024023354932988992;-0.4681181143902024;-0.8053384834297004;0.9309999999999999;0.009056649434099798
53:55.3;-0.0236845100258654;-0.4682878709362011;-0.8072649642148669;0.9309999999999999;0.008953511963589157
53:55.3;-0.02323103247822596;-0.46850071781665237;-0.8096789075271096;0.9309999999999999;0.008812347175320324
53:55.3;-0.022662970984831558;-0.468753100623205;-0.8125401271328969;0.9309999999999999;0.0086318883428522
53:55.3;-0.021989757216094582;-0.46903761707177394;-0.8157648691538082;0.9309999999999999;0.0084138178878611
53:55.3;-0.02123107289513885;-0.4693432304961975;-0.8192282087706791;0.9309999999999999;0.008163330840940683
53:55.3;-0.02041628830158425;-0.4696562205212662;-0.822774806169827;0.961;0.007889288785206647
53:55.3;-0.019581933134302378;-0.46996186603241535;-0.8262379667343585;0.961;0.0076036712279805374
53:55.3;-0.018767212735217368;-0.47024644874771254;-0.8294623394459592;0.961;0.007320183597489336
53:55.3;-0.018008667669108313;-0.47049893565760875;-0.8323229799844775;0.961;0.007052321692266213
53:55.3;-0.017335688201180383;-0.4707119286719878;-0.8347361123018633;0.961;0.0068115428613842
53:55.3;-0.01676798174012122;-0.47088187666133324;-0.8366615332866292;0.961;0.006606060855213937
53:55.3;-0.016315006403905877;-0.4710087520615578;-0.8380989509393868;0.961;0.006440380445141865
53:55.3;-0.01597683189584469;-0.4710954044829523;-0.8390806629545532;0.961;0.006315434657520602
53:55.3;-0.015745861451690418;-0.4711467628829428;-0.8396625194046347;0.961;0.006229130150007472
53:55.3;-0.015608957583654723;-0.47116901649642773;-0.8399146445502349;0.961;0.006177116299307539
53:55.3;-0.015549624600813782;-0.4711688656506966;-0.8399129501883374;0.961;0.006153621376589318
53:55.3;-0.015550005008831086;-0.47115289890164613;-0.8397320799327286;0.961;0.006152238250188735
53:55.3;-0.015592539349997464;-0.4711271239338648;-0.8394400953405622;0.961;0.006166584205959284
53:55.3;-0.015661216320883582;-0.4710966569757632;-0.8390949577274062;0.961;0.006190797834865859
53:55.3;-0.015742400483164682;-0.47106555909157316;-0.8387426738395316;0.961;0.006219866298453992
53:55.3;-0.01582526856551711;-0.47103679715485774;-0.8384168539521861;0.961;0.006249797188174293
53:55.3;-0.015901913493241503;-0.47101230179180276;-0.8381393684697149;0.961;0.006277661252618752
53:55.3;-0.015967189986580848;-0.47099309313437177;-0.8379217726980497;0.961;0.006301537232538522
53:55.3;-0.016018379430789046;-0.4709794468111119;-0.837767187447067;0.961;0.0063203900167160005
53:55.3;-0.016054747492085512;-0.4709710762317304;-0.8376723642239994;0.961;0.006333910229265645
53:55.3;-0.016077058286271987;-0.47096731200180614;-0.8376297179310397;0.961;0.006342338669709215
53:55.3;-0.01608709616961201;-0.47096726449721393;-0.8376291688090401;0.961;0.006346293776164346
53:55.3;-0.016087232384018543;-0.47096996066480756;-0.8376596924262101;0.961;0.0063466151087499065
53:55.3;-0.016080060367739447;-0.47097445059806503;-0.8377105272808527;0.961;0.006344231123472081
53:55.3;-0.01606811160079608;-0.4709798831225635;-0.8377720313384016;0.961;0.006340055425788443
53:55.3;-0.016053654034132208;-0.4709855524098276;-0.8378362103493715;0.961;0.006334912357126387
53:55.3;-0.016038567736424234;-0.4709909195197066;-0.8378969621019217;0.961;0.0063294902135537
53:55.3;-0.016024287381363925;-0.47099561382915056;-0.8379500927369029;0.961;0.006324318613265924
53:55.3;-0.016011798382263166;-0.4709994196671086;-0.8379931653463362;0.961;0.00631976546717439
53:55.3;-0.016001672518273162;-0.47100225329471646;-0.8380252390278973;0.961;0.006316048577057552
53:55.3;-0.015994129377832334;-0.4710041348057753;-0.8380465501787289;0.961;0.0063132569728171955
53:55.3;-0.015989111446273706;-0.47100515872388643;-0.8380581787726564;0.961;0.0063113775723790495
53:55.3;-0.015986362787775404;-0.4710054661687883;-0.8380617321416212;0.961;0.006310323469833487
53:55.3;-0.015985503671940356;-0.47100522055918936;-0.8380590685510009;0.961;0.00630996100436947
53:55.3;-0.015986095895456777;-0.47100458798891826;-0.8380520734830832;0.961;0.006310133628610058
53:55.3;-0.015987695746431288;-0.4710037227071242;-0.838042493584466;0.961;0.00631068139931579
53:55.3;-0.01598989342139371;-0.47100275757748666;-0.8380318269835481;0.961;0.006311455601930026
53:55.3;-0.015992339164559388;-0.47100179899240674;-0.8380212642135375;0.961;0.006312328563912634
53:55.3;-0.01599475744014661;-0.4710009254676761;-0.8380116711861607;0.961;0.0063131991021284075
53:55.3;-0.015996951095778256;-0.4710001890228786;-0.8380036043382095;0.961;0.006313994294664986
53:55.3;-0.015998797779970576;-0.470999618438797;-0.8379973479380881;0.961;0.006314668386149965
53:55.3;-0.016000240906888057;-0.4709992235493141;-0.8379929642889692;0.961;0.006315199652830113
53:55.3;-0.016001277290250783;-0.47099899984637944;-0.8379903489033202;0.961;0.006315585996460865
53:55.3;-0.016001943266928824;-0.47099893282989014;-0.8379892843854521;0.961;0.006315839930719581
53:55.3;-0.01600230076321047;-0.47099900170092457;-0.837989488524203;0.961;0.006315983493814338
53:55.3;-0.01600242437572487;-0.47099918216202996;-0.8379906537977453;0.961;0.006316043485486687
53:55.3;-0.01600239018435018;-0.47099944824162376;-0.837992477008641;0.961;0.006316047300235514
53:55.3;-0.01600226671270139;-0.4709997731940272;-0.8379946790279867;0.961;0.006316019521017945
53:55.3;-0.01600210821702357;-0.4710001296379451;-0.837997015599946;0.961;0.0063159793540489475
53:55.3;-0.016001950319598227;-0.47100048918197956;-0.8379992808392475;0.961;0.006315938926734584
53:55.3;-0.01600180790220119;-0.47100082184466685;-0.8380013054619888;0.961;0.006315902435011756
53:55.3;-0.016001675126073228;-0.47100109560753833;-0.8380029519541008;0.961;0.006315866108661592
53:55.3;-0.016001527430155697;-0.4710012764416609;-0.8380041088369169;0.961;0.006315818957026118
53:55.3;-0.01600132535965734;-0.4710013291194965;-0.8380046859700927;0.961;0.006315744255611899
53:55.3;-0.016001020072919224;-0.47100121906304043;-0.8380046124700052;0.961;0.006315621728860412
53:55.3;-0.01600056034850316;-0.471000915384596;-0.8380038383437678;0.961;0.006315430369167887
53:55.3;-0.015999900852664194;-0.47100039514778247;-0.8380023403685487;0.961;0.006315151801776377
53:55.3;-0.01599901132152114;-0.47099964871498556;-0.8380001321051687;0.961;0.006314774056325613
53:55.3;-0.01599788616084126;-0.4709986858580682;-0.8379972772481538;0.961;0.006314295538334719
53:55.3;-0.015996553776018885;-0.4709975421005885;-0.8379939048116067;0.961;0.006313728910663501
53:55.3;-0.015995084731059196;-0.4709962845459881;-0.8379902239709673;0.961;0.006313104502734742
53:55.3;-0.015993597622856726;-0.4709950162469739;-0.8379865357768962;0.961;0.006312472774414049
53:55.3;-0.015992261379206688;-0.4709938780121987;-0.8379832384947388;0.961;0.00631190528596978
53:55.3;-0.015991292586635033;-0.47099304645812995;-0.8379808230798474;0.961;0.006311493582519326
53:55.3;-0.015990946473079855;-0.47099272713103685;-0.8379798553634068;0.961;0.006311345409845262
53:55.3;-0.015991500357790418;-0.4709931416816352;-0.8379809419860758;0.961;0.00631157775792907
53:55.3;-0.015993228779909167;-0.47099450840557;-0.8379846780613879;0.961;0.006312306396917059
53:55.3;-0.01599637016147464;-0.47099701599137983;-0.8379915760409647;0.961;0.006313631841331778
53:55.3;-0.016001085766165386;-0.47100079105521314;-0.8380019773168573;0.961;0.006315622059018059
53:55.3;-0.016007412872944726;-0.4710058609799638;-0.8380159507072327;0.961;0.006318292728270719
53:55.3;-0.016015215451754744;-0.47101211468120846;-0.8380331850340788;0.961;0.00632158642316633
53:55.3;-0.016024137124465997;-0.4710192651273126;-0.8380528863334129;0.961;0.006325352740231283
53:55.3;-0.016033562691542012;-0.4710268186447129;-0.8380736935604212;0.961;0.0063293320172125985
53:55.3;-0.016042595830241816;-0.4710340571033455;-0.8380936295842404;0.961;0.006333145864484131
53:55.3;-0.016050061507777144;-0.47104003982905623;-0.8381101063365284;0.961;0.0063362981390622675
53:55.3;-0.016054541953601193;-0.4710436323307169;-0.8381200036387363;0.961;0.006338190130847308
53:55.3;-0.016054454433690968;-0.4710435684479073;-0.8381198399038208;0.961;0.0063381534809672105
53:55.3;-0.016048177310022508;-0.4710385511157905;-0.8381060490273403;0.961;0.006335503595172831
53:55.3;-0.01603422773652512;-0.4710273944364431;-0.8380753708817417;0.961;0.006329614952650384
53:55.3;-0.016011489707964583;-0.471009206036166;-0.8380253526201873;0.961;0.006320017686208626
53:55.3;-0.015979485039389674;-0.4709836037755697;-0.8379549444812496;0.961;0.006306512136142594
53:55.3;-0.015938672388198512;-0.47095095490539884;-0.8378651573537499;0.961;0.0062892948643978736
53:55.3;-0.015890751040286095;-0.47091261904760745;-0.8377597308960624;0.961;0.006269086079077878
53:55.3;-0.015838937530189057;-0.4708711694593444;-0.8376457419672084;0.961;0.006247244902211066
53:55.3;-0.015788175201135925;-0.47083056066598056;-0.8375340656043578;0.961;0.00622585586085059
53:55.3;-0.01574523076578788;-0.4707962057130563;-0.8374395874813336;0.961;0.00620776790532496
53:55.3;-0.015718629283173618;-0.47077492417067374;-0.8373810609627932;0.961;0.006196566684840627
53:55.3;-0.015718381380398008;-0.4707747239540363;-0.8373805071769204;0.961;0.006196462223882531
53:55.3;-0.01575546573935459;-0.4708043873765685;-0.8374620767494642;0.961;0.006212077951118067
53:55.3;-0.015841047459717057;-0.47087284592384204;-0.8376503305389811;0.961;0.006248133579453323
53:55.3;-0.01598544021871966;-0.47098835008234075;-0.8379679567881079;0.961;0.006309023971557924
53:55.3;-0.016196857958747774;-0.47115747080334314;-0.8384330252812127;0.961;0.0063983093217251695
53:55.3;-0.01648005014691609;-0.4713840078300411;-0.8390559853780382;0.961;0.006518149440014114
53:55.3;-0.016834972456066712;-0.47166792635715804;-0.8398367419532893;0.961;0.006668737547629997
53:55.3;-0.017255709815281243;-0.4720044955680803;-0.8407622864774029;0.961;0.006847817639925897
53:55.3;-0.01772993770898996;-0.4723838577363899;-0.8418055121110025;0.961;0.007050404324068883
53:55.3;-0.018239275728068008;-0.4727913110759399;-0.8429259915507908;0.961;0.007268863621953751
53:55.3;-0.018760870251534018;-0.47320857582290676;-0.8440734586867502;0.973;0.007493519312704145
53:55.3;-0.019270198165465678;-0.47361603705667016;-0.8451939761959133;0.973;0.007713810638394956
53:55.3;-0.019744405454104167;-0.4739954153125905;-0.8462372794536505;0.973;0.007919729624072466
53:55.3;-0.02016511105852493;-0.4743320092946584;-0.8471629436011281;0.973;0.008103077674839419
53:55.3;-0.020519989827364565;-0.4746159617492674;-0.8479438641893747;0.973;0.008258222558436994
53:55.3;-0.02080312644495901;-0.47484254202354764;-0.8485670336053022;0.973;0.008382322884515542
53:55.3;-0.02101447718301545;-0.475011714817022;-0.8490323544619519;0.973;0.008475145259655273
53:55.3;-0.021158793435118124;-0.47512727834506513;-0.8493502688567997;0.973;0.008538620122099163
53:55.3;-0.02124429285755221;-0.47519580064429934;-0.8495388325800413;0.973;0.008576263363768367
53:55.3;-0.021281294998392885;-0.47522552761632747;-0.849620711757238;0.973;0.008592566548105838
53:55.3;-0.021280973189878934;-0.4752253843367854;-0.8496204362365257;0.973;0.008592431237218685
53:55.3;-0.021254316669588116;-0.47520414491874136;-0.8495621168862308;0.973;0.008580695791502514
53:55.3;-0.021211348584599117;-0.4751698075700748;-0.849467727682575;0.973;0.008561778792803386
53:55.3;-0.0211606077324116;-0.47512918123023223;-0.8493559702535621;0.973;0.008539443802914576
53:55.3;-0.021108874603639194;-0.4750876683099001;-0.8492416783930165;0.973;0.008516676235378598
53:55.3;-0.021061104732998492;-0.4750492139599346;-0.8491356812390818;0.973;0.008495654499116725
53:55.3;-0.02102052321900454;-0.4750163849077014;-0.8490450234199631;0.973;0.00847779347619077
53:55.3;-0.02098883191793923;-0.4749905389235624;-0.8489734349422;0.973;0.00846383775962925
53:55.3;-0.020966483531960282;-0.4749720480430704;-0.8489219491567431;0.973;0.008453983817472697
53:55.3;-0.020952982932251226;-0.4749605434479294;-0.8488895801522583;0.973;0.008448013415468032
53:55.3;-0.020947184098752927;-0.4749551562211246;-0.8488739881592374;0.973;0.008445424470103933
53:55.3;-0.020947559778370803;-0.47495473506052616;-0.8488720803264181;0.973;0.008445549465203638
53:55.3;-0.020952429404330623;-0.4749580287103879;-0.848880512507103;0.973;0.008447655274300735
53:55.3;-0.020960138303872958;-0.47496382683004934;-0.8488960740538257;0.973;0.008451021452489355
53:55.3;-0.02096918733435256;-0.4749710579528821;-0.8489159512327168;0.973;0.008454996666319485
53:55.3;-0.020978316638394254;-0.47497884696457;-0.8489378753938726;0.973;0.008459034868770051
53:55.3;-0.020986550186512107;-0.47498653715771133;-0.8489601695159549;0.973;0.008462714107820018
53:55.3;-0.02099320930345785;-0.47499368350960336;-0.8489817114972258;0.973;0.008465741535162143
53:55.3;-0.020997903664860807;-0.47500002455376866;-0.8490018350658801;0.973;0.008467948341127999
53:55.3;-0.021000507566765955;-0.4750054402722872;-0.849020189964989;0.973;0.008469278088021615
53:55.3;-0.0210011278956933;-0.4750099030229871;-0.849036582645145;0.973;0.008469771361708277
53:55.3;-0.021000068440738952;-0.47501342780778105;-0.8490508175006108;0.973;0.008469548926154574
53:55.3;-0.020997793252742217;-0.4750160273234266;-0.8490625570166793;0.973;0.008468794756842986
53:55.3;-0.020994889900507265;-0.4750176763064026;-0.8490712172155009;0.973;0.008467739544094556
53:55.3;-0.02099203189835531;-0.47501828873595;-0.8490759125066788;0.973;0.008466644579041643
53:55.3;-0.020989938444433424;-0.47501771049817876;-0.8490754613504257;0.973;0.008465785429738075
53:55.3;-0.020989329039170355;-0.4750157291106799;-0.8490684608129359;0.973;0.008465434532288731
53:55.3;-0.02099087063273495;-0.47501210101145913;-0.8490534338765701;0.973;0.008465841794334837
53:55.3;-0.020995115721610093;-0.47500659567214587;-0.8490290480138749;0.973;0.008467212550088933
53:55.3;-0.021002431272235226;-0.4749990543574278;-0.8489943968748112;0.973;0.008469682711964023
53:55.3;-0.02101292043441792;-0.4749894597015922;-0.848949328948716;0.973;0.008473291706095802
53:55.3;-0.021026341596678762;-0.4749780104328828;-0.8488947979387849;0.973;0.008477954705398716
53:55.3;-0.021042032237454492;-0.4749651936274757;-0.8488331997916636;0.973;0.008483436705532909
53:55.3;-0.021058847972136852;-0.47495184496360726;-0.8487686516353223;0.973;0.008489332021739968
53:55.3;-0.021075129842139165;-0.47493918578884436;-0.8487071593994208;0.973;0.008495053691295296
53:55.3;-0.021088714825318485;-0.4749288246915873;-0.84865661503539;0.973;0.008499837906073884
53:55.3;-0.021097005302065618;-0.4749227110160583;-0.8486265626719269;0.973;0.008502768827069542
53:55.3;-0.02109711230121401;-0.4749230287409654;-0.848627677514434;0.973;0.008502828809732858
53:55.3;-0.02108608430984374;-0.4749320217107492;-0.8486709135553726;0.973;0.008498978074966317
53:55.3;-0.02106122787731309;-0.47495174566439374;-0.8487662976604525;0.973;0.008490266097146495
53:55.3;-0.021020517945861284;-0.474983749036095;-0.8489213792289027;0.973;0.00847597437151975
53:55.3;-0.020963084802688325;-0.47502869311088447;-0.8491393864144754;0.973;0.008455786713230442
53:55.3;-0.020889751098158153;-0.4750859325642107;-0.8494171906475569;0.973;0.008429978800473126
53:55.3;-0.02080357724249646;-0.47515308914097176;-0.8497432382019848;0.973;0.008399613332574815
53:55.3;-0.020710357881411016;-0.47522566331245175;-0.8500956663026039;0.973;0.008366721084087965
53:55.3;-0.0206189977726818;-0.475296739866046;-0.8504408753349908;0.973;0.00833444169863445
53:55.3;-0.020541684462026113;-0.4753568518126005;-0.8507328697350741;0.973;0.008307092090413033
53:55.3;-0.020493770356459037;-0.475394070669255;-0.8509136980414357;0.973;0.00829012618614225
53:55.3;-0.02049328110428829;-0.47539438777187926;-0.8509153061147077;0.973;0.008289949470301717
53:55.3;-0.02055998371010773;-0.47534243838330426;-0.85066305497249;0.973;0.00831355792938872
53:55.3;-0.02071397945819508;-0.47522259572273556;-0.8500810350341986;0.973;0.008367986111696143
53:55.3;-0.0209738358618101;-0.4750204238014192;-0.8490991228499105;0.973;0.008459574900439143
53:55.3;-0.021354339907604717;-0.47472442501279616;-0.8476614692737675;0.973;0.00859310604013786
53:55.3;-0.02186404182501812;-0.4743279507891408;-0.8457357795238056;0.973;0.00877089416878215
53:55.3;-0.022502862660039674;-0.47383106271464176;-0.843322352514479;0.973;0.008991971243301556
53:55.3;-0.023260156112494896;-0.4732420403540321;-0.8404614042029583;0.973;0.009251533331150912
53:55.3;-0.024113739175426436;-0.4725781355604968;-0.8372367309868632;0.973;0.009540836576831418
53:55.3;-0.025030528743628374;-0.4718650776601654;-0.8337733059706279;0.973;0.009847723522308912
53:55.3;-0.025969390539589136;-0.4711348578913304;-0.8302265173845964;0.94;0.010157892110238856
53:55.3;-0.02688618576257759;-0.4704218044411144;-0.826763104258876;0.94;0.010456774092012257
53:55.3;-0.027739780346450145;-0.4697579087232512;-0.823538455336176;0.94;0.010731514132249298
53:55.3;-0.028497091531511417;-0.46916890035304365;-0.8206775445762995;0.94;0.01097241699611752
53:55.3;-0.029135936641865052;-0.46867203146778263;-0.8182641692488832;0.94;0.011173559750352856
53:55.3;-0.029645669485862808;-0.46827558174471334;-0.816338545741548;0.94;0.011332691797905962
53:55.3;-0.030026210746034388;-0.46797961250901055;-0.814900972406066;0.94;0.011450706891552134
53:55.3;-0.030286109550117287;-0.4677774743485039;-0.813919152312184;0.94;0.011530922722106086
53:55.3;-0.030440150792678807;-0.46765766802340014;-0.8133372320131471;0.94;0.0115783190462368
53:55.3;-0.030506898703201488;-0.4676057549592846;-0.8130850811433403;0.94;0.011598822437501117
53:55.3;-0.030506449981229748;-0.4676061047462071;-0.8130867803240117;0.94;0.01159868474699281
53:55.3;-0.030458565771906188;-0.467643347990577;-0.8132676779143166;0.94;0.011583977967929362
53:55.3;-0.03038126479341238;-0.4677034705020575;-0.8135597046621383;0.94;0.011560213964753718
53:55.3;-0.030289891870357955;-0.46777453773005545;-0.8139048924112812;0.94;0.011532088332162469
53:55.3;-0.03019662697155638;-0.46784707659570435;-0.8142572287181602;0.94;0.011503340546410888
53:55.3;-0.030110368187390376;-0.46791416649171885;-0.8145830988467078;0.94;0.011476716535398196
53:55.3;-0.030036905537389212;-0.4679713040903095;-0.8148606291119871;0.94;0.011454014977639329
53:55.3;-0.029979298155392468;-0.46801610997745946;-0.8150782619515617;0.94;0.011436195596930817
53:55.3;-0.029938372161542295;-0.4680479414283397;-0.8152328751153679;0.94;0.011423526854157772
53:55.3;-0.02991326741217184;-0.468067467175172;-0.8153277162563973;0.94;0.011415751755070428
53:55.3;-0.0299019756548649;-0.46807624886855614;-0.8153703700453705;0.94;0.011412253596610852
53:55.3;-0.02990182819023095;-0.4680763618198759;-0.8153709160950309;0.94;0.01141220771249119
53:55.3;-0.029909906247029147;-0.4680700758636573;-0.8153403789129048;0.94;0.01141470993185349
53:55.3;-0.02992336071782101;-0.4680596067243627;-0.8152895203209432;0.94;0.011418876903731005
53:55.3;-0.029939638955049086;-0.4680469396745932;-0.8152279830187392;0.94;0.011423917217811835
53:55.3;-0.029956624673085575;-0.4680337207793792;-0.8151637624302652;0.94;0.011429175129431304
53:55.3;-0.02997270264191087;-0.4680212066330325;-0.815102962656982;0.94;0.011434150617848344
53:55.3;-0.02998676302741308;-0.4680102610284768;-0.8150497803767925;0.94;0.011438500548787546
53:55.3;-0.02999816131632574;-0.4680013861551983;-0.8150066564273548;0.94;0.011442026029479338
53:55.3;-0.030006649221245026;-0.46799477634288145;-0.8149745368548351;0.94;0.011444650821439101
53:55.3;-0.030012290269846264;-0.46799038368280443;-0.8149531915955993;0.94;0.01144639509372355
53:55.3;-0.030015371390168473;-0.46798798672015535;-0.8149415479987867;0.94;0.011447348014934437
53:55.3;-0.030016319098914536;-0.46798725551590764;-0.8149380066273516;0.94;0.011447641821868207
53:55.3;-0.03001562619361143;-0.4679878084847504;-0.814940717018909;0.94;0.011447429160055575
53:55.3;-0.030013792370873066;-0.4679892583481163;-0.8149478004828208;0.94;0.0114468647306341
53:55.3;-0.030011280090427285;-0.46799124618311067;-0.8149575149956061;0.94;0.011446091638209444
53:55.3;-0.030008485355127915;-0.4679934638390152;-0.8149683635407251;0.94;0.011445232334499528
53:55.3;-0.030005721899082672;-0.4679956659184744;-0.814979151749864;0.94;0.01144438369569437
53:55.3;-0.030003216542746385;-0.46799767310049983;-0.8149890035371185;0.94;0.011443615548817038
53:55.3;-0.03000111312823384;-0.4679993688605282;-0.8149973447845849;0.94;0.011442971856880925
53:55.3;-0.02999948241547585;-0.46800069167585395;-0.8150038653120386;0.94;0.01144247376221859
53:55.3;-0.02999833551886008;-0.4680016246545743;-0.8150084686419864;0.94;0.01144212374775337
53:55.3;-0.029997638815383722;-0.4680021842527334;-0.8150112177429221;0.94;0.011441910283189338
53:55.3;-0.029997328688011016;-0.4680024094012072;-0.8150122832552712;0.94;0.011441812455230705
53:55.3;-0.02999732492281043;-0.4680023519953496;-0.815011898888795;0.94;0.011441804219558403
53:55.3;-0.029997542010305685;-0.46800206934047717;-0.8150103268897985;0.94;0.011441858043094418
53:55.3;-0.029997897979069658;-0.4680016188185561;-0.8150078348252086;0.94;0.011441947818136093
53:55.3;-0.029998320694636153;-0.4680010547605075;-0.8150046834895058;0.94;0.011442051019458978
53:55.3;-0.029998751782138677;-0.46800042728144425;-0.8150011245467319;0.94;0.011442150139333583
53:55.3;-0.029999148478404535;-0.4679997826646141;-0.8149974055869419;0.94;0.011442233474425186
53:55.3;-0.029999483796702794;-0.46799916476221215;-0.8149937796048786;0.94;0.011442295355836957
53:55.3;-0.029999745407312997;-0.4679986168144412;-0.8149905154945785;0.94;0.011442335913724929
53:55.3;-0.029999933614046386;-0.4679981830691193;-0.8149879059962375;0.94;0.01144236045642998
53:55.3;-0.030000058755774682;-0.4679979096106215;-0.8149862696371685;0.94;0.011442378526696523
53:55.3;-0.030000138297016567;-0.4679978438782379;-0.8149859435912216;0.94;0.011442402679848158
53:55.3;-0.03000019380501535;-0.4679980324705498;-0.814987265060231;0.94;0.011442447015745394
53:55.3;-0.030000247952402775;-0.4679985169950737;-0.8149905397761958;0.94;0.011442525492016232
53:55.3;-0.030000321641586405;-0.4679993279312857;-0.8149959975443279;0.94;0.011442650053278228
53:55.3;-0.03000043132357705;-0.46800047672793016;-0.8150037363853284;0.94;0.011442828631261908
53:55.3;-0.030000586581293617;-0.46800194664574113;-0.8150136587489762;0.94;0.011443063103638908
53:55.3;-0.030000788063803453;-0.46800368317182667;-0.815025405375354;0.94;0.011443347342859744
53:55.3;-0.030001025889182846;-0.46800558515187707;-0.8150382945360195;0.94;0.011443665536373441
53:55.3;-0.030001278673048085;-0.4680074980823064;-0.8150512763962192;0.94;0.0114439910102227
53:55.3;-0.030001513378648207;-0.4680092112388675;-0.8150629138408509;0.94;0.011444285831306775
53:55.3;-0.03000168621256853;-0.46801046044574374;-0.8150714019873049;0.94;0.011444501490128345
53:55.3;-0.030001744796575528;-0.4680109382586515;-0.8150746384158348;0.94;0.011444580965087447
53:55.3;-0.030001631819959643;-0.46801031309455293;-0.8150703545207445;0.94;0.011444462430615343
53:55.3;-0.03000129030799728;-0.46800825834074566;-0.8150563149899767;0.94;0.01144408478481056
53:55.3;-0.030000670523292125;-0.4680044916803352;-0.8150305870017199;0.94;0.011443395030257077
53:55.3;-0.029999738343987534;-0.46799882376243107;-0.8149918731670971;0.94;0.011442357340953982
53:55.3;-0.029998484737710114;-0.46799121393638843;-0.8149398926329039;0.94;0.011440963391285428
53:55.3;-0.029996935680998392;-0.4679818291116157;-0.8148757834398251;0.94;0.011439243219946865
53:55.3;-0.029995161577445577;-0.4679710999968466;-0.8148024868859052;0.94;0.01143727557209346
53:55.3;-0.029993284929472012;-0.4679597671675912;-0.8147250623130985;0.94;0.011435196335913389
53:55.3;-0.02999148475347504;-0.4679489078151207;-0.8146508698340446;0.94;0.011433203404109887
53:55.3;-0.029989996039593618;-0.46793993290330754;-0.8145895508138926;0.94;0.011431556093126469
53:55.3;-0.029989102495606268;-0.46793454409915525;-0.8145527334564431;0.94;0.01143056719521302
53:55.3;-0.02998912093288425;-0.4679346405665157;-0.8145533957858713;0.94;0.011430585873629742
53:55.3;-0.029990376002332585;-0.46794216782717196;-0.8146048327623185;0.94;0.01143196998900392
53:55.3;-0.029993164612823725;-0.46795890465528356;-0.8147191999721564;0.94;0.011435047106366331
53:55.3;-0.029997710290013847;-0.4679861895364972;-0.8149056443604036;0.94;0.011440064405776287
53:55.3;-0.030004108959907263;-0.4680245955927571;-0.8151680828301895;0.94;0.011447129014294417
53:55.3;-0.030012269133682126;-0.46807357183513126;-0.8155027507677699;0.94;0.011456141877662347
53:55.3;-0.03002185114775366;-0.4681310786776246;-0.8158957113664925;0.94;0.01146673014504039
53:55.3;-0.03003221184298787;-0.4681932560280945;-0.8163205875739159;0.94;0.011478185046672378
53:55.3;-0.030042362659650598;-0.46825417182992046;-0.8167368437958995;0.94;0.011489414225797847
53:55.3;-0.03005095033376935;-0.4683057061825384;-0.817088994063739;0.94;0.011498919166071375
53:55.3;-0.03005626990986391;-0.4683376293433481;-0.8173071350625526;0.94;0.011504809335771837
53:55.3;-0.030056319302724607;-0.46833792901782945;-0.8173091826325269;0.94;0.011504864426382896
53:55.3;-0.030048902803010577;-0.4682934313148711;-0.8170051149846851;0.94;0.011496653981859303
53:55.3;-0.030031787403716294;-0.46819073863551497;-0.8163033816298394;0.94;0.011477719186484632
53:55.3;-0.03000291036323481;-0.46801747499310115;-0.8151194130899507;0.94;0.011445814160813953
53:55.3;-0.029960628859198545;-0.46776378389153167;-0.8133858564242786;0.94;0.011399193744705082
53:55.3;-0.02990399292521004;-0.4674239659143842;-0.8110637654471033;0.94;0.011336921951895949
53:55.3;-0.029833011302075562;-0.46699807381346425;-0.8081535005252256;0.94;0.011259161284808064
53:55.3;-0.029748866815930003;-0.46649320476931433;-0.8047035590498465;0.94;0.011167389694432811
53:55.3;-0.029654024109869337;-0.46592414678121036;-0.8008149924577319;0.94;0.011064481070002153
53:55.3;-0.02955215893113659;-0.4653129543967045;-0.7966385070681371;0.94;0.010954578007528576
53:55.3;-0.029447841600957154;-0.4646870495412479;-0.7923614864295204;0.902;0.010842698849467676
53:55.3;-0.029345976288350596;-0.4640758571741364;-0.7881850016351866;0.902;0.010734101663997839
53:55.3;-0.029251133323072703;-0.4635067991803784;-0.7842964362362678;0.902;0.010633568868208694
53:55.3;-0.02916698846986504;-0.4630019300306249;-0.7808464965512496;0.902;0.010544841528974697
53:55.3;-0.0290960063990371;-0.4625760376187481;-0.7779362340010513;0.902;0.01047033350882864
53:55.3;-0.029039369974459616;-0.4622362190032493;-0.7756141459300033;0.902;0.010411106359556962
53:55.3;-0.028997087985714907;-0.4619825268128457;-0.7738805926085465;0.902;0.010367018935774195
53:55.3;-0.02896821052602647;-0.46180926152589136;-0.7726966276864836;0.902;0.01033697160454218
53:55.3;-0.028951094842125394;-0.46170656658042747;-0.7719948979745497;0.902;0.010319186783571108
53:55.3;-0.028943678267997347;-0.4616620659862059;-0.771690833652153;0.902;0.010311485950524928
53:55.3;-0.028943727873751022;-0.46166236222556595;-0.7716928837929576;0.902;0.01031153763422899
53:55.3;-0.028949048021489576;-0.4616942815936087;-0.7719110260885101;0.902;0.010317061674670754
53:55.3;-0.028957636682347503;-0.46174581210153065;-0.7722631758053244;0.902;0.010325983025533737
53:55.3;-0.028967788930689044;-0.4618067244377755;-0.7726794290468576;0.902;0.01033653429953394
53:55.3;-0.02897815149313433;-0.46186889925160673;-0.7731042993199216;0.902;0.010347310612058054
53:55.3;-0.0289877357482028;-0.46192640513254857;-0.7734972506462089;0.902;0.010357283324252837
53:55.3;-0.028995898410689634;-0.46197538268943805;-0.7738319058271466;0.902;0.010365781151664978
53:55.3;-0.02900229961756859;-0.46201379302951967;-0.774094328254021;0.902;0.010372447886435985
53:55.3;-0.029006847603265603;-0.4620410857652375;-0.7742807539599815;0.902;0.01037718581394021
53:55.3;-0.02900963794325058;-0.46205783442421544;-0.7743951010350275;0.902;0.01038009298159688
53:55.3;-0.029010893752214433;-0.46206537758330596;-0.7744465182124798;0.902;0.010381401036742642
53:55.3;-0.029010911492876903;-0.4620654936678975;-0.7744471634823682;0.902;0.010381418643072392
53:55.3;-0.029010015373378994;-0.46206012729079565;-0.774410334771259;0.902;0.010380483740276433
53:55.3;-0.029008521818041998;-0.4620511760474884;-0.7743490134952206;0.902;0.010378926310011369
53:55.3;-0.029006714268353627;-0.4620403393182094;-0.7742748314383964;0.902;0.01037704197348556
53:55.3;-0.02900482764380301;-0.4620290250642566;-0.7741974333890423;0.902;0.010375075731648316
53:55.3;-0.029003041165418096;-0.4620183068449247;-0.7741241822716833;0.902;0.010373214477281982
53:55.3;-0.029001477892439138;-0.462008921165146;-0.7740601390796928;0.902;0.010371586531290682
53:55.3;-0.02900020920173672;-0.46200129453572697;-0.7740082449863852;0.902;0.01037026633282318
53:55.3;-0.028999262499143332;-0.4619955899804831;-0.7739696354964875;0.902;0.010369282484374073
53:55.3;-0.02899863063882801;-0.4619917638396654;-0.7739440242216029;0.902;0.010368627558054679
53:55.3;-0.02899828179147269;-0.4619896252985798;-0.7739301047827916;0.902;0.010368268352889705
53:55.3;-0.028998168801225917;-0.46198889285612843;-0.7739259316911883;0.902;0.0103681556094019
53:55.3;-0.028998237370702402;-0.4619892437337284;-0.7739292534131477;0.902;0.010368232501344023
53:55.3;-0.028998432687397043;-0.4619903538600341;-0.773937782145642;0.902;0.010368441509907914
53:55.3;-0.02899870433746795;-0.46199192745445017;-0.7739493944307433;0.902;0.010368729527086394
53:55.3;-0.028999009535563055;-0.461993716323976;-0.7739622642696449;0.902;0.010369051224056663
53:55.3;-0.02899931483043502;-0.4619955297744999;-0.7739749357692084;0.902;0.010369370855893737
53:55.3;-0.028999596528702477;-0.4619972365402002;-0.77398634568336;0.902;0.010369662758855105
53:55.3;-0.02899984011984023;-0.46199876039426313;-0.7739958077531538;0.902;0.010369910837473574
53:55.3;-0.029000038992783615;-0.462000071172798;-0.774002970839223;0.902;0.01037010734426184
53:55.3;-0.02900019271751583;-0.4620011728768808;-0.7740077618464223;0.902;0.010370251234213921
53:55.3;-0.02900030513241002;-0.4620020903672052;-0.7740103227235586;0.902;0.010370346338495432
53:55.3;-0.02900038243756457;-0.4620028559761682;-0.7740109487079457;0.902;0.010370399554800661
53:55.3;-0.029000431451991087;-0.46200349716677314;-0.7740100327511298;0.902;0.010370419202444825
53:55.3;-0.02900045815259897;-0.4620040261874767;-0.774008018926295;0.902;0.01037041364331153
53:55.3;-0.02900046657797018;-0.4620044325153461;-0.7740053657387296;0.902;0.010370390228537252
53:55.3;-0.029000458150766212;-0.4620046787431884;-0.7740025187434791;0.902;0.01037035459694494
53:55.3;-0.029000431448675427;-0.4620047004363821;-0.7739998907778097;0.902;0.010370310325038084
53:55.3;-0.029000382433447772;-0.462004410341563;-0.7739978474617665;0.902;0.010370258909081035
53:55.3;-0.029000305128468257;-0.4620037071479078;-0.7739966954005111;0.902;0.010370200045951088
53:55.3;-0.02900019271495978;-0.46200248875847655;-0.7739966707081442;0.902;0.010370132169212034
53:55.3;-0.029000038992972807;-0.46200066970426806;-0.7739979260187513;0.902;0.01037005318834296
53:55.3;-0.028999840124168435;-0.46199820191647073;-0.7740005149971673;0.902;0.0103699613706279
53:55.3;-0.028999596538452677;-0.4619950975651061;-0.7740043744372352;0.902;0.010369856295742294
53:55.3;-0.028999314846605135;-0.46199145209412984;-0.7740093052531068;0.902;0.010369739802134719
53:55.3;-0.028999009558667688;-0.4619874649733022;-0.7740149549278041;0.902;0.010369616832308392
53:55.3;-0.028998704367326808;-0.46198345510667294;-0.7740208051641576;0.902;0.010369496072373453
53:55.3;-0.028998432722926636;-0.46197986736862817;-0.7740261694503979;0.902;0.010369390271973951
53:55.3;-0.02899823740973426;-0.4619772664820902;-0.7740302058552232;0.902;0.01036931612688162
53:55.3;-0.028998168840380614;-0.4619763145235363;-0.7740319504452144;0.902;0.010369293611749503
53:55.3;-0.02899828182612387;-0.4619777288537031;-0.7740303761126425;0.902;0.010369344668534942
53:55.3;-0.02899863066319332;-0.4619822183399456;-0.7740244801724847;0.902;0.010369491190535504
53:55.3;-0.02899926250653835;-0.4619903974399583;-0.7740134017295647;0.902;0.010369752295681175
53:55.3;-0.029000209185022493;-0.46200268009665707;-0.7739965664876787;0.902;0.010370140957140549
53:55.3;-0.02900147784468303;-0.4620191584255746;-0.7739738524189741;0.902;0.010370660153787955
53:55.3;-0.029003041080770075;-0.4620394747490152;-0.7739457646969455;0.902;0.010371298814239193
53:55.3;-0.029004827518565424;-0.4620626994320263;-0.7739136028246233;0.902;0.010372027949267221
53:55.3;-0.029006714102192008;-0.4620872308745159;-0.7738795974237718;0.902;0.010372797488050778
53:55.3;-0.02900852161524878;-0.4621107374622709;-0.7738469893179227;0.902;0.010373534439785902
53:55.3;-0.029010015144063612;-0.4621301637167978;-0.7738200201204624;0.902;0.010374143076309943
53:55.3;-0.029010911253917845;-0.4621418236631578;-0.773803802425136;0.902;0.01037450785377231
53:55.3;-0.029010893527776232;-0.4621416028675461;-0.7738040398435961;0.902;0.010374499741297716
53:55.3;-0.029009637764646944;-0.46212528601672764;-0.7738265734632964;0.902;0.010373986482238312
53:55.3;-0.02900684750794554;-0.4620890187640503;-0.7738767425765235;0.902;0.010372847062485773
53:55.3;-0.02900229964702229;-0.462029900512315;-0.7739585642253937;0.902;0.010370990289836055
53:55.3;-0.028995898607121665;-0.46194668883983286;-0.7740737582195328;0.902;0.010368376896906614
53:55.3;-0.028987736149907076;-0.4618405768634189;-0.7742206711728437;0.902;0.01036504397821081
53:55.3;-0.028978152128631772;-0.4617159830153835;-0.7743931833253231;0.902;0.010361129886435252
53:55.3;-0.028967789811854286;-0.46158127021722134;-0.7745797130735887;0.902;0.010356896991013435
53:55.3;-0.028957637796950788;-0.46144929072649804;-0.7747624628144231;0.902;0.010352749016221845
53:55.3;-0.02894904932580347;-0.46133763721659565;-0.7749170714762389;0.902;0.010349239127961776
53:55.3;-0.028943729286101595;-0.46126847377165164;-0.7750128486426134;0.902;0.010347064660662571
53:55.3;-0.028943679664351556;-0.46126782675301115;-0.7750137564897394;0.902;0.010347044528164463
53:55.3;-0.028951096054969712;-0.46136423939103965;-0.7748802726735817;0.902;0.010350076120528804
53:55.3;-0.028968211347869515;-0.46158673969108804;-0.7745722039783983;0.902;0.01035707002181795
53:55.3;-0.028997088178498564;-0.4619621422434522;-0.7740524222289885;0.902;0.010368863322646494
53:55.3;-0.02903936928594858;-0.46251180283030446;-0.7732913578558829;0.902;0.01038611569731247
53:55.3;-0.0290960045868399;-0.4632480703314662;-0.7722719125809333;0.902;0.010409196699347175
53:55.3;-0.029166985333094766;-0.4641708307184217;-0.7709942445982622;0.902;0.010438077679456722
53:55.3;-0.02925112874077404;-0.4652647071760589;-0.769479645277112;0.902;0.010472246966183473
53:55.3;-0.029345970262717413;-0.46649765960619644;-0.7677724782678742;0.902;0.010510671977833192
53:55.3;-0.029447834302087982;-0.4678219038855233;-0.7659389066497324;0.902;0.010551836259035675
53:55.3;-0.02955215073870854;-0.4691780267240206;-0.7640611954091467;0.893;0.01059387639134177
53:55.3;-0.029654015645779318;-0.470502275044276;-0.7622276184345054;0.893;0.010634814547606652
53:55.3;-0.02974885896082294;-0.4717352358222784;-0.7605204402607355;0.893;0.010672828240603971
53:55.3;-0.02983300518795693;-0.4728291253997384;-0.7590058231629226;0.893;0.010706470678094203
53:55.3;-0.029903989896257116;-0.473751904212792;-0.7577281298269968;0.893;0.010734789090580973
53:55.3;-0.029960630393684535;-0.47448819586626095;-0.7567086507709583;0.893;0.010757344044546448
53:55.3;-0.030002917951392285;-0.475037886413165;-0.7559475437872297;0.893;0.01077415955040706
53:55.3;-0.030031802379576755;-0.47541332423100446;-0.7554277110183745;0.893;0.01078563349864417
53:55.3;-0.03004892613286787;-0.4756358637732878;-0.7551195845130949;0.893;0.010792431080532483
53:55.3;-0.030056351338859397;-0.4757323172656359;-0.7549860392463926;0.893;0.010795377519882236
53:55.3;-0.03005631012534545;-0.47573170917044316;-0.7549868869285911;0.893;0.010795361039006164
53:55.3;-0.030050997062121797;-0.47566257795979533;-0.7550826120147079;0.893;0.01079325259055626
53:55.3;-0.030042412871302476;-0.4755509441282056;-0.755237185245055;0.893;0.01078984543657199
53:55.3;-0.030032260997830195;-0.4754189650707504;-0.7554199261637745;0.893;0.01078581503043299
53:55.3;-0.030021893168694105;-0.47528422644357315;-0.7556064843807725;0.893;0.010781697749198745
53:55.3;-0.03001229654848019;-0.4751595738755111;-0.7557790726844604;0.893;0.010777885746772577
53:55.3;-0.03000411325637483;-0.47505336498241824;-0.7559261182261406;0.893;0.010774634476185688
53:55.3;-0.029997682521441298;-0.4749700153355797;-0.7560415067165689;0.893;0.010772079181480416
53:55.3;-0.029993096274994135;-0.47491071888074404;-0.7561235850928507;0.893;0.010770256793909149
53:55.3;-0.029990260179851624;-0.4748742389844239;-0.7561740663977361;0.893;0.01076913008112267
53:55.3;-0.029988953680543582;-0.4748576869516332;-0.7561969519913502;0.893;0.010768611487118766
53:55.3;-0.029988884380758488;-0.47485722731668506;-0.7561975551152288;0.893;0.0107685847679162
53:55.3;-0.029989733725822868;-0.4748686709951429;-0.7561816796583201;0.893;0.010768923192021556
53:55.3;-0.029991192457313704;-0.4748879367800187;-0.7561549811173921;0.893;0.010769503675434361
53:55.3;-0.02999298553512138;-0.474911377631004;-0.7561225146380115;0.893;0.010770216720030713
53:55.3;-0.029994887155461596;-0.47493598028788364;-0.7560884582965007;0.893;0.010770972403943452
53:55.3;-0.029996727133066392;-0.47495945494716274;-0.7560559884267097;0.893;0.01077170293195207
53:55.3;-0.029998390289256376;-0.4749802364185315;-0.7560272773321456;0.893;0.010772362403849794
53:55.3;-0.029999810638079372;-0.47499741988302563;-0.7560035813818398;0.893;0.01077292451754256
53:55.3;-0.03000096214111687;-0.4750106537717786;-0.7559853883475117;0.893;0.010773378912772375
53:55.3;-0.03000184765953781;-0.47502001005552835;-0.7559725959543562;0.893;0.010773726802397098
53:55.3;-0.03000248751659296;-0.47502584901482436;-0.7559646981082282;0.893;0.010773976450428177
53:55.3;-0.03000290883394572;-0.47502869189040675;-0.7559609603760943;0.893;0.010774138955251622
53:55.3;-0.03000313654988224;-0.47502911111553897;-0.7559605714450032;0.893;0.010774224694102682
53:55.3;-0.030003186784715436;-0.4750276444037257;-0.7559627620523485;0.893;0.010774240688061097
53:55.3;-0.0300030629966912;-0.47502473598153155;-0.7559668870188522;0.893;0.010774189058719035
53:55.3;-0.03000275516995122;-0.4750207057863746;-0.7559724694239577;0.893;0.010774066668051854
53:55.3;-0.030002242087772628;-0.4750157454782097;-0.7559792086563485;0.893;0.010773865959242354
53:55.3;-0.03000149655885935;-0.47500993856832135;-0.7559869561472968;0.893;0.010773576944197647
53:55.3;-0.03000049327059261;-0.475003300742454;-0.7559956641945146;0.893;0.010773190208866142
53:55.3;-0.029999218731743504;-0.47499583543766444;-0.7560053145630607;0.893;0.010772700726642475
53:55.3;-0.029997682534122785;-0.4749875988284347;-0.7560158346411329;0.893;0.010772112181474138
53:55.3;-0.029995928911429125;-0.47497876753058654;-0.7560270099190155;0.893;0.01077144140694878
53:55.3;-0.02999404731705277;-0.4749697015359891;-0.7560384024696136;0.893;0.010770722450448814
53:55.3;-0.02999218050429456;-0.47496099420214616;-0.7560492858812989;0.893;0.010770009681271024
53:55.3;-0.029990528406581705;-0.47495350065641584;-0.7560586075895943;0.893;0.010769379291395846
53:55.3;-0.02998934602556047;-0.4749483359102391;-0.7560649895603212;0.893;0.010768928503999398
53:55.3;-0.029988933592073323;-0.47494683453373465;-0.7560667775225715;0.893;0.010768771827141008
53:55.3;-0.02998961752222401;-0.4749504651569856;-0.7560621471346013;0.893;0.01076903378865463
53:55.3;-0.02999172119783019;-0.47496069557500326;-0.7560492722971207;0.893;0.010769837782170938
53:55.3;-0.029995525396375896;-0.4749788080267799;-0.7560265560699033;0.893;0.010771290958246294
53:55.3;-0.030001219299001895;-0.4750056693937686;-0.7559929181735374;0.893;0.010773465516015051
53:55.3;-0.03000884440541094;-0.47504146758193505;-0.755948124912914;0.893;0.010776377285532896
53:55.3;-0.030018235331898475;-0.47508543299381406;-0.7558931378155557;0.893;0.010779963119957568
53:55.3;-0.03002896326544312;-0.4751355723189542;-0.7558304468884831;0.893;0.010784059302595269
53:55.3;-0.03004028964167635;-0.4751884501770351;-0.7557643440295035;0.893;0.01078838385880322
53:55.3;-0.03005113920093101;-0.47523906148130873;-0.7557010829765641;0.893;0.010792526267808576
53:55.3;-0.030060102696340726;-0.475280842552152;-0.7556488657393045;0.893;0.010795948496160975
53:55.3;-0.03006547988307298;-0.4753058706141777;-0.7556175934634819;0.893;0.010798001409209033
53:55.3;-0.030065372690591084;-0.4753052978750614;-0.7556183239817632;0.893;0.010797960338916
53:55.3;-0.030057836363303517;-0.47527005647741083;-0.7556623906941898;0.893;0.010795082779014673
53:55.3;-0.030041092592694663;-0.47519185303937084;-0.7557601593951988;0.893;0.010788689744698057
53:55.3;-0.030013803099383375;-0.47506444552258975;-0.7559194321375872;0.893;0.010778270213820017
53:55.3;-0.02997539475527688;-0.4748851607798289;-0.7561435502074719;0.893;0.010763605257860154
53:55.3;-0.029926418376653295;-0.4746565693287827;-0.7564293005411943;0.893;0.010744905051605568
53:55.3;-0.0298689132505471;-0.47438818692056633;-0.7567647886369476;0.893;0.01072294810096979
53:55.3;-0.029806739075887267;-0.4740980240368092;-0.7571275015560118;0.893;0.010699208051627287
53:55.3;-0.029745827445376842;-0.4738137598673079;-0.7574828403349052;0.893;0.01067594977624371
53:55.3;-0.029694297741446468;-0.4735732834840231;-0.7577834434240138;0.893;0.0106562736594417
53:55.3;-0.02966237914663134;-0.4734243301283425;-0.7579696412659548;0.893;0.010644085794527428
53:55.3;-0.029662083365361663;-0.4734229540532357;-0.7579713652201276;0.893;0.010643972926751745
53:55.3;-0.029706583684435947;-0.47363063084239126;-0.7577117696881421;0.893;0.010660965176247419
53:55.3;-0.029809277108144926;-0.4741098806406685;-0.7571127031527971;0.893;0.010700177537801454
53:55.3;-0.02998253907353907;-0.4749184566592854;-0.7561019726793996;0.893;0.010766333470365668
53:55.3;-0.030236225621322277;-0.47610235505062004;-0.7546220817603022;0.893;0.010863191024279911
53:55.3;-0.030576035869984575;-0.4776881727896207;-0.7526397832010396;0.893;0.010992914203151079
53:55.3;-0.031001917002558412;-0.4796756638935932;-0.7501553841218429;0.893;0.011155459536449952
53:55.3;-0.031506772088667576;-0.4820317088483635;-0.7472102844707321;0.893;0.011348079248678495
53:55.3;-0.032075813776496265;-0.48468729810633193;-0.7438907479394191;0.893;0.011565075685008317
53:55.3;-0.03268698863374316;-0.487539512004553;-0.7403254273117643;0.893;0.011797972954904694
53:55.3;-0.03331287636342811;-0.490460383543834;-0.7366742861510203;0.88;0.012036260465766176
53:55.3;-0.03392405415269321;-0.49331259862605414;-0.733108973531341;0.88;0.012268698396070577
53:55.3;-0.034493102728527264;-0.4959681911556746;-0.7297894550059443;0.88;0.012484859795711536
53:55.3;-0.03499797057258561;-0.49832424317259616;-0.7268443870555701;0.88;0.012676411200839437
53:55.3;-0.03542387287274703;-0.5003117474241946;-0.7243600382191655;0.88;0.012837818280010526
53:55.3;-0.035763715477908985;-0.5018975869782939;-0.7223778136331658;0.88;0.012966481294684789
53:55.3;-0.03601744809662969;-0.5030815183268856;-0.7208980249211506;0.88;0.013062464935159205
53:55.3;-0.03619077154208072;-0.5038901403438938;-0.7198874275181174;0.88;0.013127991633825662
53:55.3;-0.036293542092432525;-0.5043694499863289;-0.7192885243985285;0.88;0.013166830968865449
53:55.3;-0.03633813333705424;-0.5045771996414672;-0.719029117709347;0.88;0.013183681853875548
53:55.3;-0.03633793778008821;-0.5045759064988043;-0.7190310455156534;0.88;0.013183612464223185
53:55.3;-0.03630612112542768;-0.5044270406435245;-0.7192174455183952;0.88;0.013171596712470054
53:55.3;-0.036254684206953235;-0.5041866480376597;-0.7195182258078932;0.88;0.01315216553631373
53:55.3;-0.03619384216499563;-0.503902452831938;-0.7198736873951466;0.88;0.013129175697698841
53:55.3;-0.03613169769977051;-0.5036123305247734;-0.7202364344203026;0.88;0.013105687556600796
53:55.3;-0.03607416411225822;-0.503343944966785;-0.7205718310499517;0.88;0.013083935838024094
53:55.3;-0.03602508278738041;-0.5031152907119989;-0.720857328368219;0.88;0.013065373279125655
53:55.3;-0.03598647683627937;-0.5029358686622499;-0.7210810013820826;0.88;0.01305076571626955
53:55.3;-0.035958885728809106;-0.5028082377056334;-0.7212396176376786;0.88;0.013040318065917187
53:55.3;-0.03594173292444957;-0.5027297188266598;-0.7213365164912331;0.88;0.013033813132945162
53:55.3;-0.03593368797543658;-0.5026940726749962;-0.7213795221663641;0.88;0.013030748615592287
53:55.3;-0.03593299485779407;-0.5026930199315864;-0.7213790529870616;0.88;0.013030461504700499
53:55.3;-0.03593774825438647;-0.5027175207025903;-0.7213465302564507;0.88;0.013032232842448983
53:55.3;-0.03594610838368215;-0.5027587708956248;-0.7212931378241478;0.88;0.013035369186901794
53:55.3;-0.03595645227090406;-0.5028089078535057;-0.7212289402876404;0.88;0.013039259924919578
53:55.3;-0.03596746489862265;-0.5028614434616938;-0.7211623352765617;0.88;0.013043411700797149
53:55.3;-0.03597817747072055;-0.502911460529779;-0.7210997933986952;0.88;0.013047462684226165
53:55.3;-0.03598796225123693;-0.5029556182225837;-0.7210458273012096;0.88;0.013051180255795542
53:55.3;-0.035996494369367284;-0.5029920158940776;-0.7210031274515009;0.88;0.013054446047683042
53:55.3;-0.0360036909309189;-0.503019963300393;-0.7209728048950593;0.88;0.013057232265634836
53:55.3;-0.03600963706434526;-0.5030397003219134;-0.7209546885516364;0.88;0.013059572959944274
53:55.3;-0.03601450744476553;-0.5030521023918564;-0.720947634807112;0.88;0.013061533518813463
53:55.3;-0.03601849061648837;-0.503058399993333;-0.7209498186943827;0.88;0.013063181215884918
53:55.3;-0.036021722239601775;-0.5030599327759451;-0.7209589875484327;0.88;0.013064559216236556
53:55.3;-0.036024232311528265;-0.5030579517078795;-0.720972668674191;0.88;0.013065666063984635
53:55.3;-0.036025910480648585;-0.503053476603769;-0.7209883315660087;0.88;0.013066442343834906
53:55.3;-0.0360264927331493;-0.5030472114978559;-0.721003512099355;0.88;0.013066765907390011
53:55.3;-0.036025571902946966;-0.5030395166176609;-0.7210159106231862;0.88;0.013066456741816066
53:55.3;-0.036022633502124056;-0.5030304329650086;-0.7210234779290365;0.88;0.013065292179813994
53:55.3;-0.03601711715840153;-0.5030197534522224;-0.721024502707865;0.88;0.01306303264784331
53:55.3;-0.03600850235109627;-0.5030071328636871;-0.7210177114850111;0.88;0.0130594574723574
53:55.3;-0.03599641506844;-0.5029922273292341;-0.721002387400908;0.88;0.01305440937669622
53:55.3;-0.035980749438732064;-0.5029748522843837;-0.7209785079304447;0.88;0.013047845197793603
53:55.3;-0.03596179537119024;-0.5029551459358836;-0.7209468941625172;0.88;0.013039889063830447
53:55.3;-0.035940359938348876;-0.5029337230641948;-0.7209093561686424;0.88;0.01303088287875278
53:55.3;-0.0359178669152687;-0.5029118017423082;-0.7208688109842787;0.88;0.013021427582736087
53:55.3;-0.03589641595616581;-0.5028912835508936;-0.7208293426565365;0.88;0.013012407469688755
53:55.3;-0.03587878084173424;-0.5028747665838607;-0.7207961686543776;0.88;0.01300498904924341
53:55.3;-0.03586832566252678;-0.5028654705400072;-0.7207754747657175;0.88;0.013000585766203297
53:55.3;-0.03586881935185407;-0.5028670551251785;-0.7207740825277528;0.88;0.013000780560148004
53:55.3;-0.03588413326496055;-0.5028833174827102;-0.7207989202981773;0.88;0.013007199968309277
53:55.3;-0.03591781403993029;-0.5029177619759184;-0.7208562821284822;0.88;0.01302133641864113
53:55.3;-0.03597253509169516;-0.5029730467193558;-0.7209508781422597;0.88;0.013044319655979809
53:55.3;-0.03604944479474478;-0.5030503258396962;-0.7210847061021703;0.88;0.013076643967668848
53:55.3;-0.0361474472854205;-0.5031485241560214;-0.721255805475083;0.88;0.01311786502836209
53:55.3;-0.03626247190387701;-0.5032636008723042;-0.7214569908460527;0.88;0.013166288648741215
53:55.3;-0.036386808010873774;-0.5033878794050655;-0.7216746981656043;0.88;0.013218683155749764
53:55.3;-0.036508600983415934;-0.5035095393697582;-0.7218881110333415;0.88;0.013270056848977821
53:55.3;-0.0366116196635345;-0.5036123810778472;-0.7220687598372704;0.88;0.013313550695039329
53:55.3;-0.03667541185348198;-0.5036759791050806;-0.7221807978549303;0.88;0.013340502102215405
53:55.3;-0.03667595863843448;-0.5036763356011399;-0.7221821484126877;0.88;0.013340735383568548
53:55.3;-0.03658691624564242;-0.5035871218909099;-0.7220266786721706;0.88;0.013303124838954107
53:55.3;-0.03638149192603137;-0.503381554673112;-0.7216674817672636;0.88;0.013216453697123001
53:55.3;-0.03603493480417818;-0.5030348875814741;-0.7210612343209895;0.88;0.013070553965789267
53:55.3;-0.035527531904518767;-0.5025274081505003;-0.7201734375490363;0.88;0.012857658616124977
53:55.3;-0.034847883620771736;-0.5018477143120451;-0.7189841472084116;0.88;0.01257383256585524
53:55.3;-0.03399609417567628;-0.5009959058592659;-0.7174935548272934;0.88;0.012220281344442457
53:55.3;-0.03298635639463877;-0.4999861701225527;-0.7157265091957529;0.88;0.011804278344233938
53:55.3;-0.03184824469496962;-0.4988480757099044;-0.7137347775469923;0.88;0.011339415300071421
53:55.3;-0.030625866704406285;-0.49762572470222266;-0.7115955597009196;0.88;0.01084487224997438
53:55.3;-0.029374065029132895;-0.4963739548215062;-0.7094048403347378;0.855;0.010343492049768147
53:55.3;-0.028151688627012884;-0.49515161104100125;-0.7072656134000422;0.855;0.009858825741077647
53:55.3;-0.027013580611146493;-0.49401353348602395;-0.7052738605809978;0.855;0.009411932148755861
53:55.3;-0.026003849555431578;-0.49300382872625637;-0.7035067761081494;0.855;0.009018955035276907
53:55.3;-0.025152071129215876;-0.4921520713172953;-0.7020161198110618;0.855;0.00869000756212374
53:55.3;-0.02447243952117045;-0.4914724550808234;-0.7008267324038071;0.855;0.008429214502034236
53:55.3;-0.023965060180301555;-0.49096508567701586;-0.6999387981233388;0.855;0.008235485375513935
53:55.3;-0.023618534299915388;-0.4906185649159223;-0.699332367922159;0.855;0.008103647668060189
53:55.3;-0.02341314896393959;-0.49041318074288365;-0.6989729425416469;0.855;0.008025689004475584
53:55.3;-0.023324152303544378;-0.49032418225640456;-0.6988172043035045;0.855;0.007991950213681539
53:55.3;-0.023324749242711867;-0.4903247753429289;-0.698818259870739;0.855;0.007992176492443253
53:55.3;-0.023388592138317843;-0.49038861323596844;-0.6989299990104573;0.855;0.008016377109413645
53:55.3;-0.023491656566984234;-0.49049167225071266;-0.6991103773044504;0.855;0.008055472695808835
53:55.3;-0.023613483252348678;-0.4906134936845282;-0.6993235895560946;0.855;0.008101729183298939
53:55.3;-0.023737832665821076;-0.49073783841191765;-0.6995412153393945;0.855;0.00814899247702097
53:55.3;-0.023852841050678947;-0.49085284291875336;-0.6997424920170023;0.855;0.008192749425051958
53:55.3;-0.023950788678410977;-0.4909507875796977;-0.6999139091575683;0.855;0.008230048682552832
53:55.3;-0.024027596937260892;-0.4910275937742147;-0.7000483284159822;0.855;0.008259319364746876
53:55.3;-0.0240821645041798;-0.49108216008854705;-0.7001438218275577;0.855;0.008280125838176146
53:55.3;-0.024115638343008398;-0.4911156333434815;-0.7002023960743916;0.855;0.008292893990283493
53:55.3;-0.024130696157717343;-0.49113069107458124;-0.7002287368287129;0.855;0.008298638670641673
53:55.3;-0.02413089616496343;-0.4911308913277752;-0.700229070935473;0.855;0.008298714797248355
53:55.3;-0.024120129911321835;-0.49112012549495093;-0.7002102089483148;0.855;0.008294606970537039
53:55.3;-0.024102195941074912;-0.49110219199522037;-0.7001787991686749;0.855;0.008287765262609069
53:55.3;-0.024080497384668116;-0.49108049387210495;-0.7001407985449314;0.855;0.008279488791764072
53:55.3;-0.02405785541143821;-0.49105785225057497;-0.700101146312309;0.855;0.008270854087850804
53:55.3;-0.02403642297080815;-0.49103642007854914;-0.700063613091422;0.855;0.008262682170948445
53:55.3;-0.024017679020700292;-0.4910176763520101;-0.7000307907664971;0.855;0.008255536579619485
53:55.3;-0.024002481997667045;-0.49100247957858856;-0.7000041859368124;0.855;0.008249744056256232
53:55.3;-0.0239911620057701;-0.49099115995694537;-0.6999843810022196;0.855;0.00824542994017026
53:55.3;-0.023983633454631337;-0.4909836320026537;-0.6999712308936066;0.855;0.008242561250854433
53:55.3;-0.023979513064166735;-0.4909795125384137;-0.6999640690473021;0.855;0.008240991713345244
53:55.3;-0.02397823175660973;-0.49097823256965734;-0.6999619025430603;0.855;0.008240504380249819
53:55.3;-0.023979132560293985;-0.490979135170692;-0.6999635826515958;0.855;0.008240848885933296
53:55.3;-0.023981549949584926;-0.49098155480676736;-0.6999679428357907;0.855;0.008241771619608654
53:55.3;-0.02398486884363325;-0.4909848763161221;-0.6999739011723959;0.855;0.008243038158635939
53:55.3;-0.023988563680934317;-0.4909885739708013;-0.6999805280271486;0.855;0.008244448128265516
53:55.3;-0.02399221955337442;-0.49099223260213093;-0.6999870825815154;0.855;0.00824584324340921
53:55.3;-0.023995538358693724;-0.4909955537522942;-0.6999930235334239;0.855;0.008247109656153162
53:55.3;-0.02399833339113023;-0.4909983502744223;-0.6999980001079451;0.855;0.008248175908054092
53:55.3;-0.02400051583696086;-0.49100053285043593;-0.7000018295883009;0.855;0.008249007805598502
53:55.3;-0.02400207638398417;-0.49100209163772146;-0.7000044670994424;0.855;0.008249601440807532
53:55.3;-0.024003064698059295;-0.49100307579888547;-0.7000059725279907;0.855;0.00824997540644078
53:55.3;-0.024003568960740535;-0.49100357310836706;-0.7000064784072971;0.855;0.008250163042413413
53:55.3;-0.024003697078428136;-0.49100369124418275;-0.700006161471666;0.855;0.008250205326823542
53:55.3;-0.024003560624814894;-0.4910035418220946;-0.7000052194957528;0.855;0.008250144814294603
53:55.3;-0.024003262104822478;-0.49100322775321464;-0.7000038540597724;0.855;0.008250020841763961
53:55.3;-0.02400288575159993;-0.4910028341265829;-0.7000022590669088;0.855;0.008249866076075512
53:55.3;-0.024002491794650867;-0.4910024225420072;-0.7000006142117916;0.855;0.008249704371411695
53:55.3;-0.024002113960228;-0.4910020286392548;-0.6999990821661961;0.855;0.008249549835520863
53:55.3;-0.02400175986892031;-0.49100166247211224;-0.6999978080061314;0.855;0.008249406966090106
53:55.3;-0.02400141395803879;-0.49100131133855707;-0.6999969193416316;0.855;0.008249271704449683
53:55.3;-0.02400104255339252;-0.49100094467722366;-0.6999965257113364;0.855;0.00824913325399293
53:55.3;-0.02400060072187542;-0.49100052065151717;-0.699996716051127;0.855;0.008248976516209837
53:55.3;-0.02400004053116215;-0.49099999404470707;-0.6999975534214954;0.855;0.008248784999981903
53:55.3;-0.02399932030878996;-0.4909993250653447;-0.6999990666623453;0.855;0.0082485440534257
53:55.3;-0.023998414419665805;-0.4909984886020071;-0.7000012392137339;0.855;0.008248244248115308
53:55.3;-0.023997322966297967;-0.4909974833669223;-0.7000039959683059;0.855;0.008247884711793678
53:55.3;-0.023996080666504944;-0.49099634023529365;-0.7000071896692499;0.855;0.008247476159666665
53:55.3;-0.023994763995116873;-0.49099512893582453;-0.7000105889892754;0.855;0.008247043321285938
53:55.3;-0.023993495514604907;-0.4909939621014902;-0.7000138709619912;0.855;0.008246626408273028
53:55.3;-0.02399244419827852;-0.49099299557922577;-0.7000166208156489;0.855;0.008246281228963015
53:55.3;-0.023991820508714536;-0.49099242386012576;-0.7000183423989148;0.855;0.008246077542902915
53:55.3;-0.02399186507694427;-0.490992469568499;-0.7000184822022217;0.855;0.008246095275687499
53:55.3;-0.0239928300775581;-0.49099336617865774;-0.700016469381545;0.855;0.008246418297344413
53:55.3;-0.02399495284840582;-0.49099533354723796;-0.7000117731121279;0.855;0.008247125617936795
53:55.3;-0.02399842198600804;-0.49099854647950825;-0.7000039769917131;0.855;0.008248280080702504
53:55.3;-0.024003337065063465;-0.4910030973961789;-0.6999928680715399;0.855;0.008249914937892594
53:55.3;-0.024009664262022154;-0.49100895521378146;-0.6999785354716764;0.855;0.008252019070561063
53:55.3;-0.024017191454733453;-0.4910159237469718;-0.6999614705613788;0.855;0.008254522042700468
53:55.3;-0.024025487729869816;-0.49102360419923813;-0.6999426575673439;0.855;0.008257280631079762
53:55.3;-0.024033873522258522;-0.4910313675045598;-0.6999236405187423;0.855;0.008260068899749923
53:55.3;-0.024041408658867364;-0.49103834325308715;-0.6999065500463678;0.855;0.008262574233734386
53:55.3;-0.024046906172192045;-0.4910434324818422;-0.6998940722036862;0.855;0.008264401939753132
53:55.3;-0.024048979645642135;-0.4910453515167883;-0.6998893417049183;0.855;0.008265090985338532
53:55.3;-0.024046130813426797;-0.4910427130896277;-0.6998957443283113;0.855;0.008264143102423786
53:55.3;-0.024036881935270003;-0.49103414891378083;-0.6999166182157808;0.855;0.008261066755187394
53:55.3;-0.024019953930614162;-0.49101847463042303;-0.6999548517985476;0.855;0.008255436309017287
53:55.3;-0.0239944863080548;-0.4909948934533399;-0.7000123872708024;0.855;0.008246965110349927
53:55.3;-0.02396028861806147;-0.49096322900111977;-0.7000896527954862;0.855;0.008235589108883466
53:55.3;-0.023918105721767467;-0.4909241709208789;-0.7001849634347282;0.855;0.008221555191272056
53:55.3;-0.02386987105114359;-0.49087950939169933;-0.7002939491455318;0.855;0.008205505683500118
53:55.3;-0.023818913922101483;-0.4908323270833323;-0.7004090865190328;0.855;0.008188547732806044
53:55.3;-0.023770079786333123;-0.4907871105016022;-0.7005194271581489;0.855;0.008172293804870764
53:55.3;-0.023729717234654422;-0.49074973795473636;-0.7006106270525331;0.855;0.008158857727534382
53:55.3;-0.02370548393765039;-0.4907272998684151;-0.7006653849866864;0.855;0.008150790063083524
53:55.3;-0.023705926959033112;-0.49072771018623396;-0.7006643906752911;0.855;0.00815093763798917
53:55.3;-0.023739802385399883;-0.4907590763962092;-0.7005878618371701;0.855;0.008162215342885446
53:55.3;-0.023815116136449262;-0.4908288113909376;-0.7004177111901886;0.855;0.008187284289204757
53:55.3;-0.023937892856428347;-0.4909424935511294;-0.7001403277830961;0.855;0.00822813931668876
53:55.3;-0.024110712945296174;-0.4911025121437822;-0.6997498821665025;0.855;0.008285620584737927
53:55.3;-0.024331098109117474;-0.491306572460517;-0.6992519738076963;0.855;0.008358877964974898
53:55.3;-0.0245898711237597;-0.4915461770794957;-0.698667336775106;0.855;0.008444832025477744
53:55.3;-0.02486966222804216;-0.4918052428954991;-0.698035214159653;0.855;0.008537689835861069
53:55.3;-0.025143777570455723;-0.4920590533849279;-0.6974159145331706;0.855;0.008628585490233686
53:55.3;-0.025375677778580377;-0.4922737757993448;-0.6968919899899145;0.855;0.008705421919969062
53:55.3;-0.02551932900576421;-0.49240678620843026;-0.696567443042377;0.855;0.008752990411514528
53:55.3;-0.025520675780135477;-0.4924080332488912;-0.6965643990795441;0.855;0.008753436264023588
53:55.3;-0.025320435348051635;-0.4922226254794198;-0.6970167932295789;0.855;0.008687123241123865
53:55.3;-0.024858318215761423;-0.4917947392896557;-0.6980608350724086;0.855;0.008533926428344113
53:55.3;-0.02407863212826552;-0.49107280776964607;-0.6998223478091848;0.855;0.008274952416812767
53:55.3;-0.022937022554605245;-0.4900157619002337;-0.7024015397683275;0.855;0.00789464392040127
53:55.3;-0.021407841866565358;-0.48859985386718;-0.7058563555288013;0.855;0.007383164593510346
53:55.3;-0.019491327259522476;-0.48682530328491924;-0.7101862591428024;0.855;0.006738866015260622
53:55.3;-0.0172194159419715;-0.48472168163231394;-0.7153190961200462;0.855;0.005970499715679205
53:55.3;-0.014658653902689854;-0.4823506055568602;-0.7211045217720191;0.855;0.005098649265694217
53:55.3;-0.011908286700572339;-0.479803969089011;-0.7273183146146577;0.855;0.004155637359977859
53:55.3;-0.009091713198909904;-0.4771960304348577;-0.7336816845990455;0.892;0.003183099594364142
53:55.3;-0.006341346011175636;-0.47464939387210825;-0.7398954772892647;0.892;0.0022270232654143496
53:55.3;-0.0037805840001695267;-0.472278317621277;-0.745680902659776;0.892;0.0013314041925902539
53:55.3;-0.0015086727237137026;-0.4701746957411134;-0.7508137392723646;0.892;0.0005325820217367024
53:55.3;0.0004078418312361533;-0.46840014492009807;-0.7551436425048901;0.892;0.00014425748598936283
53:55.3;0.0019370224589721895;-0.46698423668878875;-0.7585984579507258;0.892;0.0006861970279729359
53:55.3;0.003078631968095179;-0.46592719072105815;-0.7611776497581609;0.892;0.0010918471839766583
53:55.3;0.003858317992171431;-0.46520525926568984;-0.7629391626079048;0.892;0.0013694069964599895
53:55.3;0.004320435068968127;-0.4647773733646225;-0.7639832049268097;0.892;0.001534109188658072
53:55.3;0.004520675461673605;-0.46459196616016146;-0.7644355999999259;0.892;0.0016055207762432832
53:55.3;0.0045193286733121;-0.46459321407716514;-0.7644325574632539;0.892;0.001605040386459951
53:55.3;0.004375677467316948;-0.46472622568333993;-0.7641080124583814;0.892;0.0015538075871621274
53:55.3;0.004143777325000014;-0.46494094958867216;-0.7635840903296932;0.892;0.001471130091514581
53:55.3;0.003869662100924808;-0.4651947617913808;-0.7629647934725664;0.892;0.0013734484325414059
53:55.3;0.003589871172435649;-0.46545382941953306;-0.7623326737799572;0.892;0.0012737963656960392
53:55.3;0.0033310983913111447;-0.46569343576986993;-0.7617480395317116;0.892;0.0011816773800291166
53:55.3;0.003110713512593329;-0.46589749750201653;-0.761250133437382;0.892;0.0011032597525703182
53:55.3;0.0029378937462063745;-0.4660575169106466;-0.7608596891064934;0.892;0.001041789982806612
53:55.3;0.0028151173624684973;-0.46617119897079096;-0.7605823054948143;0.892;0.0009981324184513223
53:55.3;0.0027398039276556887;-0.4662409326242698;-0.7604121526287488;0.892;0.0009713571285822815
53:55.3;0.002705928753776213;-0.4662722959524182;-0.7603356190760169;0.892;0.000959315156115472
53:55.3;0.002705485868797071;-0.4662727016181823;-0.7603346171878318;0.892;0.0009591577136211287
53:55.3;0.002729719128094815;-0.46625025700153405;-0.7603893645146901;0.892;0.0009677720629852314
53:55.3;0.0027700814088618833;-0.4662128761163965;-0.7604805508929415;0.892;0.0009821207980408799
53:55.3;0.0028189149867897433;-0.46616764969402735;-0.7605908756103721;0.892;0.0009994825622429652
53:55.3;0.002869871230889529;-0.46612045663393786;-0.76070599562251;0.892;0.0010176007377137239
53:55.3;0.002918104672449916;-0.4660757843547949;-0.7608149640177997;0.892;0.001034752420541747
53:55.3;0.0029602860121287736;-0.46603671677251174;-0.7609102594103633;0.892;0.0010497532957672723
53:55.3;0.002994481878476133;-0.4660050456231513;-0.7609875142797905;0.892;0.0010619152054869327
53:55.3;0.0030199475238932866;-0.46598146235494753;-0.7610450466009056;0.892;0.0010709726991208481
53:55.3;0.0030368735706963104;-0.4659657925124465;-0.761083287644811;0.892;0.0010769931299124326
53:55.3;0.003046120743983219;-0.4659572411828965;-0.7611041826209436;0.892;0.0010802823686873715
53:55.3;0.0030489684141232166;-0.4659546255923786;-0.7611106224998445;0.892;0.001081295351455237
53:55.3;0.0030468946542835246;-0.4659565784617369;-0.7611059470189399;0.892;0.0010805577978871069
53:55.3;0.003041398083433336;-0.46596171262495095;-0.7610935420785582;0.892;0.0010786027859559378
53:55.3;0.0030338654581560354;-0.46596874326248516;-0.7610765404889699;0.892;0.001075923611549761
53:55.3;0.0030254840285827214;-0.4659765686946881;-0.7610576238536447;0.892;0.001072942589416501
53:55.3;0.0030171941393187874;-0.4659843139641646;-0.7610389153920232;0.892;0.0010699941860671885
53:55.3;0.0030096753556035803;-0.4659913434838264;-0.7610219485363079;0.892;0.0010673200885340302
53:55.3;0.0030033583566327717;-0.4659972499962673;-0.7610076937932011;0.892;0.001065073443192613
53:55.3;0.0029984547377356376;-0.4660018271860124;-0.7609966261359631;0.892;0.0010633294648903203
53:55.3;0.00299499745696851;-0.46600503273296845;-0.7609888165328857;0.892;0.0010620998301601303
53:55.3;0.0029928857118878185;-0.46600694761125055;-0.7609840335874786;0.892;0.0010613486438023128
53:55.3;0.002991929325719741;-0.4660077362180643;-0.7609818441814444;0.892;0.0010610082293626161
53:55.3;0.002991889081968507;-0.4660076106250993;-0.7609817050739197;0.892;0.0010609934780892482
53:55.3;0.0029925107374457875;-0.4660068010048855;-0.7609830403137993;0.892;0.0010612139499132098
53:55.3;0.0029935515726366682;-0.4660055331839567;-0.7609853018561566;0.892;0.0010615833210229778
53:55.3;0.0029947992511209086;-0.4660040133660927;-0.7609880128172747;0.892;0.0010620260966848114
53:55.3;0.0029960834357778622;-0.46600241937588244;-0.7609907943102301;0.892;0.0010624817479007885
53:55.3;0.0029972810546624777;-0.46600089729628597;-0.760993377789658;0.892;0.0010629065884842066
53:55.3;0.002998316349040927;-0.465999562098792;-0.7609956053598904;0.892;0.0010632737941744439
53:55.3;0.0029991569077840964;-0.4659985007665316;-0.7609974206532559;0.892;0.0010635719908899583
53:55.3;0.002999806839948466;-0.46599777646026186;-0.7609988527673275;0.892;0.0010638028206888328
53:55.3;0.0030002981056773976;-0.4659974324449336;-0.7609999954659359;0.892;0.0010639778473740481
53:55.3;0.0030006808561333148;-0.4659974947531532;-0.7610009834960981;0.892;0.0010641151037427288
53:55.3;0.0030010134614924027;-0.4659979728870431;-0.7610019675343253;0.892;0.001064235521863156
53:55.3;0.0030013527594535453;-0.46599885823078874;-0.7610030890141695;0.892;0.0010643594362179636
53:55.3;0.003001744953347017;-0.46600012024372606;-0.761004455942647;0.892;0.0010645033135345094
53:55.3;0.0030022175372273327;-0.4660017009097902;-0.7610061208023264;0.892;0.0010646768456421705
53:55.3;0.0030027726242327817;-0.46600350831361825;-0.761008061749802;0.892;0.0010648805423508685
53:55.3;0.0030033820940253216;-0.4660054105731737;-0.7610101685278003;0.892;0.0010651039765332403
53:55.3;0.003003985037457014;-0.4660072316550837;-0.7610122347537545;0.892;0.0010653248568644094
53:55.3;0.0030044880374902002;-0.4660087507980332;-0.7610139584608275;0.892;0.0010655091262306634
53:55.3;0.0030047688560347523;-0.46600970733262115;-0.7610149528636391;0.892;0.0010656122951784996
53:55.3;0.003004684065784478;-0.4660098125711995;-0.7610147692094822;0.892;0.0010655822086187345
53:55.3;0.003004081044067567;-0.46600877010725805;-0.7610129331677832;0.892;0.0010653633992306394
53:55.3;0.0030028145060203263;-0.46600630527585996;-0.7610089954293293;0.892;0.0010649030930402002
53:55.3;0.0030007673789012295;-0.4660022036624351;-0.7610025959798775;0.892;0.0010641587948838052
53:55.3;0.0029978753021616612;-0.4659963574058701;-0.7609935398648556;0.892;0.0010631071919495274
53:55.3;0.0029941533895858044;-0.4659888166519092;-0.7609818802083067;0.892;0.001061753876614996
53:55.3;0.002989723141532894;-0.46597984194091296;-0.7609680018885404;0.892;0.0010601431173983447
53:55.3;0.0029848366018894747;-0.4659699516712637;-0.7609526967769626;0.892;0.001058366619773365
53:55.3;0.0029798940960257822;-0.4659599572262087;-0.7609372190659087;0.892;0.0010565699466848423
53:55.3;0.0029754512681027323;-0.4659509770962146;-0.7609233072743603;0.892;0.001054955050037229
53:55.3;0.0029722107854048023;-0.465944420621927;-0.7609131584229065;0.892;0.0010537772440345466
53:55.3;0.0029709941356173774;-0.46594193210452783;-0.760909340052863;0.892;0.0010533349775523968
53:55.3;0.0029726895554401224;-0.46594528726795803;-0.7609146276822076;0.892;0.0010539509841186452
53:55.3;0.00297817342920367;-0.4659562366751703;-0.7609317593594244;0.892;0.0010559438483104895
53:55.3;0.0029882045864427294;-0.4659762949000798;-0.7609631055140936;0.892;0.0010595897606317348
53:55.3;0.0030032938554059915;-0.4660064801315674;-0.7610102614586627;0.892;0.0010650752586204315
53:55.3;0.0030235549632961203;-0.46604701637034673;-0.7610735815689781;0.892;0.0010724430687411022
53:55.3;0.0030485472768205487;-0.4660970191991741;-0.7611516879340403;0.892;0.0010815347419821156
53:55.3;0.003077125684532976;-0.46615419573356115;-0.7612410012933465;0.892;0.0010919355479004239
53:55.3;0.003107317728982385;-0.46621459898083867;-0.761335357102868;0.892;0.0011029289365553003
53:55.3;0.0031362523480978842;-0.46627248534281995;-0.7614257828577297;0.892;0.0011134696054903028
53:55.3;0.003160167591224318;-0.4663203300112449;-0.7615005221939392;0.892;0.0011221855445855793
53:55.3;0.0031745256395715443;-0.4663490569337641;-0.7615453943050747;0.892;0.001127420008019842
53:55.3;0.003174261535690467;-0.4663485361762868;-0.7615445711932611;0.892;0.001127323735276542
53:55.3;0.0031541863927973335;-0.4663083902373324;-0.761481837667398;0.892;0.0011200054420756594
53:55.3;0.0031095558287041756;-0.46621913081480504;-0.7613423676692429;0.892;0.00110374423252431
53:55.3;0.003036799533352234;-0.4660736178508987;-0.761115004145252;0.892;0.0010772609761589907
53:55.3;0.002934388230665374;-0.46586879338129195;-0.7607949682803297;0.892;0.001040037080654469
53:55.3;0.002803790402112919;-0.4656075949255459;-0.760386849242217;0.892;0.0009926592589841452
53:55.3;0.002650444286776269;-0.4653008994483524;-0.7599076416702791;0.892;0.0009371592227470321
53:55.3;0.00248464298589233;-0.46496929354610966;-0.7593895116206785;0.892;0.0008773095606777007
53:55.3;0.0023222050138450175;-0.46464441454030386;-0.7588818920358676;0.892;0.0008188332496825691
53:55.3;0.002184783292474217;-0.4643695684684527;-0.7584524483527346;0.892;0.0007694855611025304
53:55.3;0.0020996571201257774;-0.46419931403234554;-0.7581864284091693;0.892;0.0007389735255085278
53:55.3;0.0020988593679784487;-0.46419771700570833;-0.7581839349373356;0.892;0.0007386877861983131
53:55.3;0.002217520568202208;-0.46443503842782696;-0.7585547508445966;0.892;0.00078123117643828
53:55.3;0.0024913678477500164;-0.4649827324886485;-0.7594105233870679;0.892;0.0008797338273323928
53:55.3;0.002953404047991053;-0.46590680478422225;-0.7608543864234476;0.892;0.0010469440380134424
53:55.3;0.0036299133597505794;-0.46725982360057605;-0.7629684780286528;0.892;0.0012940805070967545
53:55.3;0.004536094400095113;-0.4690721860781406;-0.7658002938618507;0.892;0.0016294359529691515
53:55.3;0.005671806627929105;-0.4713436110506763;-0.7693493947171084;0.892;0.002056755450709547
53:55.3;0.0070181243048533445;-0.4740362469717289;-0.7735566376518115;0.892;0.0025735032690933643
53:55.3;0.008535612781065835;-0.4770712244885138;-0.7782987893797372;0.892;0.0031693067964827615
53:55.3;0.010165459879496944;-0.48033091921008186;-0.7833920618451437;0.892;0.003825134764365937
53:55.3;0.011834540350326772;-0.48366908061459635;-0.7886079386410295;0.9520000000000001;0.0045139928271238725
53:55.3;0.013464387459710818;-0.48692877522391353;-0.793701211221261;0.9520000000000001;0.005203662051445954
53:55.3;0.014981875954447934;-0.4899637525294499;-0.798443363162268;0.9520000000000001;0.005861034318792798
53:55.3;0.01632819365094585;-0.4926563881665028;-0.8026506063757461;0.9520000000000001;0.006456673105897416
53:55.3;0.017463905890226814;-0.49492781282090476;-0.8061997075281696;0.9520000000000001;0.006968284579527482
53:55.3;0.018370086922813254;-0.4967401749960098;-0.8090315236170039;0.9520000000000001;0.007382542253973721
53:55.3;0.019046596195654436;-0.4980931935845835;-0.8111456153670179;0.9520000000000001;0.0076953221700575185
53:55.3;0.019508632314289242;-0.4990172657921656;-0.812589478363312;0.9520000000000001;0.007910675874700965
53:55.3;0.019782479460009172;-0.4995649599715441;-0.8134452506081562;0.9520000000000001;0.008038981332538993
53:55.3;0.019901140468424023;-0.4998022817811842;-0.8138160658968782;0.9520000000000001;0.008094731703294927
53:55.3;0.019900342466407126;-0.49980068546152917;-0.8138135714409315;0.9520000000000001;0.008094356455152265
53:55.3;0.019815215993619597;-0.49963043208144925;-0.8135475501323849;0.9520000000000001;0.008054352549339701
53:55.3;0.019677793937985258;-0.4993555874133636;-0.8131181047287083;0.9520000000000001;0.007989874415899479
53:55.3;0.01951535562507783;-0.499030710116632;-0.8126104831444962;0.9520000000000001;0.00791381991183046
53:55.3;0.019349554014931825;-0.4986991061357991;-0.8120923509537494;0.9520000000000001;0.00783637064684673
53:55.3;0.01919620767051453;-0.49839241264160933;-0.8116131413019816;0.9520000000000001;0.007764901162979497
53:55.3;0.019065609750079544;-0.4981312160185763;-0.8112050205145206;0.9520000000000001;0.007704156339993201
53:55.3;0.018963198554549386;-0.49792639296066676;-0.8108849835587655;0.9520000000000001;0.007656600674714818
53:55.3;0.0188904426266076;-0.49778088066769866;-0.8106576199728299;0.9520000000000001;0.007622857743826918
53:55.3;0.01884581274342465;-0.49769162082558094;-0.8105181513269879;0.9520000000000001;0.00760217645309829
53:55.3;0.018825738631143896;-0.4976514730260588;-0.8104554209290794;0.9520000000000001;0.007592878496354845
53:55.3;0.018825475916331814;-0.49765094865603104;-0.8104546030078582;0.9520000000000001;0.007592756873947102
53:55.3;0.018839835682495334;-0.49767966999266977;-0.810499482524644;0.9520000000000001;0.007599407845844625
53:55.3;0.018863752893429064;-0.4977275070283963;-0.8105742314327935;0.9520000000000001;0.007610488511604176
