Time;AccX;AccY;AccZ;Acc-old;Acc-trns
50:58.7;-0.03405944429055476;-0.19310885194218794;-0.7926655105876954;0.8340000000000001;0.00521350388936257
50:58.7;-0.054152416936064776;-0.21767972288889334;-0.7937315608741363;0.885;0.0093564148622122
50:58.7;-0.07224362761308101;-0.24060635272600997;-0.7943025590578261;0.94;0.0138067861086306
50:58.8;-0.0868903947049437;-0.2603124340398516;-0.793581679781549;0.97;0.01794974637275213
50:58.8;-0.09681479039773745;-0.2758053808662101;-0.7913498559899677;1.136;0.021130655618739082
50:58.8;-0.10101704514828737;-0.28683658701813913;-0.7880768911955949;1.1740000000000002;0.022834830907215737
50:58.8;-0.09889691872708703;-0.2939319157075705;-0.7848951983638479;0.9309999999999999;0.02281608773688656
50:58.8;-0.09036249392539142;-0.29826275760046195;-0.7834019784604329;0.782;0.021114067294555068
50:58.8;-0.07590450416734203;-0.3013702025870582;-0.7853115056300026;0.649;0.017964280103692373
50:58.8;-0.0566102231820688;-0.3048097964422313;-0.7920463940649777;0.584;0.013667038224760298
50:58.8;-0.03409221927410359;-0.3098180553003207;-0.8043818842814764;0.6729999999999999;0.008496191210240974
50:58.8;-0.010325565291493958;-0.3170894342405845;-0.8222312244705202;0.6729999999999999;0.002692089992071885
50:58.8;0.012584542949577303;-0.3267042389979633;-0.8446126494930161;0.736;0.0034725603187318226
50:58.9;0.03266456988471288;-0.33819925606493506;-0.869800197776887;0.8490000000000001;0.009608798672401834
50:58.9;0.04832140961432775;-0.3507461355147171;-0.8956377024504225;1.186;0.015179758308329726
50:58.9;0.058537720579391835;-0.3633925867925567;-0.9199619252650395;1.3719999999999999;0.019569589877406375
50:58.9;0.062976411779151;-0.3753151104589357;-0.9410255377962069;1.3869999999999998;0.022242078616874862
50:58.9;0.06197326035107028;-0.3860239458529909;-0.957782258794145;1.09;0.022913180614924675
50:58.9;0.05643141950691594;-0.3954622719738321;-0.9699519370711147;0.99;0.021645929851619995
50:58.9;0.04766632716007672;-0.40397496734988275;-0.977893910607573;1.054;0.018830328035446438
50:58.9;0.037256903506107976;-0.4121804632747702;-0.9823855616398424;0.9620000000000001;0.01508607043132205
50:58.9;0.026935299781931713;-0.42081422008260677;-0.984390168765734;0.9620000000000001;0.011157823523913086
50:58.9;0.018516879438867068;-0.4305964837364038;-0.9848605123967147;0.972;0.00785259145155456
50:59.0;0.013850510923327971;-0.44213837048711224;-0.9846086751213117;1.077;0.00602958828324645
50:59.0;0.014753146938748718;-0.45587543445849044;-0.9842593303967218;1.107;0.006619731865815014
50:59.0;0.02288821683629385;-0.47201365167789366;-0.9842745301680393;1.141;0.010633659896964891
50:59.0;0.039569458500712834;-0.49048142611761286;-0.9850097545810893;1.177;0.01911715248732278
50:59.0;0.06551300511169168;-0.510892266561016;-0.9867529411034972;1.18;0.03302670744809025
50:59.0;0.10059624252986563;-0.5325247323819327;-0.9897111395717452;1.0859999999999999;0.05301881301110173
50:59.0;0.143697571308912;-0.554319571599804;-0.9939390897934334;0.993;0.07917159814637474
50:59.0;0.1926808435675866;-0.5748919615750759;-0.9992427095924874;1.075;0.11068678255211183
50:59.0;0.24454759074325208;-0.5925663158286326;-1.0051136105483562;1.075;0.1456516815960556
50:59.0;0.29572702883527846;-0.6054537027534761;-1.0107369091978828;1.138;0.18097145773183837
50:59.1;0.3424467810796632;-0.6115946264729443;-1.0150788554035066;1.275;0.21259670569489092
50:59.1;0.3811338731094208;-0.6091761870655318;-1.017033450548076;1.311;0.23613246660584758
50:59.1;0.4088058436094434;-0.5968049187352213;-1.0155967674770185;1.396;0.24778259608853612
50:59.1;0.42341299796926485;-0.5737877933155231;-1.010037018838937;1.489;0.24538769556121964
50:59.1;0.4240928114111357;-0.5403595335092984;-1.0000298895216846;1.4480000000000002;0.229169443299083
50:59.1;0.4112955582014816;-0.4977987845919418;-0.9857311526616316;1.389;0.2018209905179486
50:59.1;0.38674016921005094;-0.44839345080300597;-0.9677689592338684;1.341;0.16782251756140976
50:59.1;0.3531783525445887;-0.39524368107361635;-0.9471547424056406;0.9420000000000001;0.1322147627184658
50:59.1;0.313993177151686;-0.3419296497943389;-0.9251290907346397;0.866;0.09932516846173277
50:59.1;0.272717456015364;-0.2921079391739891;-0.9029820421971239;0.866;0.07193419887897289
50:59.2;0.23258174914521293;-0.24910865768359775;-0.8819029420865603;0.914;0.05109580495243034
50:59.2;0.19616820762277906;-0.21558325183079363;-0.8628955495037542;0.862;0.03649235335865472
50:59.2;0.16519190601541756;-0.19323414242735923;-0.8467516147038112;0.87;0.027028918065149676
50:59.2;0.14040316918677057;-0.1826567962193677;-0.8340520302555874;0.86;0.021389758961054675
50:59.2;0.12160536330347267;-0.1833194941320288;-0.8251699907128531;0.789;0.018395212330432113
50:59.2;0.10778997824242066;-0.19368409542467807;-0.8202679630825769;0.7879999999999999;0.017124901954072874
50:59.2;0.097387212858068;-0.21144654894729825;-0.8192968680678159;0.872;0.016871116831364108
50:59.2;0.08860638721384871;-0.23385720361574894;-0.822011969298408;0.973;0.0170331088903872
50:59.2;0.07980249250414688;-0.2580664801730274;-0.8280079664530814;0.973;0.017052284497361767
50:59.2;0.06978110129186539;-0.2814379361282662;-0.8367576720459405;0.938;0.016433125029825708
50:59.3;0.057968890194055496;-0.3017878412934655;-0.8476360666735708;0.9159999999999999;0.014828804925236718
50:59.3;0.04442483674569489;-0.31753913556499963;-0.8599266500809193;0.912;0.012130662141998184
50:59.3;0.02971904163468478;-0.3277958119933187;-0.8728238704272723;0.898;0.008502855841409734
50:59.3;0.01473776572182489;-0.3323433070018793;-0.8854534462002236;0.9309999999999999;0.004336949029552168
50:59.3;0.00047620453179591696;-0.33157510422795755;-0.8969299060376461;1.001;0.00014162305016972345
50:59.3;-0.012137273421913748;-0.3263516652127085;-0.9064541113919373;1.042;0.0035904823135292172
50:59.3;-0.02236324687784484;-0.3178151491631555;-0.9134254716677367;1.072;0.006492060688622724
50:59.3;-0.029713747764776866;-0.307198533856692;-0.9175238998850701;0.9440000000000001;0.008375176278079946
50:59.3;-0.03396373304543808;-0.2956685914743663;-0.9187264742713601;0.9440000000000001;0.009225859624925796
50:59.3;-0.035133184150615955;-0.28422633514825996;-0.9172599582309675;0.89;0.009159552635550197
50:59.4;-0.03346262027220389;-0.2736633157066629;-0.9135245027105767;0.9109999999999999;0.008365592974513532
50:59.4;-0.029390560635680622;-0.26455328752082774;-0.9080307268502545;0.968;0.007060274362542983
50:59.4;-0.02352559697958192;-0.25725981976121076;-0.9013700139813923;1.02;0.005455263340935047
50:59.4;-0.016602038384358656;-0.2519533427424213;-0.8942033114139802;1.006;0.003740397965402134
50:59.4;-0.009415340803349359;-0.24863350302510534;-0.8872330354792305;0.915;0.0020769851792127978
50:59.4;-0.002742800966657153;-0.24714564527627156;-0.881134577562181;0.78;0.0005972958545803828
50:59.4;0.0027382331951875272;-0.24718857249692522;-0.8764621117767654;0.7170000000000001;0.0005932421052577984
50:59.4;0.006517990785911968;-0.24833363644748688;-0.8735779291592668;0.9940000000000001;0.0014140049943610865
50:59.4;0.008291411345490609;-0.2500784360248767;-0.8726486390529025;0.9940000000000001;0.001809439729599132
50:59.4;0.007956870709412443;-0.25193047950696895;-0.873700017830845;1.008;0.0017514000555617466
50:59.5;0.005581254907006671;-0.25348976162631937;-0.8766770218469528;0.8490000000000001;0.0012403147393342852
50:59.5;0.0013459403070691593;-0.25450201397105343;-0.8814680855700472;0.8740000000000001;0.00030194206123904766
50:59.5;-0.004507815983241817;-0.2548759032435627;-0.8879017865338209;0.935;0.0010201402585432813
50:59.5;-0.011720009642446851;-0.25467266720999393;-0.8957486990412405;0.935;0.002673600364783968
50:59.5;-0.020037462362508026;-0.25407681204549637;-0.904744940029878;0.953;0.004606105851262039
50:59.5;-0.0292317826916762;-0.25335135223066224;-0.9146294038406637;0.99;0.006773664578417449
50:59.5;-0.039118344000174055;-0.25278077098350915;-0.925178330952352;0.988;0.009148501170840435
50:59.5;-0.049578704067853745;-0.25260834421302525;-0.9362233445950435;0.963;0.011725255871313216
50:59.5;-0.0605803229294195;-0.25297666004554853;-0.94764657884343;0.946;0.014523070232353559
50:59.5;-0.0721799283764722;-0.25388056020203575;-0.9593600176916897;0.946;0.01758034969808376
50:59.6;-0.08449747287517242;-0.2551418683916278;-0.9712877357689571;0.983;0.020939839904032132
50:59.6;-0.0976607058004486;-0.2564112576339446;-0.9833683054315497;1.068;0.024624825069406626
50:59.6;-0.11173743341701903;-0.25719047342088586;-0.9955792810845804;1.099;0.028610761648282686
50:59.6;-0.12667953515035635;-0.25685914566223733;-1.0079660124346552;1.05;0.032798001634487664
50:59.6;-0.14229659098873726;-0.2546995377770059;-1.020649187907823;1.06;0.036991261907929354
50:59.6;-0.1582650286023897;-0.24993163136279456;-1.0337977651256152;1.07;0.040892322148218224
50:59.6;-0.17416507482020516;-0.24178083306562734;-1.0475734170034732;1.048;0.04411308285644795
50:59.6;-0.1895255638778749;-0.22959533960391254;-1.062062756049292;1.114;0.046214796525112053
50:59.6;-0.2038578382767958;-0.21300612152369716;-1.0772146143350292;1.114;0.04677585516029769
50:59.6;-0.21667773814369795;-0.1920820558256567;-1.0927969506833757;1.173;0.04548210570261595
50:59.7;-0.2275291429537008;-0.16740923636564708;-1.1083801154966892;1.1740000000000002;0.04221873070242461
50:59.7;-0.23601879488152402;-0.14004992157591004;-1.1233419011853323;1.075;0.03713140794359997
50:59.7;-0.24186061988590157;-0.1113949088853003;-1.1368876959398888;1.091;0.030630075729433083
50:59.7;-0.24492135570260895;-0.08296421168802147;-1.1480937397699489;1.119;0.023328928631918353
50:59.7;-0.24525796999880503;-0.0562120547032633;-1.15599353041022;1.288;0.015937052123733007
50:59.7;-0.24313872181085897;-0.03237204959117891;-1.1597092044271922;1.3330000000000002;0.00912795373908307
50:59.7;-0.23904124979704988;-0.012360805857935748;-1.1585906120102554;1.218;0.0034233368991392027
50:59.7;-0.233621079085374;0.003255319899860761;-1.152309345089532;1.179;0.0008763443330861112
50:59.7;-0.22764670931894015;0.014240521170796798;-1.1408841927547624;1.179;0.003698527256165714
50:59.7;-0.22190531649332756;0.02063821719880477;-1.1246555145013426;1.0659999999999998;0.0051506187336647765
50:59.8;-0.21709422136579226;0.02270953708819154;-1.104240981634383;1.155;0.00544402870178932
50:59.8;-0.21372447379978035;0.020874247725596897;-1.0804939604697594;1.161;0.0048204483444311596
50:59.8;-0.2120620774583596;0.015657902845073263;-1.054462919442227;1.168;0.003501288665550749
50:59.8;-0.2121132469796592;0.007644362021228985;-1.0273294584006196;1.013;0.0016657843586058787
50:59.8;-0.21364357743316414;-0.002569474550878132;-1.0003042605991757;0.965;0.0005491187595569392
50:59.8;-0.2162247820717227;-0.014419768002312162;-0.9744883156439286;0.9279999999999999;0.0030383680275976287
50:59.8;-0.21930937068892276;-0.02742026049801221;-0.9507348207102112;0.897;0.005717262929339722
50:59.8;-0.22232432212966052;-0.041194985600838625;-0.9295520559354429;0.9;0.00851343937975375
50:59.8;-0.2247609561105514;-0.05548883666181693;-0.911073716667842;0.9;0.011362659921146432
50:59.8;-0.22623719831927566;-0.07015534776321534;-0.8951049875319645;0.924;0.014206881981722149
50:59.9;-0.22652060878448038;-0.08512839942632346;-0.8812350802474139;0.9690000000000001;0.01699315290781489
50:59.9;-0.22551757057752242;-0.10038222879692686;-0.8689901148658429;0.9690000000000001;0.01967216030406959
50:59.9;-0.22324512284478018;-0.11588302791979992;-0.8579879222953265;0.99;0.022196422795377875
50:59.9;-0.21980010853786436;-0.1315433140716108;-0.8480549776079146;0.948;0.024520012614875575
50:59.9;-0.21533258683636367;-0.14719403879932486;-0.8392772125692396;0.907;0.026601456204746386
50:59.9;-0.2100264448326795;-0.16258233700899302;-0.8319766269887037;0.863;0.028409164966537413
50:59.9;-0.2040877687251882;-0.17739610192840102;-0.8266278771801832;0.8190000000000001;0.029927545339340337
50:59.9;-0.1977383187120236;-0.19130936824330938;-0.8237463460216098;0.8240000000000001;0.03116165936689942
50:59.9;-0.1912112221668117;-0.20403073451277404;-0.8237841643024487;0.863;0.032138263680409576
50:59.9;-0.18474761457139652;-0.21533678130426293;-0.8270589390619708;0.863;0.032902849940741954
51:00.0;-0.17859155691709186;-0.2250890778967206;-0.8337183056035299;0.899;0.03351464955920962
51:00.0;-0.17297822181551195;-0.23324519098127686;-0.8437277252484952;0.903;0.034041324305961525
51:00.0;-0.1681124894454966;-0.23986802199652427;-0.8568673294059643;0.885;0.0345530125244468
51:00.0;-0.1641413638800164;-0.2451269884135336;-0.8727314086490702;0.8909999999999999;0.035114765568899
51:00.0;-0.16112946454212354;-0.24928369291751445;-0.890734304630383;0.903;0.035778078459279765
51:00.0;-0.1590487277798393;-0.2526616198599934;-0.9101326744157259;0.94;0.03657414495870148
51:00.0;-0.15778986169399142;-0.2556059172668414;-0.9300715540332947;0.983;0.03751166668921057
51:00.0;-0.15719536523806504;-0.25844196384908263;-0.9496517594762596;1.048;0.03858043737774879
51:00.0;-0.15710489208978096;-0.2614399236564194;-0.9680050215208906;1.048;0.03975934553358734
51:00.0;-0.15739627969534078;-0.26478943431096247;-0.984357860673592;1.042;0.04102495642680661
51:00.0;-0.1580045272139782;-0.2685865626807432;-0.9980709925813953;1.042;0.04235602984225612
51:00.1;-0.15890927539036434;-0.27283302508044915;-1.0086547841393347;1.061;0.04373093252824851
51:00.1;-0.1600945356971928;-0.27744448268994865;-1.0157710385006888;1.051;0.0451178533061504
51:00.1;-0.16149616254263655;-0.2822630531203745;-1.0192305675359037;1.087;0.04646101378749461
51:00.1;-0.16295914586034857;-0.28707035794051033;-1.0189893159327197;1.075;0.047669074589537355
51:00.1;-0.16422476115630422;-0.29159920724622357;-1.0151403739800313;1.06;0.048612849518337026
51:00.1;-0.16495574028704907;-0.29554333791268256;-1.0078987406973954;1.079;0.04913664610304196
51:00.1;-0.16479179891690662;-0.29856602577670205;-0.997578976946659;1.053;0.049082115165119594
51:00.1;-0.16341712128849162;-0.300308964880639;-0.9845680173332423;1.053;0.04831829231982728
51:00.1;-0.1606196162724093;-0.30040282457548806;-0.9692945823199464;1.038;0.046769032001421997
51:00.1;-0.1563267749482546;-0.2984819373678067;-0.9521949970271664;1.0170000000000001;0.04443010285528537
51:00.2;-0.150611014340524;-0.2942064641628429;-0.9336743664056497;0.978;0.04137179648598141
51:00.2;-0.14366551042790365;-0.2872938637164012;-0.9140639115366449;0.938;0.0377272745890867
51:00.2;-0.1357582785394106;-0.2775573003715197;-0.8935810903776321;0.9059999999999999;0.03367076214891854
51:00.2;-0.12717700255512646;-0.26494374838239054;-0.872305180972855;0.894;0.029392106536196828
51:00.2;-0.11817900518293484;-0.24956211709391612;-0.8501811626352298;0.88;0.025074395350175506
51:00.2;-0.10895963793711082;-0.23169294578518382;-0.8270571354026667;0.882;0.020879205827868386
51:00.2;-0.09964832221520556;-0.2117752649932072;-0.8027493444636793;0.847;0.01694045942785622
51:00.2;-0.09033362210914628;-0.19037317987281877;-0.777120152738725;0.847;0.013364212116329998
51:00.2;-0.08110851606656207;-0.16813224800729887;-0.7501506680337877;0.8440000000000001;0.01022977250762435
51:00.2;-0.07212072623504441;-0.14573502595646223;-0.7219894689496679;0.805;0.007588481800149097
51:00.3;-0.06361455962791832;-0.12385416991155111;-0.692961318142009;0.727;0.005459792662971785
51:00.3;-0.055955518405103155;-0.10309670929986293;-0.6635279411689792;0.677;0.0038277797699247077
51:00.3;-0.049631929932979435;-0.08394574783990827;-0.6342065824499921;0.602;0.002642351630071195
51:00.3;-0.04523186279182316;-0.06671774735370171;-0.6054652406652825;0.53;0.001827153624808941
51:00.3;-0.043400727413654236;-0.05154649528569824;-0.5776226017676744;0.488;0.001292231517521748
51:00.3;-0.044789854195286145;-0.03839107755562274;-0.5507846006120539;0.47100000000000003;0.0009470910662554861
51:00.3;-0.05000474355480403;-0.027061177938824486;-0.5248443389237598;0.504;0.0007102126745532334
51:00.3;-0.05955547349659181;-0.017254579400129432;-0.49955552846717954;0.504;0.0005133455820674119
51:00.3;-0.07380537134323838;-0.008601190103383977;-0.47466716370662676;0.5589999999999999;0.00030132537489908483
51:00.3;-0.09291344453496657;-0.0007068360882467473;-0.4500860929197458;0.64;2.955921317225551e-05
51:00.4;-0.11677536947985082;0.006809412805991224;-0.4260171201057757;0.555;0.00033875675607310447
51:00.4;-0.14498286482076084;0.014289881989914308;-0.40302603827485445;0.385;0.0008349845214120288
51:00.4;-0.17683009222807952;0.02203007752896338;-0.3819971691782345;0.391;0.0014881007772585759
51:00.4;-0.21138900632555452;0.03029038640440117;-0.3640051145523761;0.389;0.00233074465345916
51:00.4;-0.2476556791967832;0.03932283061165172;-0.35015015352832357;0.42;0.003409945086561499
51:00.4;-0.28474305850993936;0.049395844649131014;-0.34139940038912103;0.737;0.004801824860080643
51:00.4;-0.3220657104561027;0.060792513679738355;-0.3384484421246218;0.518;0.006626544359652976
51:00.4;-0.359444667564576;0.07377104731969833;-0.3415959737388687;0.518;0.009057967069637721
51:00.4;-0.3970812927889056;0.08850996546056794;-0.35063376509569455;0.38799999999999996;0.01232325211561664
51:00.4;-0.4354047970376149;0.10507948461612769;-0.36479089091773437;0.488;0.016689953578233857
51:00.5;-0.4748516316403803;0.12345799872400626;-0.38277926377633487;0.635;0.022440140415380252
51:00.5;-0.5156550829028975;0.14357486640918302;-0.40293799099266936;0.652;0.029831558341666425
51:00.5;-0.557705090520306;0.16534870435053411;-0.42341825580148085;0.631;0.03904585917506526
51:00.5;-0.6005003609608732;0.18870606805512424;-0.44235512417124395;0.6459999999999999;0.05012682537916182
51:00.5;-0.6431854756294766;0.21358585262930865;-0.45802983674164005;0.765;0.06292199457256518
51:00.5;-0.68465677464951;0.23994395362045445;-0.46906147032365014;0.991;0.07705706813523502
51:00.5;-0.7237218788481958;0.26776934879223957;-0.4746293227855384;1.167;0.09197867096164199
51:00.6;-0.7592947869725813;0.2971120015257095;-0.47464941906403607;1.112;0.10707881759063319
51:00.6;-0.7905970003383935;0.3281067319895766;-0.46980185998441476;1.071;0.12186669554854776
51:00.6;-0.8173220273100836;0.3609634015643192;-0.4613790930574092;1.071;0.1361176006483921
51:00.6;-0.8397199067848462;0.3959009667924647;-0.45102893978883135;1.071;0.14994273215668802
51:00.6;-0.8585765184662689;0.43303184281673446;-0.4404983487440972;1.023;0.163773309239833
51:00.6;-0.8750900661195207;0.4722309108311586;-0.43144090871631313;1.022;0.17829061667848126
51:00.6;-0.890672844643453;0.5130362259654907;-0.42529609622208153;0.99;0.19433796019310554
51:00.6;-0.9067274490168439;0.5546228044701937;-0.4232148091701441;1.0170000000000001;0.2128312235939868
51:00.6;-0.9244562288549901;0.595863954490927;-0.4260027006167063;1.131;0.2346636490980857
51:00.6;-0.9447464749671362;0.6354590231855218;-0.43407849150803357;1.272;0.2605980119031431
51:00.6;-0.9681333400937631;0.6720862787438611;-0.44746721587289784;1.272;0.29115310578790193
51:00.6;-0.9948073706812979;0.704543937298805;-0.46584225008770247;1.3119999999999998;0.32650207920941327
51:00.6;-1.0246312149009158;0.7318620065735214;-0.48860765772686454;1.376;0.36640134022107645
51:00.7;-1.0571542055540912;0.7533872479296663;-0.5149913009134067;1.411;0.4101630178861806
51:00.7;-1.0916346799193584;0.7688488145361968;-0.5441104128027094;1.47;0.45667297377145777
51:00.7;-1.127081297925563;0.7784007262372223;-0.5749917091106651;1.4769999999999999;0.5044522442088485
51:00.7;-1.1623183687270782;0.7826220815913264;-0.6065682883213696;1.445;0.5517684957435569
51:00.8;-1.196083993678598;0.782453284039925;-0.6376929106809;1.671;0.5968039448552782
51:00.8;-1.2271689872134617;0.7790658409043167;-0.6671827848495693;1.671;0.6378570584048286
51:00.8;-1.254575426143864;0.7736946202000702;-0.6938749985044148;1.671;0.6735154972089138
51:00.8;-1.277644371999913;0.7674768683619833;-0.7166621073356649;1.671;0.7027319887013321
51:00.8;-1.2961148644981746;0.7613290808298251;-0.7344969260611619;1.671;0.7247794865124703
51:00.8;-1.3101124984354477;0.7558702714736039;-0.7463782854816002;1.671;0.7391198237198909
51:00.8;-1.3200857343626022;0.7513881542028131;-0.7513377559313992;1.671;0.745249503304374
51:00.8;-1.326708687377656;0.7478424881328902;-0.7484445949761074;1.671;0.7425836195042059
51:00.8;-1.3307648576276636;0.7449002897744812;-0.736840190527722;1.671;0.7304201963137034
51:00.8;-1.333022367529737;0.7419983600200029;-0.715806311323508;1.671;0.7080043164237229
51:00.8;-1.3341079671176335;0.7384293031739478;-0.684863604049935;1.671;0.6746895556058358
51:00.8;-1.3343844637449125;0.7334476549785083;-0.6438880872924322;1.671;0.6301740152218661
51:00.8;-1.3338343086651938;0.7263926718156583;-0.5932240500575457;1.671;0.5747673473605944
51:00.8;-1.3319514321213888;0.7168215181884022;-0.5337647037396085;1.633;0.5096232989347566
51:00.8;-1.3276460242609422;0.7046346517116138;-0.46697556711185106;1.633;0.43685816185331017
51:00.8;-1.3191735389580341;0.6901560350348446;-0.39485326983384944;1.464;0.3594884654084125
51:00.9;-1.3041078008252203;0.6741289239813664;-0.3198345576476134;1.3090000000000002;0.28117832586996044
51:00.9;-1.2793875368844476;0.6576227255330716;-0.24468805454514359;1.2830000000000001;0.2058693515039116
51:00.9;-1.2414734444603295;0.6418932635221245;-0.17242497746714813;1.194;0.1374043335806748
51:00.9;-1.1866527312127457;0.6282571808788078;-0.1062323337563604;1.2670000000000001;0.07919865873913096
51:00.9;-1.111510523549724;0.6180199660468578;-0.049363788272684284;1.7069999999999999;0.03390974825552344
51:00.9;-1.0135330020560342;0.6124395226552233;-0.0048801714373702815;1.871;0.003029257435634682
51:00.9;-0.8917184325588636;0.612638086767242;0.024802004637187625;1.263;0.013549351861204706
51:00.9;-0.7470285453917085;0.6193863878964028;0.03842672208240894;0.978;0.017780017884766023
51:00.9;-0.5825798422342777;0.6328282371026253;0.036239532913849154;1.034;0.013360536395022406
51:00.9;-0.4035694367449753;0.6523415992322054;0.019993468023022237;1.186;0.005263582993569398
51:24.6;-0.21693472727272464;0.6766595532662351;-0.00735564365673324;0.94;0.0010797419617507645
51:24.7;-0.030707809267189686;0.7041878670377616;-0.04212764898159389;1.143;0.000910971091882474
51:24.7;0.1469075636470112;0.7333741863144375;-0.08042888550411983;1.143;0.008665264554878179
51:24.7;0.3085321969453715;0.7630242103114345;-0.11859215506761427;1.143;0.027918672926633654
51:24.7;0.4483895561735838;0.7925085609537876;-0.15349120043732084;1.143;0.054543491306017856
51:24.7;0.5626988980156351;0.8218338102903776;-0.18272357607968023;1.143;0.08449960037649804
51:24.7;0.6497090435696186;0.8515820111553514;-0.20468615435788945;1.143;0.1132488647832543
51:24.7;0.7094892782174425;0.8827436354498128;-0.21857525231886366;1.143;0.13689305644388422
51:24.7;0.7435915013327331;0.9164739575321666;-0.22433969858880753;1.143;0.15288352166433597
51:24.7;0.7546715230169856;0.9538036425001076;-0.2226084118832784;1.143;0.16023541536809482
51:24.7;0.7461310096471433;0.9953358433699665;-0.21460647116688691;1.143;0.15937769705965543
51:24.7;0.7218164772266962;1.0409646094058245;-0.2020659620985206;1.143;0.151829415228615
51:24.7;0.6857890475589393;1.0896527244758363;-0.18713076200531625;1.143;0.13983756083720478
51:24.7;0.6421592095944062;1.1393108141663164;-0.17224847325180329;1.143;0.1260202440231649
51:24.7;0.5949650663195983;1.186823012776244;-0.16003843903154039;1.143;0.11300605970197751
51:24.7;0.5480607593444395;1.2282668027533574;-0.15312258180313723;1.143;0.10307673775844788
51:24.7;0.5049837381162404;1.25936163333477;-0.15390822280615257;1.74;0.09787903400500372
51:24.7;0.4687981424180961;1.2761150753476493;-0.16431422863744427;2.0540000000000003;0.09829940605936884
51:24.7;0.44194861836474036;1.2755168999631006;-0.18543926381818168;2.843;0.10453451104803066
51:24.7;0.42619340265368444;1.2560469028067924;-0.21725198736662168;1.9180000000000001;0.11629909563853766
51:24.7;0.422694606982674;1.2178030088205065;-0.2585077846150988;2.116;0.13306914774343692
51:24.7;0.43219447631154634;1.1622438529817989;-0.3070078666504517;1.6569999999999998;0.15421477116889415
51:24.7;0.4549797254929226;1.0917717638393014;-0.36001369085477336;2.011;0.17883104698180394
51:24.7;0.4904835304392074;1.009428107780666;-0.41456713289369773;1.7309999999999999;0.20525544683442043
51:24.7;0.536863838209781;0.9187601750351404;-0.46774020646483166;1.9280000000000002;0.2307124424039556
51:24.7;0.5910149161705719;0.8237063404179352;-0.5169485524098838;1.026;0.2516623074826047
51:24.7;0.6490663657898423;0.7283620611732411;-0.5602611258773946;2.036;0.26486642562064205
51:24.7;0.707091544153248;0.6366357178162625;-0.5965439673821226;1.128;0.2685400729445662
51:24.7;0.7617233589857654;0.5518952518368723;-0.6254183464291682;1.128;0.26292055993340835
51:24.7;0.8104909719341132;0.4767128737447063;-0.6471132209611409;1.128;0.2500260931528942
51:24.7;0.8518637238335577;0.4127720779090868;-0.6622713085925793;1.128;0.23287151934661424
51:24.7;0.8851142603255276;0.36093511656571914;-0.6717446145002078;1.128;0.21460145847897613
51:24.7;0.9101075106660074;0.3214207157212559;-0.6764087449498463;1.128;0.19786809654450516
51:24.7;0.9270713625581557;0.2940310235729306;-0.6770146151915147;1.128;0.18454588502460018
51:24.7;0.9363824811288471;0.27837562789772136;-0.6740877582530237;1.128;0.17571180080426285
51:24.7;0.9383926555093813;0.2740526124647702;-0.6678804968563401;1.128;0.1717581319527226
51:24.7;0.9333130645761529;0.28075871839401484;-0.6583779797434713;1.128;0.17251858737183642
51:24.7;0.9211661137670757;0.2983125097121522;-0.6453553176693981;1.128;0.17734065669477045
51:24.7;0.9018070248029287;0.3265859500426026;-0.6284795472690633;1.128;0.18509822754553518
51:24.7;0.8750100673337579;0.3653510153445884;-0.607446671056691;1.128;0.1941920850395167
51:24.7;0.84060706674956;0.4140589516928051;-0.5821403900706185;1.128;0.20262029694278322
51:24.7;0.7986584843392596;0.47158052891426;-0.5527952788359684;1.128;0.20820027562945717
51:24.7;0.7496299010863421;0.5359459904494486;-0.5201430953508557;1.128;0.20897328285154676
51:24.7;0.6945392260709492;0.6041330054444821;-0.48551686394388255;1.128;0.20371999701785704
51:24.7;0.6350326283756318;0.6719592059277834;-0.4508836570508645;1.128;0.19239927993609493
51:24.7;0.5733404432982553;0.7341420287144947;-0.4187741028343266;1.128;0.17626759635725264
51:24.7;0.5120586323049476;0.7845915953810602;-0.39207511201861717;1.128;0.15751888127721872
51:24.7;0.45371896732972017;0.8169815555746431;-0.3736652615407909;1.704;0.13851024950697105
51:24.7;0.40020873502914994;0.8255481230065395;-0.3659325879842633;1.008;0.1209010422634568
51:24.7;0.3522530851195904;0.8059275315216823;-0.3703070433724423;1.024;0.10512663664773807
51:24.7;0.3092077839895523;0.7558130704153972;-0.3869647789031803;1.024;0.09043493985940401
51:24.7;0.2692662425387994;0.6753342921807917;-0.41478467545623415;1.042;0.07542640620200049
51:24.7;0.23002918737489964;0.567165498292556;-0.4515534726270057;1.26;0.05891175161960356
51:24.7;0.18928978684818015;0.43637611940283744;-0.49435903047763113;1.944;0.04083481852923774
51:24.7;0.14576886321492316;0.29000819701467556;-0.540042022595555;0.821;0.022829825679139618
51:24.7;0.09948013393968605;0.13635281102678712;-0.5855632229782616;0.9490000000000001;0.007942811383297896
51:24.7;0.05159014033558551;-0.016036425718710657;-0.6282477151478185;0.934;0.0005197628127344506
51:24.7;0.003941945513573994;-0.15938956305302243;-0.6659550363341293;0.934;0.0004184228611147254
51:24.7;-0.041466790460999645;-0.28753841278538295;-0.6971950370736775;0.934;0.008312862177971874
51:24.7;-0.08287113728677781;-0.3963423225964162;-0.7211674572332859;0.934;0.02368698962911104
51:24.7;-0.1189582860950977;-0.4837432303141889;-0.7377226960561387;0.934;0.04245244847505396
51:24.7;-0.14895057997090094;-0.549557510547979;-0.7472674475073511;0.934;0.06116900413936253
51:24.7;-0.17259254682848052;-0.5951128791325917;-0.7506397316826717;0.934;0.07709974374589497
51:24.7;-0.19007780273697777;-0.6228184509465146;-0.7489703329802146;0.934;0.08866607593294878
51:24.7;-0.2019456519188948;-0.6357350223652765;-0.7435417495747171;0.9079999999999999;0.09545880712562498
51:24.7;-0.20896978645210634;-0.6371912644561105;-0.7356540062099874;0.9079999999999999;0.0979550693713411
51:24.7;-0.21205311354936204;-0.6304708556970341;-0.7265093770078169;0.9079999999999999;0.09712944187082057
51:24.7;-0.21213589979879496;-0.618579121198478;-0.7171285461657221;0.9079999999999999;0.09410364337729883
51:24.7;-0.21012097028902532;-0.6040878841944688;-0.7083039194292451;0.9079999999999999;0.08990610187455471
51:24.7;-0.20681816589113786;-0.5890519040742366;-0.7005867266278979;0.9079999999999999;0.08535012302111991
51:24.7;-0.20290854756017124;-0.5749864720721188;-0.6942998880307236;0.9079999999999999;0.08100373875849697
51:24.7;-0.19892691879064542;-0.5628930764690425;-0.6895681488928105;0.9079999999999999;0.07721410751565244
51:24.7;-0.1952598420737728;-0.5533190991169641;-0.6863579357051437;0.9079999999999999;0.07415479766973394
51:24.7;-0.1921556042328036;-0.5464381027835774;-0.6845206844609883;0.9079999999999999;0.07187545483425542
51:24.7;-0.1897424026935169;-0.5421389210197105;-0.683834843103257;0.9079999999999999;0.07034386201227935
51:24.7;-0.18805123932689424;-0.5401140260957712;-0.6840432001712591;0.9079999999999999;0.06947766040087382
51:24.7;-0.1870404870468901;-0.5399401554558102;-0.6848835226138772;0.9079999999999999;0.06916684558282646
51:24.7;-0.1866197191861969;-0.5411466353561495;-0.686111620748371;0.9079999999999999;0.06928947475310865
51:24.7;-0.18667106599358949;-0.5432690481005842;-0.6875168565370693;0.9079999999999999;0.06972288044251189
51:24.7;-0.18706701258795885;-0.5458877207217381;-0.6889307620865951;0.9079999999999999;0.07035194574182745
51:24.7;-0.18768412731229014;-0.5486519094285544;-0.6902298511729018;0.9079999999999999;0.07107521434872845
51:24.7;-0.18841267834150852;-0.5512915107268529;-0.6913339164165094;0.9079999999999999;0.07180906826906576
51:24.7;-0.18916244687167977;-0.5536186813724377;-0.6922011467210827;0.9079999999999999;0.07248997902832358
51:24.7;-0.18986527833063888;-0.5555219555282181;-0.692821315778308;0.9079999999999999;0.07307486457997558
51:24.7;-0.1904750398051773;-0.5569553825337981;-0.6932081241333822;0.9079999999999999;0.07353974544722529
51:24.7;-0.19096568954423965;-0.5579249499702361;-0.6933915617975919;0.9079999999999999;0.07387707305487133
51:24.7;-0.19132813330495924;-0.5584741775581936;-0.6934109269161851;0.9079999999999999;0.07409222086028198
51:24.7;-0.19156646327141835;-0.558670331927355;-0.693308912696691;0.9079999999999999;0.07419965284700583
51:24.7;-0.19169406765915892;-0.5585922722026158;-0.6931269765875226;0.9079999999999999;0.0742192221050654
51:24.7;-0.19172997955597443;-0.5583205299749215;-0.69290204274529;0.9079999999999999;0.07417293516278999
51:24.7;-0.19169571524335283;-0.5579298797127008;-0.6926644655126217;0.9079999999999999;0.07408238142961912
51:24.7;-0.19161274474400944;-0.5574843803630414;-0.6924370976848621;0.9079999999999999;0.07396690095397583
51:24.7;-0.19150064670295347;-0.5570346693148224;-0.692235259133283;0.9079999999999999;0.07384246527130625
51:24.7;-0.19137592890320498;-0.5566171620670688;-0.692067383064795;0.9079999999999999;0.07372118134709402
51:24.7;-0.19125144520102194;-0.556254745721178;-0.6919361219333074;0.9079999999999999;0.07361129498349843
51:24.7;-0.19113630802321022;-0.5559585396668915;-0.6918397156795437;0.9079999999999999;0.07351756054762666
51:24.7;-0.1910361801441402;-0.5557303193193364;-0.6917734549586798;0.9079999999999999;0.07344185033288696
51:24.7;-0.19095382693340784;-0.5555652456329632;-0.6917311056826684;0.9079999999999999;0.07338389208251388
51:24.7;-0.19088981714350808;-0.5554546029898151;-0.6917061941767922;0.9079999999999999;0.07334204188077587
51:24.7;-0.19084327330383138;-0.5553883117368663;-0.6916930815250647;0.9079999999999999;0.07331401842879537
51:24.7;-0.1908125890904404;-0.5553570424657919;-0.6916877796159879;0.9079999999999999;0.07329754196079191
51:24.7;-0.19079604847181136;-0.5553538130126425;-0.6916884796016322;0.9079999999999999;0.07329083612697845
51:24.7;-0.19079229850615098;-0.5553749944348055;-0.6916957766001082;0.9079999999999999;0.07329296413263184
51:24.7;-0.19080064357845364;-0.5554206892729325;-0.6917125839566933;0.9079999999999999;0.07330398167188437
51:24.7;-0.19082114339642087;-0.5554944761568735;-0.6917437382055298;0.9079999999999999;0.07332489926117322
51:24.7;-0.19085451044801666;-0.5556025421850974;-0.6917953042369892;0.9079999999999999;0.073357456039716
51:24.7;-0.19090181537772796;-0.5557522517916527;-0.6918736011848604;0.9079999999999999;0.0734037165566889
51:24.7;-0.19096402147711952;-0.5559502310666772;-0.6919839849204471;0.9079999999999999;0.07346551210620046
51:24.7;-0.19104138272440446;-0.5562000819299392;-0.6921294438097749;0.9079999999999999;0.0735437593855591
51:24.7;-0.1911327537823695;-0.5564998820009192;-0.6923090906317939;0.9079999999999999;0.07363770214382354
51:24.7;-0.1912348748648898;-0.5568396724449428;-0.6925166641599658;0.9079999999999999;0.07374413633692499
51:24.7;-0.1913417086288366;-0.5571991842938445;-0.6927391864121246;0.9079999999999999;0.07385669591431453
51:24.7;-0.19144391881031092;-0.5575460981602609;-0.6929559520718456;0.9079999999999999;0.07396529367136273
51:24.7;-0.1915285891073476;-0.5578351649565944;-0.6931380497729979;0.9079999999999999;0.074055827222876
51:24.7;-0.1915792831183519;-0.55800852618671;-0.6932486242876595;0.9079999999999999;0.07411026993135215
51:24.7;-0.19157653882605352;-0.557997550080174;-0.6932440767637897;0.9079999999999999;0.07410726446760388
51:24.7;-0.19149887081072584;-0.5577264321268267;-0.6930763592913624;0.9079999999999999;0.07402331498407067
51:24.7;-0.19132431685279927;-0.5571176838398845;-0.6926964429112206;0.9079999999999999;0.07383462486648157
51:24.7;-0.19103251016474568;-0.5560994422573833;-0.6920589187210631;0.9079999999999999;0.07351954518686274
51:24.7;-0.19060718253293926;-0.5546142689323608;-0.6911275263492469;0.9079999999999999;0.0730614843189177
51:24.7;-0.19003890705428558;-0.5526287705900452;-0.6898811925955849;0.9079999999999999;0.07245199035451702
51:24.7;-0.18932777383988644;-0.5501429709939843;-0.6883199097991176;0.9079999999999999;0.07169357362145626
51:24.7;-0.18848556232947827;-0.5471979099823358;-0.6864694980675526;0.9079999999999999;0.07080171287416337
51:24.7;-0.18753683655243877;-0.5438794651294769;-0.684383993060191;0.9079999999999999;0.06980541140660083
51:24.7;-0.18651825399164296;-0.540315916384437;-0.6821441019357275;0.9079999999999999;0.06874565128311087
51:24.7;-0.18547541348715096;-0.5366668953462888;-0.6798502458968143;0.868;0.06767128343612426
51:24.7;-0.18445725801793342;-0.5331037767076449;-0.6776102259262725;0.868;0.06663270730443813
51:24.7;-0.18350940470592716;-0.5297863166004461;-0.6755245319478961;0.868;0.06567501621766145
51:24.7;-0.18266854152693374;-0.5268430270231885;-0.6736740027675129;0.868;0.06483280111391315
51:24.7;-0.1819592635168593;-0.5243600916094667;-0.6721128569480438;0.868;0.06412775025739043
51:24.7;-0.1813933652138652;-0.5223788814333796;-0.6708671311200703;0.868;0.06356872828853644
51:24.7;-0.18097091615605274;-0.5208997145243268;-0.6699370441763872;0.868;0.0631534233365357
51:24.7;-0.18068241197302182;-0.5198893825756808;-0.6693017302599219;0.868;0.06287076941838382
51:24.7;-0.18051142978921414;-0.5192904448442187;-0.6689250830171741;0.868;0.06270360623368065
51:24.7;-0.18043735442853262;-0.5190307713953656;-0.6687617567214287;0.868;0.06263123667532194
51:24.7;-0.18043787200878839;-0.5190322732110972;-0.6687626561684189;0.868;0.06263168179153994
51:24.7;-0.18049104302940305;-0.5192181610352903;-0.6688795014870786;0.868;0.06268352573570385
51:24.7;-0.1805768635965183;-0.5195184128049624;-0.6690682665155218;0.868;0.06276730500995971
51:24.7;-0.1806782989796399;-0.5198733940337686;-0.669291455718497;0.868;0.0628664396962295
51:24.7;-0.18078182825786787;-0.5202357665821754;-0.6695193047690061;0.868;0.0629677369263218
51:24.7;-0.180877573957731;-0.5205709443405954;-0.6697300673238439;0.868;0.06306152159971783
51:24.7;-0.1809591089446672;-0.520856418688646;-0.6699095909876668;0.868;0.06314146660224679
51:24.7;-0.18102303764537495;-0.5210802935100225;-0.670050396109098;0.868;0.06320420392505488
51:24.7;-0.1810684433860295;-0.5212393510687712;-0.6701504594495311;0.868;0.06324879897534483
51:24.7;-0.18109628154568133;-0.5213369277887585;-0.67021187820413;0.868;0.06327616384979186
51:24.7;-0.1811087823041583;-0.5213808232824607;-0.6702395548480458;0.868;0.06328847319519457
51:24.7;-0.18110890946990585;-0.5213814054612573;-0.6702400052445356;0.868;0.06328863083134079
51:24.7;-0.1810999051007965;-0.5213500158627713;-0.6702203555570431;0.868;0.06327981891289824
51:24.7;-0.18108493470730805;-0.5212977270981998;-0.6701875606750408;0.868;0.06326514603709972
51:24.7;-0.18106683555599115;-0.5212344613664375;-0.6701478498604405;0.868;0.06324739773128987
51:24.7;-0.1810479613268399;-0.521168446544469;-0.6701063849269812;0.868;0.06322888289342485
51:24.7;-0.18103011012007209;-0.521105964440747;-0.6700671024744849;0.868;0.0632113631553645
51:24.7;-0.18101451929611098;-0.5210513334794291;-0.6700327039385278;0.868;0.06319604852649847
51:24.7;-0.1810019094411514;-0.5210070638756551;-0.6700047545434447;0.868;0.06318364154287073
51:24.7;-0.18099256036868835;-0.5209741254761714;-0.6699838535362928;0.868;0.06317441288389214
51:24.7;-0.1809864039655977;-0.5209522750230194;-0.669969842166298;0.868;0.0631682934192945
51:24.7;-0.18098312137230887;-0.5209403989104067;-0.6699620216652344;0.868;0.06316497037599675
51:24.7;-0.18098223501824717;-0.5209368380368116;-0.669959360032888;0.868;0.0631639783295015
51:24.7;-0.18098318906838678;-0.5209396718939335;-0.6699606729812236;0.868;0.06316477869480906
51:24.7;-0.18098541461778464;-0.5209469486903703;-0.669964770388278;0.868;0.06316682408509146
51:24.7;-0.18098837832975706;-0.5209568565007157;-0.6699705647030157;0.868;0.06316960617747903
51:24.7;-0.18099161505973033;-0.52096783685666;-0.6699771417463809;0.868;0.06317268750194367
51:24.7;-0.18099474631534435;-0.5209786467805787;-0.6699837972375905;0.868;0.0631757188368132
51:24.7;-0.18099748719816344;-0.5209883781025625;-0.669990044214027;0.868;0.06317844468173014
51:24.7;-0.1809996448116639;-0.5209964442164412;-0.6699955974574341;0.868;0.06318069964486318
51:24.7;-0.18100111108290798;-0.5210025445056861;-0.6700003412786925;0.868;0.06318239860308614
51:24.7;-0.18100185261956572;-0.5210066158197686;-0.6700042867504402;0.868;0.06318352325671124
51:24.7;-0.18100189969836655;-0.5210087789134075;-0.6700075239023633;0.868;0.0631841072886305
51:24.7;-0.18100133583900468;-0.5210092859539894;-0.6700101736713008;0.868;0.06318422182883024
51:24.7;-0.18100028873366011;-0.5210084732920804;-0.6700123436514984;0.868;0.06318396238549638
51:24.7;-0.18099892264126852;-0.5210067218625904;-0.6700140909988495;0.868;0.0631834378863289
51:24.7;-0.18099743177217467;-0.5210044259762355;-0.670015395240756;0.868;0.06318276201756723
51:24.7;-0.18099603372846454;-0.5210019699629809;-0.6700161432221601;0.868;0.0631820466801609
51:24.7;-0.18099496176569502;-0.5209997111923131;-0.6700161279347716;0.868;0.06318139711801718
51:24.7;-0.18099445453317736;-0.5209979674387524;-0.6700150624612395;0.868;0.06318090811884348
51:24.7;-0.18099474205513785;-0.5209970063796295;-0.6700126096357528;0.868;0.06318066064327679
51:24.7;-0.1809960270479025;-0.5209970351818357;-0.670008427193836;0.868;0.06318071829684473
51:24.7;-0.18099846123139582;-0.5209981886166396;-0.6700022270879292;0.868;0.0631811232115539
51:24.7;-0.1810021170745645;-0.5210005148863186;-0.669993846242485;0.868;0.06318189113536393
51:24.7;-0.18100695638260136;-0.5210039592911397;-0.6699833243180838;0.868;0.06318300582029612
51:24.7;-0.18101279823425315;-0.5210083469354674;-0.6699709821115976;0.868;0.0631844131308431
51:24.7;-0.18101928992779281;-0.5210133667785668;-0.6699574921699116;0.868;0.06318601563614211
51:24.7;-0.18102588568234346;-0.5210185603745312;-0.6699439312430815;0.868;0.06318766876925516
51:24.7;-0.18103183872544087;-0.5210233194964624;-0.6699318026268157;0.868;0.06318917989703077
51:24.7;-0.18103621291050562;-0.5210268973687552;-0.669923015585169;0.868;0.06319031180255057
51:24.7;-0.18103791996443055;-0.52102843829596;-0.6699198092876942;0.868;0.0631907920951612
51:24.7;-0.1810357876774987;-0.5210270299362403;-0.669924610439512;0.868;0.06319032988754843
51:24.7;-0.18102866264327225;-0.521021781195749;-0.6699398173962625;0.868;0.06318864067704358
51:24.7;-0.18101554840436163;-0.5210119266241987;-0.6699675093224596;0.868;0.06318547971074703
51:24.7;-0.1809957760019495;-0.5209969552332724;-0.6700090870062271;0.868;0.06318068318752504
51:24.7;-0.18096919900770336;-0.5209767578793227;-0.6700648622018464;0.868;0.06317421546209892
51:24.7;-0.18093639931845434;-0.5209517828947382;-0.6701336244616625;0.868;0.06316621900320167
51:24.7;-0.18089888366508164;-0.5209231847887574;-0.6702122276185735;0.868;0.06315706229147211
51:24.7;-0.180859244462306;-0.5208929459796932;-0.6702952512747355;0.868;0.06314737924131375
51:24.7;-0.18082125303317295;-0.5208639472235506;-0.6703748043207274;0.868;0.06313809226696852
51:24.7;-0.1807898492872014;-0.520839959361115;-0.6704405457555551;0.868;0.06313041002024661
51:24.7;-0.1807709906593918;-0.5208255280137418;-0.6704800007130256;0.868;0.06312579039955726
51:24.7;-0.18077132564090687;-0.5208257247651179;-0.670479244293094;0.868;0.06312586000590144
51:24.7;-0.1807976646257485;-0.5208457439907009;-0.6704240102952966;0.868;0.06313228314813338
51:24.7;-0.180856233957673;-0.5208903345210505;-0.6703012543751842;0.868;0.06314657706756982
51:24.7;-0.18095171853501768;-0.5209630701661829;-0.6701011603454986;0.868;0.0631698754037821
51:24.7;-0.18108612412104105;-0.5210654827871274;-0.6698195243134738;0.868;0.06320264894722596
51:24.7;-0.18125752186838673;-0.5211961055095037;-0.6694603856441291;0.868;0.06324440095596227
51:24.7;-0.18145877281033307;-0.5213495005454121;-0.6690386999020939;0.868;0.06329336288806159
51:24.7;-0.18167636640920481;-0.521515373798177;-0.6685827727946669;0.868;0.06334622410085836
51:24.7;-0.18188954070016275;-0.5216779039334118;-0.6681361040622363;0.868;0.06339793450785658
51:24.7;-0.18206987695538984;-0.5218154329681346;-0.6677582370734241;0.868;0.0634416211388457
51:24.7;-0.18218157290027592;-0.5219006739169907;-0.6675241866121995;0.868;0.06346865736567285
51:24.7;-0.1821825883749242;-0.5219015833322539;-0.6675220385858263;0.868;0.0634689174959174
51:24.7;-0.182026818727578;-0.5217830171755967;-0.6678483962718506;0.868;0.06343124069684337
51:24.7;-0.18166737734537677;-0.5215092321757696;-0.6686015025206767;0.868;0.06334411834579266
51:24.7;-0.18106095403465577;-0.5210472074346174;-0.6698721076412862;0.868;0.06319660846643389
51:24.7;-0.18017305717005583;-0.5203706400357975;-0.6717324854111397;0.868;0.06297946751606928
51:24.7;-0.17898374463410877;-0.5194643137793358;-0.6742244247786049;0.868;0.06268646633235028
51:24.7;-0.1774932058113016;-0.5183283551426878;-0.6773475334747401;0.868;0.06231581147618771
51:24.7;-0.1757262835169229;-0.5169816821902933;-0.6810497625737889;0.868;0.061871511430803994
51:24.7;-0.17373473526636823;-0.5154637314950148;-0.6852226675835266;0.868;0.06136439989026966
51:24.7;-0.17159574720632845;-0.5138333300441079;-0.6897045210886366;0.868;0.06081236095124046
51:24.7;-0.16940528598974516;-0.512163633800712;-0.6942942412253754;0.889;0.060239208757332456
51:24.7;-0.16726632278888157;-0.5105331584018353;-0.6987760644776361;0.889;0.05967198486845718
51:24.7;-0.16527481155950813;-0.5090150972147314;-0.7029489242405303;0.889;0.059137247244462746
51:24.7;-0.16350791411427087;-0.5076683489184266;-0.7066511223459507;0.889;0.05865754994097827
51:24.7;-0.16201735413393706;-0.5065324497853378;-0.7097742549769902;0.889;0.058249077353532804
51:24.7;-0.16082793433023604;-0.5056264360854538;-0.7122663214372922;0.889;0.05792068189837982
51:24.7;-0.15993980204225902;-0.504950558281695;-0.7141269800523625;0.889;0.05767410344947086
51:24.7;-0.1593329765368976;-0.5044897141363769;-0.7153980662857667;0.889;0.0575050184702933
51:24.7;-0.1589729372797796;-0.5042176861989056;-0.7161518888168753;0.889;0.05740456303489493
51:24.7;-0.15881636179107994;-0.5041014901762686;-0.7164792129370774;0.889;0.05736101386368571
51:24.7;-0.15881637492326542;-0.5041053495406752;-0.7164782679922473;0.889;0.05736138210608172
51:24.7;-0.15892691397043113;-0.5041939972964524;-0.7162456071732156;0.889;0.057392757661257995
51:24.7;-0.1591060167242942;-0.5043351610262106;-0.7158692230599326;0.889;0.0574433212300306
51:24.7;-0.15931799820919643;-0.504501208862862;-0.7154239898231719;0.889;0.05750300638150451
51:24.7;-0.15953459639238024;-0.504670021808242;-0.714969262832827;0.889;0.05756383997107319
51:24.7;-0.15973524099878908;-0.5048252142471816;-0.7145483116826311;0.889;0.057620016327987855
51:24.7;-0.15990663823649254;-0.5049558537008352;-0.7141891816690222;0.889;0.057667771842411675
51:24.7;-0.16004187460201227;-0.5050558379063147;-0.7139065572517653;0.889;0.05770512633202992
51:24.7;-0.16013923223911325;-0.5051230776156882;-0.7137042238022565;0.889;0.05773155024754897
51:24.7;-0.16020088355521153;-0.5051586123241293;-0.7135777763942207;0.889;0.05774760597635565
51:24.7;-0.16023160017935256;-0.505165758193319;-0.7135172934752396;0.889;0.05775459973869297
51:24.7;-0.16023757602636007;-0.5051493567304448;-0.7135097681648639;0.889;0.057754269355201365
51:24.7;-0.1602254301478633;-0.5051151624949477;-0.7135411623686603;0.889;0.05774852326589935
51:24.7;-0.16020142490854716;-0.5050693806053178;-0.7135980131338948;0.889;0.05773923790101506
51:24.7;-0.16017091039263257;-0.5050183417479774;-0.7136685733108337;0.889;0.05772811390429546
51:24.7;-0.1601379874093066;-0.5049682847812283;-0.7137435082526646;0.889;0.05771658674511185
51:24.7;-0.16010536883412466;-0.5049252054354537;-0.7138161972225312;0.889;0.05770578383866435
51:24.7;-0.16007441153785013;-0.5048947242424466;-0.713882703780338;0.889;0.05769651830676069
51:24.7;-0.16004528770147253;-0.5048819276381821;-0.7139414858356727;0.889;0.05768930880501087
51:24.7;-0.16001726362259597;-0.5048911429436418;-0.7139929157687227;0.889;0.057684415228236155
51:24.7;-0.1599890549194939;-0.5049256202393166;-0.714038676553131;0.889;0.057681881361191914
51:24.7;-0.15995922821956415;-0.5049871114233755;-0.714081093437657;0.889;0.0576815774162178
51:24.7;-0.159926620121564;-0.5050753581469638;-0.7141224542963479;0.889;0.057683237628851795
51:24.7;-0.15989074392484884;-0.5051875246904586;-0.7141643665137682;0.889;0.057686490402816946
51:24.7;-0.15985215318638527;-0.5053176376036815;-0.7142071948720025;0.889;0.05769088065987277
51:24.7;-0.15981272886077572;-0.5054561190132026;-0.7142496233389227;0.889;0.05769588584737318
51:24.7;-0.15977585425045776;-0.5055895223068493;-0.7142883832961607;0.889;0.057700928338654006
51:24.7;-0.15974644023524343;-0.5057005943443384;-0.7143181904287258;0.889;0.05770538767090411
51:24.7;-0.15973076351820215;-0.505768793928205;-0.7143319306541545;0.889;0.057708616258326045
51:24.7;-0.15973608432303052;-0.505771388340694;-0.7143211302824779;0.889;0.057709962067840466
51:24.7;-0.15977001850885691;-0.5056852248084165;-0.7142767352203575;0.889;0.057708801499408845
51:24.7;-0.15983965364632777;-0.5054892289086143;-0.7141902068282204;0.889;0.0577045855988487
51:24.7;-0.15995042003416077;-0.5051676154676252;-0.7140549168653889;0.889;0.057696902789186856
51:24.7;-0.1601047560974878;-0.5047137095374338;-0.7138677904638175;0.889;0.057685561205655975
51:24.7;-0.1603006423842007;-0.5041341681930684;-0.7136311049971984;0.889;0.05767069261724938
51:24.7;-0.1605301176395513;-0.5034532739579891;-0.7133543061691495;0.889;0.057652876495690966
51:24.7;-0.16077793107754307;-0.50271684712179;-0.7130556543313532;0.889;0.05763327559286307
51:24.7;-0.1610205224703873;-0.501995210565109;-0.7127634693712577;0.889;0.05761376252918567
51:24.7;-0.16122555015162932;-0.5013845544477318;-0.7125167085845621;0.889;0.05759700110286229
51:24.7;-0.16135219936346482;-0.5010060102733946;-0.7123645973652273;0.889;0.05758642969171536
51:24.7;-0.16135249159652662;-0.5010017779546844;-0.7123650469604308;0.889;0.05758608386336998
51:24.7;-0.16117377138797334;-0.501527779968873;-0.7125816469819743;0.889;0.05760020045491044
51:24.7;-0.16076246265059152;-0.502742566511053;-0.7130791223043292;0.889;0.05763257571345715
51:24.7;-0.1600690556403246;-0.5047925834162856;-0.7139173021276504;0.889;0.057685711768516064
51:24.7;-0.15905410434408543;-0.5077944516346016;-0.7151438679450702;0.889;0.05775987581473203
51:24.7;-0.15769478235192483;-0.5118155932020868;-0.7167864269884611;0.889;0.0578522974115113
51:24.7;-0.15599126799769625;-0.5168553595940939;-0.7188447926171311;0.889;0.05795680599223728
51:24.7;-0.15397191724859655;-0.5228297428425318;-0.7212847303387651;0.889;0.058064212690815936
51:24.7;-0.15169585209907527;-0.5295637286970393;-0.724034827658037;0.889;0.05816361544844936
51:24.7;-0.14925126533967134;-0.5367963185363661;-0.7269885408410696;0.889;0.05824452606417739
51:24.7;-0.1467478248472524;-0.5442030036137873;-0.7300133722013352;0.95;0.058299311062751547
51:24.7;-0.1443032164510935;-0.551435576662166;-0.7329671305835466;0.95;0.058325073219453225
51:24.7;-0.14202711918287528;-0.5581695373145082;-0.7357172948766235;0.95;0.058324144082288004
51:24.7;-0.14000774720927195;-0.5641439030130392;-0.7381572764601945;0.95;0.05830299592371186
51:24.7;-0.1383042522416248;-0.5691836818519003;-0.7402156004440053;0.95;0.058270159574750194
51:24.7;-0.1369450254605289;-0.5732048923655235;-0.741857958411187;0.95;0.058234038547750964
51:24.7;-0.1359302821023436;-0.5762069138453082;-0.7430840862691444;0.95;0.05820129445307995
51:24.7;-0.13523722962373416;-0.5782571939230423;-0.7439215201996658;0.95;0.058176077012043456
51:24.7;-0.13482644732299856;-0.5794723727909404;-0.744417888643722;0.95;0.05816003068894826
51:24.7;-0.13464843613326177;-0.5799989046137073;-0.744632998516138;0.95;0.05815281804373486
51:24.7;-0.1346496097478984;-0.5799953322982728;-0.7446315963232295;0.95;0.0581528572294113
51:24.7;-0.13477727568103345;-0.5796175509662321;-0.7444773496248895;0.95;0.05815803040172743
51:24.7;-0.1349833867524561;-0.5790077094417416;-0.7442283140936342;0.95;0.05816622186526776
51:24.7;-0.13522702496587208;-0.5782868621719809;-0.7439339321390221;0.95;0.05817564238206664
51:24.7;-0.1354757108278377;-0.5775510962181307;-0.7436334506806916;0.95;0.05818496376466441
51:24.7;-0.13570571558955444;-0.5768706081723065;-0.7433555436277378;0.95;0.058193320147095086
51:24.7;-0.13590159801373441;-0.5762910753437012;-0.7431188713100693;0.95;0.05820023626641315
51:24.7;-0.13605519885245457;-0.5758366313006862;-0.7429332951107387;0.95;0.05820553052956375
51:24.7;-0.13616431352499161;-0.5755137934289292;-0.7428014808921447;0.95;0.05820922253172881
51:24.7;-0.1362312344668463;-0.5753157760190393;-0.7427206598758608;0.95;0.05821145837733785
51:24.7;-0.13626131639037312;-0.5752267355022742;-0.7426843618370836;0.95;0.05821245600355184
51:24.7;-0.13626167616379511;-0.5752256173248853;-0.7426839856685514;0.95;0.058212467059597116
51:24.7;-0.13624009873184803;-0.5752893931221348;-0.7427101210530254;0.95;0.058211750420283224
51:24.7;-0.1362041846561449;-0.5753955828912087;-0.7427535783043755;0.95;0.058210553278036925
51:24.7;-0.1361607453762672;-0.5755240440614591;-0.7428061190616835;0.95;0.0582090973925359
51:24.7;-0.1361154300360523;-0.5756580752011796;-0.7428609074166257;0.95;0.05820756948856706
51:24.7;-0.13607255268076288;-0.5757849265934425;-0.7429127192230456;0.95;0.058206115574095815
51:24.7;-0.13603508018514215;-0.5758958349100639;-0.7429579575318327;0.95;0.058204839115089925
51:24.7;-0.13600473839570779;-0.5759857077444948;-0.742994525549608;0.95;0.05820380277673616
51:24.7;-0.13598219543538115;-0.5760525794648814;-0.7430216067184396;0.95;0.058203033087088525
51:24.7;-0.13596728565345836;-0.5760969464791232;-0.7430393959915745;0.95;0.058202527099246226
51:24.7;-0.13595924411448787;-0.576121071097497;-0.7430488185811887;0.95;0.058202260021150184
51:24.7;-0.1359569287691955;-0.5761283217994216;-0.7430512636334345;0.95;0.05820219285668378
51:24.7;-0.135959014706164;-0.5761225963188307;-0.7430483514543897;0.95;0.05820227930927906
51:24.7;-0.13596415153110017;-0.5761078543650613;-0.7430417448153268;0.95;0.05820247146963324
51:24.7;-0.13597108056030183;-0.57608777016981;-0.7430330079996391;0.95;0.05820272407816996
51:24.7;-0.13597871293474914;-0.576065502010179;-0.7430235118824253;0.95;0.058202997376336295
51:24.7;-0.13598617290572848;-0.5760435665540886;-0.7430143795352137;0.95;0.05820325871763087
51:24.7;-0.13599281247569583;-0.5760238001058221;-0.7430064645572562;0.95;0.0582034831973086
51:24.7;-0.13599820444475186;-0.5760073861532314;-0.743000353386107;0.95;0.05820365358881302
51:24.7;-0.13600212090740418;-0.5759949284512934;-0.7429963830080785;0.95;0.05820375986005128
51:24.7;-0.13600450357997032;-0.5759865505820668;-0.7429946665195835;0.95;0.05820379849872414
51:24.7;-0.13600543122795758;-0.575982005883947;-0.742995120625276;0.95;0.05820377181569245
51:24.7;-0.13600508809999284;-0.5759807852783347;-0.7429974911525173;0.95;0.058203687328269624
51:24.7;-0.13600373582928488;-0.5759822143628515;-0.7430013747896708;0.95;0.05820355725811331
51:24.7;-0.1360016898741372;-0.575985534812112;-0.7430062373185395;0.95;0.05820339811597259
51:24.7;-0.1359993003446289;-0.5759899683572385;-0.743011430433802;0.95;0.0582032302919286
51:24.7;-0.1359969360846323;-0.575994764225462;-0.7430162106715724;0.95;0.058203077528658255
51:24.7;-0.13599497020436324;-0.5759992328138072;-0.7430197648721654;0.95;0.058202966130359364
51:24.7;-0.13599376492600648;-0.576002769513674;-0.7430212468652767;0.95;0.05820292375497527
51:24.7;-0.1359936536335929;-0.5760048730136839;-0.7430198295979642;0.95;0.05820297765561019
51:24.7;-0.1359949184120182;-0.5760051621408488;-0.7430147756650274;0.95;0.05820315228109299
51:24.7;-0.1359977621058434;-0.5760033944366145;-0.7430055271257482;0.95;0.05820346621665002
51:24.7;-0.13600227499389062;-0.575999488307685;-0.7429918126333397;0.95;0.05820392854252178
51:24.7;-0.1360083975048652;-0.575993548864217;-0.7429737663684944;0.95;0.05820453480711158
51:24.7;-0.13601588190841035;-0.5759858956024922;-0.7429520492499039;0.95;0.05820526294436145
51:24.7;-0.1360242574886887;-0.5759770880704909;-0.7429279586902653;0.95;0.05820606960121642
51:24.7;-0.13603280519191532;-0.5759679437625471;-0.7429035091867479;0.95;0.05820688746549486
51:24.7;-0.13604054894805034;-0.5759595409381735;-0.7428814628029048;0.95;0.05820762427996242
51:24.7;-0.1360462715822221;-0.5759531980865543;-0.7428652867349407;0.95;0.05820816427669286
51:24.7;-0.13604856321525705;-0.5759504216111246;-0.7428590153452447;0.95;0.05820837274951278
51:24.7;-0.13604590906390202;-0.5759528142338024;-0.7428669969902507;0.95;0.05820810438638099
51:24.7;-0.13603682137077341;-0.5759619388346393;-0.7428935123085657;0.95;0.05820721579553995
51:24.7;-0.13602001665650462;-0.575979136110404;-0.7429422608558489;0.95;0.05820558236839264
51:24.7;-0.13599463451876764;-0.5760052996191497;-0.7430157272968976;0.95;0.058203119216775845
51:24.7;-0.1359604878655272;-0.5760406184028901;-0.7431144566273296;0.95;0.05819980538828156
51:24.7;-0.135918326999709;-0.576084305191584;-0.7432362894222766;0.95;0.05819570988433325
51:24.7;-0.13587009181928555;-0.576134336713885;-0.7433756316053068;0.95;0.058191017171723626
51:24.7;-0.1358191182498113;-0.5761872411524279;-0.7435228567118471;0.95;0.058186048903578994
51:24.7;-0.13577025782220425;-0.5762379753082018;-0.7436639593859377;0.95;0.05818127751880905
51:24.7;-0.13572986421290803;-0.576279939368181;-0.7437805935314288;0.95;0.05817732642932044
51:24.7;-0.13570559892014006;-0.5763051789083274;-0.7438506332578395;0.95;0.05817495091142036
51:24.7;-0.13570601148887754;-0.5763048204273381;-0.743849385385304;0.95;0.05817499399292283
51:24.7;-0.1357398591997737;-0.5762697768636359;-0.7437515548111251;0.95;0.05817831303623378
51:24.7;-0.13581514805562725;-0.5761917420055865;-0.7435340151621296;0.95;0.05818567575361143
51:24.7;-0.1359379019363495;-0.5760644667354603;-0.7431793648296848;0.95;0.05819762915570748
51:24.7;-0.13611069995302513;-0.5758852756494576;-0.742680152696262;0.95;0.058214350976856136
51:24.7;-0.1363310623549109;-0.5756567407651478;-0.7420435413819063;0.95;0.05823549922812744
51:24.7;-0.1365898106594605;-0.575388382016477;-0.7412960449351859;0.95;0.05826007972490601
51:24.7;-0.1368695743981899;-0.5750982157658411;-0.7404878429261015;0.95;0.05828635134029152
51:24.7;-0.13714365987861835;-0.5748139279453126;-0.7396960486635629;0.95;0.058311782394600754
51:24.7;-0.13737552900597028;-0.5745734145710047;-0.73902621496411;0.95;0.05833305869813344
51:24.7;-0.137519150491722;-0.5744244175490791;-0.7386113196411341;0.95;0.058346126949749194
51:24.7;-0.13752047274489343;-0.5744229971962973;-0.7386075105335105;0.95;0.05834624277920817
51:24.7;-0.13732021810873316;-0.5746306343648245;-0.7391860332798885;0.95;0.058327990176945614
51:24.7;-0.13685810311944496;-0.5751098535660564;-0.7405210394498342;0.95;0.05828525850099441
51:24.7;-0.13607844200497551;-0.5759184114161296;-0.7427733986343525;0.95;0.058211210782395835
51:24.7;-0.1349368864832201;-0.5771023064612598;-0.746071227888819;0.95;0.058098348444285144
51:24.7;-0.13340779405357983;-0.5786881369915591;-0.7504886055306852;0.95;0.05793885193445359
51:24.7;-0.13149140486039979;-0.580675657158549;-0.756024837958734;0.95;0.05772541306755058
51:24.7;-0.1292196557131157;-0.5830317462619616;-0.7625876635843515;0.95;0.05745271516130386
51:24.7;-0.12665908766325173;-0.5856873920843436;-0.7699848531629157;0.95;0.05711950203547731
51:24.7;-0.12390893570948362;-0.5885396706500319;-0.7779297284278605;0.95;0.056730777660575916
51:24.7;-0.12109258171243845;-0.5914606088920442;-0.7860658536754174;1.025;0.05629920933848594
51:24.7;-0.11834241447413002;-0.5943128848779478;-0.7940107733126015;1.025;0.05584470058230189
51:24.7;-0.11578180252839955;-0.5969685230614081;-0.8014080904490604;1.025;0.05539179784692657
51:24.7;-0.11350995573933677;-0.5993245947880628;-0.8079712000225155;1.025;0.05496572180558903
51:24.7;-0.11159338122879857;-0.6013120815179872;-0.8135079716118186;1.025;0.05458837664765496
51:24.7;-0.11006397752509944;-0.602897855404663;-0.8179262551328738;1.025;0.05427540734095429
51:24.7;-0.10892194789102727;-0.6040816636917953;-0.8212254644247364;1.025;0.05403478902922571
51:24.7;-0.10814162118724949;-0.6048900992655539;-0.8234797612545035;1.025;0.05386693709199122
51:24.7;-0.10767863633011303;-0.6053691581785304;-0.8248173000219583;1.025;0.05376598412137792
51:24.7;-0.10747731842939512;-0.6055765989195208;-0.8253989187077778;1.025;0.0537217068111254
51:24.7;-0.10747742600385778;-0.605574953619196;-0.8253986467136957;1.025;0.05372159692100775
51:24.7;-0.10761976059933909;-0.605425717640051;-0.8249874991276976;1.025;0.05375269640034147
51:24.7;-0.10785039082746482;-0.6051849734163092;-0.8243212738392374;1.025;0.053802984548685207
51:24.7;-0.10812344687650884;-0.6049004926503032;-0.8235324785038566;1.025;0.053862257515433526
51:24.7;-0.10840258896200555;-0.6046102080354523;-0.8227260884895191;1.025;0.053922547144257996
51:24.7;-0.10866134824958662;-0.6043418471847369;-0.821978562302765;1.025;0.053978181349640685
51:24.7;-0.10888258865419985;-0.6041134700200684;-0.8213393969116065;1.025;0.05402560163238048
51:24.7;-0.10905735138188181;-0.6039346374524656;-0.8208344664783398;1.025;0.05406304070692452
51:24.7;-0.10918333044188099;-0.6038079541270613;-0.8204704273950283;1.025;0.05409013925582225
51:24.7;-0.1092631955769869;-0.6037307620343333;-0.8202395642961617;1.025;0.05410755590007495
51:24.7;-0.1093029371144989;-0.6036968066026923;-0.8201245728655546;1.025;0.05411660399685906
51:24.7;-0.10931036172730695;-0.6036977455823836;-0.8201029066987607;1.025;0.05411893438989078
51:24.7;-0.1092938240491626;-0.6037244182779187;-0.8201504426849977;1.025;0.054116273995660026
51:24.7;-0.10926123997127542;-0.6037678347420905;-0.8202443323395725;1.025;0.05411022448748144
51:24.7;-0.10921939526528651;-0.6038198791261654;-0.8203649994578721;1.025;0.05410212177039548
51:24.7;-0.10917353869141479;-0.6038737474555445;-0.820497315182904;1.025;0.05409295433964387
51:24.7;-0.10912723173601115;-0.6039241576289008;-0.8206310307344563;1.025;0.0540833364406044
51:24.7;-0.10908241665044628;-0.603967379106737;-0.8207605783312686;1.025;0.05407353004854906
51:24.7;-0.10903965917278993;-0.6040011327171225;-0.8208843661846735;1.025;0.05406350809978728
51:24.7;-0.10899852066483094;-0.6040244086635846;-0.8210036983076142;1.025;0.054053050186924356
51:24.7;-0.10895801488573333;-0.6040372446414698;-0.8211214486136619;1.025;0.054041861059466366
51:24.7;-0.10891710595745209;-0.604040497357752;-0.8212406151091675;1.025;0.05402970163309232
51:24.7;-0.10887520530558097;-0.604035630955886;-0.8213628766468064;1.025;0.05401652163819103
51:24.7;-0.10883262596076115;-0.6040245359233233;-0.8214872732051399;1.025;0.05400258237513221
51:24.7;-0.10879095252933216;-0.6040093828431415;-0.8216091311134477;1.025;0.053988557220973225
51:24.7;-0.10875328480715221;-0.6039925074779314;-0.8217193558148992;1.025;0.05397559663039981
51:24.7;-0.10872431326440825;-0.6039763175993124;-0.8218042141738257;1.025;0.053965343664761085
51:24.7;-0.10871018666078143;-0.6039632080057746;-0.8218457225108182;1.025;0.05395988604070155
51:24.7;-0.1087181372633581;-0.6039554684875915;-0.8218227413959256;1.025;0.053961631954846045
51:24.7;-0.10875583898475265;-0.6039551701789444;-0.8217128495149788;1.025;0.05397310022860381
51:24.7;-0.10883048952757851;-0.6039640187658329;-0.8214950228827128;1.025;0.053996621257153696
51:24.7;-0.10894763020896983;-0.6039831682719123;-0.82115307970214;1.025;0.054033954160158035
51:24.7;-0.1091097467866735;-0.6040129963780678;-0.8206797645652144;1.025;0.05408583717778712
51:24.7;-0.10931473064201483;-0.6040528510475842;-0.8200812404306957;1.025;0.05415150171670312
51:24.7;-0.10955432026218158;-0.6041007880423598;-0.8193816382580124;1.025;0.05422819366234138
51:24.7;-0.10981268491952961;-0.6041533289225005;-0.8186271916259308;1.025;0.054310756118919556
51:24.7;-0.11006535112018949;-0.6042052782764588;-0.8178893706993606;1.025;0.05439133299451129
51:24.7;-0.11027870168678441;-0.6042496459433581;-0.817266344344361;1.025;0.054459250975265175
51:24.7;-0.11041028986845886;-0.6042777233594356;-0.8168820625867723;1.025;0.05450112840910575
51:24.7;-0.11041019833992659;-0.6042793612321334;-0.8168822881873151;1.025;0.05450124600340787
51:24.7;-0.11022362673697766;-0.6042434868214172;-0.8174270410436404;1.025;0.054442201033602616
51:24.7;-0.10979480334108424;-0.6041588816031032;-0.8186791761888587;1.025;0.05430585971209043
51:24.7;-0.10907218003693539;-0.6040152127259858;-0.820789214705042;1.025;0.054074624398590704
51:24.7;-0.10801468076795484;-0.6038042737124931;-0.8238770984592024;1.025;0.05373303851321859
51:24.7;-0.10659853236133852;-0.6035213413293107;-0.8280122443278746;1.025;0.05326974481870522
51:24.7;-0.10482391780567311;-0.6031664975140619;-0.8331941168458864;1.025;0.0526797606588217
51:24.7;-0.10272036680754396;-0.6027456999121018;-0.8393364879713942;1.025;0.051966897028933104
51:24.7;-0.10034945401413085;-0.6022713154341119;-0.8462595584287632;1.025;0.05114589471855896
51:24.7;-0.09780303484810561;-0.6017617629416979;-0.8536951091830988;1.025;0.05024348009448387
51:24.7;-0.09519533466331494;-0.6012399281529208;-0.8613096011789186;1.079;0.04929725844194812
51:24.7;-0.09264893188235034;-0.6007303587316264;-0.8687451046168102;1.079;0.048351768949556985
51:24.7;-0.09027806618280554;-0.6002559255330079;-0.8756680390591052;1.079;0.047452402149721365
51:24.7;-0.08817462000264895;-0.5998350193858509;-0.8818101074218487;1.079;0.04663913489942575
51:24.7;-0.08640020445861088;-0.5994799693558491;-0.8869914050658282;1.079;0.045941890057828026
51:24.7;-0.08498439040612435;-0.5991966903840267;-0.891125585065713;1.079;0.04537822271851075
51:24.7;-0.08392740048193369;-0.5989852232547938;-0.8942119974066856;1.079;0.044953175186536125
51:24.7;-0.08320549230676157;-0.5988408127613482;-0.8963199699948508;1.079;0.04466079589193615
51:24.7;-0.08277760360148957;-0.5987552380992035;-0.8975694048843939;1.079;0.04448670251957428
51:24.7;-0.08259217457965336;-0.5987181784857076;-0.8981108568639982;1.079;0.04441107562614733
51:24.7;-0.08259338843066975;-0.5987184621331667;-0.8981073112252935;1.079;0.044411574040317627
51:24.7;-0.08272635969932197;-0.5987451045332696;-0.8977190336812283;1.079;0.04446582176696078
51:24.7;-0.08294104190552286;-0.5987880903418092;-0.8970921601092045;1.079;0.044553282009555946
51:24.7;-0.08319481478179869;-0.5988388909749373;-0.8963511418157752;1.079;0.04465647438175303
51:24.7;-0.08345384804058106;-0.5988907373434563;-0.8955947633382744;1.079;0.04476159036049792
51:24.7;-0.08369342653355935;-0.5989386847440433;-0.8948951929841487;1.079;0.044858617889236306
51:24.7;-0.08389746762351646;-0.5989795161156967;-0.8942993921109247;1.079;0.04494110622825757
51:24.7;-0.08405747365770547;-0.5990115322780367;-0.893832173909442;1.079;0.04500569783107906
51:24.7;-0.08417114921038238;-0.5990342751165589;-0.8935002410597949;1.079;0.04505153605045106
51:24.7;-0.08424088254169688;-0.5990482236278883;-0.8932966198732875;1.079;0.0450796342112121
51:24.7;-0.0842722509043268;-0.5990544947671107;-0.8932050247961977;1.079;0.045092268329016354
51:24.7;-0.08427266607386813;-0.5990545723811703;-0.8932038134571789;1.079;0.045092435166381346
51:24.7;-0.08425023452599179;-0.5990500791159065;-0.893269314943268;1.079;0.04508340027960721
51:24.7;-0.08421286935298081;-0.5990425987137992;-0.893378422994624;1.079;0.045068347160580405
51:24.7;-0.08416766031351254;-0.5990335499767273;-0.8935104354488715;1.079;0.04505012812300445
51:24.7;-0.08412048522926188;-0.5990241090302715;-0.8936481889527664;1.079;0.04503110982321306
51:24.7;-0.08407583027590078;-0.5990151733922724;-0.893778583703973;1.079;0.04501310093537093
51:24.7;-0.08403677791243315;-0.5990073595878604;-0.8938926186926422;1.079;0.044997346280483914
51:24.7;-0.08400511818369984;-0.5990010254521515;-0.8939850666992275;1.079;0.044984570399096785
51:24.7;-0.08398154063675643;-0.5989963085640881;-0.8940539139078223;1.079;0.04497505386841158
51:24.7;-0.0839658687882243;-0.5989931731953575;-0.8940996752805779;1.079;0.04496872724035478
51:24.7;-0.08395730572285692;-0.5989914594879824;-0.8941246774402578;1.079;0.04496526991831445
51:24.7;-0.08395466691508757;-0.5989909300772286;-0.8941323788734767;1.079;0.0449642041936061
51:24.7;-0.08395658388011436;-0.598991310879783;-0.8941267753227794;1.079;0.044964977664098085
51:24.7;-0.08396166914403763;-0.5989923241436618;-0.8941119181359238;1.079;0.04496703006471158
51:24.7;-0.08396863886127996;-0.5989937130235463;-0.8940915562898489;1.079;0.04496984294956415
51:24.7;-0.0839763939879265;-0.5989952578604719;-0.8940688994299818;1.079;0.04497297256530888
51:24.7;-0.08398406419131418;-0.5989967849980585;-0.8940464897101501;1.079;0.04497606761078444
51:24.7;-0.08399102071308519;-0.5989981693737297;-0.8940261642687949;1.079;0.04497887441656514
51:24.7;-0.08399686536386423;-0.5989993323146152;-0.8940090873698437;1.079;0.04498123246743946
51:24.7;-0.0840014029204491;-0.5990002359858608;-0.8939958309652744;1.079;0.044983063221470845
51:24.7;-0.08400460364692018;-0.599000875829352;-0.893986484041503;1.079;0.044984354948199724
51:24.7;-0.08400656168964796;-0.599001272137701;-0.8939807739504597;1.079;0.044985145908561584
51:24.7;-0.0840074539001999;-0.5990014616714504;-0.893978186422456;1.079;0.04498550771165859
51:24.7;-0.08400750238346544;-0.5990014899797322;-0.8939780746335394;1.079;0.04498553017485728
51:24.7;-0.08400694287617604;-0.5990014048511848;-0.8939797511892481;1.079;0.04498530853351201
51:24.7;-0.08400600001955305;-0.5990012511198911;-0.8939825599378155;1.079;0.044984933428599515
51:24.7;-0.08400486974901171;-0.5990010668901693;-0.8939859269926153;1.079;0.044984483763891664
51:24.7;-0.08400370840252062;-0.5990008811274629;-0.8939893921701862;1.079;0.04498402227595577
51:24.7;-0.0840026277414292;-0.5990007124884297;-0.8939926232526867;1.079;0.04498359349753624
51:24.7;-0.08400169485934152;-0.5990005692258248;-0.8939954161306037;1.079;0.04498322370794621
51:24.7;-0.08400093589036604;-0.5990004499946142;-0.8939976840749705;1.079;0.04498292243860878
51:24.7;-0.08400034247646308;-0.5990003453953456;-0.8939994392468466;1.079;0.0449826851211285
51:24.7;-0.08399988007240182;-0.5990002401093074;-0.8940007691965597;1.079;0.044982496512128774
51:24.7;-0.08399949731676032;-0.5990001154982949;-0.8940018106488353;1.079;0.04498233458759627
51:24.7;-0.08399913584502527;-0.5989999525521897;-0.8940027224084889;1.079;0.04498217465600748
51:24.7;-0.08399874004055219;-0.5989997350644147;-0.8940036588288325;1.079;0.04498199348364039
51:24.7;-0.08399826629429948;-0.598999452895562;-0.8940047450103121;1.079;0.04498177325048139
51:24.7;-0.08399769136774281;-0.5989991051489042;-0.8940060547628118;1.079;0.044981505158301065
51:24.7;-0.08399701942761732;-0.5989987030309729;-0.8940075923683356;1.079;0.044981192495098445
51:24.7;-0.08399628725757316;-0.5989982721119851;-0.8940092792939401;1.079;0.044980852927381396
51:24.7;-0.08399556707002494;-0.5989978536436982;-0.8940109471789235;1.079;0.04498051975234682
51:24.7;-0.0839949662677212;-0.5989975045480495;-0.8940123385889166;1.079;0.044980241807582866
51:24.7;-0.08399462346997652;-0.5989972956724668;-0.8940131171137949;1.079;0.04498008172020544
51:24.7;-0.08399470015657226;-0.5989973079318627;-0.8940128883013607;1.079;0.04498011219519341
51:24.7;-0.08399536742577454;-0.5989976260375635;-0.8940112325816258;1.079;0.044980410108623366
51:24.7;-0.08399678763998364;-0.5989983296622682;-0.8940077506756057;1.079;0.04498104829804418
51:24.7;-0.08399909116266525;-0.5989994821159367;-0.8940021209481223;1.079;0.04498208513793221
51:24.7;-0.08400234897934604;-0.5990011169122252;-0.8939941667401117;1.079;0.044983552255460184
51:24.7;-0.08400654273114988;-0.5990032229817885;-0.8939839299316092;1.079;0.04498544107478712
51:24.7;-0.08401153453629792;-0.5990057297193968;-0.893971744927621;1.079;0.04498768926044439
51:24.7;-0.08401703987140399;-0.5990084935053261;-0.893958305076282;1.079;0.04499016853392862
51:24.7;-0.08402260764000909;-0.5990112877727863;-0.8939447114427522;1.079;0.044992675721395606
51:24.7;-0.08402761225233805;-0.599013799043303;-0.8939324921626348;1.079;0.04499492920120842
51:24.7;-0.08403126293515;-0.599015631549949;-0.8939235796342679;1.079;0.044996573094523463
51:24.7;-0.08403263542467473;-0.5990163230348889;-0.8939202329694901;1.079;0.044997191509939576
51:24.7;-0.08403073050572914;-0.5990153739615417;-0.8939248948069883;1.079;0.0449963348431637
51:24.7;-0.0840245623961292;-0.5990122916480531;-0.8939399751683685;1.079;0.044993559479453486
51:24.7;-0.08401327762265372;-0.5990066496505436;-0.8939675607856746;1.079;0.04498848120005755
51:24.7;-0.08399630173951662;-0.5989981610751774;-0.8940090563814539;1.079;0.044980841128931186
51:24.7;-0.08397350703861928;-0.5989867623956627;-0.8940647746507197;1.079;0.044970581184010594
51:24.7;-0.0839453894467595;-0.5989727018744054;-0.8941335038020545;1.079;0.044957923778015434
51:24.7;-0.0839132373953467;-0.5989566239796952;-0.8942120947369866;1.079;0.04494344806757194
51:24.7;-0.08387927004029958;-0.5989396384866408;-0.8942951231648757;1.079;0.04492815256940486
51:24.7;-0.0838467174266537;-0.5989233605575661;-0.8943746936419964;1.079;0.044913491723518335
51:24.7;-0.08381981181053741;-0.598909906406457;-0.8944404607900016;1.079;0.04490137234671162
51:24.7;-0.08380365826629058;-0.598901828609618;-0.8944799456009053;1.079;0.04489409532529896
51:24.7;-0.08380395487240498;-0.5989019762078058;-0.8944792194415394;1.079;0.04489422883678335
51:24.7;-0.0838265391081572;-0.5989132679144489;-0.894424012877467;1.079;0.044904402361787436
51:24.7;-0.08387674837233623;-0.5989383723846232;-0.8943012788646177;1.079;0.044927016164302384
51:24.7;-0.08395859922591575;-0.5989792978449787;-0.8941011990585167;1.079;0.04496386900056389
51:24.7;-0.08407381206503896;-0.5990369044373512;-0.8938195679581639;1.079;0.045015717458615746
51:24.7;-0.08422073481085328;-0.5991103660691285;-0.8934604238949282;1.079;0.04508179297569104
51:24.7;-0.08439324941204389;-0.599196623668284;-0.8930387220321542;1.079;0.0451593161480607
51:24.7;-0.08457977610369334;-0.5992898873150297;-0.8925827684023935;1.079;0.045243060856202694
51:24.7;-0.08476251903791623;-0.5993812590580381;-0.8921360639226531;1.079;0.04532503105712093
51:24.7;-0.08491711866499498;-0.5994585591048687;-0.8917581541290072;1.079;0.04539431889642095
51:24.7;-0.08501288576738078;-0.5995064428380669;-0.8915240570919359;1.079;0.045437212487596364
51:24.7;-0.08501378336266538;-0.5995068917652517;-0.8915218632068098;1.079;0.04543761444001126
51:24.7;-0.08488028960308673;-0.5994401449672031;-0.8918481814369821;1.079;0.04537781794160324
51:24.7;-0.08457221147369944;-0.5992861059451965;-0.8926012613823823;1.079;0.045239666247793305
51:24.7;-0.08405242078160176;-0.5990262106139151;-0.8938718608591167;1.079;0.045006093428787086
51:24.7;-0.08329134781555199;-0.5986456741296953;-0.8957322613963076;1.079;0.044663006552129327
51:24.7;-0.08227189413390638;-0.598135947283122;-0.8982242591975305;1.079;0.044201415789814874
51:24.7;-0.08099421784671527;-0.5974971091389173;-0.9013474677837119;1.079;0.043619639019623076
51:24.7;-0.07947961040973256;-0.5967398054320044;-0.9050498413851574;1.079;0.04292528967227754
51:24.7;-0.07777243580307462;-0.5958862181561202;-0.9092229347270546;1.079;0.042136593667134924
51:24.7;-0.07593885772465704;-0.5949694291600409;-0.913705014334697;1.079;0.04128237929650029
51:24.7;-0.074061142079691;-0.5940305713920805;-0.9182949857818324;1.11;0.04040000455497907
51:24.7;-0.07222756394436261;-0.5931137823819475;-0.9227770655577012;1.11;0.03953099771768735
51:24.7;-0.0705203892316504;-0.5922601950739798;-0.9269501592176246;1.11;0.03871538918974498
51:24.7;-0.06900578165476522;-0.591502891309549;-0.9306525332502847;1.11;0.037986555537825296
51:24.7;-0.06772810521611636;-0.5908640530726326;-0.9337757423267126;1.11;0.03736793360648602
51:24.7;-0.06670865139983133;-0.5903543260876081;-0.9362677406068421;1.11;0.03687185361233166
51:24.7;-0.06594757834898658;-0.5899737894098586;-0.9381281415274321;1.11;0.03650007309981796
51:24.7;-0.06542778765754566;-0.589713893824156;-0.9393987411980385;1.11;0.03624545612394082
51:24.7;-0.06511970964962953;-0.5895598544870456;-0.9401518210498083;1.11;0.0360942772612229
51:24.7;-0.06498621616381517;-0.5894931073219182;-0.9404781388050791;1.11;0.036028707893871526
51:24.7;-0.06498711420832556;-0.5894935558494531;-0.9404759439847712;1.11;0.03602914910568075
51:24.7;-0.06508288194518914;-0.5895414391821413;-0.9402418455007656;1.11;0.03607619191833808
51:24.7;-0.06523748238299473;-0.589618738872285;-0.939863933738967;1.11;0.03615209374280151
51:24.7;-0.06542022627109396;-0.5897101103594256;-0.9394172268175714;1.11;0.036241747934367595
51:24.7;-0.06560675399801529;-0.5898033739180771;-0.938961270391969;1.11;0.03633318603792295
51:24.7;-0.06577926962244586;-0.5898896316694581;-0.9385395655817916;1.11;0.036417690061481385
51:24.7;-0.06592619325380307;-0.5899630937653304;-0.938180418712153;1.11;0.0364896088435563
51:24.7;-0.06604140668573504;-0.590020701195376;-0.9378987853277713;1.11;0.03654597375126665
51:24.7;-0.06612325766221541;-0.5900616279079539;-0.9376987042185704;1.11;0.03658600004474309
51:24.7;-0.06617346639245973;-0.5900867340527033;-0.9375759703945974;1.11;0.03661054587134356
51:24.7;-0.06619604925875772;-0.5900980278178146;-0.9375207660352053;1.11;0.036621584400766745
51:24.7;-0.06619634351305642;-0.5900981777611554;-0.9375200445772623;1.11;0.036621728314537826
51:24.7;-0.06618018654816116;-0.5900901024299762;-0.9375595369533302;1.11;0.03661383104620794
51:24.7;-0.06615327644843268;-0.5900766506239387;-0.9376253146994455;1.11;0.036600676529760685
51:24.7;-0.06612071841939499;-0.5900603746039009;-0.9377048986873899;1.11;0.036584759053672526
51:24.7;-0.06608674500421054;-0.5900433902034387;-0.9377879430374639;1.11;0.03656814719228868
51:24.7;-0.06605458671446923;-0.5900273121598432;-0.937866551342352;1.11;0.03655242058980789
51:24.7;-0.0660264633637205;-0.5900132498115085;-0.9379352978282846;1.11;0.03653866538358588
51:24.7;-0.06600366422575606;-0.590001847224655;-0.9379910313759835;1.11;0.03652751296144895
51:24.7;-0.06598668622449602;-0.5899933523535063;-0.938032537672995;1.11;0.0365192071780054
51:24.7;-0.06597540274482015;-0.5899877015274908;-0.9380601265020889;1.11;0.036513686701581616
51:24.7;-0.06596924043828221;-0.5899846079490185;-0.9380751994765033;1.11;0.03651067142288727
51:24.7;-0.06596734680792742;-0.5899836455877546;-0.9380798403098148;1.11;0.03650974445977792
51:24.7;-0.0659687367695048;-0.5899843225607818;-0.9380764564786158;1.11;0.03651042392975299
51:24.7;-0.06597241134491899;-0.5899861405642044;-0.9380674890176753;1.11;0.03651222109731142
51:24.7;-0.06597744585077757;-0.5899886390224309;-0.9380551969056167;1.11;0.03651468357931697
51:24.7;-0.06598304824608493;-0.5899914242698754;-0.9380415144311768;1.11;0.036517423923659205
51:24.7;-0.06598859066198388;-0.589994185258385;-0.9380279741646897;1.11;0.03652013504229114
51:24.7;-0.06599361860584929;-0.5899966980193293;-0.9380156845668461;1.11;0.036522594704156995
51:24.7;-0.06599784302596332;-0.5899988214595134;-0.9380053495680158;1.11;0.03652466163368315
51:24.7;-0.06600112049053145;-0.5900004871099075;-0.9379973172816785;1.11;0.03652626579147082
51:24.7;-0.0660034263381238;-0.5900016852570484;-0.9379916459780744;1.11;0.036527395216923074
51:24.7;-0.06600482495381596;-0.590002449547972;-0.937988177152633;1.11;0.03652808146639848
51:24.7;-0.06600544045802212;-0.5900028417412514;-0.9379866076319355;1.11;0.03652838525498562
51:24.7;-0.06600543018091516;-0.5900029378372694;-0.9379865548808956;1.11;0.03652838346269497
51:24.7;-0.06600496242451966;-0.5900028164040773;-0.9379876117891558;1.11;0.036528158240527166
51:24.7;-0.06600419924934152;-0.5900025495504606;-0.9379893890714842;1.11;0.036527788578551705
51:24.7;-0.06600328439942059;-0.5900021967011275;-0.9379915449284187;1.11;0.036527344394370796
51:24.7;-0.06600233601373205;-0.5900018011047902;-0.9379938027456264;1.11;0.03652688297309811
51:24.7;-0.06600144346042118;-0.5900013888498987;-0.937995958371967;1.11;0.03652644743785817
51:24.7;-0.06600066745849331;-0.5900009700641194;-0.9379978789461585;1.11;0.03652606684540855
51:24.7;-0.06600004259652086;-0.5900005419178699;-0.9379994953982577;1.11;0.03652575747361714
51:24.7;-0.06599958139308346;-0.5900000930236451;-0.9380007907017525;1.11;0.03652552488316735
51:24.7;-0.06599927914190405;-0.5899996088067107;-0.9380017857621074;1.11;0.03652536638175375
51:24.7;-0.06599911892076984;-0.589999077406984;-0.9380025245593321;1.11;0.0365252735828808
51:24.7;-0.06599907629565463;-0.5899984956486495;-0.938003059866283;1.11;0.03652523482268287
51:24.7;-0.06599912340273827;-0.5899978745804323;-0.9380034405786494;1.11;0.03652523726868697
51:24.7;-0.06599923222870625;-0.5899972440482879;-0.938003701440643;1.11;0.03652526861828546
51:24.7;-0.06599937702577187;-0.5899966557219789;-0.9380038557423285;1.11;0.0365253183383312
51:24.7;-0.06599953588824473;-0.5899961839712462;-0.938003891398182;1.11;0.036525378439225126
51:24.7;-0.06599969158138419;-0.5899959239938491;-0.9380037706797635;1.11;0.036525443807329507
51:24.7;-0.06599983175238795;-0.589995986657072;-0.9380034337491875;1.11;0.0365255121399489
51:24.7;-0.06599994867099934;-0.5899964896472327;-0.9380028060014967;1.11;0.036525583539717556
51:24.7;-0.0660000386476249;-0.5899975447468643;-0.9380018090500265;1.11;0.036525659832624575
51:24.7;-0.06600010126461284;-0.5899992413896441;-0.9380003749598949;1.11;0.036525743678682
51:24.7;-0.0660001385358771;-0.5900016270828454;-0.937998463038689;1.11;0.036525837548617206
51:24.7;-0.06600015408529725;-0.5900046858273634;-0.9379960781288046;1.11;0.03652594264552908
51:24.7;-0.06600015240852786;-0.5900083162813909;-0.9379932889251706;1.11;0.03652605785792385
51:24.7;-0.06600013825848028;-0.5900123120618153;-0.9379902443938289;1.11;0.036526178839700246
51:24.7;-0.0660001161734764;-0.5900163471931426;-0.9379871859369998;1.11;0.0365262973222229
51:24.7;-0.06600009014989267;-0.590019970212755;-0.937984452601803;1.11;0.03652640077136877
51:24.7;-0.06600006344837503;-0.5900226107214213;-0.9379824764405736;1.11;0.036526472505276505
51:24.7;-0.06600003851430325;-0.5900236021150086;-0.9379817651887646;1.11;0.03652649238280535
51:24.7;-0.06600001698866798;-0.5900222237299215;-0.9379828698229744;1.11;0.03652643815450371
51:24.7;-0.06599999978423819;-0.5900177645729099;-0.9379863353811234;1.11;0.03652628753349065
51:24.7;-0.06599998720308564;-0.5900096091028723;-0.9379926347343636;1.11;0.036526020990097594
51:24.7;-0.06599997907443195;-0.5899973431495338;-0.938002086827217;1.11;0.03652562519978575
51:24.7;-0.06599997489569144;-0.5899808750174335;-0.9380147632301179;1.11;0.036525096979130436
51:24.7;-0.06599997396389591;-0.5899605632446357;-0.9380303895927402;1.11;0.036524447432586996
51:24.7;-0.06599997548893277;-0.5899373385782647;-0.9380482515833773;1.11;0.03652370590963621
51:24.7;-0.0659999786838635;-0.5899128038234509;-0.9380671178959816;1.11;0.036522923247834946
51:24.7;-0.0659999828307994;-0.5898892917683447;-0.9380851955567276;1.11;0.03652217366641267
51:24.7;-0.06599998732329167;-0.5898698589461815;-0.9381001346350688;1.11;0.03652155459549719
51:24.7;-0.06599999168792749;-0.5898581922127539;-0.9381091000627048;1.11;0.03652118369935071
51:24.7;-0.0659999955888668;-0.589858406682805;-0.9381089270577626;1.11;0.0365211924017008
51:24.7;-0.06599999881950062;-0.5898747181472574;-0.9380963731287288;1.11;0.036521715370581694
51:24.7;-0.06600000128538461;-0.589910981240218;-0.9380684733657851;1.11;0.0365228756884879
51:24.7;-0.06600000298222909;-0.5899700966794482;-0.9380229964550794;1.11;0.03652476583218786
51:24.7;-0.0660000039721342;-0.5900533068687529;-0.9379589865720983;1.11;0.03652742511281363
51:24.7;-0.06600000436055341;-0.5901594185644318;-0.9378773613781491;1.11;0.03653081485974827
51:24.7;-0.0660000042757427;-0.5902840131258827;-0.9377815195624146;1.11;0.036534793327840154
51:24.7;-0.06600000385177124;-0.590418727366067;-0.9376778940691172;1.11;0.03653909299953597
51:24.7;-0.06600000321558039;-0.5905507087249001;-0.9375763712218077;1.11;0.036543303554001164
51:24.7;-0.06600000247810418;-0.5906623642064304;-0.9374904838671416;1.11;0.036546864183278016
51:24.7;-0.06600000172911744;-0.5907315293987015;-0.9374372813704224;1.11;0.036549069047534355
51:24.7;-0.06600000103525196;-0.5907321776216243;-0.9374367841214715;1.11;0.036549089382497194
51:24.7;-0.06600000044050328;-0.5906357653507583;-0.9375109485922573;1.11;0.036546015022587995
51:24.7;-0.06599999996852199;-0.5904132643297372;-0.9376821041686667;1.11;0.03653891681627589
51:24.7;-0.0659999996260221;-0.5900378597824928;-0.9379708775953273;1.11;0.03652692951723342
51:24.7;-0.06599999940672437;-0.5894881958324864;-0.9383936964906375;1.11;0.03650935214205621
51:24.7;-0.06599999929536339;-0.5887519236262129;-0.9389600600119786;1.11;0.03648575935212226
51:24.7;-0.0659999992714086;-0.5878291573694975;-0.9396698803575826;1.11;0.03645611295997357
51:24.7;-0.06599999931226662;-0.5867352742337245;-0.9405113289846845;1.11;0.03642085700758301
51:24.7;-0.06599999939583755;-0.585502314873328;-0.9414597592817229;1.11;0.03638097298265872
51:24.7;-0.06599999950238429;-0.5841780641762594;-0.9424784136780697;1.11;0.03633796393122932
51:24.7;-0.06599999961573993;-0.5828219363950394;-0.9435215889239966;1.112;0.03629373503484917
51:24.7;-0.06599999972392273;-0.5814976857315594;-0.9445402433307957;1.112;0.03625036557645911
51:24.7;-0.06599999981925435;-0.5802647264292812;-0.9454886736221222;1.112;0.03620982585256427
51:24.7;-0.06599999989808675;-0.5791708433586398;-0.9463301221767477;1.112;0.03617372973129093
51:24.7;-0.06599999996024121;-0.578248077149324;-0.9470399423137802;1.112;0.03614318566957944
51:24.7;-0.06600000000825282;-0.5775118049426474;-0.9476063054102286;1.112;0.03611875264014104
51:24.7;-0.06600000004649992;-0.5769621409116623;-0.9480291235834921;1.112;0.036100476269530724
51:24.7;-0.06600000008028299;-0.5765867361707601;-0.9483178959219886;1.112;0.03608797639438855
51:24.7;-0.06600000011490467;-0.5763642348160608;-0.9484890500011947;1.112;0.03608056098814869
51:24.7;-0.06600000015479339;-0.576267822053627;-0.9485632125639492;1.112;0.03607734621918579
51:24.7;-0.06600000020270852;-0.5762684696238062;-0.9485627130503633;1.112;0.03607736778826064
51:24.7;-0.0660000002590654;-0.5763376340186178;-0.948509508055802;1.112;0.03607967403894605
51:24.7;-0.06600000032142228;-0.5764492885988954;-0.9484236181722087;1.112;0.036083396094787556
51:24.7;-0.06600000038417796;-0.5765812690216916;-0.9483220930494884;1.112;0.03608779409628018
51:24.7;-0.06600000043853514;-0.5767159823899077;-0.9482184658969638;1.112;0.03609228134909538
51:24.7;-0.06600000047278819;-0.5768405762711882;-0.9481226234639951;1.112;0.036096429891226876
51:24.7;-0.0660000004729921;-0.576946687630537;-0.9480409991562997;1.112;0.03609996179598941
51:24.7;-0.06600000042405894;-0.5770298979947652;-0.9479769921188859;1.112;0.036102730658172114
51:24.7;-0.0660000003113059;-0.5770890142890579;-0.9479315204076897;1.112;0.036104697374186756
51:24.7;-0.06600000012244406;-0.5771252790685101;-0.9479036284631542;1.112;0.03610590371003632
51:24.7;-0.06599999984994771;-0.5771415931606418;-0.9478910850284515;1.112;0.03610644640101322
51:24.7;-0.06599999949368146;-0.5771418112399562;-0.9478909249602504;1.112;0.03610645375211503
51:24.7;-0.06599999906358896;-0.5771301490384659;-0.9478999051639616;1.112;0.0361060659814199
51:24.7;-0.0659999985821686;-0.5771107214833204;-0.9479148598200418;1.112;0.03610541991563606
51:24.7;-0.06599999808638392;-0.5770872150888213;-0.9479329523494849;1.112;0.03610463813228653
51:24.7;-0.06599999762859197;-0.5770626858761961;-0.9479518308402917;1.112;0.0361038222554474
51:24.7;-0.06599999727603109;-0.5770394659481055;-0.9479696999240458;1.112;0.03610304984896999
51:24.7;-0.065999997108407;-0.5770191572667298;-0.9479853256134351;1.112;0.036102374201603754
51:24.7;-0.06599999721316506;-0.5770026896188702;-0.9479979908146464;1.112;0.03610182624552873
51:24.7;-0.06599999767815212;-0.5769904205332081;-0.9480074186247762;1.112;0.03610141787326976
51:24.7;-0.06599999858156314;-0.5769822573547841;-0.9480136786434064;1.112;0.036101145996387814
51:24.7;-0.06599999997934353;-0.5769777851330311;-0.9480170888667689;1.112;0.03610099680207363
51:24.7;-0.06600000189057376;-0.5769763878815906;-0.9480181227238221;1.112;0.03610094979241524
51:24.7;-0.06600000428178822;-0.576977354670979;-0.9480173278022554;1.112;0.03610098132059323
51:24.7;-0.06600000705165254;-0.5769799655890342;-0.9480152600532038;1.112;0.036101067457296764
51:24.7;-0.06600001001790183;-0.5769835556350431;-0.9480124349216743;1.112;0.036101186121832544
51:24.7;-0.0660000129088764;-0.5769875569909162;-0.9480092950115628;1.112;0.03610131849182527
51:24.7;-0.06600001536231391;-0.5769915218113975;-0.9480061925806146;1.112;0.03610144976214103
51:24.7;-0.06600001693418867;-0.5769951287344857;-0.9480033843430816;1.112;0.03610156935901278
51:24.7;-0.0660000171202461;-0.5769981768166249;-0.9480010356736819;1.112;0.03610167073214989
51:24.7;-0.06600001539237876;-0.577000570653769;-0.9479992312737086;1.112;0.036101750849572546
51:24.7;-0.06600001125105674;-0.5770023001774105;-0.9479979895893863;1.112;0.03610180951103254
51:24.7;-0.06600000429361035;-0.5770034181290119;-0.9479972786764616;1.112;0.036101848580033964
51:24.7;-0.06599999429625361;-0.5770040176195027;-0.9479970317049785;1.112;0.03610187121508054
51:24.7;-0.06599998130537509;-0.5770042115569389;-0.9479971608284641;1.112;0.036101881160645874
51:24.7;-0.0659999657309142;-0.577004115138479;-0.9479975686512534;1.112;0.036101882139562565
51:24.7;-0.06599994843177562;-0.5770038320945974;-0.9479981569800437;1.112;0.0361018773723977
51:24.7;-0.06599993078048322;-0.5770034449661581;-0.9479988329179878;1.112;0.036101869236581784
51:24.7;-0.06599991469200156;-0.5770030093936958;-0.9479995126401108;1.112;0.03610185906865536
51:24.7;-0.0659999026002924;-0.5770025521943993;-0.9480001233747796;1.112;0.03610184710658526
51:24.7;-0.06599989736621949;-0.5770020728774691;-0.9480006042109991;1.112;0.03610183256493854
51:24.7;-0.06599990210237384;-0.577001548178384;-0.9480009063632869;1.112;0.036101813832839634
51:24.7;-0.06599991990473737;-0.577000939150647;-0.9480009934650633;1.112;0.0361017887820703
51:24.7;-0.06599995348820471;-0.5770002003144545;-0.9480008423394494;1.112;0.036101755169459425
51:24.7;-0.06600000473302506;-0.5769992903043953;-0.9480004445253326;1.112;0.036101711113102106
51:24.7;-0.06600007416212143;-0.576998183368416;-0.9479998086294287;1.112;0.03610165561549177
51:24.7;-0.06600016038454373;-0.5769968809424215;-0.9479989633456877;1.112;0.036101589098283024
51:24.7;-0.06600025955712004;-0.5769954223637813;-0.9479979607472163;1.112;0.03610151390352332
51:24.7;-0.06600036493329645;-0.5769938936084924;-0.9479968792306204;1.112;0.03610143470569813
51:24.7;-0.06600046658328063;-0.5769924327675855;-0.947995825298768;1.112;0.03610135876923211
51:24.7;-0.06600055138052066;-0.5769912308553189;-0.9479949332287674;1.112;0.03610129597904959
51:24.7;-0.06600060335345678;-0.5769905265094082;-0.947994361613108;1.112;0.036101258569662356
51:24.7;-0.06600060449536557;-0.5769905932511006;-0.9479942858102482;1.112;0.03610126048347166
51:24.7;-0.06600053610602082;-0.5769917182691843;-0.9479948855221054;1.112;0.036101316303972585
51:24.7;-0.06600038070429032;-0.5769941722195508;-0.947996327051453;1.112;0.036101439736432914
51:24.7;-0.06600012449901453;-0.5769981703196395;-0.94799874029545;1.112;0.036101641648799164
51:24.7;-0.06599976033629329;-0.5770038260721156;-0.9480021912028618;1.112;0.03610192773935962
51:24.7;-0.06599929095628228;-0.5770111002513888;-0.9480066512445998;1.112;0.03610229596383865
51:24.7;-0.06599873229584438;-0.5770197492687017;-0.9480119663799348;1.112;0.03610273392993246
51:24.7;-0.06599811647183422;-0.5770292785904443;-0.9480178289774309;1.112;0.03610321654638852
51:24.7;-0.06599749398343013;-0.5770389083655894;-0.9480237570746605;1.112;0.03610370428871367
51:24.7;-0.06599693459383732;-0.5770475596193417;-0.9480290861096833;1.112;0.036104142504223495
51:24.7;-0.0659965263076113;-0.577053870047189;-0.9480329786806655;1.112;0.0361044622131376
51:24.7;-0.06599637186735373;-0.5770562483239771;-0.9480344578212303;1.112;0.03610458285615199
51:24.7;-0.06599658227063572;-0.5770529746466145;-0.9480324685473749;1.112;0.036104417378466744
51:24.7;-0.06599726697127069;-0.577042352699228;-0.9480259708800914;1.112;0.03610387991286389
51:24.7;-0.06599852069115313;-0.5770229141692196;-0.9480140650563196;1.112;0.03610289612032322
51:24.7;-0.06600040713567923;-0.5769936712601119;-0.9479961461540949;1.112;0.03610141596109267
51:24.7;-0.06600294037321106;-0.5769544054047681;-0.947972080914625;1.112;0.036099428304699165
51:24.7;-0.06600606518999617;-0.5769059718459122;-0.9479423943076386;1.112;0.03609697635643047
51:24.7;-0.06600963833340716;-0.5768505904311333;-0.9479084476704259;1.112;0.03609417240470513
51:24.7;-0.06601341315750775;-0.5767920836541659;-0.9478725845383509;1.112;0.03609120991686423
51:24.7;-0.06601703071657455;-0.5767360147358919;-0.947838215232829;1.112;0.03608837058395533
51:24.7;-0.06602002072803519;-0.5766896727143656;-0.9478098077013962;1.112;0.036086023607056573
51:24.7;-0.06602181594682209;-0.5766618496455694;-0.9477927509588048;1.112;0.036084614410909946
51:24.7;-0.0660217832524281;-0.5766623587479921;-0.9477930597646033;1.112;0.03608464015560291
51:24.7;-0.06601927404561447;-0.5767012532412951;-0.947816895863868;1.112;0.0360866099833516
51:24.7;-0.06601369529833208;-0.5767877250566106;-0.947869893025157;1.112;0.036090988960002915
51:24.7;-0.06600460074581048;-0.576928691341987;-0.9479562907288532;1.112;0.03609812619165821
51:24.7;-0.06599179925360642;-0.5771271147565068;-0.9480779046929994;1.112;0.036108169603774554
51:24.7;-0.06597547440562719;-0.5773801498411179;-0.9482329907985075;1.112;0.036120972276670216
51:24.7;-0.0659563060024808;-0.5776772597820032;-0.9484150908643043;1.112;0.03613599786196085
51:24.7;-0.06593558069858711;-0.5779985015261162;-0.9486119816020234;1.112;0.03615223519225126
51:24.7;-0.06591527582069118;-0.5783132265879524;-0.9488048783451464;1.112;0.036168134399159876
51:24.7;-0.06589809799225992;-0.5785794823678561;-0.9489680681202055;1.112;0.03618157829073425
51:24.7;-0.06588745713005699;-0.5787444152038836;-0.949069156680557;1.112;0.03618990303825353
51:24.7;-0.06588735734433614;-0.5787459614193899;-0.9490701049544108;1.112;0.03618998107614156
51:24.7;-0.0659021899506115;-0.5785160556424548;-0.9489291954318901;1.112;0.03617837630622724
51:24.7;-0.06593642083713992;-0.5779854766125494;-0.9486040021721961;1.112;0.03615157705538033
51:24.7;-0.06599417535557288;-0.5770902813783921;-0.9480553343403282;1.112;0.03610630555563194
51:24.7;-0.06607873902592792;-0.5757795443737956;-0.9472519795076778;1.112;0.03603989358840689
51:24.7;-0.06619201167164568;-0.5740238183268398;-0.946175889366885;1.112;0.03595070160891116
51:24.7;-0.06633397572185602;-0.5718233755767466;-0.944827230858383;1.112;0.03583854206626312
51:24.7;-0.06650226545666378;-0.5692148847732813;-0.9432284783384853;1.112;0.03570504568219879
51:24.7;-0.06669195154293962;-0.5662747505726018;-0.9414264604879028;1.112;0.0355538817931281
51:24.7;-0.06689568245728525;-0.5631169215812077;-0.9394910167923172;1.112;0.035390711882440196
51:24.7;-0.06710431754271544;-0.5598830779766627;-0.9375089835028299;1.08;0.03522274862596875
51:24.7;-0.06730804845706109;-0.5567252490561555;-0.935573539875222;1.08;0.03505789592593922
51:24.7;-0.06749773454333696;-0.553785114994307;-0.9337715221507142;1.08;0.03490367047214536
51:24.7;-0.06766602427814475;-0.5511766243913382;-0.9321727697955745;1.08;0.03476625116032097
51:24.7;-0.06780798832835509;-0.5489761818930743;-0.9308241114623242;1.08;0.03464990012184803
51:24.7;-0.0679212609740728;-0.5472204561339877;-0.9297480214715896;1.08;0.03455678465902209
51:24.7;-0.06800582464442781;-0.5459097194321462;-0.9289446667225656;1.08;0.034487108514968404
51:24.7;-0.06806357916286071;-0.5450145244879606;-0.9283959988638659;1.08;0.03443944303865315
51:24.7;-0.06809781004938906;-0.5444839457009325;-0.9280708054237704;1.08;0.03441116181415207
51:24.7;-0.06811264265566434;-0.5442540400795043;-0.927929895529774;1.08;0.034398900304298465
51:24.7;-0.06811254286994338;-0.5442555863186604;-0.9279308432148038;1.08;0.03439898276882052
51:24.7;-0.06810190200774037;-0.5444205190008267;-0.9280319309602858;1.08;0.03440777946641491
51:24.7;-0.06808472417930903;-0.5446867744069946;-0.928195119709983;1.08;0.034421975670987814
51:24.7;-0.068064419301413;-0.5450014988420108;-0.9283880152634567;1.08;0.03443874888630086
51:24.7;-0.06804369399751922;-0.5453227396892435;-0.928584904729412;1.08;0.034455861270478116
51:24.7;-0.06802452559437273;-0.5456198484703436;-0.9287670035627094;1.08;0.03447168083485477
51:24.7;-0.0680082007463934;-0.5458728821716197;-0.9289220886355805;1.08;0.03448514807304866
51:24.7;-0.06799539925418922;-0.5460713040581513;-0.9290437019623687;1.08;0.03449570512906228
51:24.7;-0.06798630470166755;-0.5462122687947977;-0.9291300996442815;1.08;0.034503203266940854
51:24.7;-0.0679807259543852;-0.5462987392118367;-0.9291830976281605;1.08;0.034507801993462005
51:24.7;-0.06797821674757171;-0.546337632673411;-0.9292069356083996;1.08;0.03450987028599607
51:24.7;-0.06797818405317795;-0.5463381413631717;-0.929207247522718;1.08;0.0345098974043416
51:24.7;-0.06797997927196514;-0.5463103187739081;-0.9291901952046605;1.08;0.03450841799265339
51:24.7;-0.0679829692834261;-0.5462639783938372;-0.9291617933819497;1.08;0.03450595377181634
51:24.7;-0.06798658684249331;-0.5462079125128526;-0.9291274308770533;1.08;0.03450297217058744
51:24.7;-0.06799036166659436;-0.5461494103269585;-0.9290915752484821;1.08;0.03449986077511797
51:24.7;-0.06799393481000583;-0.546094035092984;-0.9290576362050947;1.08;0.03449691547913632
51:24.7;-0.06799705962679141;-0.546045609169848;-0.9290279564354417;1.08;0.03449433964898083
51:24.7;-0.06799959286432362;-0.5460063520527393;-0.9290038962081986;1.08;0.034492251415650245
51:24.7;-0.06800147930885;-0.5459771183756477;-0.9289859792453447;1.08;0.03449069629423856
51:24.7;-0.06800273302873253;-0.5459576886831299;-0.9289740709401896;1.08;0.034489662628939495
51:24.7;-0.06800341772936726;-0.5459470740114665;-0.9289675650421609;1.08;0.03448909779104382
51:24.7;-0.06800362813264858;-0.5459438046350482;-0.9289655606397322;1.08;0.034488923548051276
51:24.7;-0.06800347369238982;-0.5459461826529665;-0.9289670169843514;1.08;0.034489049516515394
51:24.7;-0.06800306540616204;-0.5459524866256907;-0.9289708789289565;1.08;0.03448938406626633
51:24.8;-0.06800250601656688;-0.5459611237108843;-0.9289761701911148;1.08;0.034489842430612046
51:24.8;-0.06800188352815995;-0.5459707304253415;-0.9289820551303071;1.08;0.03449035208087717
51:24.8;-0.06800126770414665;-0.5459802272142371;-0.9289878722131107;1.08;0.034490855640377203
51:24.8;-0.06800070904370557;-0.5459888345311351;-0.9289931438853248;1.08;0.03449131174744676
51:24.8;-0.06800023966369172;-0.5459960593196945;-0.928997568297344;1.08;0.03449169434011656
51:24.8;-0.0679998755009684;-0.5460016608986766;-0.9290009983965067;1.08;0.0344919908404677
51:24.8;-0.0679996192956919;-0.5460056045663838;-0.9290034134798427;1.08;0.03449219967978736
51:24.8;-0.06799946389396257;-0.546008010032764;-0.9290048875605054;1.08;0.03449232754116857
51:24.8;-0.06799939550462139;-0.546009100302542;-0.9290055579917302;1.08;0.034492386617314685
51:24.8;-0.06799939664653666;-0.5460091550747989;-0.9290055968384827;1.08;0.03449239209892267
51:24.8;-0.0679994486194825;-0.5460084712494576;-0.9290051865847542;1.08;0.034492360031431066
51:24.8;-0.06799953341673555;-0.546007331846666;-0.9290045009796398;1.08;0.034492305610813435
51:24.8;-0.06799963506673572;-0.5460059836134995;-0.9290036911960947;1.08;0.03449224193573904
51:24.8;-0.06799974044293032;-0.5460046228373109;-0.9290028770169126;1.08;0.03449217919497383
51:24.8;-0.06799983961552569;-0.5460033883988449;-0.9290021424681247;1.08;0.03449212424483109
51:24.8;-0.06799992583796603;-0.5460023608503775;-0.9290015351716068;1.08;0.03449208052000796
51:24.8;-0.06799999526707695;-0.5460015662491148;-0.9290010686578585;1.08;0.03449204821962273
51:24.8;-0.06800004651190537;-0.5460009835604293;-0.9290007269333429;1.08;0.03449202471558998
51:24.8;-0.06800008009537108;-0.54600055461392;-0.9290004706999347;1.08;0.03449200513939279
51:24.8;-0.06800009789771987;-0.5460001957954378;-0.9290002447442061;1.08;0.03449198311273847
51:24.8;-0.06800010263384329;-0.5459998108445046;-0.9289999861229188;1.08;0.034491951594797
51:24.8;-0.06800009739972092;-0.5459993042628186;-0.9289996328455549;1.08;0.03449190382156547
51:24.8;-0.06800008530794273;-0.5459985949009191;-0.9289991327795484;1.08;0.034491834309940066
51:24.8;-0.06800006921937332;-0.545997629264295;-0.9289984524716381;1.08;0.034491739889709175
51:24.8;-0.06800005156797778;-0.5459963939681551;-0.9289975854905843;1.08;0.03449162071123368
51:24.8;-0.06800003426872694;-0.5459949265859964;-0.9289965597622513;1.08;0.03449148115636785
51:24.8;-0.0680000186941544;-0.5459933239082733;-0.9289954432062388;1.08;0.0344913305575116
51:24.8;-0.06800000570317795;-0.5459917463931535;-0.928994346820355;1.08;0.03449118360785168
51:24.8;-0.06799999570575341;-0.5459904174010073;-0.9289934242286605;1.08;0.034491060328968794
51:24.8;-0.06799998874828816;-0.5459896157148447;-0.9289928666490217;1.08;0.034490985454821696
51:24.8;-0.06799998460701631;-0.5459896599207287;-0.9289928922879166;1.08;0.03449098709873856
51:24.8;-0.06799998287928759;-0.5459908835137335;-0.9289937293732615;1.08;0.03449109459738349
51:24.8;-0.06799998306558838;-0.5459936001561758;-0.9289955924240498;1.08;0.03449133547693628
51:24.8;-0.06799998463782135;-0.5459980593789037;-0.9289986519511513;1.08;0.034491731564724015
51:24.8;-0.06799998709173244;-0.5460043941911557;-0.9290029985918128;1.08;0.03449229437487048
51:24.8;-0.0679999899832833;-0.5460125635228449;-0.929008603682558;1.08;0.03449302002675822
51:24.8;-0.06799999295018239;-0.5460222940944233;-0.9290152794228236;1.08;0.034493884103995065
51:24.8;-0.06799999572072164;-0.5460330280724237;-0.9290226429915894;1.08;0.03449483701845729
51:24.8;-0.06799999811256716;-0.5460438845473851;-0.9290300901308776;1.08;0.034495800593322
51:24.8;-0.06800000002429549;-0.5460536442352248;-0.9290367846457122;1.08;0.03449666670046215
51:24.8;-0.06800000142233478;-0.5460607675764824;-0.9290416708002931;1.08;0.034497298856575924
51:24.8;-0.06800000232564804;-0.546063456281544;-0.9290435155031492;1.08;0.03449753767142931
51:24.8;-0.06800000279006167;-0.54605976702739;-0.9290409862529361;1.08;0.034497210922259394
51:24.8;-0.06800000289366315;-0.5460477831616601;-0.9290327688618861;1.08;0.034496148774611456
51:24.8;-0.06800000272422002;-0.5460258456904916;-0.929017725833271;1.08;0.03449420426175949
51:24.8;-0.06800000236914618;-0.5459928384142005;-0.9289950918716865;1.08;0.03449127856339343
51:24.8;-0.0680000019081847;-0.5459485139001053;-0.9289646973990161;1.08;0.034487349896492575
51:24.8;-0.06800000140870094;-0.5458938373444314;-0.9289272043401371;1.08;0.03448250397532541
51:24.8;-0.06800000092328666;-0.5458313148528063;-0.92888433122684;1.08;0.034476963066580074
51:24.8;-0.0680000004892601;-0.5457652621506579;-0.9288390374558213;1.08;0.034471109740572874
51:24.8;-0.06800000012959694;-0.5457019604322133;-0.9287956301576165;1.08;0.034465500608501766
51:24.8;-0.06799999985483046;-0.545649639479688;-0.9287597526233298;1.08;0.034460864770818514
51:24.8;-0.06799999966549994;-0.5456182260741891;-0.9287382117891578;1.08;0.034458081531549216
51:24.8;-0.06799999955479234;-0.5456187999313221;-0.9287386051666426;1.08;0.034458132312058826
51:24.8;-0.06799999951110089;-0.5456627117191405;-0.9287687160578678;1.08;0.034462022771383403
51:24.8;-0.06799999952030414;-0.5457603396491504;-0.9288356609347216;1.08;0.034470673030550195
51:24.8;-0.06799999956764562;-0.5459194935855223;-0.9289447951159095;1.08;0.03448477668480424
51:24.8;-0.0679999996391595;-0.5461435185994892;-0.929098412348728;1.08;0.0345046329879846
51:24.8;-0.06799999972264067;-0.5464292021636856;-0.9292943097434277;1.08;0.034529961140046805
51:24.8;-0.06799999980819668;-0.54676464792219;-0.9295243297875905;1.08;0.03455971082049626
51:24.8;-0.06799999988844448;-0.5471273395377053;-0.9297730326987149;1.08;0.034591888654547154
51:24.8;-0.06799999995842916;-0.5474826738684822;-0.9300166906026002;1.08;0.03462342564574659
51:24.8;-0.06800000001534526;-0.5477832850453447;-0.9302228240430037;1.08;0.034650114985552864
51:24.8;-0.06800000005813801;-0.5479694995375025;-0.930350514026331;1.08;0.034666652008090715
51:24.8;-0.06800000008705298;-0.5479712454059307;-0.9303517112234535;1.08;0.03466680708317664
51:24.8;-0.06800000010319077;-0.5477116746042274;-0.9301737198326534;1.08;0.034643756444414545
51:24.8;-0.06800000010811007;-0.5471126340539811;-0.9297629491737076;1.08;0.03459058387443327
51:24.8;-0.0680000001035092;-0.5461019300637279;-0.9290698950033683;1.08;0.03450094672464737
51:24.8;-0.06800000009100332;-0.5446220659961639;-0.9280551310583163;1.08;0.034369872638798475
51:24.8;-0.06800000007200359;-0.5426397949076419;-0.926695859436352;1.08;0.03419461951143648
51:24.8;-0.06800000004769503;-0.5401554242603395;-0.9249922909703747;1.08;0.03397549305276226
51:24.8;-0.0680000000191013;-0.5372103541305665;-0.9229728142855143;1.08;0.03371647757370506
51:24.8;-0.06799999998721808;-0.5338908478323987;-0.9206965813696985;1.08;0.03342550052653946
51:24.8;-0.06799999995319152;-0.5303255570151462;-0.9182518104977552;1.08;0.03311412337320798
51:24.8;-0.06799999991851341;-0.5266744431703838;-0.9157481895506665;1.042;0.03279647937217906
51:24.8;-0.06799999988520197;-0.523109152283675;-0.9133034186340395;1.042;0.03248750158791596
51:24.8;-0.0679999998559349;-0.5197896458519091;-0.9110271856329714;1.042;0.03220088980812946
51:24.8;-0.06799999983410128;-0.5168445755351605;-0.9090077088305364;1.042;0.031947467755210276
51:24.8;-0.06799999982374069;-0.5143602046639252;-0.9073041402270295;1.042;0.031734317659396015
51:24.8;-0.06799999982934252;-0.5123779333367378;-0.9059448684639527;1.042;0.03156465876138279
51:24.8;-0.06799999985548646;-0.5108980690437196;-0.90493010439425;1.042;0.03143823885409715
51:24.8;-0.06799999990631707;-0.5098873648743579;-0.9042370501387652;1.042;0.03135201513356384
51:24.8;-0.06799999998486121;-0.509288324228484;-0.9038262794590765;1.042;0.031300955638669234
51:24.8;-0.06800000009221822;-0.5090287534537119;-0.9036482881369668;1.042;0.03127884143604279
51:24.8;-0.06800000022667599;-0.5090304995095752;-0.903649485515008;1.042;0.0312789902358103
51:24.8;-0.06800000038283296;-0.5092167143823224;-0.9037771758090264;1.042;0.03129485436813286
51:24.8;-0.06800000055083327;-0.5095173261550892;-0.9039833096986073;1.042;0.031320471055270575
51:24.8;-0.0680000007158463;-0.509872661302743;-0.9042269681860953;1.042;0.03135076185700557
51:24.8;-0.06800000085794126;-0.510235353938833;-0.9044756717944197;1.042;0.03138169198377809
51:24.8;-0.06800000095251496;-0.5105708008751582;-0.9047056926081961;1.042;0.031410309522109325
51:24.8;-0.06800000097142456;-0.5108564856935469;-0.9049015907807707;1.042;0.031434690015469134
51:24.8;-0.06800000088495055;-0.5110805119195272;-0.9050552087116407;1.042;0.03145381380743629
51:24.8;-0.06800000066466434;-0.5112396668693749;-0.9051643434004532;1.042;0.03146740268955908
51:24.8;-0.06800000028719769;-0.5113372954243225;-0.9052312884658917;1.042;0.03147573940981605
51:24.8;-0.06799999973880581;-0.5113812072344692;-0.9052613990882713;1.042;0.031479489243824106
51:24.8;-0.06799999902048477;-0.511381780289038;-0.9052617916036777;1.042;0.03147953783656815
51:24.8;-0.06799999815325226;-0.5113503650482031;-0.9052402491975712;1.042;0.03147685451322813
51:24.8;-0.06799999718303956;-0.51129804106333;-0.9052043693044927;1.042;0.03147238570976848
51:24.8;-0.06799999618448573;-0.5112347350298143;-0.9051609588466012;1.042;0.03146697939533052
51:24.8;-0.06799999526279336;-0.5111686767612603;-0.9051156611885243;1.042;0.03146133849775481
51:24.8;-0.06799999455272264;-0.5111061476395171;-0.9050727836453435;1.042;0.03145599941735293
51:24.8;-0.0679999942137943;-0.5110514637692333;-0.905035285928521;1.042;0.03145133064305366
51:24.8;-0.06799999442087153;-0.5110071318529791;-0.9050048870259801;1.042;0.03144754613083533
51:24.8;-0.06799999534952242;-0.51097411791212;-0.9049822494589604;1.042;0.031444728301266954
51:24.8;-0.0679999971559504;-0.510952175555202;-0.9049672043681548;1.042;0.031442856092631005
51:24.8;-0.06799999995183098;-0.5109401897983066;-0.904958987260961;1.042;0.031441834314061924
51:24.8;-0.06800000377510672;-0.5109365029609322;-0.9049564614652117;1.042;0.03144152144871563
51:24.8;-0.06800000855864449;-0.5109391996853122;-0.9049583135519625;1.042;0.03144175395762176
51:24.8;-0.06800001409960281;-0.51094633776753;-0.9049632116010873;1.042;0.031442365956652465
51:24.8;-0.06800002003331504;-0.5109561196678947;-0.9049699227925362;1.042;0.031443203834706814
51:24.8;-0.06800002581636294;-0.5109670059859462;-0.9049773912074899;1.042;0.031444135926614936
51:24.8;-0.06800003072415925;-0.5109777767713046;-0.9049847798686176;1.042;0.031445057744065356
51:24.8;-0.06800003386862188;-0.5109875493984213;-0.9049914830077795;1.042;0.03144589351092851
51:24.8;-0.06800003424123696;-0.5109957630829489;-0.9049971154748269;1.042;0.0314465948643245
51:24.8;-0.06800003078580429;-0.5110021402500038;-0.9050014862914331;1.042;0.03144713759398839
51:24.8;-0.0680000225032918;-0.5110066341956193;-0.9050045628254667;1.042;0.03144751722646353
51:24.8;-0.06800000858839508;-0.5110093711196517;-0.9050064311250379;1.042;0.03144774414338163
51:24.8;-0.06799998859357952;-0.5110105929267899;-0.9050072567959301;1.042;0.031447838777979
51:24.8;-0.06799996261165804;-0.5110106054208153;-0.9050072495885159;1.042;0.031447827280603864
51:24.8;-0.06799993146254132;-0.5110097348307898;-0.9050066337005259;1.042;0.031447737897377384
51:24.8;-0.06799989686406466;-0.5110082941270785;-0.9050056247831819;1.042;0.031447598176919216
51:24.8;-0.06799986156129526;-0.5110065593806516;-0.9050044138089401;1.042;0.03144743301448182
51:24.8;-0.06799982938417504;-0.5110047555187563;-0.9050031573389489;1.042;0.031447263463708165
51:24.8;-0.0679998052006343;-0.5110030502278701;-0.9050019733137502;1.042;0.03144710619346378
51:24.8;-0.06799979473240214;-0.5110015544205575;-0.9050009412615823;1.042;0.0314469734386836
51:24.8;-0.06799980420465793;-0.5110003275708924;-0.9050001057442416;1.042;0.03144687328651244
51:24.8;-0.0679998398093598;-0.5109993862805984;-0.9049994819051725;1.042;0.031446810148139444
51:24.8;-0.06799990697628927;-0.5109987146113414;-0.9049990621118864;1.042;0.031446785288400406
51:24.8;-0.06800000946593603;-0.5109982749581933;-0.9049988228613033;1.042;0.03144679731539884
51:24.8;-0.06800014832413756;-0.5109980185032376;-0.904998731313255;1.042;0.031446842567410066
51:24.8;-0.06800032076898593;-0.5109978945441978;-0.9049987510114529;1.042;0.03144691537098017
51:24.8;-0.0680005191141311;-0.5109978582186699;-0.9049988465263942;1.042;0.031447008179657406
51:24.8;-0.06800072986646119;-0.5109978763279003;-0.9049989869009729;1.042;0.031447111634814014
51:24.8;-0.06800093316639014;-0.5109979311019776;-0.9049991478925001;1.042;0.03144721461641358
51:24.8;-0.06800110276081574;-0.5109980218452963;-0.904999313084603;1.042;0.03144730437040748
51:24.8;-0.0680012067066232;-0.510998164467434;-0.9049994739926679;1.042;0.031447366808871315
51:24.8;-0.06800120899037375;-0.5109983889541669;-0.9049996293130603;1.042;0.031447387077301846
51:24.8;-0.06800107221162614;-0.51099873488188;-0.9049997834764528;1.042;0.031447350469170625
51:24.8;-0.0680007614081297;-0.5109992451413373;-0.9049999446665634;1.042;0.03144724373972942
51:24.8;-0.06800024899758074;-0.5109999581264205;-0.9050001224642139;1.042;0.03144705682866843
51:24.8;-0.06799952067219488;-0.5110008987683528;-0.9050003252782178;1.042;0.031446784944982153
51:24.8;-0.06799858191229834;-0.5110020689583333;-0.9050005577327265;1.042;0.03144643089906361
51:24.8;-0.06799746459162843;-0.5110034380960072;-0.9050008181965423;1.042;0.03144600749008563
51:24.8;-0.06799623294390036;-0.5110049347137685;-0.9050010966623436;1.042;0.031445539676613454
51:24.8;-0.06799498796746839;-0.5110064403343976;-0.9050013732090402;1.042;0.031445066182813855
51:24.8;-0.06799386918872968;-0.5110077868899917;-0.9050016173025373;1.042;0.031444640131497524
51:24.8;-0.06799305261676872;-0.5110087591239978;-0.905001788201023;1.042;0.031444328260432454
51:24.8;-0.06799274373674737;-0.5110091033706168;-0.9050018367211193;1.042;0.031444208283136016
51:24.8;-0.067993164543751;-0.5110085439105974;-0.9050017085809766;1.042;0.03144436401328155
51:24.8;-0.06799453394533504;-0.5110068076965757;-0.905001349456337;1.042;0.03144487799542522
51:24.8;-0.06799704138520564;-0.5110036575915219;-0.9050007117584155;1.042;0.031445821583466524
51:24.8;-0.06800081427406636;-0.5109989333544521;-0.9049997629642553;1.042;0.03144724268636082
51:24.8;-0.0680058807485546;-0.5109925984473381;-0.9049984951022422;1.042;0.03144915175467826
51:24.8;-0.06801213038109162;-0.510984789368022;-0.9049969347256447;1.042;0.03145150699813083
51:24.8;-0.06801927666637476;-0.5109758627177732;-0.9049951524114409;1.042;0.03145420027751692
51:24.8;-0.06802682631252492;-0.5109664337155049;-0.9049932705253929;1.042;0.0314570455656281
51:24.8;-0.06803406142814568;-0.510957398546439;-0.9049914677318326;1.042;0.03145977226805368
51:24.8;-0.06804004144821446;-0.5109499319967947;-0.9049899785410126;1.042;0.03146202597210859
51:24.8;-0.0680436318828024;-0.5109454515267602;-0.9049890861279987;1.042;0.031463379277320555
51:24.8;-0.06804356649119216;-0.5109455395366544;-0.904989106778031;1.042;0.03146335517770032
51:24.8;-0.06803854807529282;-0.510951817341972;-0.9049903646654165;1.042;0.03146146494166764
51:24.8;-0.06802739057947035;-0.5109657675057535;-0.904993156299204;1.042;0.03145726150939527
51:24.8;-0.0680092014747003;-0.5109885058120874;-0.904997704895415;1.042;0.03145040806065095
51:24.8;-0.06798359849262406;-0.511020510303589;-0.9050041061627404;1.042;0.03144075959280136
51:24.8;-0.06795094880153876;-0.5110613222712296;-0.9050122684810382;1.042;0.03142845312719887
51:24.8;-0.06791261200302504;-0.5111092424752315;-0.9050218521293906;1.042;0.03141399963031838
51:24.8;-0.06787116140608403;-0.5111610545268946;-0.9050322139501573;1.042;0.03139836806646555
51:24.8;-0.06783055166407115;-0.5112118153247929;-0.9050423654277286;1.042;0.03138304945708638
51:24.8;-0.06779619602339687;-0.5112547584835084;-0.9050509533693053;1.042;0.0313700867820049
51:24.8;-0.06777491431659484;-0.5112813593381076;-0.9050562729038293;1.042;0.0313620555118304
51:24.8;-0.06777471476265177;-0.5112816076944761;-0.9050563220324641;1.042;0.03136198010712395
51:24.8;-0.06780437999053167;-0.5112445253042883;-0.9050489051257276;1.042;0.03137317462344352
51:24.8;-0.06787284177418051;-0.5111589474530209;-0.9050317892443471;1.042;0.0313990012675666
51:24.8;-0.06798835081394362;-0.5110145607412785;-0.9050029116993608;1.042;0.031442549851453054
51:24.8;-0.06815747814670829;-0.5108031513306798;-0.9049606297052808;1.042;0.03150625375584072
51:24.8;-0.06838402341631276;-0.5105199696142342;-0.9049039933179887;1.042;0.031591473920122674
51:24.8;-0.06866795147846934;-0.5101650594679514;-0.9048330112884891;1.042;0.03169810059555138
51:24.8;-0.06900453089181159;-0.5097443351438867;-0.9047488664444381;1.042;0.03182424165321117
51:24.8;-0.06938390299001372;-0.5092701199357657;-0.9046540234256076;1.042;0.03196608434692157
51:24.8;-0.06979136472828025;-0.5087607926254609;-0.9045521579749267;1.042;0.03211803300793938
51:24.8;-0.0702086347972344;-0.5082392048439481;-0.9044478404118292;1.038;0.032273213964377094
51:24.8;-0.07061609652013988;-0.5077298774517179;-0.9043459749089202;1.038;0.032424331987679585
51:24.8;-0.07099546859385564;-0.5072556621130029;-0.9042511318068353;1.038;0.03256466347240444
51:24.8;-0.07133204798556787;-0.5068349376735777;-0.904166986889241;1.038;0.03268886815465718
51:24.8;-0.07161597604568777;-0.5064800275164322;-0.9040960048528154;1.038;0.03279342590641279
51:24.8;-0.0718425213528341;-0.5061968460002093;-0.9040393685931646;1.038;0.03287670947290532
51:24.8;-0.07201164878391939;-0.5059854371139866;-0.9039970869333745;1.038;0.0329388022678974
51:24.8;-0.07212715800265054;-0.50584105135674;-0.9039682099968801;1.038;0.03298116934726524
51:24.8;-0.07219562006144577;-0.5057554749729194;-0.9039510950509984;1.038;0.03300626474154024
51:24.8;-0.072225285668491;-0.5057183946049465;-0.9039436794334252;1.038;0.03301713544279694
51:24.8;-0.07222508659437625;-0.5057186455203995;-0.9039437301934775;1.038;0.0330170626735279
51:24.8;-0.07220380545013581;-0.5057452493753274;-0.9039490516407117;1.038;0.033009264892715565
51:24.8;-0.07216945041938479;-0.5057881957869673;-0.9039576416560281;1.038;0.032996674147584004
51:24.8;-0.07212884127995503;-0.5058389597986422;-0.9039677951823826;1.038;0.032981787540871985
51:24.8;-0.0720873912038577;-0.5058907746281378;-0.9039781587740181;1.038;0.03296658843065518
51:24.8;-0.07204905475207969;-0.5059386966813963;-0.9039877436012719;1.038;0.03295252721677942
51:24.8;-0.07201640512766128;-0.5059795090045931;-0.9039959061462365;1.038;0.03294054890209788
51:24.8;-0.07199080182011207;-0.5060115117602381;-0.9040023063069531;1.038;0.032931153728043304
51:24.8;-0.07197261189040723;-0.506034245666919;-0.9040068520983854;1.038;0.03292447771302077
51:24.8;-0.07196145298183598;-0.5060481882960395;-0.9040096389288267;1.038;0.032920381480256916
51:24.8;-0.07195643251316597;-0.5060544551532463;-0.9040108898367912;1.038;0.032918537959336906
51:24.8;-0.07195636443193103;-0.5060545288184753;-0.9040109013420988;1.038;0.032918512024446234
51:24.8;-0.07195995161840886;-0.506050031025187;-0.9040099978855101;1.038;0.03291982759351398
51:24.8;-0.07196592800380222;-0.5060425450906072;-0.9040084963367941;1.038;0.03292201993370938
51:24.8;-0.07197315937787571;-0.506033489966623;-0.9040066808219741;1.038;0.03292467275868989
51:24.8;-0.07198070557001812;-0.5060240425429808;-0.9040047871923006;1.038;0.03292744109488085
51:24.8;-0.07198784919417026;-0.5060151017000346;-0.9040029958302525;1.038;0.03293006183228931
51:24.8;-0.07199409755670572;-0.5060072858473785;-0.9040014311356516;1.038;0.0329323543987473
51:24.8;-0.07199916480815087;-0.5060009550840364;-0.9040001659152943;1.038;0.03293421417155956
51:24.8;-0.07200294117942262;-0.5059962494198272;-0.9039992289613338;1.038;0.03293560114690183
51:24.8;-0.07200545539304364;-0.505993135441444;-0.9039986142941652;1.038;0.032936526106291344
51:24.8;-0.072006835278618;-0.5059914551420386;-0.9039982908150936;1.038;0.03293703612608776
51:24.8;-0.07200727042223999;-0.5059909721439846;-0.9039982114194537;1.038;0.032937200834211484
51:24.8;-0.07200697947980075;-0.5059914120577081;-0.9039983209273288;1.038;0.03293710037852822
51:24.8;-0.07200618368579378;-0.5059924951074679;-0.9039985624708569;1.038;0.032936815670109816
51:24.8;-0.07200508715792404;-0.5059939603343611;-0.9039988822173063;1.038;0.03293642112514371
51:24.8;-0.07200386386748167;-0.5059955816135978;-0.9039992324963645;1.038;0.03293597986340281
51:24.8;-0.07200265062366956;-0.505997176385573;-0.9039995735354764;1.038;0.032935541131258954
51:24.8;-0.07200154509452968;-0.5059986084114013;-0.9039998740904904;1.038;0.032935139598436636
51:24.8;-0.07200060773183668;-0.5059997860531276;-0.9040001112954873;1.038;0.032934796120385794
51:24.8;-0.07199986644855819;-0.5060006575862918;-0.9040002700526518;1.038;0.032934519549815196
51:24.8;-0.0719993229786287;-0.5060012049213379;-0.9040003422484039;1.038;0.03293430920806515
51:24.8;-0.07199895999435052;-0.506001436883286;-0.9040003260238523;1.038;0.032934157676527354
51:24.8;-0.07199874823514515;-0.5060013829152197;-0.9040002252536852;1.038;0.03293405362865597
51:24.8;-0.07199865308679333;-0.506001087764072;-0.9040000493049279;1.038;0.032933984484884195
51:24.8;-0.0719986402235053;-0.5060006074043704;-0.9039998130620687;1.038;0.03293393872918343
51:24.8;-0.07199868007371539;-0.5060000061785487;-0.9039995371238427;1.038;0.03293390777298597
51:24.8;-0.0719987509883056;-0.5059993548975019;-0.9039992480052259;1.038;0.03293388728820827
51:24.8;-0.07199884107645464;-0.5059987294644569;-0.9039989781216009;1.038;0.03293387795688874
51:24.8;-0.07199894873331746;-0.5059982094681214;-0.9039987652963987;1.038;0.03293388560304607
51:24.8;-0.07199908192227185;-0.5059978761443527;-0.9039986515245777;1.038;0.03293392068663563
51:24.8;-0.07199925630139856;-0.5059978091343761;-0.9039986807476992;1.038;0.032933997154526856
51:24.8;-0.07199949230864282;-0.5059980815751295;-0.9039988954569738;1.038;0.0329341306639559
51:24.8;-0.07199981135153459;-0.5059987532443846;-0.9039993320419858;1.038;0.03293433622412483
51:24.8;-0.07200023129241198;-0.5059998617470652;-0.904000014945937;1.038;0.032934625344576314
51:24.8;-0.07200076148295875;-0.5060014120616418;-0.9040009498708019;1.038;0.03293500283597673
51:24.8;-0.072001397682988;-0.5060033651517225;-0.9040021164907267;1.038;0.03293546347899011
51:24.8;-0.07200211729387311;-0.5060056267644073;-0.9040034613665626;1.038;0.03293598885626146
51:24.8;-0.07200287543817581;-0.506008037950027;-0.904004891989374;1.038;0.03293654472432315
51:24.8;-0.07200360251037477;-0.5060103692033109;-0.9040062730899642;1.038;0.03293707937651205
51:24.8;-0.07200420389126722;-0.5060123203893981;-0.9040074265023876;1.038;0.03293752350180616
51:24.8;-0.07200456253921989;-0.506013528716858;-0.9040081359243194;1.038;0.03293779206256585
51:24.8;-0.07200454512164348;-0.5060135868871322;-0.9040081578355413;1.038;0.032937788679865014
51:24.8;-0.0720040122067557;-0.5060120731202684;-0.9040072395780354;1.038;0.03293741291200274
51:24.8;-0.07200283277888325;-0.5060085939748123;-0.9040051451333325;1.038;0.032936570625744496
51:24.8;-0.07200090295680107;-0.5060028397091362;-0.9040016884326854;1.038;0.03293518738151426
