loggingTime,loggingSample,identifierForVendor,deviceID,locationTimestamp_since1970,locationLatitude,locationLongitude,locationAltitude,locationSpeed,locationCourse,locationVerticalAccuracy,locationHorizontalAccuracy,locationFloor,locationHeadingTimestamp_since1970,locationHeadingX,locationHeadingY,locationHeadingZ,locationTrueHeading,locationMagneticHeading,locationHeadingAccuracy,accelerometerTimestamp_sinceReboot,accelerometerAccelerationX,accelerometerAccelerationY,accelerometerAccelerationZ,gyroTimestamp_sinceReboot,gyroRotationX,gyroRotationY,gyroRotationZ,magnetometerTimestamp_sinceReboot,magnetometerX,magnetometerY,magnetometerZ,motionTimestamp_sinceReboot,motionYaw,motionRoll,motionPitch,motionRotationRateX,motionRotationRateY,motionRotationRateZ,motionUserAccelerationX,motionUserAccelerationY,motionUserAccelerationZ,motionAttitudeReferenceFrame,motionQuaternionX,motionQuaternionY,motionQuaternionZ,motionQuaternionW,motionGravityX,motionGravityY,motionGravityZ,motionMagneticFieldX,motionMagneticFieldY,motionMagneticFieldZ,motionMagneticFieldCalibrationAccuracy,activityTimestamp_sinceReboot,activity,activityActivityConfidence,activityActivityStartDate,pedometerStartDate,pedometerNumberofSteps,pedometerAverageActivePace,pedometerCurrentPace,pedometerCurrentCadence,pedometerDistance,pedometerFloorAscended,pedometerFloorDescended,pedometerEndDate,altimeterTimestamp_sinceReboot,altimeterReset,altimeterRelativeAltitude,altimeterPressure,IP_en0,IP_pdp_ip0,deviceOrientation,batteryState,batteryLevel,avAudioRecorderPeakPower,avAudioRecorderAveragePower,label
1607223833.153992,1,0,0,1607223831.999904,24.60002233317848,73.67838062135942,599.1843,0,210.3954278351885,3.36680270782463,4.742275462198878,-9999,1607223832.292899,36.73500823974609,-7.243746757507324,-24.94474029541016,277.1431274414062,276.4077453613281,15.85870361328125,34703.543131,-0.045928955078125,-0.27716064453125,-0.9571380615234375,34703.018434375,-0.199312835931778,-0.397503674030304,-0.1412463337182999,34703.29245437501,-113.0048370361328,-17.62844848632812,-145.2657470703125,34702.580143375,-0.02268258899663618,0.07792726608166908,0.3547351398523624,0.3203252553939819,0.3496871888637543,0.1903719007968903,0.01929894834756851,-0.01127004623413086,-0.01151841878890991,2,0.1767286513768234,0.03634070007714782,-0.004282129973675025,0.9835791660068676,0.07300145924091339,-0.3473420143127441,-0.9348926544189453,35.71860504150391,-5.553807258605957,-26.92884063720703,2,34698.88067766667,4,2,1607223828.48761,1607223123.808484,1196,0.673888,0,0,934.9193,0,0,1607223761.804239,34700.395187,0,-0.6975708,94.8784,0,1682321854,1,1,0.34,-120,-120,2
1607223834.155808,2,0,0,1607223833.999899,24.60002003174723,73.67837816475277,599.1305,0,210.3954268883853,3.362440047734403,4.745369738827597,-9999,1607223833.29475,32.20267486572266,-1.913605690002441,-32.12218475341797,282.7180480957031,281.982666015625,15.84944725036621,34704.544939375,-0.0411529541015625,-0.275665283203125,-0.951416015625,34704.020244,0.01103853620588779,0.04768656194210052,0.02948492206633091,34704.293806,-113.59765625,-17.67820739746094,-145.7560119628906,34703.581952,-0.07407245325833343,-0.04078717940689086,0.2897483810876644,0.02215845510363579,-0.003288924694061279,0.007236406207084656,0.002500846982002258,0.002935260534286499,0.008452653884887695,2,0.1434917704797689,-0.0255092212389493,-0.03957419862998644,0.9885308713127267,-0.03907616063952446,-0.2857111096382141,-0.9575187563896179,32.27285003662109,-1.809971809387207,-31.61829376220703,2,34698.88067766667,4,2,1607223828.48761,1607223123.808484,1196,0.673888,0,0,934.9193,0,0,1607223761.804239,34701.460992,0,-0.6975708,94.8784,0,1682321854,1,1,0.34,-120,-120,2
1607223835.155341,3,0,0,1607223833.999899,24.60002003174723,73.67837816475277,599.1305,0,210.3954268883853,3.362440047734403,4.745369738827597,-9999,1607223834.296168,32.18158721923828,-1.945794105529785,-31.23250579833984,282.3188171386719,281.5834350585938,15.8194580078125,34705.546748125,0.2302093505859375,-0.3983306884765625,-0.8267059326171875,34705.022050375,-0.09699872136116028,0.03876657038927078,0.03728265687823296,34705.295060375,-110.9978942871094,-20.60610961914062,-141.4332885742188,34704.583759375,-0.06631292042430494,-0.04086865688662268,0.2851136327439953,0.004241343587636948,0.008765466511249542,-0.012825065292418,0.0007251985371112823,0.003693878650665283,0.004696369171142578,2,0.141296239133593,-0.02492335841935301,-0.03570865581981374,0.989009123403343,-0.03920786082744598,-0.2812665104866028,-0.9588283896446228,32.51201629638672,-1.958353996276855,-31.38950347900391,2,34704.962401375,4,2,1607223834.569334,1607223123.808484,1196,0.673888,0,0,934.9193,0,0,1607223761.804239,34702.526783,0,-0.7002563,94.87843,0,1682321854,1,1,0.34,-120,-120,2
1607223836.15928,4,0,0,1607223835.999894,24.60001975357504,73.67837363791396,599.0359,0,210.3954253431845,3.352208459320784,4.752603021297594,-9999,1607223835.312818,34.85938262939453,-5.694277763366699,-27.17566680908203,279.1153869628906,278.3800048828125,15.829421043396,34706.548559625,0.0519866943359375,-0.3165435791015625,-0.9481658935546875,34706.023861125,0.2380732893943787,0.4036974012851715,0.1055839508771896,34706.296396125,-110.5347595214844,-20.33135986328125,-142.0126953125,34705.585569125,0.01084934103374714,0.1238332752187072,0.3819281887546174,-0.2238145470619202,-0.5239324569702148,-0.04551166296005249,0.03909970074892044,-0.03891068696975708,0.02225184440612793,2,0.1891094859477998,0.06177902119917619,0.01706026645538512,0.9798622329876664,0.1146173402667046,-0.3727104067802429,-0.9208419322967529,37.15894317626953,-7.308600425720215,-24.04163360595703,2,34704.962401375,4,2,1607223834.569334,1607223123.808484,1196,0.673888,0,0,934.9193,0,0,1607223761.804239,34703.592563,0,-0.7002563,94.87843,0,1682321854,1,1,0.34,-120,-120,2
1607223837.161276,5,0,0,1607223835.999894,24.60001975357504,73.67837363791396,599.0359,0,210.3954253431845,3.352208459320784,4.752603021297594,-9999,1607223836.319802,35.92563629150391,-1.190997123718262,-27.16591644287109,284.5847473144531,283.849365234375,15.83664035797119,34707.55037125,0.0774078369140625,-0.3031158447265625,-0.942138671875,34707.025673625,-0.381212055683136,-0.007311176043003798,0.3751965165138245,34707.297795625,-109.9843444824219,-17.59757995605469,-140.9087219238281,34706.592388625,-0.008492079943807769,0.05383661394591614,0.3128253975485101,-0.06235114112496376,-0.04676973819732666,-0.3256461918354034,-0.02875339984893799,0.01551187038421631,-0.02603065967559814,2,0.155830757701012,0.02592506163192981,0,0.9874434954830197,0.05119906738400459,-0.3077481389045715,-0.9500893354415894,35.1868896484375,-2.827670097351074,-27.27088165283203,2,34704.962401375,4,2,1607223834.569334,1607223123.808484,1196,0.673888,0,0,934.9193,0,0,1607223761.804239,34704.658364,0,-0.7002563,94.87843,0,1682321854,1,1,0.34,-120,-120,2
1607223838.163058,6,0,0,1607223837.999888,24.60001989013251,73.67838242846464,599.0402,0,210.3954283234508,3.3862907055652,4.72837945708586,-9999,1607223837.321638,35.87287139892578,-2.26070499420166,-27.31822967529297,282.2994079589844,281.5640258789062,15.83686637878418,34708.552181625,0.1656951904296875,-0.14422607421875,-0.981964111328125,34708.02748525,-0.02259558998048306,0.1574354320764542,0.1021956130862236,34708.29915525,-109.8244323730469,-17.85308837890625,-141.6885833740234,34707.59420025,-0.0262933755020434,0.06629782314417404,0.3159234331107417,0.06669478118419647,0.01604652777314186,-0.03608973696827888,0.0142999142408371,0.001139342784881592,0.01755928993225098,2,0.1576358939527467,0.03066052921432708,-0.007762400036264688,0.986990737482163,0.06297058612108231,-0.3106943368911743,-0.9484217166900635,35.17549133300781,-2.204318046569824,-27.65781402587891,2,34704.962401375,4,2,1607223834.569334,1607223123.808484,1196,0.673888,0,0,934.9193,0,0,1607223761.804239,34705.72416,0,-0.7002563,94.87843,0,1682321854,1,1,0.34,-120,-120,2
1607223839.165043,7,0,0,1607223837.999888,24.60001989013251,73.67838242846464,599.0402,0,210.3954283234508,3.3862907055652,4.72837945708586,-9999,1607223838.323515,35.49771118164062,-8.622309684753418,-27.07634735107422,267.2913208007812,266.5559387207031,15.83725547790527,34709.553992625,-0.5630035400390625,-0.045013427734375,-0.92584228515625,34709.02929562501,-0.4991922378540039,0.9181375503540039,1.448639988899231,34709.300502625,-111.1704864501953,-29.59951782226562,-138.8674163818359,34708.596010625,0.1631261209879566,0.02437923567305752,0.2170887038646282,0.01100080087780952,0.3441124856472015,0.7596331834793091,0.1401662826538086,-0.06918875873088837,0.1021997332572937,2,0.1069759194253395,0.0209026807373234,0.08230325289959543,0.9906288242451126,0.02380466461181641,-0.2153875827789307,-0.976238489151001,35.58904266357422,-5.365969657897949,-28.15084075927734,2,34704.962401375,4,2,1607223834.569334,1607223123.808484,1196,0.673888,0,0,934.9193,0,0,1607223761.804239,34706.7899,0,-0.7028809,94.87846,0,1682321854,1,1,0.34,-120,-120,2
1607223840.167036,8,0,0,1607223839.999883,24.60001315706371,73.67837654500671,598.9306,0.6275647,229.6911669715009,3.384221185732489,4.729860885779646,-9999,1607223839.3252,-16.61566162109375,-21.17284393310547,-36.94857025146484,250.37841796875,249.6430358886719,15.87198352813721,34710.55580366667,-1.067520141601562,0.1842193603515625,1.497116088867188,34710.031105625,1.56332540512085,-0.6025583148002625,1.447094917297363,34710.301870625,-180.617919921875,-25.64479064941406,-125.6968841552734,34709.597820625,0.5990723521774846,-1.014804278999051,0.1676080422702956,2.334651470184326,-5.571462631225586,0.03869468346238136,-0.03607583045959473,0.1441498845815659,-0.4894670844078064,2,0.2127794665258514,-0.4410553553560277,0.2181327630446389,0.8441642483952904,-0.8374746441841125,-0.1668243855237961,-0.5203901529312134,-3.267440795898438,-18.44050979614258,-41.16223907470703,2,34704.962401375,4,2,1607223834.569334,1607223123.808484,1196,0.673888,0,0,934.9193,0,0,1607223761.804239,34706.7899,0,-0.7028809,94.87846,0,1682321854,1,1,0.34,-120,-120,2
1607223841.168602,9,0,0,1607223839.999883,24.60001315706371,73.67837654500671,598.9306,0.6275647,229.6911669715009,3.384221185732489,4.729860885779646,-9999,1607223840.327314,-39.27790832519531,-17.48309326171875,-3.481887817382812,219.04833984375,218.3129577636719,15.9226016998291,34711.55761479167,-0.295166015625,2.095718383789062,-0.0084686279296875,34711.03291666667,2.076837062835693,-0.5802546143531799,2.10295295715332,34711.30325266667,-188.9020843505859,-13.47151184082031,-131.9712677001953,34710.59963166667,0.7880345488262254,-2.326910218690697,-0.3900972287138405,-0.8799176216125488,-0.3607441186904907,-1.240641593933105,-0.2349242568016052,-0.0003038346767425537,0.4647651314735413,2,0.2749056448200283,-0.861222402791096,0.3135258045161727,0.2905588796933506,-0.6728516817092896,0.3802783489227295,0.6345542669296265,-35.5997314453125,-14.39834308624268,-3.784637451171875,2,34704.962401375,4,2,1607223834.569334,1607223123.808484,1196,0.673888,0,0,934.9193,0,0,1607223761.804239,34707.855695,0,-0.7372437,94.87885,0,1682321854,1,1,0.34,-120,-120,2
1607223842.170703,10,0,0,1607223841.999879,24.60000334658191,73.67835453147728,599.2086,1.041014,231.0435273095136,3.384351332875406,4.729767762634156,-9999,1607223841.329134,-37.59609985351562,21.28977012634277,-13.39636993408203,108.4089660644531,107.673583984375,15.98157596588135,34712.559425625,0.0776214599609375,0.9770965576171875,-0.0207366943359375,34712.03472779167,1.418424844741821,0.9945977330207825,1.895300626754761,34712.30462379167,-175.3522491455078,17.41020202636719,-115.5427703857422,34711.60144279167,-3.087491529701658,0.1431111669136711,-1.355835431473365,2.303105354309082,0.3021082580089569,-0.009064363315701485,-0.06518229842185974,-0.08426934480667114,-0.05066674947738647,2,-0.03874543571555394,-0.6268449620327456,0.777815656141257,0.02381035886813124,0.03042280673980713,0.9769847393035889,-0.211128368973732,-35.99739074707031,23.46352005004883,-14.28684234619141,2,34712.01545779167,4,2,1607223841.62239,1607223123.808484,1196,0.673888,0,0,934.9193,0,0,1607223761.804239,34708.921491,0,-0.7636719,94.87914,0,1682321854,1,1,0.34,-120,-120,2
1607223843.172422,11,0,0,1607223841.999879,24.60000334658191,73.67835453147728,599.2086,1.041014,231.0435273095136,3.384351332875406,4.729767762634156,-9999,1607223842.330764,-28.94732666015625,33.2789192199707,1.4249267578125,74.15414428710938,73.41876220703125,16.00589752197266,34713.561238,0.7310943603515625,0.976104736328125,-0.226654052734375,34713.03653962501,0.1951266229152679,-1.374218821525574,1.160212755203247,34713.305964625,-165.2114410400391,22.56515502929688,-117.2758636474609,34712.603254625,-1.204605867288721,1.632664331295384,-1.287187720666557,-0.9559402465820312,0.8273108601570129,0.1469345986843109,-0.1025747954845428,-0.13490229845047,0.09846735000610352,2,0.008448967179787131,-0.7131473307165499,0.6706950854905351,-0.2037588966081357,0.2792868614196777,0.960051953792572,0.01730100065469742,-29.96076965332031,31.7425537109375,5.390815734863281,2,34712.01545779167,4,2,1607223841.62239,1607223123.808484,1196,0.673888,0,0,934.9193,0,0,1607223761.804239,34709.987265,0,-0.7715454,94.87923,0,1682321854,1,1,0.34,-120,-120,2
1607223844.174053,12,0,0,1607223843.999875,24.59999178003405,73.67833966491609,597.8897,1.161135,234.9399851679283,3.384386551402282,4.729742562072084,-9999,1607223843.332532,-27.218505859375,34.17718887329102,-1.283248901367188,79.30251312255859,78.56713104248047,16.02608108520508,34714.56305091667,0.2287445068359375,1.200698852539062,0.2939300537109375,34714.038352,-0.6274010539054871,-0.3315526247024536,-0.579809844493866,34714.307326,-171.6404113769531,19.47193908691406,-115.7192230224609,34713.605067,-1.141345770463382,1.978093049814968,-1.215178614920595,-0.3803215026855469,0.5604936480522156,-0.05541304498910904,0.4026790261268616,-0.1803210973739624,-0.05616332590579987,2,-0.1065724969883103,-0.7467276690937242,0.6451034367338062,-0.1219900666629878,0.3196872770786285,0.9374315738677979,0.1379198133945465,-27.20498657226562,33.65000915527344,-2.596794128417969,2,34714.269193,4,1,1607223843.876126,1607223123.808484,1196,0.673888,0,0,934.9193,0,0,1607223761.804239,34711.053061,0,-0.7900391,94.87945,0,1682321854,1,1,0.34,-120,-120,2
1607223845.175777,13,0,0,1607223843.999875,24.59999178003405,73.67833966491609,597.8897,1.161135,234.9399851679283,3.384386551402282,4.729742562072084,-9999,1607223844.334358,-27.23420715332031,34.58172225952148,-3.617050170898438,83.34032440185547,82.60494232177734,16.04579162597656,34715.564864125,0.1862335205078125,0.731170654296875,0.25164794921875,34715.04016491667,-0.4014624655246735,-0.05050311982631683,0.04172055050730705,34715.30866191667,-171.6921997070312,19.50077819824219,-112.2841796875,34714.60687991667,-1.26396853294348,1.802730445408681,-1.112881847984826,-0.2349364012479782,-0.2132460027933121,-0.6956531405448914,0.001735031604766846,0.5061456561088562,0.05457247793674469,2,-0.1289166815260749,-0.7308821025090755,0.6454600241553886,-0.1804807071319977,0.4302413761615753,0.8969764113426208,0.1016163155436516,-22.43717956542969,36.5438232421875,-2.764839172363281,2,34714.269193,4,1,1607223843.876126,1607223123.808484,1196,0.673888,0,0,934.9193,0,0,1607223761.804239,34712.118912,0,-0.8270874,94.87988,0,1682321854,1,1,0.34,-120,-120,2
1607223846.177559,14,0,0,1607223845.999869,24.59998067347433,73.67831751652139,598.1765,1.154334,241.0614493599414,3.374081659545837,4.737099322106857,-9999,1607223845.33615,-23.37672424316406,35.88154602050781,0.303314208984375,70.99653625488281,70.26115417480469,16.06560707092285,34716.56667825,0.316009521484375,0.7082977294921875,0.230743408203125,34716.041979125,-0.2477397620677948,-0.05591253563761711,-0.05457056686282158,34716.310016125,-172.1393432617188,17.68338012695312,-106.0902862548828,34715.608693125,-1.114492417464601,2.010306811663326,-1.100417293547046,0.2407091856002808,-0.2605552673339844,0.3880673348903656,-0.2417844235897064,0.005469322204589844,0.1144512891769409,2,-0.1427471100453399,-0.7589769121314643,0.616255166497353,-0.1542949678518291,0.4101499319076538,0.8913965821266174,0.1928453743457794,-22.5633544921875,36.75360870361328,-0.4492034912109375,2,34714.269193,4,1,1607223843.876126,1607223123.808484,1196,0.673888,0,0,934.9193,0,0,1607223761.804239,34713.184709,0,-0.8349609,94.87994,0,1682321854,1,1,0.34,-120,-120,2
1607223847.179437,15,0,0,1607223845.999869,24.59998067347433,73.67831751652139,598.1765,1.154334,241.0614493599414,3.374081659545837,4.737099322106857,-9999,1607223846.337996,-22.83567810058594,36.31060791015625,5.163619995117188,68.34799957275391,67.61261749267578,16.08505249023438,34717.5684925,0.3387298583984375,0.883819580078125,0.35272216796875,34717.04379225,-0.1553805321455002,0.8008804321289062,-0.2392818331718445,34717.31131925,-172.0956115722656,18.75746154785156,-108.9176483154297,34716.61050625,-0.8067168178695308,2.239163075899855,-1.037168794352094,0.5159972310066223,-0.05402132123708725,0.175688624382019,-0.2221967279911041,-0.09772300720214844,0.1169250905513763,2,-0.1079966959980528,-0.8037077881239315,0.5589032101604082,-0.1732560712607311,0.3992139101028442,0.8609675765037537,0.315218985080719,-23.15130615234375,36.01182556152344,6.655937194824219,2,34716.83040325,4,1,1607223846.437336,1607223123.808484,1208,0.6721817,0,0,946.2051,0,0,1607223846.437512,34714.250486,0,-0.840271,94.88,0,1682321854,1,1,0.34,-120,-120,2
1607223848.183213,16,0,0,1607223847.999863,24.59996825946475,73.67829140103446,598.0186,1.29369,241.2900430450734,3.371720728996289,4.738780049595631,-9999,1607223847.339704,-23.23420715332031,36.07264709472656,7.244346618652344,64.09053039550781,63.35514831542969,16.08182907104492,34718.57030791667,0.42840576171875,0.748321533203125,-0.3062591552734375,34718.0456075,0.06102553755044937,-0.6145534515380859,-0.124145120382309,34718.3128175,-171.2008972167969,20.11016845703125,-109.1305236816406,34717.6123215,-0.759316216041715,2.315026620927934,-1.046117547303738,0.02080780267715454,-0.8061956167221069,0.02139448374509811,-0.1123127043247223,-0.05022305250167847,-0.1637535393238068,2,-0.1076861354950875,-0.8112162533978049,0.553839233023632,-0.1536032385729905,0.3684925138950348,0.865484893321991,0.3393362164497375,-24.5859375,35.67384338378906,6.179954528808594,2,34716.83040325,4,1,1607223846.437336,1607223123.808484,1208,0.6721817,0,0,946.2051,0,0,1607223846.437512,34715.316277,0,-0.9036865,94.88075,0,1682321854,1,1,0.34,-120,-120,2
1607223849.178937,17,0,0,1607223847.999863,24.59996825946475,73.67829140103446,598.0186,1.29369,241.2900430450734,3.371720728996289,4.738780049595631,-9999,1607223848.341637,-18.27607727050781,38.77860641479492,4.447525024414062,57.96994018554688,57.23455429077148,16.07089996337891,34719.57212225,1.022872924804688,0.50408935546875,0.1688995361328125,34719.04742091667,-0.5460401773452759,0.482415109872818,0.3718579709529877,34719.31427191667,-154.2172241210938,27.98341369628906,-111.1873779296875,34718.61413591667,-0.955865694127717,2.256517121767399,-0.9604812077118101,0.68739253282547,-1.577661871910095,-0.01078962255269289,0.04772442579269409,0.3596251010894775,-0.2343811690807343,2,-0.1929493911889248,-0.8026400778460074,0.5453914709206398,-0.1452159276665984,0.4435781538486481,0.8194674849510193,0.3629211187362671,-20.05683898925781,37.82236480712891,3.64996337890625,2,34719.39534091667,4,2,1607223849.002274,1607223123.808484,1212,0.6727512,0,0,948.6503,0,0,1607223849.002406,34716.382071,0,-0.9301147,94.88105,0,1682321854,1,1,0.34,-120,-120,2
1607223850.179617,18,0,0,1607223849.999858,24.59994906313206,73.67827446597141,597.4568,1.518551,228.1345483144765,3.362203466850384,4.745537364755239,-9999,1607223849.356888,7.311737060546875,43.92452621459961,2.291297912597656,31.69181060791016,30.9564266204834,16.06320381164551,34720.573937375,1.271392822265625,0.492095947265625,0.527587890625,34720.04923725,-0.456525981426239,-0.06643388420343399,2.659937381744385,34720.31565025,-113.8486022949219,14.61311340332031,-110.0316162109375,34719.61595125,-1.185963134176147,2.160376836666157,-0.6034431950748133,-0.9022318124771118,-1.459948182106018,1.489567041397095,0.4410803318023682,0.201058566570282,-0.01877212524414062,2,-0.3545430199610317,-0.776663242185808,0.4687725797665723,-0.2265958459629043,0.6843774318695068,0.5674809217453003,0.4578130841255188,-4.257659912109375,43.9637565612793,5.754005432128906,2,34719.39534091667,4,2,1607223849.002274,1607223123.808484,1212,0.6727512,0,0,948.6503,0,0,1607223849.002406,34717.447807,0,-0.9591675,94.88139,0,1682321854,1,1,0.34,-120,-120,2
1607223851.181403,19,0,0,1607223849.999858,24.59994906313206,73.67827446597141,597.4568,1.518551,228.1345483144765,3.362203466850384,4.745537364755239,-9999,1607223850.358979,5.496429443359375,43.27408981323242,3.160636901855469,58.0377082824707,57.30232238769531,16.07756805419922,34721.57575341667,1.289871215820312,0.7612457275390625,0.212615966796875,34721.05105237501,-1.451945781707764,-0.5901343822479248,-1.089942336082458,34721.316968375,-145.1587829589844,22.82919311523438,-93.43959045410156,34720.617766375,-1.460533501253805,2.266673736324585,-0.4587953820466671,1.795513987541199,3.773104429244995,0.3732058703899384,0.1421539783477783,0.2093379199504852,-0.04047858715057373,2,-0.5166550410871401,-0.7214221983311094,0.4286462285390529,-0.169940686570125,0.6881224513053894,0.4428683817386627,0.5747648477554321,6.553237915039062,44.23555374145508,1.120948791503906,2,34721.310914375,4,2,1607223850.917847,1607223123.808484,1212,0.6727512,0,0,948.6503,0,0,1607223849.002406,34718.513628,0,-0.9909058,94.88173,0,1682321854,1,1,0.34,-120,-120,2
1607223852.183314,20,0,0,1607223851.999853,24.5999294557771,73.67826676662234,596.6445,1.437427,216.9373301608722,3.360608776804916,4.746666797032482,-9999,1607223851.360891,2.112823486328125,39.77099609375,19.53176879882812,5.825963020324707,5.090579032897949,15.60737705230713,34722.57757054167,0.905364990234375,0.168975830078125,0.402618408203125,34722.05286841667,0.3831945359706879,-1.433590531349182,0.8229900002479553,34722.31825341667,-128.1014099121094,22.36224365234375,-118.6089172363281,34721.61958341667,-0.9387981598785019,1.869595101848962,-0.4796098881680704,0.2194659262895584,0.6933549046516418,0.5282589793205261,0.5130816698074341,0.0163959264755249,-0.1901760101318359,2,-0.2276735509780224,-0.7607527088649151,0.4314067894875345,-0.4281451521612235,0.8478649854660034,0.4614331126213074,0.2611598670482635,-0.314910888671875,40.63658905029297,18.00326538085938,2,34721.310914375,4,2,1607223850.917847,1607223123.808484,1212,0.6727512,0,0,948.6503,0,0,1607223849.002406,34719.57944,0,-1.035828,94.88225,0,1682321854,1,1,0.34,-120,-120,2
1607223853.185104,21,0,0,1607223851.999853,24.5999294557771,73.67826676662234,596.6445,1.437427,216.9373301608722,3.360608776804916,4.746666797032482,-9999,1607223852.362409,8.533599853515625,40.08977890014648,13.56658935546875,9.493300437927246,8.757916450500488,15.6156177520752,34723.57938800001,0.5496673583984375,0.217041015625,0.0877227783203125,34723.05468554167,0.1633167564868927,-0.1239107623696327,0.4756152629852295,34723.31961354167,-135.4496917724609,24.57868957519531,-103.2566070556641,34722.62139954167,-1.03954862604254,1.795296080582301,-0.2736569465892014,0.3175947666168213,0.4006967544555664,0.2341275960206985,0.4360206723213196,0.2995091080665588,0.1269888877868652,2,-0.310900592553689,-0.7144985938514797,0.3993266841780229,-0.4830846448451189,0.9386283755302429,0.2702541053295135,0.2143348455429077,10.4000244140625,38.80104446411133,14.856201171875,2,34721.310914375,4,2,1607223850.917847,1607223123.808484,1212,0.6727512,0,0,948.6503,0,0,1607223849.002406,34720.645223,0,-1.043701,94.88234,0,1682321854,1,1,0.34,-120,-120,2
1607223854.187053,22,0,0,1607223853.999848,24.59991749390216,73.67823953280279,595.9162,1.204099,225.789159976721,3.383608379898654,4.730299289079755,-9999,1607223853.364407,8.420074462890625,40.12196350097656,13.31149291992188,10.4579496383667,9.722565650939941,15.48252105712891,34724.581205625,0.821990966796875,0.46826171875,-0.3621826171875,34724.056504,0.8451126217842102,-0.3444388806819916,0.5125453472137451,34724.320859,-135.2922058105469,24.59605407714844,-102.9076080322266,34723.623218,-1.016305416471883,1.71467245666196,-0.3691550304614543,-0.01738389022648335,0.6972911357879639,0.0216169748455286,-0.3500898480415344,-0.06173995137214661,0.007147923111915588,2,-0.2567071699933963,-0.7077866841392544,0.4342591003051116,-0.4945286541299799,0.922996461391449,0.3608275055885315,0.1337211281061172,10.20689392089844,39.15428161621094,15.29499816894531,2,34724.52607,4,2,1607223854.133003,1607223123.808484,1217,0.6732238,0,0,951.8832,0,0,1607223851.568622,34721.710982,0,-1.072815,94.88268,0,1682321854,1,1,0.34,-120,-120,2
1607223855.188828,23,0,0,1607223853.999848,24.59991749390216,73.67823953280279,595.9162,1.204099,225.789159976721,3.383608379898654,4.730299289079755,-9999,1607223854.366014,-4.544082641601562,43.5677490234375,7.539596557617188,83.50168609619141,82.76630401611328,15.48014068603516,34725.583023125,0.86126708984375,0.077423095703125,-0.4606781005859375,34725.058321625,-0.4658222794532776,-2.280383586883545,-0.1153577491641045,34725.322101625,-137.7757415771484,23.61341857910156,-94.79768371582031,34724.625035625,-1.238049416306939,1.993074091073073,-0.7080601168969811,0.2236715108156204,4.293286323547363,-0.08885852992534637,-0.1545525193214417,-0.06904727220535278,0.3155832588672638,2,-0.30357741204752,-0.750668254544145,0.5327087433365769,-0.2460882580024343,0.6928979754447937,0.6503614187240601,0.3113241493701935,-3.261184692382812,43.36279296875,5.482490539550781,2,34724.83747562501,4,2,1607223854.444408,1607223123.808484,1217,0.6732238,0,0,951.8832,0,0,1607223851.568622,34722.776756,0,-1.112427,94.88312,0,1682321854,1,1,0.34,-120,-120,2
1607223856.190632,24,0,0,1607223855.999842,24.5999014023147,73.67822868826427,597.2783,1.156992,211.2993552769177,3.389088159309428,4.726374771557739,-9999,1607223855.367862,14.86918640136719,39.20719909667969,9.065681457519531,358.2564697265625,357.5210876464844,15.49193000793457,34726.584842875,0.8502197265625,0.639923095703125,-0.246673583984375,34726.060139125,-0.2151607722043991,2.5101478099823,0.7463748455047607,34726.323489125,-129.8583984375,23.70709228515625,-100.9160461425781,34725.626853125,-1.055616540965772,1.460274158057658,-0.3830885547604547,1.883961200714111,-1.250802159309387,0.02629462815821171,-0.2318531274795532,-0.05710601806640625,0.1027600318193436,2,-0.207229012252727,-0.637106710332224,0.4780867594190348,-0.5679649659963038,0.9218554496765137,0.3737869262695312,-0.1023023501038551,8.529037475585938,39.54029846191406,11.943115234375,2,34724.83747562501,4,2,1607223854.444408,1607223123.808484,1217,0.6732238,0,0,951.8832,0,0,1607223851.568622,34723.842466,0,-1.128296,94.88331,0,1682321854,1,1,0.34,-120,-120,2
1607223857.192358,25,0,0,1607223855.999842,24.5999014023147,73.67822868826427,597.2783,1.156992,211.2993552769177,3.389088159309428,4.726374771557739,-9999,1607223856.369948,2.355987548828125,39.56910705566406,22.87397766113281,357.7122802734375,356.9768981933594,15.07152843475342,34727.5866605,0.9921722412109375,0.571258544921875,0.1763763427734375,34727.06195887501,-1.165096521377563,-5.312482357025146,-0.5989481210708618,34727.324782875,-130.2298583984375,24.64936828613281,-103.6702728271484,34726.62867187501,-0.8395798866762334,1.610469485498143,-0.5099806570504389,-0.4924430847167969,0.4037380218505859,-0.530396044254303,0.3198272585868835,0.2716205418109894,0.1956087350845337,2,-0.1247435436851221,-0.7083409908910114,0.4393599395294006,-0.538195968075435,0.8720671534538269,0.4881603717803955,0.03461582213640213,7.2564697265625,41.67602920532227,19.03541564941406,2,34724.83747562501,4,2,1607223854.444408,1607223123.808484,1222,0.6738662,0.816788,1.821509,955.0493,0,0,1607223854.133276,34723.842466,0,-1.128296,94.88331,0,1682321854,1,1,0.34,-120,-120,2
1607223858.194165,26,0,0,1607223857.999836,24.59988214796884,73.67821936289685,596.5679,1.254318,212.2661327771954,3.388214176132569,4.727001346460898,-9999,1607223857.371555,15.42042541503906,37.54149627685547,18.13840484619141,346.9891967773438,346.2538146972656,15.020827293396,34728.58847875,1.074737548828125,0.0674285888671875,-0.0470733642578125,34728.0637765,-0.676270067691803,-0.8219910264015198,1.606590509414673,34728.3261645,-128.4784240722656,14.3685302734375,-89.24757385253906,34727.6304895,-0.9229905820444469,1.568625694847824,-0.2274953579354048,-0.02987982705235481,-0.7554467916488647,0.42988520860672,0.006923317909240723,0.1007100343704224,0.246239960193634,2,-0.2405510130936574,-0.6641369278892233,0.3849547349444434,-0.5940261510684239,0.9742318987846375,0.2255381196737289,-0.002114702248945832,16.84896850585938,38.14791870117188,16.53681945800781,2,34724.83747562501,4,2,1607223854.444408,1607223123.808484,1222,0.6738662,0.816788,1.821509,955.0493,0,0,1607223854.133276,34724.908198,0,-1.13092,94.88332,0,1682321854,1,1,0.34,-120,-120,2
1607223859.196181,27,0,0,1607223857.999836,24.59988214796884,73.67821936289685,596.5679,1.254318,212.2661327771954,3.388214176132569,4.727001346460898,-9999,1607223858.373193,24.08778381347656,16.86042022705078,22.2542724609375,306.3321228027344,305.5967407226562,15.04114723205566,34729.590296875,0.644317626953125,-0.2892913818359375,0.0331878662109375,34729.06559475001,-2.404569387435913,2.092858552932739,-2.174007415771484,34729.32746075,-126.2109985351562,12.86286926269531,-93.93435668945312,34728.63230875,-0.7429540566579189,1.568610500302383,0.1147920417549319,0.7850083708763123,0.7038208246231079,1.302431344985962,-0.3494954109191895,0.444496214389801,0.1650131344795227,2,-0.2938087079650706,-0.6423322532243158,0.2187766262300435,-0.673218078824418,0.9934163093566895,-0.1145401000976562,-0.002171439118683338,17.85984039306641,24.70814895629883,22.07752227783203,2,34724.83747562501,4,2,1607223854.444408,1607223123.808484,1222,0.6738662,0.816788,1.821509,955.0493,0,0,1607223854.133276,34725.97393,0,-1.144165,94.88347,0,1682321854,1,1,0.33,-120,-120,2
1607223860.197783,28,0,0,1607223859.999832,24.59986272238265,73.67820520618632,595.8837,1.328529,211.987657637461,3.395661169478308,4.721654609867821,-9999,1607223859.375101,30.87325286865234,15.53210067749023,27.79800415039062,293.7419738769531,293.006591796875,15.07315158843994,34730.592114375,0.9318389892578125,-0.2387237548828125,0.036407470703125,34730.067412875,-0.2140086889266968,0.3192986249923706,-0.1617383062839508,34730.328888875,-128.6437835693359,12.0677490234375,-90.17422485351562,34729.634126875,-0.8953319363137168,1.976908253705441,0.6100733010483428,0.7626439929008484,-0.607491135597229,0.7213132977485657,-0.3697483539581299,0.135625958442688,-0.1008925437927246,2,-0.4937263488576462,-0.6466243822319637,0.000965855680637763,-0.5814725430539778,0.7529423832893372,-0.5729275345802307,0.3237775862216949,28.68299102783203,9.345826148986816,31.40786743164062,2,34724.83747562501,4,2,1607223854.444408,1607223123.808484,1227,0.674451,0.8292488,1.828181,958.2615,0,0,1607223856.697372,34727.039669,0,-1.141479,94.88345,0,1682321854,1,1,0.33,-120,-120,2
1607223861.199588,29,0,0,1607223859.999832,24.59986272238265,73.67820520618632,595.8837,1.328529,211.987657637461,3.395661169478308,4.721654609867821,-9999,1607223860.376907,23.43276214599609,24.10857009887695,22.21610260009766,315.016357421875,314.2809753417969,15.10064888000488,34731.59393254167,1.239517211914062,-0.248931884765625,-0.82421875,34731.069230375,0.0633065328001976,1.790772080421448,-0.5734952092170715,34731.330269375,-134.0591735839844,10.87138366699219,-85.90380859375,34730.635944375,-0.9385464374381829,1.791100096031395,0.02057184970228908,-0.5837574005126953,-1.764060735702515,0.1701910495758057,0.2585825324058533,-0.004591315984725952,0.00771641731262207,2,-0.3587116811577702,-0.6932285622540452,0.2755137632346539,-0.5611169635818138,0.9756246209144592,-0.02057039923965931,0.2184798121452332,17.60408782958984,31.11082649230957,20.32154846191406,2,34724.83747562501,4,2,1607223854.444408,1607223123.808484,1227,0.674451,0.8292488,1.828181,958.2615,0,0,1607223856.697372,34728.105386,0,-1.157349,94.88361,0,1682321854,1,1,0.33,-120,-120,2
1607223862.201502,30,0,0,1607223861.999827,24.59983405534814,73.67819771656342,595.4454,1.513115,201.3970174675659,3.410463429448679,4.710974021280737,-9999,1607223861.378642,16.2540283203125,23.64258193969727,27.80885314941406,316.9838562011719,316.2484741210938,15.11381244659424,34732.59574979167,1.529312133789062,0.0131072998046875,0.7581329345703125,34732.07104754167,1.07582414150238,-0.6278902888298035,-0.7491554617881775,34732.33159654167,-137.9383544921875,16.2158203125,-69.65959167480469,34731.63776154167,-0.8716201489846258,1.629630254155047,-0.0149102299157418,2.518547773361206,3.681426286697388,0.5709062814712524,0.01633703708648682,0.1938306093215942,-0.6384749412536621,2,-0.3025074464216592,-0.661729529451247,0.2945018438721732,-0.6195739313354283,0.9981587529182434,0.01490967720746994,0.05879345163702965,17.92942047119141,29.22714996337891,17.04357147216797,2,34724.83747562501,4,2,1607223854.444408,1607223123.808484,1231,0.6746839,0.8478403,1.80085,961.3459,0,0,1607223859.261857,34729.171094,0,-1.178467,94.88387,0,1682321854,1,1,0.33,-120,-120,2
1607223863.203167,31,0,0,1607223861.999827,24.59983405534814,73.67819771656342,595.4454,1.513115,201.3970174675659,3.410463429448679,4.710974021280737,-9999,1607223862.380544,14.91490173339844,27.02614212036133,26.12741851806641,320.0561218261719,319.3207397460938,15.13153457641602,34733.59756675,0.530303955078125,-0.2130279541015625,0.0802154541015625,34733.07286479167,1.345926403999329,-0.1141753047704697,0.1023516729474068,34733.33286079167,-126.627197265625,5.235275268554688,-87.69808959960938,34732.63957879167,-0.5713980363871259,1.793955607041338,0.02594204568280379,0.5029320120811462,0.3293304741382599,-0.3132123351097107,0.3768094778060913,-0.05281141400337219,-0.0132598876953125,2,-0.2279799118987169,-0.7474247582504719,0.1661138258449784,-0.6014878810082166,0.9748750925064087,-0.02593913674354553,0.2212372124195099,4.398162841796875,27.78760719299316,35.71108245849609,2,34724.83747562501,4,2,1607223854.444408,1607223123.808484,1231,0.6746839,0.8478403,1.80085,961.3459,0,0,1607223859.261857,34730.236803,0,-1.276245,94.88498,0,1682321854,1,1,0.33,-120,-120,2
1607223864.205034,32,0,0,1607223863.999821,24.59981992243004,73.67819896629713,594.7548,0.9104519,187.9607582348817,3.396979141665036,4.720706487792004,-9999,1607223863.382304,14.95907592773438,20.56635856628418,32.31285095214844,306.5039978027344,305.7686157226562,15.13554191589355,34734.599383,0.76251220703125,0.2295074462890625,0.032928466796875,34734.07468175,-1.128549337387085,-0.5020367503166199,0.4683325886726379,34734.33405275,-124.2800140380859,0.9131317138671875,-86.48463439941406,34733.64139575,-0.3825220735060249,1.631310766984718,0.03620747357914826,0.7018740773200989,0.03568920493125916,-0.278621643781662,-0.1239496469497681,-0.04352754354476929,0.1893026828765869,2,-0.1505824744233535,-0.7124211223986949,0.1173279425940314,-0.675288982866257,0.9975153207778931,-0.03619956225156784,0.060437873005867,16.74232482910156,18.19359970092773,32.37254333496094,2,34724.83747562501,4,2,1607223854.444408,1607223123.808484,1231,0.6746839,0.8478403,1.80085,961.3459,0,0,1607223859.261857,34731.302556,0,-1.297363,94.88522,0,1682321854,1,1,0.33,-120,-120,2
1607223865.206853,33,0,0,1607223863.999821,24.59981992243004,73.67819896629713,594.7548,0.9104519,187.9607582348817,3.396979141665036,4.720706487792004,-9999,1607223864.384009,16.25325012207031,18.57535743713379,32.96263122558594,302.233154296875,301.4977722167969,15.12320137023926,34735.601198875,1.299224853515625,-0.4165802001953125,0.1573944091796875,34735.076498,-0.1833889931440353,-1.322295188903809,0.125731036067009,34735.335421,-123.6368560791016,1.343292236328125,-88.66400146484375,34734.643213,-0.37156605898981,1.686802747364218,0.01643731680573016,0.1202965900301933,0.1457133144140244,0.2837636470794678,-0.3157764673233032,-0.03530591726303101,-0.08376359939575195,2,-0.1433322129891875,-0.7330220047816248,0.1167855594177479,-0.6545958598666253,0.9931446313858032,-0.01643657684326172,0.1157307624816895,15.3245849609375,18.08360481262207,34.3712158203125,2,34724.83747562501,4,2,1607223854.444408,1607223123.808484,1236,0.6752096,0.8478403,1.80085,964.5737,0,0,1607223861.826432,34732.368309,0,-1.307983,94.88534,0,1682321854,1,1,0.33,-120,-120,2
1607223866.209017,34,0,0,1607223865.999816,24.59979241779163,73.67819828320526,595.3207,1.332165,181.7866336379412,3.383560617359794,4.730333453514736,-9999,1607223865.385918,14.56829833984375,19.21405792236328,35.08880615234375,302.9219665527344,302.1865844726562,15.11464023590088,34736.60301475,0.92681884765625,-0.099884033203125,-0.3981781005859375,34736.07831487501,1.814026594161987,-0.7888876795768738,0.2794193923473358,34736.336831875,-123.9731597900391,5.424896240234375,-89.89447021484375,34735.64502787501,-0.4659951588953902,1.621191762227644,0.006517000103199343,-0.7072877287864685,1.154486417770386,0.2286485135555267,-0.04910898208618164,0.03618010878562927,0.05469894409179688,2,-0.1695129865652911,-0.7045934040887437,0.1568036951097633,-0.670988864050663,0.9987092018127441,-0.006516953930258751,0.05037303641438484,17.32284545898438,21.12822723388672,30.54923248291016,2,34724.83747562501,4,2,1607223854.444408,1607223123.808484,1236,0.6752096,0.8478403,1.80085,964.5737,0,0,1607223861.826432,34733.433952,0,-1.347595,94.88579,0,1682321854,1,1,0.33,-120,-120,2
1607223867.210899,35,0,0,1607223865.999816,24.59979241779163,73.67819828320526,595.3207,1.332165,181.7866336379412,3.383560617359794,4.730333453514736,-9999,1607223866.38951,19.45554351806641,16.05913734436035,33.20794677734375,297.1083374023438,296.3729553222656,15.10761833190918,34737.60482925001,1.384857177734375,0.0312042236328125,-0.204833984375,34737.08012975,0.3894194066524506,-0.2436656504869461,0.2380059063434601,34737.33820375001,-120.3014678955078,-4.4063720703125,-83.52754211425781,34736.64684475,-0.3725611776242265,1.49924903956441,0.03903739482017363,-0.2077935636043549,0.4498379528522491,-0.2712593078613281,0.01267194747924805,-0.4658094942569733,-0.02398145943880081,2,-0.1402066015916461,-0.6668029738415615,0.1224656687386291,-0.7216080502962271,0.9966817498207092,-0.03902748227119446,-0.07143180817365646,21.43721008300781,17.72017097473145,29.21208190917969,2,34724.83747562501,4,2,1607223854.444408,1607223123.808484,1241,0.6756524,0.8478403,1.80085,967.9747,0,0,1607223864.390283,34734.499659,0,-1.347595,94.88579,0,1682321854,1,1,0.33,-120,-120,2
1607223868.212781,36,0,0,1607223867.999811,24.59976793238287,73.67819587164864,594.8165,1.327077,181.1847276568486,3.374536140163305,4.736775577491568,-9999,1607223867.391243,21.16033935546875,6.321764945983887,38.05233764648438,279.379638671875,278.6442565917969,15.10372734069824,34738.606644375,1.068466186523438,0.0584869384765625,-0.031982421875,34738.08194525,-0.08282803744077682,0.01392220705747604,-0.1384388357400894,34738.33956625,-121.0059509277344,-14.74447631835938,-78.48733520507812,34737.64866025,-0.1337119956138747,1.571250529567564,0.08806342104410939,-0.6356510519981384,0.9716882705688477,-0.5636135935783386,0.1701349020004272,-0.106599822640419,-0.2184089422225952,2,-0.07825252428432243,-0.7029244367530982,0.01612003602431974,-0.7067629847065577,0.996124804019928,-0.08794964104890823,0.0004524426767602563,23.40509796142578,8.733589172363281,34.62772369384766,2,34724.83747562501,4,2,1607223854.444408,1607223123.808484,1241,0.6756524,0.8478403,1.80085,967.9747,0,0,1607223864.390283,34735.565369,0,-1.342285,94.88575,0,1682321854,1,1,0.33,-120,-120,2
1607223869.216475,37,0,0,1607223867.999811,24.59976793238287,73.67819587164864,594.8165,1.327077,181.1847276568486,3.374536140163305,4.736775577491568,-9999,1607223868.393306,23.37628936767578,1.51158618927002,37.10874176025391,272.3276062011719,271.5922241210938,15.07539939880371,34739.60846025001,0.81439208984375,0.0327911376953125,0.0602569580078125,34739.083759375,-0.264869749546051,-0.1844108551740646,-0.2101353853940964,34739.340929375,-125.3138885498047,-20.93130493164062,-75.16986083984375,34738.65047537501,0.1217073109862337,1.519147585566297,0.07076200012127462,0.001412660349160433,0.0976216048002243,-0.4306754469871521,0.2004727125167847,0.1391234695911407,0.08741576224565506,2,0.01624954359488213,-0.6884676194973109,-0.06838558446909004,-0.7218528944078393,0.9961671829223633,-0.07070296257734299,-0.05149658024311066,25.01680755615234,0.6003313064575195,35.72954559326172,2,34724.83747562501,4,2,1607223854.444408,1607223123.808484,1241,0.6756524,0.8478403,1.80085,967.9747,0,0,1607223864.390283,34736.631054,0,-1.342285,94.88575,0,1682321854,1,1,0.33,-120,-120,2
1607223870.216278,38,0,0,1607223869.999806,24.5997466950076,73.67820680824791,595.694,1.220686,161.3092378977952,3.36736326498094,4.741877441946991,-9999,1607223869.394958,24.49848937988281,-5.740450859069824,35.96067810058594,261.4766235351562,260.7412414550781,15.03043079376221,34740.61027404167,0.863800048828125,0.008697509765625,0.0481109619140625,34740.08557525,0.3620535433292389,-0.3338594734668732,-0.04113119095563889,34740.34233925,-123.3872985839844,-20.14395141601562,-76.76673889160156,34739.65229125,0.2876141500404665,1.523873773893348,0.05346711679421287,0.05272622406482697,-0.2954213619232178,-0.154447615146637,-0.1059771776199341,0.1368615329265594,0.07821035385131836,2,0.07975651768541145,-0.6857257065385809,-0.1219113123462277,-0.7131316609063011,0.9974718689918518,-0.05344164744019508,-0.04683830589056015,24.05062866210938,-4.760415077209473,36.14535522460938,2,34724.83747562501,4,2,1607223854.444408,1607223123.808484,1245,0.6759778,0.6019871,1.751202,970.8878,0,0,1607223866.960374,34737.696761,0,-1.344971,94.88577,0,1682321854,1,1,0.33,-120,-120,2
1607223871.218243,39,0,0,1607223869.999806,24.5997466950076,73.67820680824791,595.694,1.220686,161.3092378977952,3.36736326498094,4.741877441946991,-9999,1607223870.396697,27.13656616210938,0.2668886184692383,33.35127258300781,271.4175109863281,270.68212890625,15.0052375793457,34741.61208825,0.710968017578125,0.0191497802734375,0.1171112060546875,34741.08738904167,-0.2797158062458038,0.720119297504425,0.2104150205850601,34741.34364604167,-125.4624328613281,-19.65286254882812,-74.610595703125,34740.65410504167,0.1361347265599124,1.430440055499372,0.09174690615625564,0.6647055149078369,-0.183334618806839,-0.1371071040630341,0.01311326026916504,0.2442519962787628,0.1710153222084045,2,0.01001627238051295,-0.6559313352454378,-0.08129656372906618,-0.7503629838953197,0.9860017895698547,-0.09161824733018875,-0.139307513833046,27.67340087890625,-0.9062223434448242,33.29106140136719,2,34724.83747562501,4,2,1607223854.444408,1607223123.808484,1245,0.6759778,0.6019871,1.751202,970.8878,0,0,1607223866.960374,34738.762455,0,-1.344971,94.88577,0,1682321854,1,1,0.33,-120,-120,2
1607223872.219792,40,0,0,1607223871.9998,24.59972284403583,73.67821920570239,596.1571,1.262649,156.62712527269,3.338379999697192,4.76232674334832,-9999,1607223871.398558,27.47542572021484,-6.308770179748535,33.82836151123047,260.262939453125,259.5275573730469,14.97367382049561,34742.613900875,0.65692138671875,-0.2236785888671875,-0.168426513671875,34742.08920225,-1.419146299362183,0.6242684125900269,0.2555785179138184,34742.34504425,-121.7615356445312,-24.16018676757812,-77.35647583007812,34741.65591825,0.3134898873498076,1.500498400470419,0.08208966392618901,-0.003049565246328712,-0.5564374923706055,0.1902955174446106,-0.3590697050094604,0.0935942605137825,0.06011581420898438,2,0.0766966125059122,-0.6775808972726979,-0.1417311691950662,-0.7175751539350876,0.9941710233688354,-0.08199749886989594,-0.07000351697206497,24.86943054199219,-6.876217842102051,36.40364074707031,2,34741.83507825001,4,2,1607223871.442011,1607223123.808484,1251,0.6784671,0.6019871,1.751202,974.6494,0,0,1607223869.524232,34739.828133,0,-1.313232,94.88539,0,1682321854,1,1,0.33,-120,-120,2
1607223873.221801,41,0,0,1607223871.9998,24.59972284403583,73.67821920570239,596.1571,1.262649,156.62712527269,3.338379999697192,4.76232674334832,-9999,1607223872.400343,28.02378845214844,-8.225708961486816,32.46549987792969,258.4013061523438,257.6659240722656,14.95216369628906,34743.615713125,1.083770751953125,0.0217132568359375,-0.4688568115234375,34743.091014875,-0.248491033911705,0.8638572692871094,0.2260198146104813,34743.346335875,-126.9213714599609,-27.40049743652344,-74.93408203125,34742.65773087501,0.4211314955802478,1.391133351416875,0.05167358178817574,0.2484219968318939,0.1600073724985123,-0.01167590729892254,-0.4827127456665039,-0.01554903015494347,0.07181580364704132,2,0.1145008492787513,-0.6306027544361361,-0.1765931799954916,-0.7470237285257689,0.9825905561447144,-0.05165058746933937,-0.1784594506025314,27.70478820800781,-10.53382778167725,32.24697875976562,2,34741.83507825001,4,2,1607223871.442011,1607223123.808484,1251,0.6784671,0.6019871,1.751202,974.6494,0,0,1607223869.524232,34739.828133,0,-1.313232,94.88539,0,1682321854,1,1,0.33,-120,-120,2
1607223874.223588,42,0,0,1607223873.999795,24.59969115375982,73.6782300120468,595.986,1.647639,155.8556644383776,3.361652941623948,4.745927362788003,-9999,1607223873.402198,25.13522338867188,-11.58952617645264,34.68262481689453,252.1453247070312,251.4099426269531,14.93339729309082,34744.617524125,1.2523193359375,0.21917724609375,-0.404876708984375,34744.092827125,0.1895627379417419,0.6415855884552002,0.2426384687423706,34744.347647125,-123.1615600585938,-29.24710083007812,-77.88249206542969,34743.659544125,0.4818950504381812,1.482629417097434,0.06032857508899435,-0.2094211727380753,0.09950929880142212,0.5892030000686646,0.104374885559082,0.05154877901077271,-0.08856004476547241,2,0.1394561289668012,-0.6607614678408595,-0.1957010230070838,-0.7110888737617621,0.9943036437034607,-0.06029198691248894,-0.08789253979921341,24.18505096435547,-12.57566738128662,35.69129180908203,2,34741.83507825001,4,2,1607223871.442011,1607223123.808484,1251,0.6784671,0.6019871,1.751202,974.6494,0,0,1607223869.524232,34740.893833,0,-1.270996,94.88492,0,1682321854,1,1,0.33,-120,-120,2
1607223875.225344,43,0,0,1607223873.999795,24.59969115375982,73.6782300120468,595.986,1.647639,155.8556644383776,3.361652941623948,4.745927362788003,-9999,1607223874.404238,25.33780670166016,-14.06872272491455,35.50937652587891,249.2641296386719,248.5287475585938,14.918869972229,34745.6193355,1.209930419921875,0.0956573486328125,-0.2913970947265625,34745.094637125,0.5522440075874329,-0.4117009937763214,-0.2005924880504608,34745.349014125,-124.9490814208984,-31.44442749023438,-76.37126159667969,34744.661355125,0.5482660271403249,1.525950048606363,0.02926486000507146,-0.4699265956878662,0.3603569567203522,0.0300783384591341,-0.06674307584762573,-0.1726435273885727,-0.09894096851348877,2,0.1768817024925463,-0.66806200135115,-0.2053796325866555,-0.6929828533814746,0.9985668063163757,-0.02926068380475044,-0.04481204971671104,23.62088775634766,-14.10834789276123,36.04096221923828,2,34745.046533125,4,2,1607223874.653466,1607223123.808484,1256,0.6785133,0.6019871,1.751202,978.422,0,0,1607223872.088804,34741.959539,0,-1.241882,94.88458,0,1682321854,1,1,0.33,-120,-120,2
1607223876.227348,44,0,0,1607223875.999789,24.59967242300094,73.67825749610364,596.2311,1.63908,136.5746969735922,3.370431481828745,4.739697106259696,-9999,1607223875.406143,25.29546356201172,-13.71995639801025,35.49347686767578,250.5043334960938,249.7689514160156,14.90722465515137,34746.62114700001,0.4232940673828125,-0.112518310546875,-0.123809814453125,34746.0964485,-0.6828685998916626,-0.2117316871881485,-0.2255359143018723,34746.3504035,-125.2764434814453,-34.32949829101562,-77.5015869140625,34745.6631665,0.5360899654657373,1.477923426841471,0.02221306087481822,-0.9903668761253357,-0.0634387731552124,-0.09227447211742401,0.1387409567832947,0.07483887672424316,-0.3252826929092407,2,0.1704525119365862,-0.6516039104969321,-0.2029674374575786,-0.7107478644855983,0.9954447746276855,-0.0222112350165844,-0.09271656721830368,24.95289611816406,-13.91425609588623,35.23497772216797,2,34745.046533125,4,2,1607223874.653466,1607223123.808484,1256,0.6785133,0.6019871,1.751202,978.422,0,0,1607223872.088804,34743.025271,0,-1.215454,94.88429,0,1682321854,1,1,0.33,-120,-120,2
1607223877.228895,45,0,0,1607223875.999789,24.59967242300094,73.67825749610364,596.2311,1.63908,136.5746969735922,3.370431481828745,4.739697106259696,-9999,1607223876.407553,29.23029327392578,-17.96879959106445,28.49945068359375,243.7968139648438,243.0614318847656,14.89906024932861,34747.62295675,0.925323486328125,-0.18701171875,0.3753662109375,34747.09826,-1.262521624565125,-1.118080019950867,0.1656592637300491,34747.351823,-124.5803070068359,-30.51240539550781,-77.5032958984375,34746.664977,0.5033290906332493,1.574336494771184,0.224408588006614,-0.208680659532547,-1.633347272872925,0.195398285984993,0.3142647743225098,0.09733155369758606,0.09963691234588623,2,0.09873924238184284,-0.7014101931458983,-0.2514795644545417,-0.6595697839533088,0.9749197363853455,-0.2225298136472702,0.003451394150033593,20.10597229003906,-17.06835556030273,38.35929107666016,2,34745.046533125,4,2,1607223874.653466,1607223123.808484,1261,0.6782794,0.6019871,1.751202,982.6291,0,0,1607223874.653606,34744.090926,0,-1.21283,94.88425,0,1682321854,1,1,0.33,-120,-120,2
1607223878.230939,46,0,0,1607223877.999785,24.59965751627455,73.67828576283624,596.6014,1.703545,131.261650470911,3.37307308851482,4.737817532612028,-9999,1607223877.409377,26.98208618164062,-17.09431838989258,31.06304168701172,241.8980712890625,241.1626892089844,14.90201950073242,34748.624766875,2.352935791015625,0.0590972900390625,-0.28228759765625,34748.10006975,2.409921407699585,-0.8905221819877625,0.7563148140907288,34748.35324975001,-119.1470642089844,-36.77342224121094,-86.76467895507812,34747.66678675,0.5913800433009517,1.297740279212154,0.126171482992798,0.5048896074295044,0.6450009346008301,0.09105724841356277,-0.5614978075027466,-0.190019890666008,0.3179164230823517,2,0.1276874603688246,-0.5915487954920386,-0.2681592964655832,-0.7495709713136612,0.9552967548370361,-0.1258369833230972,-0.2675318717956543,28.48470306396484,-17.91557312011719,28.46842193603516,2,34745.046533125,4,2,1607223874.653466,1607223123.808484,1261,0.6782794,0.6019871,1.751202,982.6291,0,0,1607223874.653606,34745.156646,0,-1.19696,94.88409,0,1682321854,1,1,0.33,-120,-120,2
1607223879.232907,47,0,0,1607223877.999785,24.59965751627455,73.67828576283624,596.6014,1.703545,131.261650470911,3.37307308851482,4.737817532612028,-9999,1607223878.411495,11.19528198242188,-22.84875106811523,39.63103485107422,225.8438873291016,225.1085052490234,14.90675354003906,34749.626575875,-0.6801605224609375,-0.06671142578125,-0.305694580078125,34749.101878875,-1.772642135620117,-0.8901501297950745,0.6840289235115051,34749.354817875,-122.4575500488281,-42.22624206542969,-85.94265747070312,34748.668596875,0.8189852872072517,1.454070592557433,0.1274299959613132,-0.9765449166297913,0.5923012495040894,1.111313819885254,3.422633647918701,-1.066869020462036,-0.460029661655426,2,0.2204532050100953,-0.6274090400193285,-0.335690052480886,-0.667136020740948,0.9851422309875488,-0.1270854026079178,-0.1155165582895279,23.48487854003906,-25.53312301635742,30.09041595458984,2,34745.046533125,4,2,1607223874.653466,1607223123.808484,1261,0.6782794,0.6019871,1.751202,982.6291,0,0,1607223874.653606,34746.222361,0,-1.194336,94.88404,0,1682321854,1,1,0.33,-120,-120,2
1607223880.234585,48,0,0,1607223879.999779,24.59963190308307,73.67832137758224,595.425,1.737682,121.3629568990231,3.378267374657737,4.734115184288608,-9999,1607223879.413702,22.77211761474609,-23.35443878173828,31.29093170166016,230.3376617431641,229.6022796630859,14.90983867645264,34750.62838329167,0.1549224853515625,-0.3296051025390625,0.044158935546875,34750.103687875,-1.361936330795288,0.9400492310523987,-3.091312646865845,34750.35642687501,-132.0934753417969,-38.06398010253906,-77.24151611328125,34749.670405875,0.5496811129393598,1.664799168128766,0.2391391977799123,0.7890132665634155,-1.128594040870667,-0.2553408443927765,-0.7593518495559692,0.1844677776098251,-0.1644812822341919,2,0.121998037189322,-0.7285006021299956,-0.2662775568521187,-0.6192735387528024,0.9672529697418213,-0.2368664145469666,0.0911932960152626,17.26750183105469,-18.89793014526367,38.31083679199219,2,34750.491108875,4,2,1607223880.098042,1607223123.808484,1265,0.6777886,0.5201532,1.919597,986.415,0,0,1607223877.218168,34747.288077,0,-1.141479,94.88345,0,1682321854,1,1,0.33,-120,-120,2
1607223881.236919,49,0,0,1607223879.999779,24.59963190308307,73.67832137758224,595.425,1.737682,121.3629568990231,3.378267374657737,4.734115184288608,-9999,1607223880.414738,21.79049682617188,-25.05099868774414,31.07093048095703,226.3504028320312,225.6150207519531,14.91288280487061,34751.63019129167,4.974761962890625,-1.63018798828125,0.5181427001953125,34751.10549529167,1.400906324386597,-1.649246692657471,0.2550482749938965,34751.35785729167,-120.1282958984375,-41.86819458007812,-88.4437255859375,34750.67221429167,0.8248805614609748,1.413597107528209,0.1551730850533496,0.5815687775611877,-0.2776279449462891,0.2002367228269577,-1.126605153083801,-0.1905263513326645,-0.3098669648170471,2,0.2055288217907471,-0.6167836909426945,-0.3500179800224357,-0.674405793327178,0.9758025407791138,-0.1545511037111282,-0.1546715646982193,25.3604736328125,-26.34653091430664,27.24662017822266,2,34750.491108875,4,2,1607223880.098042,1607223123.808484,1265,0.6777886,0.5201532,1.919597,986.415,0,0,1607223877.218168,34748.353809,0,-1.13623,94.8834,0,1682321854,1,1,0.33,-120,-120,2
1607223882.238259,50,0,0,1607223881.999774,24.59960812967327,73.67836867039026,595.5026,2.110802,120.3419574313036,3.378113984086661,4.734224640139817,-9999,1607223881.416926,11.6373291015625,-21.30393981933594,39.97261047363281,231.5292663574219,230.7938842773438,14.92289924621582,34752.63199854167,0.0395050048828125,0.0354156494140625,0.107635498046875,34752.10730329167,1.335557460784912,0.4838716089725494,0.04797098785638809,34752.35920529167,-122.1066436767578,-38.38763427734375,-82.65348815917969,34751.67402129167,0.8032339023158297,1.735727706591542,0.1401359312085902,1.295392513275146,2.450504302978516,0.4347717761993408,0.7076428532600403,0.3319690227508545,0.2718273401260376,2,0.2558530014927562,-0.7182108449173557,-0.3012493054039801,-0.5726790774554427,0.9767597317695618,-0.1396777182817459,0.1625751554965973,15.46824645996094,-25.11264419555664,36.25507354736328,2,34750.491108875,4,2,1607223880.098042,1607223123.808484,1265,0.6777886,0.5201532,1.919597,986.415,0,0,1607223877.218168,34749.419549,0,-1.096558,94.88295,0,1682321854,1,1,0.33,-120,-120,2
1607223883.240029,51,0,0,1607223881.999774,24.59960812967327,73.67836867039026,595.5026,2.110802,120.3419574313036,3.378113984086661,4.734224640139817,-9999,1607223882.418707,26.45299530029297,-21.57924652099609,29.15179443359375,234.642822265625,233.9074401855469,14.92496109008789,34753.63380566667,0.2883453369140625,-0.0828399658203125,-0.2016143798828125,34753.10911054167,-0.7300121188163757,0.8898249864578247,0.9919449687004089,34753.36046754167,-126.8636627197266,-29.360107421875,-76.81686401367188,34752.67582954167,0.4442276354857808,1.616143642755893,0.2142803555863221,-0.4953874349594116,-1.150605916976929,-0.2381807267665863,-0.583150327205658,-0.03793543577194214,-0.2363879680633545,2,0.08628233380518741,-0.717427953163072,-0.2267360347554845,-0.6530261535824545,0.9761250615119934,-0.2126442939043045,0.04429501667618752,20.43307495117188,-15.00570583343506,37.59797668457031,2,34752.74106954167,8,2,1607223882.348002,1607223123.808484,1272,0.6746816,0.5201532,1.919597,995.3527,0,0,1607223879.783457,34750.485277,0,-1.054321,94.88245,0,1682321854,1,1,0.33,-120,-120,2
1607223884.242106,52,0,0,1607223883.999769,24.59958172786861,73.6784172792932,596.1931,2.207129,123.9846699047738,3.387767882837934,4.727321208126292,-9999,1607223883.420257,24.22344970703125,-20.93970108032227,31.58990478515625,235.6107482910156,234.8753662109375,14.92693328857422,34754.63561191667,1.926666259765625,-0.1858062744140625,0.3383026123046875,34754.11091666667,0.448496550321579,-2.104740619659424,-0.02517299726605415,34754.36154366667,-119.2521057128906,-35.8555908203125,-85.94001770019531,34753.67763566667,0.6268192975017797,1.416758538745821,0.1690777171286869,-0.05789057165384293,-0.1243331804871559,0.237237274646759,-1.285897493362427,0.05915775895118713,-0.1637914180755615,2,0.1388671696708647,-0.6364708568337347,-0.2855550063029072,-0.7029076427454654,0.9740688800811768,-0.1682732850313187,-0.1512415111064911,26.68599700927734,-20.33162689208984,29.59623718261719,2,34752.74106954167,8,2,1607223882.348002,1607223123.808484,1272,0.6746816,0.5201532,1.919597,995.3527,0,0,1607223879.783457,34751.550975,0,-0.9961548,94.88179,0,1682321854,1,1,0.33,-120,-120,2
1607223885.24343,53,0,0,1607223883.999769,24.59958172786861,73.6784172792932,596.1931,2.207129,123.9846699047738,3.387767882837934,4.727321208126292,-9999,1607223884.422113,13.483154296875,-15.05323314666748,40.10090637207031,242.3169860839844,241.5816040039062,14.92880058288574,34755.63741800001,0.2650299072265625,0.0176849365234375,-0.0956573486328125,34755.11272291667,0.9048739671707153,0.7070050835609436,-0.4323972165584564,34755.36277391667,-122.6194763183594,-35.77665710449219,-81.49020385742188,34754.67944291667,0.5987430651975294,1.767799233130428,0.1318107483071327,1.162128210067749,2.44724178314209,0.9539822936058044,0.4090136289596558,0.7021539807319641,0.3827033042907715,2,0.1876366086959708,-0.7495392658490407,-0.2352720019282196,-0.5896019188412033,0.9721508622169495,-0.1314294040203094,0.194033220410347,14.24122619628906,-18.84723663330078,38.88263702392578,2,34752.74106954167,8,2,1607223882.348002,1607223123.808484,1279,0.671616,0.5201532,1.919597,1003.745,0,0,1607223882.348163,34752.616584,0,-0.9221802,94.88094,0,1682321854,1,1,0.33,-120,-120,2
1607223886.245204,54,0,0,1607223885.999763,24.59954139728847,73.67846221637085,597.1758,2.120448,128.7525521371246,3.390389174772376,4.725441595911977,-9999,1607223885.423831,25.69214630126953,-18.423095703125,32.79305267333984,241.1040649414062,240.3686828613281,14.93062305450439,34756.63922266667,0.0148468017578125,-0.0839691162109375,-0.2402191162109375,34756.11452800001,0.5788156986236572,1.8367840051651,1.047305703163147,34756.36414100001,-125.9582824707031,-26.09181213378906,-74.96722412109375,34755.681248,0.3492321208332428,1.640738276057513,0.1559512469951648,0.1518411636352539,0.5554970502853394,-0.9639643430709839,0.830774188041687,-0.9310905933380127,-0.1687072515487671,2,0.07436573587695616,-0.7273157197278457,-0.1742224610044332,-0.6596424803521117,0.9854490756988525,-0.15531986951828,0.06903684139251709,20.20791625976562,-10.5475378036499,39.72718048095703,2,34752.74106954167,8,2,1607223882.348002,1607223123.808484,1279,0.671616,0.5201532,1.919597,1003.745,0,0,1607223882.348163,34753.682281,0,-0.840271,94.88002,0,1682321854,1,1,0.33,-120,-120,2
1607223887.249519,55,0,0,1607223885.999763,24.59954139728847,73.67846221637085,597.1758,2.120448,128.7525521371246,3.390389174772376,4.725441595911977,-9999,1607223886.425701,26.31386566162109,-16.92019653320312,33.0633544921875,244.0621185302734,243.3267364501953,14.93187808990479,34757.64102629167,1.778961181640625,0.0263519287109375,0.2188568115234375,34757.11633266667,1.114889740943909,-2.146327972412109,0.2724983692169189,34757.36546166667,-115.8554229736328,-31.66328430175781,-84.03697204589844,34756.68305266667,0.5318091164269129,1.412848600906006,0.1446922499936744,-0.3019883334636688,0.005317856557667255,0.1687709093093872,-1.354963898658752,0.127510130405426,-0.01462459564208984,2,0.1170780061137071,-0.6391155265252815,-0.2446434816409484,-0.7197038894397318,0.9772325754165649,-0.1441878974437714,-0.1556481719017029,28.32382202148438,-16.72075271606445,31.08554077148438,2,34752.74106954167,8,2,1607223882.348002,1607223123.808484,1279,0.671616,0.5201532,1.919597,1003.745,0,0,1607223882.348163,34754.747955,0,-0.7768555,94.87929,0,1682321854,1,1,0.33,-120,-120,2
1607223888.249344,56,0,0,1607223887.999883,24.59950566529884,73.67850483521018,596.8187,2.04976,127.5237790951479,3.386713002247217,4.728076995269691,-9999,1607223887.427526,15.49745178222656,-12.70231914520264,41.95677947998047,243.8116455078125,243.0762634277344,14.93393707275391,34758.64283054167,0.1866607666015625,-0.023773193359375,-0.07696533203125,34758.11813629167,0.5405660271644592,0.6073469519615173,-0.01099432818591595,34758.36688729167,-121.8983612060547,-30.81967163085938,-79.68476867675781,34757.68485629167,0.5129965818684669,1.711738874963465,0.1239688530716561,0.3532155752182007,1.594211220741272,0.9224716424942017,0.420193612575531,0.7526189684867859,0.2927000224590302,2,0.1519275392327161,-0.7393356293101312,-0.2112401255037771,-0.6210300564802061,0.9824856519699097,-0.1236515641212463,0.1393983066082001,18.56428527832031,-14.8629789352417,40.93285369873047,2,34752.74106954167,8,2,1607223882.348002,1607223123.808484,1286,0.6683566,0.5201532,1.919597,1012.537,0,0,1607223884.912306,34755.813584,0,-0.7662964,94.87919,0,1682321854,1,1,0.33,-120,-120,2
1607223889.250885,57,0,0,1607223888.999884,24.5994869768883,73.67852140913602,596.659,2.025008,130.2130012895596,3.376593861115061,4.735308958227427,-9999,1607223888.429331,28.72349548339844,-14.24239253997803,31.63894653320312,246.6789855957031,245.943603515625,14.93441390991211,34759.644633375,0.2840576171875,-0.0281219482421875,0.1133880615234375,34759.11993954167,0.5370972752571106,1.935774564743042,0.7415438890457153,34759.36826054167,-124.3643341064453,-23.00564575195312,-75.70445251464844,34758.68666054167,0.2052789980880444,1.591084029089791,0.1938773784421285,-0.4910311102867126,1.486391544342041,-2.054497003555298,1.209626436233521,-0.973289430141449,-0.1175014972686768,2,0.005452876596367694,-0.7140891995423652,-0.1401399973952677,-0.6858626969501597,0.9810625910758972,-0.1926650702953339,0.01990623772144318,23.34454345703125,-5.817076683044434,38.34835815429688,2,34752.74106954167,8,2,1607223882.348002,1607223123.808484,1286,0.6683566,0.5201532,1.919597,1012.537,0,0,1607223884.912306,34756.879278,0,-0.7609863,94.87913,0,1682321854,1,1,0.33,-120,-120,2
1607223890.252868,58,0,0,1607223889.999887,24.59946127868772,73.67853510851867,596.8914,2.061092,142.6352707460821,3.372883404443141,4.737952571820542,-9999,1607223889.431064,27.10688781738281,-12.74364566802979,34.28456878662109,249.9872741699219,249.2518920898438,14.9339542388916,34760.64643537501,2.0281982421875,-0.31060791015625,-0.02398681640625,34760.121742375,1.331457018852234,-1.840850472450256,0.1468381732702255,34760.369754375,-117.4276123046875,-30.09175109863281,-83.33920288085938,34759.688463375,0.4595017127956002,1.459684666902003,0.164354037737053,-0.154522031545639,-0.09214823693037033,-0.4685685932636261,-1.230440855026245,0.2223004847764969,-0.1378644108772278,2,0.09176190284042995,-0.6609729807493184,-0.2224453428369733,-0.7107830747099457,0.9804408550262451,-0.1636151075363159,-0.1093889474868774,27.37198638916016,-14.03145503997803,33.82091522216797,2,34752.74106954167,8,2,1607223882.348002,1607223123.808484,1293,0.665371,0.377949,2.666943,1021.025,0,0,1607223887.47673,34756.879278,0,-0.7609863,94.87913,0,1682321854,1,1,0.33,-120,-120,2
1607223891.25456,59,0,0,1607223889.999887,24.59946127868772,73.67853510851867,596.8914,2.061092,142.6352707460821,3.372883404443141,4.737952571820542,-9999,1607223890.432875,16.27705383300781,-8.722750663757324,42.24710845947266,251.188232421875,250.4528503417969,14.93527221679688,34761.64823825,0.0636138916015625,-0.0562286376953125,-0.1425018310546875,34761.123544375,0.6923797726631165,0.5264478325843811,-0.3893594741821289,34761.371285375,-119.4565277099609,-25.40803527832031,-80.23222351074219,34760.690265375,0.4465003361130636,1.687317828183583,0.1108020612091778,1.483179450035095,2.545621871948242,1.213454842567444,0.5540245771408081,0.6678112745285034,0.3686621189117432,2,0.1292554149010119,-0.7355715950355782,-0.1872876840880889,-0.6380836040235806,0.9871282577514648,-0.1105754822492599,0.1155450642108917,18.81171417236328,-11.89155292510986,40.22571563720703,2,34752.74106954167,8,2,1607223882.348002,1607223123.808484,1293,0.665371,0.377949,2.666943,1021.025,0,0,1607223887.47673,34757.944908,0,-0.7609863,94.87913,0,1682321854,1,1,0.33,-120,-120,2
1607223892.256029,60,0,0,1607223891.999885,24.59941875485111,73.67857643156948,598.8173,2.576168,137.4944766330737,3.357425408849188,4.748918998762002,-9999,1607223891.434613,26.17103576660156,-8.886992454528809,34.0859375,254.4220581054688,253.6866760253906,14.93539047241211,34762.650039,0.15533447265625,-0.074951171875,0.517425537109375,34762.12534725,0.2865329682826996,0.1193293258547783,0.8997066020965576,34762.37273025,-125.6440582275391,-21.97639465332031,-76.07962036132812,34761.69206825,0.07549680721612309,1.582681524738283,0.1760134463098476,-0.003355680964887142,1.261833190917969,-0.9729952812194824,0.5714738965034485,-0.6089362502098083,-0.1537452936172485,2,-0.03499537591548704,-0.710370304071662,-0.08889764903831744,-0.6973137772482804,0.9844799637794495,-0.175106018781662,0.01170129049569368,24.14026641845703,-0.724156379699707,36.71820831298828,2,34752.74106954167,8,2,1607223882.348002,1607223123.808484,1293,0.665371,0.377949,2.666943,1021.025,0,0,1607223887.47673,34759.010534,0,-0.8006592,94.87955,0,1682321854,1,1,0.33,-120,-120,2
1607223893.25867,61,0,0,1607223891.999885,24.59941875485111,73.67857643156948,598.8173,2.576168,137.4944766330737,3.357425408849188,4.748918998762002,-9999,1607223892.436488,27.46805572509766,-10.38498973846436,33.16897583007812,253.9834136962891,253.2480316162109,14.93546390533447,34763.65183941667,2.536727905273438,-0.6442413330078125,0.0415802001953125,34763.127148,1.670607089996338,-2.086485385894775,0.5569663047790527,34763.374163,-116.5654296875,-26.14242553710938,-83.75236511230469,34762.693869,0.3632035710521351,1.422526770408945,0.1566744646326944,0.4434296786785126,0.1004437431693077,-0.1978305131196976,-1.047211408615112,0.08381451666355133,-0.09662090241909027,2,0.05922811649138199,-0.6507943541771827,-0.1866412268813617,-0.7335691738541212,0.9769141674041748,-0.1560342758893967,-0.1459174752235413,28.65728759765625,-10.83270168304443,32.0328369140625,2,34752.74106954167,8,2,1607223882.348002,1607223123.808484,1299,0.6633008,0.3807638,2.659137,1027.625,0,0,1607223890.041354,34760.076151,0,-0.8006592,94.87958,0,1682321854,1,1,0.33,-120,-120,2
1607223894.259875,62,0,0,1607223893.999888,24.59937697338732,73.67861264474523,597.4568,2.644004,142.1362427745449,3.317864345646037,4.776642462722077,-9999,1607223893.438548,14.63821411132812,-9.103814125061035,42.00707244873047,250.8050384521484,250.0696563720703,14.93591594696045,34764.653639625,-0.1329803466796875,-0.1504669189453125,-0.1402740478515625,34764.12894741667,0.8090826869010925,0.2659174203872681,0.1331348866224289,34764.37546341667,-120.46435546875,-25.92030334472656,-79.68577575683594,34763.69566941667,0.3713961932322081,1.618254881277265,0.1146173807458561,0.3842272758483887,2.342875719070435,0.6351140141487122,0.709294319152832,0.5264302492141724,0.3116962909698486,2,0.09454737693039962,-0.7173740483798282,-0.1679495090365566,-0.6694984806555421,0.9923200607299805,-0.1143665909767151,0.04712946340441704,21.75952911376953,-9.629054069519043,37.98046112060547,2,34752.74106954167,8,2,1607223882.348002,1607223123.808484,1299,0.6633008,0.3807638,2.659137,1027.625,0,0,1607223890.041354,34761.141823,0,-0.8059082,94.87962,0,1682321854,1,1,0.33,-120,-120,2
1607223895.261815,63,0,0,1607223894.999888,24.59934526304706,73.67863376398644,597.3018,2.990597,146.3470941962392,3.308416615565074,4.783191040575504,-9999,1607223894.440303,26.80072021484375,-7.46440601348877,34.75856018066406,256.0369873046875,255.3016052246094,14.93897819519043,34765.655439875,0.262420654296875,-0.023406982421875,-0.24273681640625,34765.130747625,0.540286660194397,1.40709125995636,0.7929913401603699,34765.37674362501,-123.0506591796875,-16.55635070800781,-76.08567810058594,34764.697469625,0.01100364659787974,1.626607752744016,0.198856582997119,0.8369408845901489,-0.05887337774038315,-1.79741096496582,0.06914585828781128,-0.5368263721466064,-0.2510790824890137,2,-0.06422616087095681,-0.7233371131198222,-0.07588230192120463,-0.683301047208984,0.9787667393684387,-0.19754858314991,0.05468315631151199,22.88269805908203,0.972142219543457,39.56299591064453,2,34752.74106954167,8,2,1607223882.348002,1607223123.808484,1306,0.6607078,0.3814487,2.661866,1035.631,0,0,1607223892.605953,34762.207452,0,-0.8297119,94.87991,0,1682321854,1,1,0.33,-120,-120,2
1607223896.263338,64,0,0,1607223895.999891,24.59931141643193,73.67865354503222,597.9789,3.062176,149.4347362329475,3.322272229283232,4.77357772193166,-9999,1607223895.441906,27.49876403808594,-8.299796104431152,34.29063415527344,256.3056335449219,255.5702514648438,14.93979549407959,34766.65723854167,1.682479858398438,0.55511474609375,0.57659912109375,34766.132546875,1.574795365333557,-1.271676421165466,-0.4313242435455322,34766.378079875,-115.8440093994141,-23.05491638183594,-83.42813110351562,34765.699269875,0.2540809295344548,1.398548275295425,0.1726046479353356,0.005502471700310707,0.5533963441848755,-0.06733753532171249,-1.316967606544495,0.1715353578329086,-0.007327243685722351,2,0.01581345205504255,-0.6444568097726955,-0.1516366267523662,-0.7492873709769732,0.9705625176429749,-0.1717488765716553,-0.1688507050275803,30.16309356689453,-6.609465599060059,31.68115234375,2,34752.74106954167,8,2,1607223882.348002,1607223123.808484,1306,0.6607078,0.3814487,2.661866,1035.631,0,0,1607223892.605953,34763.273116,0,-0.8851929,94.88054,0,1682321854,1,1,0.33,-120,-120,2
1607223897.265164,65,0,0,1607223895.999891,24.59931141643193,73.67865354503222,597.9789,3.062176,149.4347362329475,3.322272229283232,4.77357772193166,-9999,1607223896.443686,20.25164031982422,-1.743056297302246,39.67564392089844,264.0764465332031,263.341064453125,14.94027614593506,34767.659037125,2.247360229492188,-1.111923217773438,0.5733489990234375,34767.13434554167,0.4582498669624329,0.1423994898796082,0.043658796697855,34767.37942254167,-125.0960235595703,-23.75981140136719,-76.12734985351562,34766.70106854167,0.2297918563214053,1.780968633954228,0.1435145553787729,0.624596893787384,1.412913918495178,0.963165819644928,-0.18305903673172,0.7300281524658203,0.1279890388250351,2,0.04408986221254653,-0.7754339923673659,-0.1272962269196472,-0.6168904320225919,0.9679405689239502,-0.1430224180221558,0.2064835876226425,15.74726867675781,-4.60045337677002,41.95999908447266,2,34752.74106954167,8,2,1607223882.348002,1607223123.808484,1306,0.6607078,0.3814487,2.661866,1035.631,0,0,1607223892.605953,34764.338777,0,-0.9168701,94.8809,0,1682321854,1,1,0.33,-120,-120,2
1607223898.267127,66,0,0,1607223897.999894,24.59926648135752,73.67869206130547,598.2137,2.843666,144.0616152202245,3.297447936653616,4.790759244404549,-9999,1607223897.44552,29.73832702636719,-7.787859916687012,31.95716857910156,257.4906921386719,256.7553100585938,14.94728374481201,34768.660836,-0.293548583984375,-0.0455780029296875,-0.2960968017578125,34768.136145125,1.222511053085327,4.063697338104248,0.9446964859962463,34768.380793125,-121.0833435058594,-17.57736206054688,-78.00230407714844,34767.702867125,0.09793789046182204,1.694682263425977,0.1296585286004521,-1.660624384880066,-2.038331985473633,-1.593665957450867,2.468386173248291,-0.07889530062675476,0.006053820252418518,2,-0.006222503991146974,-0.7491510671424489,-0.08083413573839657,-0.6574191798485683,0.9840065836906433,-0.1292955428361893,0.1225320845842361,18.95427703857422,0.02698707580566406,40.63603973388672,2,34752.74106954167,8,2,1607223882.348002,1607223123.808484,1313,0.6581384,0.3820187,2.657931,1043.692,0,0,1607223895.170655,34765.404432,0,-0.9406738,94.88116,0,1682321854,1,1,0.33,-120,-120,2
1607223899.268673,67,0,0,1607223897.999894,24.59926648135752,73.67869206130547,598.2137,2.843666,144.0616152202245,3.297447936653616,4.790759244404549,-9999,1607223898.447872,24.65199279785156,-11.14149379730225,36.01460266113281,249.2668762207031,248.531494140625,14.94879817962646,34769.66263225,0.7638092041015625,0.6540374755859375,0.46954345703125,34769.137943,0.6468575596809387,2.806474208831787,-0.1711120903491974,34769.382048,-117.4225311279297,-26.67617797851562,-83.10223388671875,34768.70466600001,0.2823010111698954,1.458001468474447,0.200164033537245,0.006219685543328524,0.7917518019676208,0.5408734083175659,-1.343068957328796,0.01564840972423553,-0.07244598865509033,2,0.01946345291001832,-0.6666835088243046,-0.1702954158637587,-0.725364584356831,0.9738062620162964,-0.1988300979137421,-0.1103085428476334,28.03157806396484,-8.22459888458252,33.91239929199219,2,34752.74106954167,8,2,1607223882.348002,1607223123.808484,1313,0.6581384,0.3820187,2.657931,1043.692,0,0,1607223895.170655,34766.470106,0,-0.956543,94.88136,0,1682321854,1,1,0.33,-120,-120,2
1607223900.270679,68,0,0,1607223899.999899,24.59921111149627,73.67872462291189,598.5733,2.921963,142.9294167946665,3.324029386952903,4.772354310763436,-9999,1607223899.449439,18.44451141357422,-4.473319053649902,40.38709259033203,259.522705078125,258.7873229980469,14.94996070861816,34770.6644305,2.68890380859375,-0.7696533203125,0.35528564453125,34770.13973925,0.3529537916183472,-0.3229162693023682,0.09061352163553238,34770.38331325,-128.4553527832031,-24.48072814941406,-74.70152282714844,34769.70646225,0.3582827184709256,1.88798433218986,0.1703255482481529,0.3738870024681091,0.9688087701797485,0.4973881542682648,-0.8578612208366394,0.03402048349380493,-0.2394048869609833,2,0.09469566624649563,-0.8029471679515309,-0.1719252170575608,-0.5628057809092024,0.9363677501678467,-0.1695031970739365,0.3073828518390656,10.77690124511719,-10.48929500579834,43.15735626220703,2,34752.74106954167,8,2,1607223882.348002,1607223123.808484,1313,0.6581384,0.3820187,2.657931,1043.692,0,0,1607223895.170655,34767.535764,0,-0.9882202,94.88171,0,1682321854,1,1,0.33,-120,-120,2
1607223901.272637,69,0,0,1607223899.999899,24.59921111149627,73.67872462291189,598.5733,2.921963,142.9294167946665,3.324029386952903,4.772354310763436,-9999,1607223900.450881,29.6612548828125,-9.912646293640137,30.61865234375,254.565673828125,253.8302917480469,14.95070838928223,34771.666228125,-0.3127593994140625,-0.0313262939453125,-0.2495880126953125,34771.1415365,0.4589297771453857,2.197746515274048,1.430213093757629,34771.3847455,-123.6251220703125,-15.59890747070312,-76.51885986328125,34770.7082605,0.21729977339931,1.607278760869675,0.08725072666848174,-2.46831202507019,-3.145742416381836,0.0009333515772596002,2.56142783164978,0.07406336814165115,0.1802324056625366,2,0.04789567276106498,-0.7182435537776518,-0.1064032960350741,-0.6859377108863355,0.9955331683158875,-0.08714006841182709,0.03633559495210648,23.10159301757812,-4.460598945617676,37.41064453125,2,34752.74106954167,8,2,1607223882.348002,1607223123.808484,1320,0.6558523,0.3794683,2.672351,1051.241,0,0,1607223897.735435,34768.601438,0,-0.9909058,94.88174,0,1682321854,1,1,0.33,-120,-120,2
1607223902.274345,70,0,0,1607223901.999899,24.59917775895784,73.67876071597989,598.5212,2.560422,137.1711207598952,3.335990749206665,4.764000708857671,-9999,1607223901.45295,21.49514007568359,-6.880980491638184,38.55007934570312,257.8138732910156,257.0784912109375,14.9493465423584,34772.66802375,0.82733154296875,0.598358154296875,0.38690185546875,34772.143334125,-0.3981257975101471,1.335341930389404,-1.216448664665222,34772.386126125,-115.5250244140625,-21.56175231933594,-83.95596313476562,34771.71005812501,0.3287142908032389,1.467612388528439,0.1254825662219748,-0.6018586158752441,-0.3919356465339661,0.1702080070972443,-1.348280191421509,-0.05346576869487762,-0.1370056867599487,2,0.0634241097862096,-0.6669946313283199,-0.1626932803563832,-0.7243110662620535,0.9868605136871338,-0.1251535266637802,-0.1021910905838013,27.49254608154297,-8.286402702331543,33.71304321289062,2,34752.74106954167,8,2,1607223882.348002,1607223123.808484,1320,0.6558523,0.3794683,2.672351,1051.241,0,0,1607223897.735435,34769.667001,0,-0.9935303,94.88177,0,1682321854,1,1,0.33,-120,-120,2
1607223903.276381,71,0,0,1607223901.999899,24.59917775895784,73.67876071597989,598.5212,2.560422,137.1711207598952,3.335990749206665,4.764000708857671,-9999,1607223902.45444,22.36918640136719,0.8802509307861328,37.89183807373047,268.8377075195312,268.1023254394531,14.949387550354,34773.669819875,2.955368041992188,-0.3698272705078125,0.1772918701171875,34773.14512975,0.2098472416400909,0.5827680826187134,-0.1313457787036896,34773.38752475,-128.4746246337891,-21.78277587890625,-74.16195678710938,34772.71185375,0.2456868867228649,1.859969415069345,0.1620261301684941,0.9319923520088196,0.5706647038459778,0.6342955827713013,-1.097522258758545,-0.09727250039577484,-0.4821694791316986,2,0.04988717759662646,-0.7988890465050523,-0.1373977403524353,-0.5834462196272011,0.9459263682365417,-0.1613181233406067,0.281424880027771,11.83439636230469,-5.944796562194824,42.92072296142578,2,34752.74106954167,8,2,1607223882.348002,1607223123.808484,1327,0.6537108,0.3781121,2.674918,1058.669,0,0,1607223900.299934,34770.732454,0,-1.012024,94.88196,0,1682321854,1,1,0.33,-120,-120,2
1607223904.277535,72,0,0,1607223903.999897,24.59913106015932,73.67878826116092,598.3434,2.608979,150.5505178727771,3.371403909596604,4.739005455910087,-9999,1607223903.456537,29.78367614746094,-5.716559410095215,31.59846496582031,261.6469421386719,260.9115600585938,14.94937705993652,34774.67161566667,-0.334320068359375,-0.0782318115234375,-0.307647705078125,34774.146925875,1.244564414024353,2.211509227752686,1.22054135799408,34774.388972875,-123.3135528564453,-12.12283325195312,-77.42930603027344,34773.713649875,0.1199605760947656,1.59616933835195,0.09722901295255171,-2.635306596755981,-2.849602460861206,0.3494024276733398,1.953667044639587,0.4519038498401642,0.4483671188354492,2,0.009008233219274117,-0.715921842516573,-0.07652915712752341,-0.6939150445615218,0.9949566721916199,-0.09707589447498322,0.02525046654045582,23.14558410644531,-1.103169441223145,37.4376220703125,2,34752.74106954167,8,2,1607223882.348002,1607223123.808484,1327,0.6537108,0.3781121,2.674918,1058.669,0,0,1607223900.299934,34771.798015,0,-1.012024,94.88196,0,1682321854,1,1,0.33,-120,-120,2
1607223905.279372,73,0,0,1607223904.999899,24.59910163151366,73.67879564728649,597.6905,2.818043,159.4296763529948,3.367601878813637,4.741707985378232,-9999,1607223904.458574,23.17810821533203,-5.815978050231934,37.28925323486328,260.8348083496094,260.0994262695312,14.94782161712646,34775.67341116667,0.681793212890625,0.412139892578125,0.4155426025390625,34775.14872066667,-0.8283892869949341,0.9809937477111816,-1.117770791053772,34775.39034866667,-116.1793518066406,-21.51420593261719,-83.59164428710938,34774.71544466667,0.2566862281094268,1.439222941319093,0.1420840807070424,-0.1559019088745117,0.06401218473911285,0.1485101729631424,-1.436002492904663,-0.09437058866024017,-0.1940415501594543,2,0.03120114682758819,-0.658855420064937,-0.1424135145522809,-0.7380070354835399,0.9813668131828308,-0.1416064947843552,-0.129872053861618,27.70314025878906,-6.171505928039551,34.04399108886719,2,34752.74106954167,8,2,1607223882.348002,1607223123.808484,1327,0.6537108,0.3781121,2.674918,1058.669,0,0,1607223900.299934,34772.863636,0,-0.9802856,94.88161,0,1682321854,1,1,0.33,-120,-120,2
1607223906.282071,74,0,0,1607223905.999907,24.5990782600325,73.67880570931119,598.3412,2.831155,157.9185321180815,3.373028219488582,4.737849476642595,-9999,1607223905.460165,23.63190460205078,0.9994831085205078,37.91394805908203,269.23583984375,268.5004577636719,14.94845867156982,34776.67520525,3.23919677734375,-0.515289306640625,0.834564208984375,34776.15051616667,0.06977428495883942,-0.01127502508461475,0.3992874622344971,34776.39163816667,-128.9222564697266,-22.9345703125,-73.37094116210938,34775.71724016667,0.1584117867259343,1.84379077166197,0.1617558793491782,2.421605110168457,1.803809881210327,0.1140541061758995,-1.148044347763062,-0.1113331168889999,-0.8900744318962097,2,0.01416603801559833,-0.7955172052236582,-0.1118260107060451,-0.5953541446224777,0.9503971934318542,-0.161051407456398,0.2660965919494629,12.70307922363281,-2.341500282287598,44.03247833251953,2,34752.74106954167,8,2,1607223882.348002,1607223123.808484,1334,0.6517685,0.3780549,2.673756,1065.851,0,0,1607223902.864498,34773.929235,0,-0.9539185,94.8813,0,1682321854,1,1,0.33,-120,-120,2
1607223907.282892,75,0,0,1607223906.99991,24.59905891108755,73.67881628905749,598.3635,2.607249,156.9557508057464,3.379598655308433,4.733164899074008,-9999,1607223906.461844,28.23323059082031,-8.304423332214355,34.03379821777344,256.2369079589844,255.5015258789062,14.94835376739502,34777.676998875,-0.283599853515625,-0.1568756103515625,-0.207977294921875,34777.15231025,0.5594257712364197,2.452605962753296,1.257386445999146,34777.39295525,-120.6868591308594,-12.55914306640625,-78.653076171875,34776.71903525,0.2061861715260719,1.598270074362163,0.1151501098931731,-2.40827465057373,-3.04347038269043,0.2729871571063995,1.972970247268677,0.1830874383449554,0.3233280181884766,2,0.03372584871767448,-0.7158957687460843,-0.1126687308243713,-0.6882307134457101,0.9930025935173035,-0.1148958057165146,0.02728836983442307,22.74696350097656,-3.503315925598145,38.63298034667969,2,34752.74106954167,8,2,1607223882.348002,1607223123.808484,1334,0.6517685,0.3780549,2.673756,1065.851,0,0,1607223902.864498,34773.929235,0,-0.9539185,94.8813,0,1682321854,1,1,0.33,-120,-120,2
1607223908.285033,76,0,0,1607223907.999914,24.59903607318778,73.67883495927443,598.1353,2.74101,152.0181683192683,3.379522411880838,4.733219337869729,-9999,1607223907.463911,26.35877990722656,-1.498238563537598,36.35411834716797,267.4848937988281,266.74951171875,14.94645214080811,34778.67879204167,1.022262573242188,0.513427734375,0.399658203125,34778.154103875,-0.2309117764234543,0.3686137199401855,-0.2344093024730682,34778.394267875,-113.7982177734375,-15.55416870117188,-85.32891845703125,34777.720828875,0.1609683749261108,1.414999047043978,0.1494925907446443,-0.1767015904188156,0.1592762619256973,0.007180123589932919,-1.411852359771729,0.01407930254936218,-0.007680356502532959,2,-0.004462628666442828,-0.6505855068759681,-0.1093084319396564,-0.7515120531038711,0.9768701195716858,-0.1489364057779312,-0.1534371674060822,30.27172088623047,-2.175141334533691,32.58118438720703,2,34752.74106954167,8,2,1607223882.348002,1607223123.808484,1341,0.649605,0.3784578,2.670291,1073.472,0,0,1607223905.428717,34774.994838,0,-0.9142456,94.88087,0,1682321854,1,1,0.33,-120,-120,2
1607223909.287118,77,0,0,1607223908.999917,24.59902126311702,73.67885198174559,596.9611,2.518285,147.9088603070817,3.378138540268073,4.734207117939004,-9999,1607223908.465193,22.61412811279297,10.53882789611816,36.85987854003906,284.8790893554688,284.1437072753906,14.9496898651123,34779.680584125,2.839202880859375,-0.489837646484375,0.444976806640625,34779.15589604167,0.3742066323757172,0.348742812871933,-0.0001541970268590376,34779.39553504167,-125.1652526855469,-9.779571533203125,-76.36149597167969,34778.72262104167,0.007030985381915197,1.803193248629954,0.1461618925211603,0.5676000118255615,1.778928399085999,0.8163996934890747,-0.7817109227180481,0.05993348360061646,-0.1234237849712372,2,-0.04254586203415726,-0.7823792811309128,-0.05944240246448277,-0.6184975541404562,0.9627413153648376,-0.145642027258873,0.2278549820184708,15.87680053710938,3.074278831481934,42.75279235839844,2,34752.74106954167,8,2,1607223882.348002,1607223123.808484,1341,0.649605,0.3784578,2.670291,1073.472,0,0,1607223905.428717,34776.060435,0,-0.8931274,94.88062,0,1682321854,1,1,0.33,-120,-120,2
1607223910.288704,78,0,0,1607223909.99992,24.59900112526681,73.6788649845501,596.3266,2.46152,149.3354680507241,3.368715207618181,4.740917093005407,-9999,1607223909.467294,33.21601104736328,8.426540374755859,26.29912567138672,284.5496520996094,283.8142700195312,14.95039844512939,34780.682377875,-0.3468780517578125,-0.0920562744140625,-0.2027587890625,34780.157689125,1.887630224227905,3.54419732093811,1.116895079612732,34780.396860125,-119.3667144775391,0.89837646484375,-85.298583984375,34779.724414125,-0.2633773396324045,1.574116654188014,0.06818871521364109,-2.655638217926025,-3.259263515472412,0.3570853769779205,1.981791019439697,0.2428338229656219,0.4918503761291504,2,-0.1168042962325848,-0.6985793145981981,0.06870628222815064,-0.702583145618265,0.9976704716682434,-0.06813588738441467,0.003312604734674096,24.94504547119141,13.62320613861084,32.54657745361328,2,34752.74106954167,8,2,1607223882.348002,1607223123.808484,1341,0.649605,0.3784578,2.670291,1073.472,0,0,1607223905.428717,34777.126025,0,-0.8931274,94.88061,0,1682321854,1,1,0.33,-120,-120,2
1607223911.290413,79,0,0,1607223910.999922,24.59897165524783,73.67885892985011,598.6393,2.641054,167.1967448550155,3.366901980952062,4.742204981171725,-9999,1607223910.469321,27.85088348388672,11.54538536071777,31.32860565185547,289.0315246582031,288.296142578125,14.94965839385986,34781.684169375,1.168838500976562,0.471649169921875,0.4729156494140625,34781.159481875,0.1636616289615631,-0.1008909270167351,-0.2511866986751556,34781.398218875,-114.2305603027344,-3.134689331054688,-89.4244384765625,34780.726207875,-0.2283935569161858,1.407804667969494,0.1566971388188202,-0.2684265673160553,0.7566083669662476,-0.1017313748598099,-1.390260457992554,0.06525169312953949,0.03776992857456207,2,-0.132798259366796,-0.6342107065371929,0.03627400061116007,-0.7608058605442839,0.9746567010879517,-0.156056672334671,-0.1602828055620193,31.82614135742188,10.64904022216797,27.12983703613281,2,34752.74106954167,8,2,1607223882.348002,1607223123.808484,1347,0.6477256,0.3784948,2.67063,1080.052,0,0,1607223907.993404,34778.191548,0,-0.8931274,94.88061,0,1682321854,1,1,0.33,-120,-120,2
1607223912.292027,80,0,0,1607223911.999925,24.59894521003255,73.67886052398784,598.6807,2.696746,171.5529836747654,3.375883671686778,4.735815290742179,-9999,1607223911.470616,28.15885162353516,18.23176956176758,26.21663665771484,303.3592529296875,302.6238708496094,14.94985675811768,34782.68596066667,0.660858154296875,-0.7820892333984375,-0.4024658203125,34782.161273375,0.4151612520217896,0.1544593423604965,-0.08592875301837921,34782.399545375,-119.9878082275391,0.8704376220703125,-85.62242126464844,34781.72799937501,-0.3654368581412898,1.773823592057377,0.1282009350171072,0.4254326224327087,1.469351887702942,0.7378485202789307,-0.5763269066810608,0.2978483140468597,-0.07023516297340393,2,-0.1803512916243858,-0.7533018680163686,0.06574075807985202,-0.6290371396862119,0.971422553062439,-0.1278500556945801,0.1999805867671967,19.84724426269531,15.34136772155762,35.83251190185547,2,34752.74106954167,8,2,1607223882.348002,1607223123.808484,1347,0.6477256,0.3784948,2.67063,1080.052,0,0,1607223907.993404,34779.25704,0,-0.8561401,94.8802,0,1682321854,1,1,0.33,-120,-120,2
1607223913.293984,81,0,0,1607223912.999926,24.59891814903666,73.67885009157247,598.4514,2.73963,184.3418189390934,3.382874261885836,4.730824321517256,-9999,1607223912.472364,31.69831085205078,14.70442676544189,23.01377105712891,296.6374206542969,295.9020385742188,14.94927406311035,34783.687751125,-0.1240692138671875,-0.0566253662109375,-0.2859039306640625,34783.16306466667,1.353666186332703,3.14545464515686,0.5218181610107422,34783.40088666667,-118.1442413330078,4.767410278320312,-90.03143310546875,34782.72979066667,-0.6092571244813284,1.641063370157668,0.09984939753481992,-1.721822381019592,1.577283501625061,-2.167105197906494,2.414891719818115,-0.1670400202274323,0.4364117383956909,2,-0.2515939450583786,-0.6867534173148189,0.1694287993411158,-0.6605786542996135,0.9925638437271118,-0.09968356788158417,0.06985954195261002,24.75726318359375,21.84358787536621,26.39364624023438,2,34752.74106954167,8,2,1607223882.348002,1607223123.808484,1354,0.6458381,0.3491723,2.668155,1087.303,0,0,1607223910.558079,34780.322639,0,-0.8428955,94.88005,0,1682321854,1,1,0.33,-120,-120,2
1607223914.296341,82,0,0,1607223913.999927,24.59888765722144,73.67885016830039,598.189,2.946006,181.5904988971994,3.391578887596259,4.724587779055455,-9999,1607223913.474581,26.04431915283203,17.98801612854004,28.44843292236328,300.96484375,300.2294616699219,14.94901180267334,34784.68954291667,2.295654296875,-0.0012054443359375,0.2486724853515625,34784.164855125,0.9827602505683899,-0.973115861415863,-0.08555884659290314,34784.402264125,-113.4266052246094,1.487884521484375,-94.47140502929688,34783.731581125,-0.4344838080147831,1.425362671175951,0.1222333053063563,-0.1454139649868011,0.2472936511039734,-0.1232734993100166,-1.277242064476013,0.1159325391054153,-0.1212355345487595,2,-0.1857956295624812,-0.6273435008104159,0.1237749451107635,-0.746056210010793,0.9820607304573059,-0.1219291538000107,-0.1438402384519577,30.27000427246094,16.84384155273438,23.77898406982422,2,34752.74106954167,8,2,1607223882.348002,1607223123.808484,1354,0.6458381,0.3491723,2.668155,1087.303,0,0,1607223910.558079,34781.388271,0,-0.8428955,94.88005,0,1682321854,1,1,0.33,-120,-120,2
1607223915.297805,83,0,0,1607223914.999928,24.59886213516598,73.67884218822101,598.3011,2.917682,187.4871890585744,3.384170808819753,4.729896930116036,-9999,1607223914.475951,21.6011962890625,20.49903106689453,31.40216064453125,304.0953674316406,303.3599853515625,14.94979858398438,34785.69133279167,0.1127777099609375,-0.0423736572265625,-0.07470703125,34785.16664591667,0.272195041179657,-0.5297320485115051,0.0320010744035244,34785.40367791667,-119.4716491699219,3.083282470703125,-87.41476440429688,34784.73337191667,-0.4886772831347717,1.730877627037678,0.09500077343014005,1.201165676116943,1.986215829849243,1.032149910926819,0.2602944374084473,0.6517580151557922,0.3605615496635437,2,-0.2138500895850115,-0.7304847564750216,0.1215794115046074,-0.6370858967527097,0.9827626347541809,-0.09485793858766556,0.1586796790361404,20.99697113037109,19.80004501342773,32.57559967041016,2,34752.74106954167,8,2,1607223882.348002,1607223123.808484,1354,0.6458381,0.3491723,2.668155,1087.303,0,0,1607223910.558079,34782.453833,0,-0.8428955,94.88005,0,1682321854,1,1,0.33,-120,-120,2
1607223916.299375,84,0,0,1607223915.99993,24.59883771218717,73.6788230001642,598.8589,2.799343,197.8308645647206,3.362625874258201,4.745238061737061,-9999,1607223915.477784,29.29222106933594,19.96203231811523,22.81509399414062,304.8834533691406,304.1480712890625,14.9496898651123,34786.69312316667,0.2700042724609375,0.00506591796875,0.133636474609375,34786.16843579167,-0.8162021636962891,-0.4716333150863647,0.6766343712806702,34786.40504579167,-119.3135375976562,6.086532592773438,-89.17073059082031,34785.73516179167,-0.8076778387465153,1.651504182432339,0.1856100710319946,0.6348504424095154,0.3634486198425293,0.5855761766433716,0.01234924793243408,-0.1215298920869827,0.008105643093585968,2,-0.3453766832743487,-0.6483307110364845,0.2026365884536703,-0.6475498040287079,0.9796247482299805,-0.1845461577177048,0.07923553138971329,27.38125610351562,24.01175689697266,21.57558441162109,2,34752.74106954167,8,2,1607223882.348002,1607223123.808484,1361,0.6439233,0.3495882,2.666145,1094.644,0,0,1607223913.123285,34783.51938,0,-0.8851929,94.88054,0,1682321854,1,1,0.33,-120,-120,2
1607223917.301349,85,0,0,1607223916.99993,24.5988155466396,73.67882018926935,599.4675,2.582205,195.7336346132505,3.368184995434448,4.741293796984014,-9999,1607223916.479824,31.22956848144531,21.25880432128906,20.33544158935547,307.7951965332031,307.059814453125,14.94968795776367,34787.69491229167,3.549591064453125,-0.971099853515625,0.10833740234375,34787.17022616667,2.663957357406616,-4.693603992462158,0.5618111491203308,34787.40647016667,-113.4167785644531,6.5350341796875,-98.76715087890625,34786.73695216667,-0.599983751513632,1.355836942154282,0.1654946170702754,0.7771469950675964,-0.1313024908304214,-0.1859105974435806,-1.077161908149719,0.155371367931366,-0.1838175654411316,2,-0.2462048585315359,-0.5780886634118589,0.1798585989573562,-0.7568669574747069,0.9636365175247192,-0.1647402048110962,-0.2103933244943619,33.21363830566406,20.26533699035645,17.02667999267578,2,34752.74106954167,8,2,1607223882.348002,1607223123.808484,1361,0.6439233,0.3495882,2.666145,1094.644,0,0,1607223913.123285,34784.584973,0,-0.9116211,94.88084,0,1682321854,1,1,0.33,-120,-120,2
1607223918.302759,86,0,0,1607223917.999932,24.59879191756442,73.67880193222345,599.1309,2.626132,203.1004631217603,3.37710023581943,4.734947838151672,-9999,1607223917.48134,24.41860198974609,23.52378845214844,27.47344970703125,310.9596862792969,310.2243041992188,14.95059585571289,34788.696700375,-0.07952880859375,-0.116668701171875,-0.0735015869140625,34788.17201529167,0.7684136033058167,0.5949965119361877,-0.0109027149155736,34788.40787729167,-117.4010162353516,10.52662658691406,-97.01673889160156,34787.73874129167,-0.6147621908444865,1.624347274428533,0.1084660225954751,1.054775357246399,4.165341377258301,0.7425629496574402,0.8467945456504822,0.6397019028663635,0.473141074180603,2,-0.25481498831957,-0.6794664985573509,0.1703360518343791,-0.6666184547409602,0.9926981925964355,-0.1082534641027451,0.05321080237627029,25.81300354003906,23.10896301269531,26.23953247070312,2,34752.74106954167,8,2,1607223882.348002,1607223123.808484,1368,0.6418129,0.3496715,2.661017,1102.426,0,0,1607223915.687551,34785.650554,0,-0.9168701,94.88088,0,1682321854,1,1,0.33,-120,-120,2
1607223919.304503,87,0,0,1607223918.999933,24.59876728583973,73.6787951428747,598.2422,2.62547,198.9156131172877,3.385355394222386,4.729049152588524,-9999,1607223918.483486,28.60844421386719,26.54101371765137,16.97787475585938,320.4508361816406,319.7154541015625,14.94975471496582,34789.69848975,0.7079010009765625,-0.31011962890625,0.7648162841796875,34789.173803375,0.3872768878936768,-0.9761497378349304,0.2116336822509766,34789.409187375,-118.6159515380859,11.28799438476562,-94.2034912109375,34788.74052937501,-1.083758271520368,1.643445457914099,0.1976498235910124,1.039832830429077,0.2027803659439087,-0.5123546719551086,-0.1702508926391602,-0.5197294354438782,-0.2464345842599869,2,-0.4334102791570782,-0.5896961546706637,0.2875869416387689,-0.617824850836988,0.9779441356658936,-0.1963654607534409,0.07117205113172531,30.09822082519531,27.00777816772461,11.90178680419922,2,34752.74106954167,8,2,1607223882.348002,1607223123.808484,1368,0.6418129,0.3496715,2.661017,1102.426,0,0,1607223915.687551,34786.716174,0,-0.9274902,94.88103,0,1682321854,1,1,0.33,-120,-120,2
1607223920.306291,88,0,0,1607223918.999933,24.59876728583973,73.6787951428747,598.2422,2.62547,198.9156131172877,3.385355394222386,4.729049152588524,-9999,1607223919.484974,31.06139373779297,26.74015617370605,12.99717712402344,324.5974426269531,323.862060546875,14.94977283477783,34790.700278,2.482101440429688,-0.1676483154296875,-0.53717041015625,34790.17559175,2.112697601318359,-2.31536078453064,1.449987292289734,34790.41057175,-114.6839904785156,12.22068786621094,-106.3550720214844,34789.74231875,-0.9186523372336993,1.403478097485603,0.1434719137894117,-0.2372317463159561,0.3669933676719666,-0.3439029157161713,-0.895535945892334,0.1058708876371384,0.02357687056064606,2,-0.3345289960461554,-0.5528802646224812,0.2962468501482393,-0.7033146463225523,0.9759038686752319,-0.1429802179336548,-0.1648275256156921,31.17857360839844,27.18848419189453,9.00030517578125,2,34752.74106954167,8,2,1607223882.348002,1607223123.808484,1368,0.6418129,0.3496715,2.661017,1102.426,0,0,1607223915.687551,34787.781767,0,-0.9327393,94.88107,0,1682321854,1,1,0.33,-120,-120,2
1607223921.308089,89,0,0,1607223920.999933,24.59872940440122,73.67876054541925,598.7321,2.585481,208.8827071362939,3.388201612727943,4.727010351617246,-9999,1607223920.486776,27.22428894042969,28.46819686889648,17.02076721191406,330.3590698242188,329.6236877441406,14.94981956481934,34791.702066125,-0.412689208984375,-0.271484375,-0.320709228515625,34791.17738,-2.213887691497803,-1.70822286605835,0.8389663100242615,34791.41197,-113.0377960205078,10.52545166015625,-107.4739379882812,34790.744107,-0.8914166273246226,1.402649106043518,0.07013484099270088,0.8611996173858643,-0.3272829353809357,0.641106128692627,2.31553840637207,-1.319891452789307,-0.6221332550048828,2,-0.3021546851810264,-0.5702896428818883,0.3087387305699303,-0.6986791517340247,0.9834727048873901,-0.07007735967636108,-0.1669445335865021,29.39142608642578,28.49208831787109,11.61884307861328,2,34752.74106954167,8,2,1607223882.348002,1607223123.808484,1375,0.6408265,0.3524622,2.661485,1108.219,0,0,1607223918.251864,34788.847326,0,-0.9750366,94.88154,0,1682321854,1,1,0.33,-120,-120,2
1607223922.310393,90,0,0,1607223921.999933,24.59871450450156,73.67873325794359,598.9938,2.60144,219.7799283527481,3.384619165542612,4.72957610542747,-9999,1607223921.489219,29.34458923339844,28.48837852478027,9.88592529296875,342.3999938964844,341.6646118164062,14.94968223571777,34792.70385329167,2.575653076171875,0.8539886474609375,0.3428955078125,34792.179168125,-0.3209625780582428,0.6422992944717407,-0.3005763292312622,34792.413327125,-120.3625793457031,12.22738647460938,-94.70445251464844,34791.745896125,-1.135943241860398,1.744507807858604,0.2171078707315844,1.605003833770752,-3.644866704940796,0.487119048833847,-1.65759813785553,0.09477034211158752,-0.6347241401672363,2,-0.468241303727489,-0.6042689152504874,0.2739641156354147,-0.5835690768343297,0.9618279337882996,-0.2154062986373901,0.1687816828489304,29.88018035888672,26.93627548217773,15.26169586181641,2,34752.74106954167,8,2,1607223882.348002,1607223123.808484,1375,0.6408265,0.3524622,2.661485,1108.219,0,0,1607223918.251864,34789.912813,0,-0.9750366,94.88154,0,1682321854,1,1,0.33,-120,-120,2
1607223923.311715,91,0,0,1607223921.999933,24.59871450450156,73.67873325794359,598.9938,2.60144,219.7799283527481,3.384619165542612,4.72957610542747,-9999,1607223922.490361,31.18471527099609,27.82044219970703,5.249618530273438,334.8561706542969,334.1207885742188,14.94911575317383,34793.70564216667,-0.3623046875,-0.0538177490234375,-0.13763427734375,34793.18095529167,0.1419875025749207,-1.033867120742798,0.5399218201637268,34793.41468529167,-115.3090057373047,13.43092346191406,-111.7014617919922,34792.74768329167,-1.069008557497765,1.467214182250269,0.1364610959126122,-1.17717182636261,-2.195551872253418,0.4803034365177155,0.2363165616989136,0.2750455141067505,0.3420902490615845,2,-0.38386317174864,-0.5490274677075337,0.33821288689313,-0.6609312063955047,0.9853937029838562,-0.1360379755496979,-0.1024358123540878,29.73721313476562,28.61070251464844,6.880126953125,2,34752.74106954167,8,2,1607223882.348002,1607223123.808484,1375,0.6408265,0.3524622,2.661485,1108.219,0,0,1607223918.251864,34789.912813,0,-0.9750366,94.88154,0,1682321854,1,1,0.33,-120,-120,2
1607223924.315728,92,0,0,1607223923.999932,24.59868297868573,73.67870595964018,598.3163,2.424979,216.4406870598011,3.388496386463704,4.726799051336037,-9999,1607223923.492206,27.96080780029297,27.59527206420898,16.5797119140625,327.6719360351562,326.9365539550781,14.94637298583984,34794.70742925,0.1333160400390625,-0.12921142578125,0.0959625244140625,34794.18274416667,-1.550053000450134,0.5959398150444031,-2.17873477935791,34794.41607616667,-114.1132202148438,11.81748962402344,-110.3991241455078,34793.74947116667,-1.020038465525574,1.466053747821297,0.158851353382685,-1.47678816318512,0.3536046743392944,-1.127217411994934,-0.7412449717521667,0.1204339116811752,-0.06123971194028854,2,-0.3770910028302886,-0.5533398280701364,0.3153256609340205,-0.6724485822930225,0.981998085975647,-0.1581841260194778,-0.1032348200678825,30.66645050048828,28.04533386230469,9.128593444824219,2,34752.74106954167,8,2,1607223882.348002,1607223123.808484,1381,0.6403952,0.3576822,2.657781,1112.564,0,0,1607223920.816363,34790.978313,0,-0.9591675,94.88138,0,1682321854,1,1,0.33,-120,-120,2
1607223925.316037,93,0,0,1607223924.999933,24.59867028581336,73.67868577830791,597.4325,2.277439,219.8392185482993,3.387913412600255,4.72721691288988,-9999,1607223924.493959,31.51482391357422,27.03961944580078,5.705055236816406,341.6282653808594,340.8928833007812,14.94587135314941,34795.709215875,4.164688110351562,0.1781768798828125,-0.0717010498046875,34795.18453125,0.7418797016143799,0.3760181069374084,0.7884621024131775,34795.41734225,-118.9980926513672,12.45906066894531,-99.00466918945312,34794.75125825,-1.077188507431619,1.8339566709075,0.2295109106510548,1.161144495010376,0.4203653931617737,0.3332681357860565,-1.45975399017334,-0.01306872069835663,-0.5106516480445862,2,-0.4642532979825203,-0.6411902330344041,0.2319007430912267,-0.5653016055156554,0.9402530789375305,-0.2275012880563736,0.2533120810985565,27.95622253417969,26.58980178833008,18.692626953125,2,34752.74106954167,8,2,1607223882.348002,1607223123.808484,1381,0.6403952,0.3576822,2.657781,1112.564,0,0,1607223920.816363,34792.04383,0,-0.9591675,94.88138,0,1682321854,1,1,0.33,-120,-120,2
1607223926.317334,94,0,0,1607223924.999933,24.59867028581336,73.67868577830791,597.4325,2.277439,219.8392185482993,3.387913412600255,4.72721691288988,-9999,1607223925.495954,32.16043090820312,26.81170463562012,1.410835266113281,335.3713684082031,334.635986328125,14.9492712020874,34796.711001875,-0.3392333984375,-0.0548858642578125,-0.348724365234375,34796.186316875,0.8833878636360168,1.580588221549988,1.117186188697815,34796.418566875,-114.2737731933594,11.51844787597656,-109.0763092041016,34795.753044875,-1.132832275855939,1.462410040751612,0.1575713154671878,-2.130542516708374,-2.513030529022217,0.9030036330223083,1.12580418586731,0.3846880495548248,0.154944896697998,2,-0.4066556375248283,-0.5302962943673961,0.3538501240797336,-0.6543754044938496,0.9818159937858582,-0.1569200754165649,-0.1068340688943863,30.13839721679688,28.30809020996094,4.049781799316406,2,34752.74106954167,8,2,1607223882.348002,1607223123.808484,1388,0.6387577,0.3614294,2.65287,1119.65,0,0,1607223923.380835,34793.109391,0,-0.9882202,94.88171,0,1682321854,1,1,0.33,-120,-120,2
1607223927.318972,95,0,0,1607223926.999932,24.59864416114062,73.67863885873113,597.9593,2.64942,227.694219058069,3.391423955775469,4.724698994113923,-9999,1607223926.49745,26.25389862060547,26.6228141784668,19.32115173339844,325.4356689453125,324.7002868652344,14.95051097869873,34797.7127875,0.4041900634765625,0.0814208984375,0.22119140625,34797.188102875,-2.338151454925537,1.841262102127075,-3.511293411254883,34797.419902875,-113.0733795166016,8.2596435546875,-103.9558258056641,34796.754830875,-1.010626920506704,1.495949010685311,0.168546757133078,-0.2083471268415451,0.8790798783302307,-0.5122523307800293,-0.9753180742263794,-0.01807162165641785,-0.2210209965705872,2,-0.382075591827119,-0.563169005231838,0.3035094015923023,-0.666889044127477,0.9830695390701294,-0.1677498817443848,-0.07371782511472702,30.80338287353516,26.78699111938477,10.09723663330078,2,34752.74106954167,8,2,1607223882.348002,1607223123.808484,1388,0.6387577,0.3614294,2.65287,1119.65,0,0,1607223923.380835,34794.174959,0,-1.035828,94.88223,0,1682321854,1,1,0.33,-120,-120,2
1607223928.323157,96,0,0,1607223926.999932,24.59864416114062,73.67863885873113,597.9593,2.64942,227.694219058069,3.391423955775469,4.724698994113923,-9999,1607223927.49949,31.72939300537109,25.90704154968262,8.111526489257812,334.5209045410156,333.7855224609375,14.95121955871582,34798.71457366667,3.354095458984375,-0.4166259765625,0.138824462890625,34798.1898885,0.02808409929275513,0.6562569737434387,-0.409752368927002,34798.4212155,-119.4682922363281,10.63432312011719,-94.93305969238281,34797.7566165,-0.8841247821191401,1.831530909830089,0.1954804035609465,1.753287315368652,-0.6344106793403625,0.4343492686748505,-1.365371108055115,-0.2661655843257904,-0.4096952974796295,2,-0.3913746451351249,-0.6879434520764258,0.1894193867921991,-0.5811023666361377,0.947799026966095,-0.1942378133535385,0.2528806030750275,25.76700592041016,24.06083679199219,24.15761566162109,2,34752.74106954167,8,2,1607223882.348002,1607223123.808484,1388,0.6387577,0.3614294,2.65287,1119.65,0,0,1607223923.380835,34795.240512,0,-1.062195,94.88256,0,1682321854,1,1,0.33,-120,-120,2
1607223929.322904,97,0,0,1607223928.99993,24.59860197668653,73.6785967830632,598.9787,3.016433,221.8300795964379,3.395613609792176,4.721688812891314,-9999,1607223928.501221,31.97526550292969,25.98844909667969,7.24261474609375,329.9913330078125,329.2559509277344,14.95973110198975,34799.716358875,-0.3706207275390625,-0.0930938720703125,-0.24017333984375,34799.19167466667,0.7940097451210022,0.4485042989253998,1.279839873313904,34799.42258066667,-114.6972503662109,11.65629577636719,-108.7943878173828,34798.75840266667,-1.083656358678963,1.581641638185615,0.1016060514276167,-3.65195894241333,-1.401880621910095,0.4369069337844849,1.95733380317688,0.8274445533752441,0.6124712228775024,2,-0.3967535244961488,-0.5898993331674842,0.3312755943781783,-0.6203723333354448,0.9947839975357056,-0.10143131762743,0.01078916527330875,28.24185943603516,28.51046752929688,10.55594635009766,2,34752.74106954167,8,2,1607223882.348002,1607223123.808484,1395,0.6374245,0.3649017,2.652479,1126.141,0,0,1607223925.945343,34796.30608,0,-1.08075,94.88275,0,1682321854,1,1,0.33,-120,-120,2
1607223930.324295,98,0,0,1607223928.99993,24.59860197668653,73.6785967830632,598.9787,3.016433,221.8300795964379,3.395613609792176,4.721688812891314,-9999,1607223929.503248,27.09260559082031,27.80484771728516,17.31284332275391,329.8853454589844,329.1499633789062,14.95811748504639,34800.7181435,0.126007080078125,-0.1410369873046875,-0.0557098388671875,34800.193459875,-1.412078022956848,1.746458649635315,-2.001072645187378,34800.423857875,-113.7183227539062,10.42494201660156,-109.8414764404297,34799.760187875,-1.054485680605601,1.443323078404039,0.1576006370392858,-0.487664520740509,0.2596529722213745,-0.7000507712364197,-1.446024298667908,0.07514667510986328,-0.2493405342102051,2,-0.3824373018982878,-0.5394120172882908,0.3316071388345738,-0.6729139424605609,0.9795936346054077,-0.1569490283727646,-0.125552773475647,32.27394866943359,27.20589828491211,6.404502868652344,2,34752.74106954167,8,2,1607223882.348002,1607223123.808484,1395,0.6374245,0.3649017,2.652479,1126.141,0,0,1607223925.945343,34797.37167,0,-1.093933,94.8829,0,1682321854,1,1,0.33,-120,-120,2
1607223931.326671,99,0,0,1607223930.999928,24.59856536734829,73.67856736555578,598.4929,2.705565,215.7960810730977,3.39203182252292,4.724262603600764,-9999,1607223930.504563,31.57300567626953,25.11167144775391,11.15686798095703,333.5650939941406,332.8297119140625,14.96028995513916,34801.7199285,3.101394653320312,0.842529296875,0.7197265625,34801.1952445,-0.1505812555551529,0.962877631187439,0.4549438059329987,34801.4252595,-123.3877868652344,4.949981689453125,-84.21159362792969,34800.7619725,-1.052086798205508,1.89955204175465,0.2596173386261033,1.329504489898682,0.002972736954689026,1.187646389007568,-1.482965111732483,-0.09025886654853821,-0.8299139738082886,2,-0.4700636016175517,-0.6595931556150341,0.1986634855705836,-0.5518241381411662,0.9147278070449829,-0.2567107379436493,0.3120458424091339,28.12061309814453,23.67577171325684,22.236328125,2,34752.74106954167,8,2,1607223882.348002,1607223123.808484,1401,0.6351399,0.3650338,2.652355,1133.757,0,0,1607223928.510329,34798.437308,0,-1.104492,94.88302,0,1682321854,1,1,0.33,-120,-120,2
1607223932.327711,100,0,0,1607223930.999928,24.59856536734829,73.67856736555578,598.4929,2.705565,215.7960810730977,3.39203182252292,4.724262603600764,-9999,1607223931.506337,33.00127410888672,17.13930702209473,20.20653533935547,303.1008605957031,302.365478515625,14.96227073669434,34802.721713,-0.24127197265625,-0.1825714111328125,-0.3047027587890625,34802.1970285,0.594674825668335,1.110344767570496,0.6553144454956055,34802.4266145,-119.4662475585938,5.9373779296875,-90.00166320800781,34801.7637575,-0.6302807848367125,1.553448888793954,0.1907683604641647,-1.881530284881592,-2.160988569259644,0.3416807353496552,0.3046047687530518,0.2377854287624359,0.1265746355056763,2,-0.2808519039661863,-0.6423443525269786,0.1565853058367163,-0.6956989442663953,0.9817111492156982,-0.1896133720874786,-0.01703188195824623,30.64604949951172,19.65561294555664,22.56780242919922,2,34752.74106954167,8,2,1607223882.348002,1607223123.808484,1401,0.6351399,0.3650338,2.652355,1133.757,0,0,1607223928.510329,34799.502909,0,-1.109802,94.88308,0,1682321854,1,1,0.33,-120,-120,2
1607223933.329538,101,0,0,1607223932.999925,24.59850682705648,73.67853039157575,598.1583,3.203535,203.6049874637861,3.390770935239081,4.72516766872105,-9999,1607223932.508132,17.94062805175781,11.32797908782959,39.31986236572266,283.30029296875,282.5649108886719,14.96215629577637,34803.723495375,-0.471038818359375,-0.35943603515625,-0.3213653564453125,34803.198813,-3.698247671127319,-1.899669528007507,-0.2758243978023529,34803.427996,-114.1129455566406,-4.776611328125,-87.13551330566406,34802.765542,-0.3336281491738434,1.533434524379912,0.1312656292863525,-2.279589891433716,1.880741238594055,-2.21266508102417,0.5752738118171692,0.03698651492595673,-0.3022627234458923,2,-0.1615260281587564,-0.6748284696559831,0.07445420034715876,-0.716220843873937,0.9907050132751465,-0.1308889836072922,-0.03703175857663155,29.04567718505859,13.94803428649902,28.59935760498047,2,34752.74106954167,8,2,1607223882.348002,1607223123.808484,1401,0.6351399,0.3650338,2.652355,1133.757,0,0,1607223928.510329,34800.568452,0,-1.109802,94.88308,0,1682321854,1,1,0.33,-120,-120,2
1607223934.331435,102,0,0,1607223933.999925,24.59848054137089,73.67851380154993,599.1518,2.955875,199.3806688950239,3.392074641465081,4.724231859204032,-9999,1607223933.510633,26.06941223144531,18.21095657348633,29.67765808105469,302.9488220214844,302.2134399414062,14.96088790893555,34804.725280125,1.599807739257812,0.3628082275390625,-0.0056304931640625,34804.20059637501,-0.7141308784484863,0.6863003373146057,-0.4869901537895203,34804.429365375,-126.4244537353516,-4.893341064453125,-76.93539428710938,34803.767325375,-0.4754193541765963,1.838392997771278,0.1867004074685874,1.443594813346863,-4.994759559631348,0.654384434223175,-1.602404356002808,-0.1281640082597733,-0.742241382598877,2,-0.2413575151335004,-0.7560795275560211,0.07015342251534247,-0.6042919191402365,0.9476495981216431,-0.1856176555156708,0.2598194181919098,21.76628112792969,16.04092216491699,35.20252227783203,2,34752.74106954167,8,2,1607223882.348002,1607223123.808484,1408,0.6330152,0.3647526,2.653191,1141.708,0,0,1607223931.075585,34801.634067,0,-1.085999,94.8828,0,1682321854,1,1,0.33,-120,-120,2
1607223935.333031,103,0,0,1607223933.999925,24.59848054137089,73.67851380154993,599.1518,2.955875,199.3806688950239,3.392074641465081,4.724231859204032,-9999,1607223934.51172,32.78074645996094,8.547403335571289,27.21631622314453,284.8339538574219,284.0985717773438,14.95957946777344,34805.72706316667,2.792068481445312,-0.548797607421875,-1.101211547851562,34805.202380125,1.212340712547302,-0.3415842354297638,0.7526370286941528,34805.430640125,-119.2906341552734,-1.69134521484375,-83.54695129394531,34804.769109125,-0.2298695259321364,1.375666849549996,0.1428485192831513,0.8442376852035522,-2.327070236206055,0.6919748783111572,-0.2363349199295044,-0.1374523937702179,0.8430569171905518,2,-0.1273952111761383,-0.6227448398568669,0.0433727015310344,-0.770764632297543,0.9710303544998169,-0.1423631906509399,-0.1919186562299728,33.3577880859375,9.86197566986084,24.75734710693359,2,34752.74106954167,8,2,1607223882.348002,1607223123.808484,1408,0.6330152,0.3647526,2.653191,1141.708,0,0,1607223931.075585,34802.699639,0,-1.078064,94.88273,0,1682321854,1,1,0.33,-120,-120,2
1607223936.335098,104,0,0,1607223935.999922,24.59842314908753,73.67851204981446,598.8295,2.861021,191.7298232615391,3.390792610673389,4.725152114397121,-9999,1607223935.513631,23.72731018066406,12.96164608001709,35.97525787353516,291.4336547851562,290.6982727050781,14.97293472290039,34806.728844625,-0.5939178466796875,-0.257110595703125,-0.3970184326171875,34806.20416316667,-1.450397729873657,-0.5953803062438965,0.1840236335992813,34806.43192216667,-112.4039154052734,-3.656753540039062,-87.99552917480469,34805.77089216667,-0.196250205725282,1.375588316368694,0.06379761727218836,2.685892105102539,0.2270702123641968,0.8462581038475037,2.134071350097656,-1.60111677646637,-0.8570679426193237,2,-0.08668547055281983,-0.6290450165124781,0.05550644242366133,-0.7705238819863387,0.979011595249176,-0.06375434994697571,-0.193575993180275,33.19245147705078,10.4687385559082,27.00226593017578,2,34752.74106954167,8,2,1607223882.348002,1607223123.808484,1415,0.630567,0.3638941,2.656126,1150.24,0,0,1607223933.6393,34803.765261,0,-1.041077,94.8823,0,1682321854,1,1,0.33,-120,-120,2
1607223937.336852,105,0,0,1607223935.999922,24.59842314908753,73.67851204981446,598.8295,2.861021,191.7298232615391,3.390792610673389,4.725152114397121,-9999,1607223936.515725,26.94633483886719,19.14818954467773,29.10638427734375,301.8387145996094,301.1033325195312,14.97172355651855,34807.730628125,0.1357879638671875,-0.08819580078125,0.73883056640625,34807.205944625,-1.15537965297699,1.754605054855347,-1.772800326347351,34807.433256625,-123.1792755126953,-0.6066436767578125,-79.88575744628906,34806.772674625,-0.5695566278597629,1.611637490680747,0.2274183518941911,0.904275119304657,-1.121738076210022,0.1532595753669739,-1.266880989074707,0.1916649490594864,-0.03294265270233154,2,-0.2767757096503028,-0.665796112034561,0.1147474092635297,-0.6833328347063036,0.9734392762184143,-0.2254631072282791,0.03977851197123528,30.71253204345703,17.15010261535645,27.400146484375,2,34752.74106954167,8,2,1607223882.348002,1607223123.808484,1415,0.630567,0.3638941,2.656126,1150.24,0,0,1607223933.6393,34804.830821,0,-1.041077,94.88229,0,1682321854,1,1,0.33,-120,-120,2
1607223938.339671,106,0,0,1607223937.999919,24.5983741431744,73.67849777176825,599.9806,2.753934,191.5585045356823,3.397917568179774,4.720031062677881,-9999,1607223937.517126,33.67585754394531,13.75354099273682,25.65241241455078,293.4259948730469,292.6906127929688,14.96994590759277,34808.7324095,2.439300537109375,-0.8699951171875,0.3557586669921875,34808.207727125,2.048537492752075,-3.847674608230591,-0.1239307299256325,34808.434767125,-110.8480072021484,1.737930297851562,-96.08285522460938,34807.774457125,-0.3977094915399331,1.375719572260565,0.1431339118108356,-0.3385902047157288,0.2171414643526077,-0.07419509440660477,-0.980338990688324,-0.1630488187074661,-0.1970259845256805,2,-0.1792556787231671,-0.6098668930871778,0.1077318570435989,-0.7644105384881845,0.9710004329681396,-0.1426456719636917,-0.1918595433235168,34.53187561035156,15.40660953521729,22.64615631103516,2,34752.74106954167,8,2,1607223882.348002,1607223123.808484,1415,0.630567,0.3638941,2.656126,1150.24,0,0,1607223933.6393,34805.896326,0,-1.041077,94.88229,0,1682321854,1,1,0.33,-120,-120,2
1607223939.340304,107,0,0,1607223937.999919,24.5983741431744,73.67849777176825,599.9806,2.753934,191.5585045356823,3.397917568179774,4.720031062677881,-9999,1607223938.51909,23.25579833984375,20.80231857299805,31.74606323242188,304.9205627441406,304.1851806640625,14.96966743469238,34809.73419125001,0.1539154052734375,0.110870361328125,-0.071441650390625,34809.2095085,0.9459015727043152,1.415911912918091,-0.3082816600799561,34809.4361785,-116.6251983642578,4.594711303710938,-90.42030334472656,34808.7762385,-0.4179180087228069,1.683665891504006,0.07625008323977819,1.558172702789307,4.108492374420166,1.303672432899475,0.5048097968101501,0.6252485513687134,0.3829364776611328,2,-0.1794476459647274,-0.7238438678038281,0.1102649746031322,-0.6570313797157858,0.9907498359680176,-0.07617621868848801,0.112302802503109,24.39437103271484,18.19912338256836,32.76679992675781,2,34752.74106954167,8,2,1607223882.348002,1607223123.808484,1422,0.6282071,0.3626104,2.657724,1158.707,0,0,1607223936.204168,34806.961841,0,-1.041077,94.88231,0,1682321854,1,1,0.33,-120,-120,2
1607223940.342206,108,0,0,1607223939.999917,24.59832586958166,73.67849201780783,600.6063,2.690473,186.9861498010874,3.421973879251165,4.702619674448655,-9999,1607223939.52078,28.99286651611328,21.69650650024414,24.15304565429688,309.6160583496094,308.8806762695312,14.96878147125244,34810.735971875,0.2808685302734375,-0.2718048095703125,0.596343994140625,34810.21129025,-0.7341890335083008,-0.633074939250946,1.124634027481079,34810.43769325,-119.2577362060547,9.80694580078125,-91.43821716308594,34809.77802025,-0.8157628947690976,1.618353786224737,0.1552383641057287,0.3732782006263733,-1.15700900554657,-0.1901601403951645,-0.3729813098907471,-0.4400651454925537,-0.2881941795349121,2,-0.3353311088262172,-0.6411216532937918,0.2213980443449408,-0.6538340021239812,0.9868575930595398,-0.1546155959367752,0.04696785286068916,29.54913330078125,24.24678421020508,20.20773315429688,2,34752.74106954167,8,2,1607223882.348002,1607223123.808484,1422,0.6282071,0.3626104,2.657724,1158.707,0,0,1607223936.204168,34806.961841,0,-1.041077,94.88231,0,1682321854,1,1,0.33,-120,-120,2
1607223941.344481,109,0,0,1607223939.999917,24.59832586958166,73.67849201780783,600.6063,2.690473,186.9861498010874,3.421973879251165,4.702619674448655,-9999,1607223940.522303,31.65751647949219,21.4943675994873,20.25350952148438,311.0110778808594,310.2756958007812,14.96578502655029,34811.73775325,5.231155395507812,-1.637802124023438,-0.5665740966796875,34811.213070875,1.080918192863464,-1.867784023284912,-0.7303096055984497,34811.439243875,-115.6165924072266,8.0068359375,-94.62944030761719,34810.779800875,-0.6068591651984262,1.381887904384274,0.1630130759864891,-0.1433463245630264,0.3881763517856598,0.514126181602478,-1.19430136680603,0.02958644926548004,0.2560675144195557,2,-0.2496561773167758,-0.58738670890428,0.1799866920456835,-0.7485007083156348,0.9691883325576782,-0.1622920632362366,-0.1852972954511642,33.81707000732422,20.13321876525879,17.81075286865234,2,34752.74106954167,8,2,1607223882.348002,1607223123.808484,1429,0.6261402,0.3612926,2.660853,1166.628,0,0,1607223938.768521,34808.027419,0,-1.06488,94.88258,0,1682321854,1,1,0.33,-120,-120,2
1607223942.345492,110,0,0,1607223941.999913,24.59828809503658,73.67846171541024,601.2341,2.519629,209.2565573989956,3.424215810258531,4.700987461966299,-9999,1607223941.524184,22.57426452636719,22.6099853515625,31.12868499755859,306.6031494140625,305.8677673339844,14.9637508392334,34812.73953325,-0.3470306396484375,-0.0649871826171875,-0.10760498046875,34812.21485125,-1.35362696647644,-2.872644901275635,0.7439684271812439,34812.44068525,-113.0572967529297,7.606063842773438,-97.97348022460938,34811.78158225001,-0.7117290536849481,1.731853170648168,0.1437561980096738,-1.025242567062378,4.111400604248047,0.3182634115219116,0.8966736793518066,-0.2855408787727356,0.3680412769317627,2,-0.308307036755784,-0.6959169769005169,0.1738832968845268,-0.6248288224323295,0.9768768548965454,-0.1432615667581558,0.1587073355913162,26.13264465332031,23.86920547485352,26.61534118652344,2,34752.74106954167,8,2,1607223882.348002,1607223123.808484,1429,0.6261402,0.3612926,2.660853,1166.628,0,0,1607223938.768521,34809.093014,0,-1.091309,94.88287,0,1682321854,1,1,0.33,-120,-120,2
