loggingTime,loggingSample,identifierForVendor,deviceID,locationTimestamp_since1970,locationLatitude,locationLongitude,locationAltitude,locationSpeed,locationCourse,locationVerticalAccuracy,locationHorizontalAccuracy,locationFloor,locationHeadingTimestamp_since1970,locationHeadingX,locationHeadingY,locationHeadingZ,locationTrueHeading,locationMagneticHeading,locationHeadingAccuracy,accelerometerTimestamp_sinceReboot,accelerometerAccelerationX,accelerometerAccelerationY,accelerometerAccelerationZ,gyroTimestamp_sinceReboot,gyroRotationX,gyroRotationY,gyroRotationZ,magnetometerTimestamp_sinceReboot,magnetometerX,magnetometerY,magnetometerZ,motionTimestamp_sinceReboot,motionYaw,motionRoll,motionPitch,motionRotationRateX,motionRotationRateY,motionRotationRateZ,motionUserAccelerationX,motionUserAccelerationY,motionUserAccelerationZ,motionAttitudeReferenceFrame,motionQuaternionX,motionQuaternionY,motionQuaternionZ,motionQuaternionW,motionGravityX,motionGravityY,motionGravityZ,motionMagneticFieldX,motionMagneticFieldY,motionMagneticFieldZ,motionMagneticFieldCalibrationAccuracy,activityTimestamp_sinceReboot,activity,activityActivityConfidence,activityActivityStartDate,pedometerStartDate,pedometerNumberofSteps,pedometerAverageActivePace,pedometerCurrentPace,pedometerCurrentCadence,pedometerDistance,pedometerFloorAscended,pedometerFloorDescended,pedometerEndDate,altimeterTimestamp_sinceReboot,altimeterReset,altimeterRelativeAltitude,altimeterPressure,IP_en0,IP_pdp_ip0,deviceOrientation,batteryState,batteryLevel,avAudioRecorderPeakPower,avAudioRecorderAveragePower,label
1607223141.913372,1,0,0,1607223140.999975,24.60691951638608,73.67820225253831,594.3975,1.49,163.1250017782714,3.512332353829331,4.635521380495677,-9999,1607223140.950256,-4.348678588867188,-42.5233154296875,-10.46135711669922,173.3061065673828,172.5707244873047,13.0475549697876,34012.299165375,0.1994476318359375,-0.518585205078125,-0.745513916015625,34011.7844875,0.4483298361301422,1.453599333763123,0.1531360298395157,34011.3289865,-164.1132049560547,-50.50271606445312,-120.0825805664062,34011.3361775,-0.2546322399319345,0.01600351936889292,0.4195418949374167,-0.008145814761519432,0.1397096663713455,-0.08017358183860779,0.1150084286928177,-0.05300033092498779,-0.06340378522872925,2,0.2075375559518228,-0.01867644353620199,-0.1225323026177988,0.9703428917048464,0.01461500115692616,-0.4073421061038971,-0.9131587147712708,-4.348678588867188,-42.5233154296875,-10.46135711669922,2,33998.738282625,4,2,1607223128.345215,1607223123.808484,29,0.9076957,0.6860657,1.900381,21.72,0,0,1607223138.604242,34008.640543,0,0.06866455,94.86966,0,1682321854,5,1,0.35,-26.51532,-32.44161,1
1607223142.913855,2,0,0,1607223141.999978,24.60690630507933,73.67820787538626,594.4586,1.49,162.0703143858783,3.512332257472066,4.635521453505529,-9999,1607223141.952038,-8.940338134765625,-42.80939483642578,-3.231033325195312,162.9022064208984,162.1668243408203,13.04495048522949,34013.30097441667,0.0455474853515625,-0.511932373046875,-0.7845306396484375,34012.786295375,0.1512821912765503,0.1331849545240402,0.2986125349998474,34012.330341375,-168.2760162353516,-50.59034729003906,-112.6071319580078,34012.337986375,-0.11421627460771,0.1362743013185838,0.6322894722540733,0.6433483362197876,-0.1250319480895996,0.1599901914596558,0.0729973316192627,0.01482123136520386,0.159320592880249,2,0.3133710527616554,0.04690039721653205,-0.03298927954825304,0.9478980017879441,0.1095893532037735,-0.5909931659698486,-0.7991978526115417,-8.940338134765625,-42.80939483642578,-3.231033325195312,2,33998.738282625,4,2,1607223128.345215,1607223123.808484,29,0.9076957,0.6860657,1.900381,21.72,0,0,1607223138.604242,34009.706371,0,0.06079102,94.86975,0,1682321854,5,1,0.35,-13.4213,-20.01475,1
1607223143.915383,3,0,0,1607223141.999978,24.60690630507933,73.67820787538626,594.4586,1.49,162.0703143858783,3.512332257472066,4.635521453505529,-9999,1607223142.953811,-12.86248779296875,-39.60296630859375,-13.49810791015625,157.8388366699219,157.1034545898438,13.0457067489624,34014.302783625,0.033721923828125,-0.38006591796875,-0.7807769775390625,34013.78810441667,1.128745436668396,-0.2627756893634796,0.2745857536792755,34013.33165141667,-172.4211730957031,-47.69403076171875,-122.4753265380859,34013.33979441667,0.009041618203150322,0.0476666894078405,0.4023324999229441,-0.07266367226839066,-0.2113607972860336,0.1439794152975082,-0.03024831414222717,-0.05420464277267456,0.01589155197143555,2,0.1996478435716324,0.02425332989599016,0.009190063494174394,0.9795244202293951,0.04384390637278557,-0.3915656507015228,-0.919105052947998,-12.86248779296875,-39.60296630859375,-13.49810791015625,2,33998.738282625,4,2,1607223128.345215,1607223123.808484,34,0.8664565,0.6807252,1.913481,25.69057,0,0,1607223141.168823,34010.772093,0,0.05548096,94.86981,0,1682321854,5,1,0.35,-17.51708,-28.86778,1
1607223144.920282,4,0,0,1607223143.999978,24.60687950826997,73.67822146485078,593.9107,1.49,157.1484398789854,3.512332053467396,4.635521608079758,-9999,1607223143.955546,-5.574844360351562,-40.20806121826172,-15.80342102050781,171.1022033691406,170.3668212890625,13.04444026947021,34015.304592375,-0.0502777099609375,-0.4900360107421875,-0.594879150390625,34014.78991462501,0.3684986531734467,0.254792332649231,0.002168612089008093,34014.333004625,-165.3347015380859,-48.1732177734375,-124.81201171875,34014.34160362501,-0.2143192833613297,0.01032626845900469,0.2982295704990205,0.4083428978919983,-0.9153341054916382,-0.3583351969718933,0.03830172121524811,0.009465605020523071,-0.1298403143882751,2,0.1482547461082439,-0.01081274368481157,-0.1050037328797885,0.9832994870429939,0.009870273061096668,-0.2938283979892731,-0.9558072090148926,-5.574844360351562,-40.20806121826172,-15.80342102050781,2,33998.738282625,4,2,1607223128.345215,1607223123.808484,34,0.8664565,0.6807252,1.913481,25.69057,0,0,1607223141.168823,34011.837884,0,0.02642822,94.87015,0,1682321854,5,1,0.35,-11.61708,-12.54383,1
1607223145.922668,5,0,0,1607223144.99998,24.6068660266636,73.67822699743675,594.0436,1.49,158.9062522046978,3.512331955196388,4.635521682539641,-9999,1607223144.95744,-6.026046752929688,-43.33083343505859,-6.840652465820312,171.5087738037109,170.7733917236328,13.04445171356201,34016.306402875,-0.02801513671875,-0.450927734375,-0.6120147705078125,34015.791723375,0.4091379642486572,-0.4044207036495209,0.3036770522594452,34015.334289375,-165.5209655761719,-51.01629638671875,-115.9426422119141,34015.34341337501,-0.2127513728208648,-0.02759716395018053,0.5056369263796391,0.200649619102478,-0.07219758629798889,-0.149996280670166,-0.0005784779787063599,-0.06911736726760864,0.1486724615097046,2,0.2472777827178779,-0.03983947362928245,-0.1062220874922419,0.9622803442423545,-0.02414076030254364,-0.484364777803421,-0.8745330572128296,-6.026046752929688,-43.33083343505859,-6.840652465820312,2,33998.738282625,4,2,1607223128.345215,1607223123.808484,34,0.8664565,0.6807252,1.913481,25.69057,0,0,1607223141.168823,34012.903651,0,-0.02642822,94.87074,0,1682321854,1,1,0.35,-13.39268,-18.1761,1
1607223146.92094,6,0,0,1607223145.999982,24.60685275810869,73.67823007633103,594.1877,1.46,163.8281266718448,3.512331866555318,4.635521749702926,-9999,1607223145.959187,-3.4677734375,-44.57631683349609,0.23492431640625,177.0240631103516,176.2886810302734,13.0443172454834,34017.30821216667,-0.0709991455078125,-0.4131927490234375,-0.6933746337890625,34016.793532875,-0.1106748506426811,0.008680840022861958,0.3087703585624695,34016.335528875,-162.8615570068359,-52.49205017089844,-108.9243316650391,34016.345222875,-0.2796491956670784,-0.1073583023260471,0.6552118728014549,0.4357045888900757,-0.4124917685985565,-0.09188473224639893,0.008089244365692139,0.04438579082489014,0.2263420820236206,2,0.3110978876887327,-0.09508535358437746,-0.1488629765223128,0.9338184224616273,-0.08496299386024475,-0.6093272566795349,-0.7883537411689758,-3.4677734375,-44.57631683349609,0.23492431640625,2,33998.738282625,4,2,1607223128.345215,1607223123.808484,39,0.8320735,0.6807252,1.913481,29.81033,0,0,1607223143.733509,34013.969404,0,-0.06079102,94.87112,0,1682321854,5,1,0.35,-12.67966,-34.05544,1
1607223148.013158,7,0,0,1607223146.999983,24.60683896069454,73.67823256997463,593.8026,1.46,167.6953137792151,3.512331778496683,4.635521816424896,-9999,1607223148.002856,-41.47735595703125,-10.54569625854492,13.59302520751953,118.7828826904297,118.0475006103516,13.05267333984375,34018.310021625,-1.306533813476562,0.5130157470703125,-0.4817962646484375,34017.79534316667,-2.785400390625,-1.247955918312073,1.122360944747925,34017.33687616667,-162.8122406005859,-51.84027099609375,-118.179443359375,34017.34703316667,-0.3040026405492796,-0.04478600196374605,0.4571986079137255,0.1110270768404007,0.08587503433227539,-0.01671712845563889,0.04619994759559631,0.118758499622345,0.1728821992874146,2,0.2206422902612842,-0.05586162392307981,-0.1524561899571284,0.96174507767338,-0.04017271846532822,-0.4414361715316772,-0.8963929414749146,-3.1866455078125,-43.57609558105469,-9.391983032226562,2,33998.738282625,4,2,1607223128.345215,1607223123.808484,39,0.8320735,0.6807252,1.913481,29.81033,0,0,1607223143.733509,34015.035141,0,-0.07928467,94.87134,0,1682321854,1,1,0.35,-0.6877679,-6.65365,1
1607223148.924227,8,0,0,1607223147.999988,24.60682113549574,73.67823853693098,594.4089,1.76,165.2343768442167,3.512331664625213,4.63552190270523,-9999,1607223148.002856,-41.47735595703125,-10.54569625854492,13.59302520751953,118.7828826904297,118.0475006103516,13.05267333984375,34019.311831875,-1.23333740234375,0.7976531982421875,0.3475189208984375,34018.797152625,-0.1031415686011314,-1.324415326118469,-2.169952869415283,34018.338240625,-201.5290069580078,-22.33589172363281,-101.0810699462891,34018.348841625,-0.1701320752427211,-1.085343493087687,-0.2809314214830808,0.3079760670661926,-1.576427340507507,1.050962328910828,0.06924253702163696,0.1394973397254944,0.498060405254364,2,-0.1629017763826336,-0.4993041483557437,-2.775557561562891e-17,0.8509749936352049,-0.8497906923294067,0.2772506773471832,-0.448316752910614,-42.15953063964844,-13.57228851318359,8.949722290039062,2,33998.738282625,4,2,1607223128.345215,1607223123.808484,44,0.8105047,0.6790076,1.922161,33.74317,0,0,1607223146.298092,34016.100961,0,-0.08459473,94.87141,0,1682321854,1,1,0.35,-120,-120,1
1607223149.926353,9,0,0,1607223148.999988,24.60680808020131,73.67824403204706,594.2808,1.76,162.7734396429462,3.512331570328496,4.635521974153784,-9999,1607223149.004764,-7.149398803710938,-23.67462921142578,53.95708847045898,110.4928970336914,109.7575149536133,13.09056091308594,34020.3136415,-0.5619049072265625,1.185562133789062,-0.192901611328125,34019.798962875,0.5840283036231995,1.474895358085632,0.6727405786514282,34019.339567875,-166.9109039306641,-31.82994079589844,-57.2515869140625,34019.350652875,-0.1314574118244209,-1.979251920877365,-0.1851339763762958,1.109952569007874,-1.092896580696106,-0.3661286234855652,-0.1653148531913757,0.2528419196605682,-0.0502561628818512,2,-0.1053002163666849,-0.8271120817370865,0.04118726050799418,0.5505461648358033,-0.9020527005195618,0.1840782165527344,0.3904050588607788,-6.933212280273438,-23.79105567932129,52.36889266967773,2,34019.569682875,4,2,1607223149.176615,1607223123.808484,44,0.8105047,0.6790076,1.922161,33.74317,0,0,1607223146.298092,34017.166726,0,-0.1188965,94.8718,0,1682321854,1,1,0.35,-120,-120,1
1607223150.928151,10,0,0,1607223149.999992,24.60679999665575,73.67824636508975,594.0906,1.38,163.4765641136422,3.51233150424956,4.635522024221745,-9999,1607223150.006557,-16.078369140625,-18.14738845825195,60.08150482177734,109.3025512695312,108.5671691894531,13.13160800933838,34021.315452,-0.058013916015625,1.387939453125,-0.40252685546875,34020.8007725,2.535409688949585,-0.2386589199304581,0.8612462878227234,34020.3408725,-176.6662445068359,-26.66267395019531,-53.0076904296875,34020.3524625,-0.1556173458017085,-1.692582511125039,-0.3750412295182,0.07444285601377487,-1.474368333816528,-0.365053653717041,-0.1090990304946899,0.4226905703544617,0.3466908931732178,2,-0.1803672765058345,-0.7238703271048186,0.08856300336348191,0.6600272436883575,-0.9236005544662476,0.3663108944892883,0.1130412071943283,-17.06498718261719,-18.42007446289062,56.66967391967773,2,34019.569682875,4,2,1607223149.176615,1607223123.808484,44,0.8105047,0.6790076,1.922161,33.74317,0,0,1607223146.298092,34018.232456,0,-0.1480103,94.87215,0,1682321854,1,1,0.35,-120,-120,1
1607223151.930176,11,0,0,1607223150.999992,24.60678984709072,73.67824815320958,593.7892,1.27,166.6406262064516,3.512331436447002,4.635522075595691,-9999,1607223151.008455,-52.75946044921875,31.92667770385742,108.3561172485352,50.43876266479492,49.70337677001953,13.17051410675049,34022.31726191667,-0.3639373779296875,2.355422973632812,0.4254302978515625,34021.802583,-0.4821330904960632,0.1331338137388229,2.740085363388062,34021.342107,-212.6614074707031,12.055419921875,0.1731109619140625,34021.354273,-0.1571290216138274,-1.79312863362446,-1.254847395313923,-0.3822499811649323,-1.048531055450439,-1.219274878501892,0.3427740633487701,0.9827256202697754,-0.2912628650665283,2,-0.4150036955040618,-0.6016888523341355,0.4175242592800625,0.5398296164002794,-0.3030706942081451,0.9505019783973694,0.06851508468389511,-53.60968017578125,23.23202896118164,109.1370697021484,2,34019.569682875,4,2,1607223149.176615,1607223123.808484,48,0.791464,0.6780217,1.917376,37.23838,0,0,1607223148.862318,34019.298181,0,-0.2192993,94.87294,0,1682321854,1,1,0.35,-120,-120,1
1607223152.931732,12,0,0,1607223151.999992,24.60678115083988,73.67824622688218,593.6131,1.09,174.3750004392519,3.512331388998269,4.635522111547558,-9999,1607223152.01021,98.19804382324219,65.50227355957031,61.04104995727539,28.07922554016113,27.34384155273438,13.20799160003662,34023.31907154167,-0.207794189453125,1.543563842773438,-0.027191162109375,34022.80439291667,0.9880476593971252,1.219893932342529,1.676177620887756,34022.34327991667,-53.13075256347656,94.998046875,-46.44528198242188,34022.35608291667,-2.890415003043921,1.663272167577561,-1.437147688635288,-2.226581573486328,3.881163358688354,0.4145939350128174,0.01941795647144318,0.521597683429718,-0.4797273874282837,2,-0.4963731577200535,-0.5096725984224129,0.5640465196284019,0.4191646843972084,0.132681593298912,0.9910823106765747,0.0123049383983016,105.4581909179688,99.06649780273438,62.21786117553711,2,34019.569682875,4,2,1607223149.176615,1607223123.808484,48,0.791464,0.6780217,1.917376,37.23838,0,0,1607223148.862318,34020.363915,0,-0.2959595,94.87383,0,1682321854,1,1,0.35,-120,-120,1
1607223153.933579,13,0,0,1607223151.999992,24.60678115083988,73.67824622688218,593.6131,1.09,174.3750004392519,3.512331388998269,4.635522111547558,-9999,1607223153.012001,-9.526901245117188,-132.7382049560547,168.6507263183594,17.64190292358398,16.90651893615723,13.24496650695801,34024.32088175001,0.44097900390625,1.333404541015625,-0.063568115234375,34023.80620254167,0.6117355823516846,-0.4109236299991608,-1.297171711921692,34023.34455454167,-211.6408386230469,-136.6080169677734,149.5533142089844,34023.35789254167,2.637391850373936,1.0152016976211,-1.111606529417765,-3.932620525360107,0.2112462371587753,-1.454886674880981,-0.1363822221755981,0.7119560241699219,0.3690307140350342,2,-0.5148793288052264,-0.3435271261658562,0.6549298804459079,0.4335380224005737,0.3765555620193481,0.8964118957519531,-0.2337767779827118,-46.07015991210938,-117.6316299438477,254.8799438476562,2,34019.569682875,4,2,1607223149.176615,1607223123.808484,48,0.791464,0.6780217,1.917376,37.23838,0,0,1607223148.862318,34021.429712,0,-0.3910522,94.87491,0,1682321854,1,1,0.35,-120,-120,1
1607223154.935542,14,0,0,1607223153.99999,24.60676096411683,73.67824826923473,593.5069,1.09,170.1562507661443,3.512331270411759,4.635522201400459,-9999,1607223154.013846,346.6993408203125,-575.7101440429688,-323.2214965820312,352.1540832519531,351.418701171875,13.27799510955811,34025.322693125,0.1334686279296875,1.246429443359375,0.2567901611328125,34024.80801275,1.296991348266602,-0.4080072045326233,-0.5339829921722412,34024.34582675,201.8759613037109,-606.623779296875,-429.3870239257812,34024.35970275,2.814563608519451,0.7818959650343296,-1.122829203147314,-2.267622709274292,0.8714736104011536,0.9224336743354797,0.01444345712661743,1.147422313690186,0.9867252111434937,2,-0.3983960281706282,-0.43313873033989,0.7391683772385482,0.3275692388984491,0.3051976561546326,0.9013294577598572,-0.3073428869247437,361.0054931640625,-597.1341552734375,-321.2942810058594,2,34019.569682875,4,2,1607223149.176615,1607223123.808484,54,0.7955716,0.6780217,1.917376,41.17641,0,0,1607223151.42722,34022.495479,0,-0.4993896,94.87614,0,1682321854,1,1,0.35,-120,-120,1
1607223155.937377,15,0,0,1607223154.999991,24.60674608242351,73.67825313050811,593.5308,1.37,163.8281265687763,3.512331177835703,4.635522271545257,-9999,1607223155.015571,379.4397888183594,-622.8690795898438,-322.0150146484375,1.764661908149719,1.029277801513672,13.30656814575195,34026.324502375,0.196929931640625,1.245162963867188,0.0991363525390625,34025.809824125,0.3288165032863617,-0.7357251644134521,-0.4156584441661835,34025.347192125,205.0303955078125,-603.9673461914062,-443.9279174804688,34025.361513125,2.649862334441974,0.8524528229617162,-1.043815877472611,-0.2372285723686218,0.5424495935440063,0.7246218919754028,-0.4610030055046082,0.4877516627311707,0.3263866603374481,2,-0.4581037055732113,-0.3530490395941878,0.7154088561647591,0.3920300084860744,0.3786512613296509,0.8643296360969543,-0.3309947550296783,382.3709716796875,-617.5735473632812,-337.5788269042969,2,34019.569682875,4,2,1607223149.176615,1607223123.808484,54,0.7955716,0.6780217,1.917376,41.17641,0,0,1607223151.42722,34023.561193,0,-0.5311279,94.8765,0,1682321854,1,1,0.35,-120,-120,1
1607223156.938947,16,0,0,1607223154.999991,24.60674608242351,73.67825313050811,593.5308,1.37,163.8281265687763,3.512331177835703,4.635522271545257,-9999,1607223156.017444,-107.4108581542969,103.109130859375,368.5554809570312,9.396804809570312,8.661420822143555,13.32213973999023,34027.32631275,-0.11920166015625,1.136886596679688,0.2274627685546875,34026.811633375,1.354162335395813,-0.522649884223938,-0.6600977778434753,34026.348510375,-295.494384765625,131.6514739990234,292.3755187988281,34026.363322375,2.060850539989957,0.3266811604452399,-1.220963295029579,0.09919650852680206,0.4628525078296661,4.411055564880371,-0.2444771081209183,0.2596057653427124,0.557951807975769,2,-0.4052493659923068,-0.4164921584376319,0.6453159037263979,0.4958575623878367,0.1099861487746239,0.9394299387931824,-0.3246144652366638,-129.9879455566406,123.9858779907227,395.2173156738281,2,34019.569682875,4,2,1607223149.176615,1607223123.808484,58,0.7991741,0.6780217,1.917376,43.24724,0,0,1607223153.99313,34023.561193,0,-0.5311279,94.8765,0,1682321854,1,1,0.35,-120,-120,1
1607223157.940832,17,0,0,1607223156.999989,24.60671737159463,73.67825806066787,593.3438,1.63,168.0468763879549,3.512331004619152,4.635522402791281,-9999,1607223157.019318,-82.94987487792969,172.1419982910156,312.9070434570312,16.62032318115234,15.88493824005127,13.33556365966797,34028.32812279167,0.0203399658203125,1.15936279296875,0.336669921875,34027.81344375,2.209288835525513,-0.9136506915092468,0.5507627725601196,34027.34988275,-246.7422790527344,163.3752746582031,207.7790679931641,34027.36513275,2.141882883758279,0.4479160397417469,-1.204410515489019,-0.04448208957910538,0.7335169315338135,0.5404301881790161,-0.2675777673721313,0.390834629535675,0.6477171182632446,2,-0.425353140780487,-0.3970176911795442,0.6449017982672652,0.4955333740228077,0.155150979757309,0.9336282014846802,-0.3229033052921295,-86.48799133300781,172.6863555908203,315.858154296875,2,34019.569682875,4,2,1607223149.176615,1607223123.808484,58,0.7991741,0.6780217,1.917376,43.24724,0,0,1607223153.99313,34024.62687,0,-0.5469971,94.87669,0,1682321854,1,1,0.35,-120,-120,1
1607223158.942585,18,0,0,1607223156.999989,24.60671737159463,73.67825806066787,593.3438,1.63,168.0468763879549,3.512331004619152,4.635522402791281,-9999,1607223158.021044,-55.67385864257812,151.1705322265625,289.6558837890625,13.72473907470703,12.98935508728027,13.35090160369873,34029.32993225,0.162841796875,0.9091644287109375,-0.1316375732421875,34028.81525279167,0.6908588409423828,-0.8276329636573792,0.97072434425354,34028.35128379167,-217.31298828125,143.2127075195312,180.9143676757812,34028.36694279167,2.24341028393115,0.5289146941723917,-1.167302484298783,-0.2161746919155121,0.9575929641723633,0.6208575367927551,-0.1200273334980011,0.2956067323684692,0.4095697999000549,2,-0.4274166805336347,-0.3844784379618833,0.6630436683777969,0.4794417714453684,0.1981218010187149,0.9196947813034058,-0.3389826118946075,-57.55535888671875,151.0471038818359,290.1300659179688,2,34019.569682875,4,2,1607223149.176615,1607223123.808484,58,0.7991741,0.6780217,1.917376,43.24724,0,0,1607223153.99313,34025.692542,0,-0.5469971,94.87669,0,1682321854,1,1,0.35,-120,-120,1
1607223159.944405,19,0,0,1607223158.999987,24.60669977162233,73.67824669303778,592.4388,1.461849,165.0380846994192,3.310597385658897,4.781681919874774,-9999,1607223159.023106,-47.26651000976562,148.8564300537109,281.8310546875,15.86226940155029,15.12688541412354,13.35992336273193,34030.331742125,0.06060791015625,0.730621337890625,-0.0982818603515625,34029.81706325,-0.3478160202503204,-1.71150016784668,0.1999695748090744,34029.35263925,-208.3422546386719,136.2063446044922,175.5659027099609,34029.36875325,2.255703674993264,0.5430234366794516,-1.205512047441416,1.738253235816956,-0.2279012799263,0.8137663602828979,-0.3062103390693665,0.1967608332633972,0.522305965423584,2,-0.4336855899068138,-0.3987505870578208,0.6518466575147605,0.4775046543320786,0.1845824867486954,0.9340222477912903,-0.3058295547962189,-48.27214050292969,145.9984283447266,283.0895385742188,2,34019.569682875,4,2,1607223149.176615,1607223123.808484,64,0.7859154,0.6780217,1.917376,48.41277,0,0,1607223156.556358,34026.758231,0,-0.5337524,94.87653,0,1682321854,1,1,0.35,-120,-120,1
1607223160.946188,20,0,0,1607223158.999987,24.60669977162233,73.67824669303778,592.4388,1.461849,165.0380846994192,3.310597385658897,4.781681919874774,-9999,1607223160.025114,-41.32969665527344,144.3956909179688,285.3431396484375,9.461517333984375,8.726133346557617,13.37179565429688,34031.3335505,0.08563232421875,0.6444091796875,-0.284027099609375,34030.818872125,-0.8892555832862854,-1.428692698478699,-0.9099443554878235,34030.353961125,-201.9430694580078,132.8899383544922,180.2881927490234,34030.370562125,2.48198354583911,0.6715920128199083,-1.272566973494296,1.528838515281677,0.8781917095184326,0.5869218111038208,-0.09626653790473938,-0.1120624542236328,0.1143108010292053,2,-0.4324445555595569,-0.4449523779712674,0.655048046495325,0.431185774464114,0.1828296482563019,0.9558582305908203,-0.2300181686878204,-42.06623840332031,141.9824523925781,288.1417846679688,2,34019.569682875,4,2,1607223149.176615,1607223123.808484,64,0.7859154,0.6780217,1.917376,48.41277,0,0,1607223156.556358,34027.823895,0,-0.4941406,94.87606,0,1682321854,1,1,0.35,-120,-120,1
1607223161.948129,21,0,0,1607223160.999984,24.60667561162632,73.67824709840296,592.5728,1.523772,166.5896770304121,3.373368312391483,4.737607335115677,-9999,1607223161.026677,-35.71795654296875,148.3098754882812,279.646240234375,10.41170787811279,9.676323890686035,13.38342666625977,34032.335359875,-0.04376220703125,0.919097900390625,-0.0778350830078125,34031.8206805,-1.0712730884552,-0.445423811674118,-2.052162885665894,34031.35527550001,-189.8673553466797,136.2795715332031,173.3740539550781,34031.3723705,2.408155728193057,0.4748830566701777,-1.325157412153523,1.89608633518219,2.508470773696899,-0.4332443475723267,0.2463097423315048,-0.3326989412307739,-0.009394615888595581,2,-0.3874931220395747,-0.4916454853108547,0.6634561606822126,0.4098288252333259,0.1111884117126465,0.9699821472167969,-0.2162676006555557,-32.26751708984375,146.1008453369141,281.4304809570312,2,34019.569682875,4,2,1607223149.176615,1607223123.808484,69,0.7783212,0.6780217,1.917376,52.18023,0,0,1607223159.121346,34028.889603,0,-0.4914551,94.87603,0,1682321854,1,1,0.35,-120,-120,1
1607223162.949934,22,0,0,1607223160.999984,24.60667561162632,73.67824709840296,592.5728,1.523772,166.5896770304121,3.373368312391483,4.737607335115677,-9999,1607223162.028313,-36.70051574707031,140.3897857666016,284.9547729492188,10.26523399353027,9.529850006103516,13.40316295623779,34033.33716800001,-0.4490509033203125,1.35577392578125,0.0757293701171875,34032.822489875,-1.367687106132507,-0.8598918318748474,-1.925622582435608,34032.356653875,-195.7987060546875,126.6982727050781,178.4982757568359,34032.37417987501,2.607284801989978,0.7246950185264808,-1.433197620120563,1.952703356742859,-1.284497380256653,0.05028018355369568,0.08531134575605392,-0.2924281358718872,-0.009563200175762177,2,-0.4199388587891137,-0.5218271125459167,0.618607234216152,0.4106980862379193,0.09092763811349869,0.9905482530593872,-0.1026956364512444,-36.34051513671875,136.5686492919922,287.2735900878906,2,34019.569682875,4,2,1607223149.176615,1607223123.808484,69,0.7783212,0.6780217,1.917376,52.18023,0,0,1607223159.121346,34029.955283,0,-0.4914551,94.87603,0,1682321854,1,1,0.35,-120,-120,1
1607223163.95167,23,0,0,1607223162.999982,24.60665318316723,73.6782591204,592.5822,1.330238,158.9832715617849,3.366129689094252,4.742753203466006,-9999,1607223163.030114,-29.56646728515625,138.3980712890625,279.21484375,12.98336696624756,12.2479829788208,13.41456985473633,34034.33897575,-0.6773223876953125,1.46807861328125,0.73858642578125,34033.824298,0.1813985556364059,-0.02988599427044392,-1.220692157745361,34033.357913,-191.7062377929688,126.4628295898438,170.9731597900391,34033.375988,2.783988501165283,1.035347223247139,-1.445634117096501,1.506342649459839,-1.811571836471558,0.5965093970298767,-0.1463797688484192,-0.02966839075088501,0.1453287154436111,2,-0.4674344924531988,-0.4996577791494641,0.5830726814474865,0.4380333877229064,0.1073629856109619,0.992177426815033,-0.06369420140981674,-31.53675842285156,135.9162292480469,279.5718383789062,2,34019.569682875,4,2,1607223149.176615,1607223123.808484,69,0.7783212,0.6780217,1.917376,52.18023,0,0,1607223159.121346,34031.020972,0,-0.5073242,94.87624,0,1682321854,1,1,0.35,-120,-120,1
1607223164.953391,24,0,0,1607223162.999982,24.60665318316723,73.6782591204,592.5822,1.330238,158.9832715617849,3.366129689094252,4.742753203466006,-9999,1607223164.031931,-33.76333618164062,127.1253051757812,287.4900512695312,7.232541561126709,6.497157573699951,13.42769145965576,34035.340784,-0.03936767578125,1.216888427734375,-0.312652587890625,34034.82610575,-0.08038511872291565,1.100876450538635,-1.280351161956787,34034.35920375001,-198.2020263671875,114.5666351318359,178.9123382568359,34034.37779575,3.066414444619261,1.324835367754125,-1.382979651563725,1.333039522171021,-3.51603102684021,0.6562605500221252,-0.2703137397766113,0.0974503755569458,-0.0242697037756443,2,-0.4923132344209666,-0.4846609143795938,0.5922175001208579,0.414740916697392,0.1810956001281738,0.9824142456054688,-0.0454629547894001,-37.3406982421875,124.7074127197266,287.7149047851562,2,34019.569682875,4,2,1607223149.176615,1607223123.808484,74,0.7720996,0.6780217,1.917376,55.84447,0,0,1607223161.685791,34032.086621,0,-0.5231934,94.8764,0,1682321854,1,1,0.35,-120,-120,1
1607223165.955473,25,0,0,1607223164.99998,24.60662274391108,73.67826012411695,592.6556,1.663975,166.6604705089139,3.364303838248809,4.744048557585932,-9999,1607223165.033748,-31.14018249511719,130.1828918457031,286.477783203125,8.441160202026367,7.705775737762451,13.44054317474365,34036.34259066667,-0.044952392578125,1.295272827148438,-0.258697509765625,34035.827913,0.9508994817733765,1.025514364242554,-0.9108218550682068,34035.360494,-194.3599548339844,112.3343048095703,180.8934783935547,34035.379604,2.926390847024847,1.14785924622531,-1.420009841394676,1.169211506843567,-1.117300629615784,0.3958709537982941,-0.4503644108772278,0.4088228940963745,-0.008078210055828094,2,-0.4681458878367262,-0.5000122184788197,0.5951592295331511,0.4202530429522679,0.1369793862104416,0.9886532425880432,-0.06165441870689392,-33.29859924316406,124.2998123168945,288.1726379394531,2,34019.569682875,4,2,1607223149.176615,1607223123.808484,74,0.7720996,0.6780217,1.917376,55.84447,0,0,1607223161.685791,34033.152346,0,-0.5285034,94.87647,0,1682321854,1,1,0.35,-120,-120,1
1607223166.957076,26,0,0,1607223164.99998,24.60662274391108,73.67826012411695,592.6556,1.663975,166.6604705089139,3.364303838248809,4.744048557585932,-9999,1607223166.035514,-41.83782958984375,113.9459609985352,298.8999328613281,10.72072887420654,9.985344886779785,13.45307540893555,34037.34439662501,-0.212646484375,1.0677490234375,-0.23394775390625,34036.82971966667,-0.1312980949878693,-2.510373592376709,-0.5272377133369446,34036.36171766667,-203.5440368652344,96.32659912109375,191.9033508300781,34036.38141066667,-3.051574771019609,1.519162358830806,-1.429298934701836,1.072385787963867,-1.127557516098022,0.4428877830505371,-0.1534411907196045,0.4228205680847168,-0.05853265523910522,2,-0.4982205571039215,-0.4981335615739323,0.5674534533111473,0.4261874684874207,0.1408373862504959,0.9900059103965759,-0.007278462406247854,-44.4578857421875,108.6494293212891,299.4824829101562,2,34019.569682875,4,2,1607223149.176615,1607223123.808484,74,0.8089354,0.6780217,1.917376,59.49366,0,0,1607223164.249155,34034.218063,0,-0.536377,94.87657,0,1682321854,1,1,0.35,-120,-120,1
1607223167.959192,27,0,0,1607223166.999976,24.60659599414708,73.67827345377238,592.5214,1.668585,163.4775802776401,3.371396425205425,4.739010780416195,-9999,1607223167.037564,39.42919158935547,224.6631774902344,208.7428588867188,30.90511512756348,30.16973114013672,13.46842670440674,34038.346203875,-0.058349609375,0.9326171875,-0.5189056396484375,34037.831526625,-1.615828990936279,-0.2633573412895203,-0.5244882702827454,34037.363037625,-133.2008666992188,201.5254516601562,122.8387756347656,34037.383217625,0.4364734809977316,-1.293188767799729,-1.523861800608815,2.1454176902771,3.234697341918945,0.3950023651123047,-0.329130232334137,0.07939410209655762,-0.1094714403152466,2,-0.4435292451192118,-0.5448418849261538,0.5310573927131469,0.4737164011449939,-0.04512210562825203,0.9988988041877747,-0.01285825856029987,31.24211120605469,213.9393768310547,224.2354888916016,2,34019.569682875,4,2,1607223149.176615,1607223123.808484,74,0.8089354,0.6780217,1.917376,59.49366,0,0,1607223164.249155,34035.283734,0,-0.5390625,94.87658,0,1682321854,1,1,0.35,-120,-120,1
1607223168.960672,28,0,0,1607223166.999976,24.60659599414708,73.67827345377238,592.5214,1.668585,163.4775802776401,3.371396425205425,4.739010780416195,-9999,1607223168.039096,53.64807891845703,258.6133117675781,198.9496765136719,31.22768783569336,30.4923038482666,13.48715496063232,34039.348010125,0.184722900390625,0.6005096435546875,-0.4682464599609375,34038.833332875,-3.310633659362793,-2.885397434234619,-1.649102568626404,34038.364328875,-110.5203247070312,244.7801971435547,95.65267944335938,34038.385023875,-0.1082383569806618,-1.808589966469341,-1.443480030020154,2.133575677871704,0.6437416672706604,2.017627000808716,-0.1818205565214157,-0.03383725881576538,0.09986615180969238,2,-0.4397832313806609,-0.5670499545231373,0.4934321637207928,0.4914976507491675,-0.1234010607004166,0.9919062256813049,0.0299098826944828,51.51462554931641,255.5503845214844,202.3459167480469,2,34019.569682875,4,2,1607223149.176615,1607223123.808484,74,0.8089354,0.6780217,1.917376,59.49366,0,0,1607223164.249155,34036.349405,0,-0.5469971,94.87669,0,1682321854,1,1,0.35,-120,-120,1
1607223169.962751,29,0,0,1607223168.999973,24.60657129863194,73.67828221962748,592.7803,1.461866,163.4173799628428,3.375177957662726,4.736318273395118,-9999,1607223169.040954,62.42100524902344,248.8388366699219,203.0912170410156,20.91300010681152,20.17761611938477,13.49435234069824,34040.349815125,0.4375,1.550582885742188,0.4224853515625,34039.835138125,-3.090919017791748,0.0738782212138176,-1.380895853042603,34039.365595125,-99.05369567871094,237.4505004882812,95.4910888671875,34039.386830125,-0.8315371250783725,-2.686561759079255,-1.403419014202673,1.502514243125916,-0.791483998298645,0.9394293427467346,-0.3149052560329437,0.06982195377349854,-0.5921189785003662,2,-0.4337184532003279,-0.621860587252246,0.50573406442594,0.4115952663796001,-0.07321735471487045,0.9860250949859619,0.1496445685625076,61.16407012939453,246.5312652587891,204.8655853271484,2,34019.569682875,4,2,1607223149.176615,1607223123.808484,85,0.8331805,0.8211588,2.101466,63.89465,0,0,1607223166.813732,34037.415066,0,-0.5548706,94.87678,0,1682321854,1,1,0.35,-120,-120,1
1607223170.964461,30,0,0,1607223168.999973,24.60657129863194,73.67828221962748,592.7803,1.461866,163.4173799628428,3.375177957662726,4.736318273395118,-9999,1607223170.042723,44.61393737792969,218.3767852783203,222.9640808105469,24.28988838195801,23.55450439453125,13.50400352478027,34041.35162016667,-0.0616302490234375,1.511642456054688,0.218505859375,34040.836944125,-1.103479981422424,-0.3061053454875946,-0.4283830523490906,34040.366763125,-120.6117706298828,209.0385284423828,115.3860168457031,34040.388635125,-0.8378290301383212,-2.637873355635736,-1.34944347262078,0.7190456986427307,0.1609885394573212,0.9160098433494568,0.5094006657600403,-0.4851533770561218,-0.8593941926956177,2,-0.4498295724695473,-0.6275295638508785,0.4735034172508083,0.4238566793212797,-0.1059735119342804,0.9756013154983521,0.1922799944877625,40.55237579345703,217.1856994628906,224.0441436767578,2,34019.569682875,4,2,1607223149.176615,1607223123.808484,85,0.8331805,0.8211588,2.101466,63.89465,0,0,1607223166.813732,34038.480753,0,-0.5601807,94.87682,0,1682321854,1,1,0.35,-120,-120,1
1607223171.966156,31,0,0,1607223170.99997,24.6065410106605,73.67828071768363,592.9786,1.466552,172.4730143516137,3.372756832181209,4.738042674329117,-9999,1607223171.044456,21.94325256347656,191.1247100830078,249.9780578613281,25.01329612731934,24.27791213989258,13.51137447357178,34042.35342462501,0.1233062744140625,0.8489990234375,0.0637969970703125,34041.83874916667,-0.7806137800216675,-0.2200503349304199,0.4565475583076477,34041.36797416667,-137.7458343505859,180.6063537597656,141.6428833007812,34041.39044016667,-0.9908050201204132,-2.819521306607765,-1.307021605230464,-0.3282810747623444,-0.3513400554656982,0.4018027782440186,0.6604242920875549,0.1561997532844543,-0.4887905418872833,2,-0.458314986321927,-0.6431232257947498,0.4674464383021829,0.3972828474117965,-0.08252823352813721,0.9654126763343811,0.247320219874382,20.64881896972656,189.9835357666016,250.6421508789062,2,34019.569682875,4,2,1607223149.176615,1607223123.808484,89,0.8228859,0.8322655,2.075252,67.15324,0,0,1607223169.378606,34039.546468,0,-0.5760498,94.87702,0,1682321854,1,1,0.35,-120,-120,1
1607223172.967895,32,0,0,1607223170.99997,24.6065410106605,73.67828071768363,592.9786,1.466552,172.4730143516137,3.372756832181209,4.738042674329117,-9999,1607223172.046325,16.62420654296875,181.3198089599609,257.7431030273438,21.90335083007812,21.16796684265137,13.52163124084473,34043.35522975,-0.9676666259765625,1.839447021484375,0.342010498046875,34042.840552625,-0.3007273375988007,-0.06770740449428558,0.6053418517112732,34042.369215625,-140.9003143310547,171.6812438964844,149.6462860107422,34042.392244625,-0.9876179117556289,-2.863138092125163,-1.378153071018997,0.2599810361862183,2.240738868713379,0.8471236824989319,0.1680119335651398,0.3933916091918945,0.347383975982666,2,-0.4399930494399649,-0.63122571798639,0.5036776454800083,0.3927710181305907,-0.05262500792741776,0.981501579284668,0.1840795874595642,18.08541870117188,180.1941070556641,258.2973022460938,2,34019.569682875,4,2,1607223149.176615,1607223123.808484,89,0.8228859,0.8322655,2.075252,67.15324,0,0,1607223169.378606,34040.612127,0,-0.5760498,94.87702,0,1682321854,1,1,0.35,-120,-120,1
1607223173.969835,33,0,0,1607223172.999967,24.60651660180934,73.6782877276963,593.3172,1.40568,160.9571282172089,3.36834510340339,4.741180053232238,-9999,1607223173.048144,25.76164245605469,189.4925231933594,245.9180297851562,22.49464225769043,21.75925827026367,13.53337574005127,34044.35703316667,-0.6237640380859375,2.132583618164062,0.809173583984375,34043.84235775,0.330805629491806,1.162103652954102,0.8452319502830505,34043.37050875001,-137.5406951904297,173.044921875,141.5209045410156,34043.39404975,-0.6177993185950732,-2.481644467742884,-1.361290817488614,-0.09501082450151443,-0.1035751774907112,-0.07245092839002609,0.1913173347711563,0.5566103458404541,0.03793393075466156,2,-0.4177726144241553,-0.6384505224622671,0.4906115069535478,0.4208886827462507,-0.1275050938129425,0.9781338572502136,0.1643060594797134,24.32844543457031,185.9284515380859,247.1988677978516,2,34019.569682875,4,2,1607223149.176615,1607223123.808484,89,0.8228859,0.8322655,2.075252,67.15324,0,0,1607223169.378606,34040.612127,0,-0.5760498,94.87702,0,1682321854,1,1,0.35,-120,-120,1
1607223174.971583,34,0,0,1607223172.999967,24.60651660180934,73.6782877276963,593.3172,1.40568,160.9571282172089,3.36834510340339,4.741180053232238,-9999,1607223174.049931,23.78764343261719,183.6177825927734,247.3930511474609,23.25193023681641,22.51654624938965,13.54271697998047,34045.358837,-0.596343994140625,2.01116943359375,1.97357177734375,34044.84416016667,0.3429496288299561,1.188630819320679,1.036045074462891,34044.37171916667,-138.158935546875,166.6335754394531,142.6369323730469,34044.39585316667,-0.7780267984134422,-2.608051865809934,-1.386434697719172,0.5472807884216309,0.5675603747367859,-0.914012610912323,-0.3808109164237976,0.168084979057312,0.3530387878417969,2,-0.4372862827626569,-0.6226564944118078,0.4934484200750612,0.4214124295148889,-0.09323392063379288,0.9830535054206848,0.1578408032655716,21.46466064453125,178.4760284423828,248.9964141845703,2,34019.569682875,4,2,1607223149.176615,1607223123.808484,95,0.8131375,0.8504605,2.033944,71.8269,0,0,1607223171.943562,34041.677864,0,-0.5681152,94.87691,0,1682321854,1,1,0.35,-120,-120,1
1607223175.973299,35,0,0,1607223174.999964,24.60648923437575,73.67829272779859,593.3621,1.407267,160.4444223945679,3.374910066181151,4.736509165828561,-9999,1607223175.051752,20.75042724609375,179.8174743652344,253.3867645263672,20.46199035644531,19.72660636901855,13.55277442932129,34046.360639375,-0.24566650390625,1.12060546875,1.769973754882812,34045.845965,0.6602402329444885,1.270944833755493,0.8238768577575684,34045.372907,-139.3073883056641,164.4819641113281,147.8196105957031,34045.397657,-0.9731781169750139,-2.827337844761923,-1.376853444659173,0.9712897539138794,0.5919404029846191,-0.6269090175628662,-0.2199362516403198,0.7449749112129211,0.4833959341049194,2,-0.4445417647256128,-0.6277166455415533,0.4981571490244562,0.4002423558120414,-0.05957426130771637,0.9812519550323486,0.1832911372184753,19.46452331542969,175.2214202880859,254.4378051757812,2,34019.569682875,4,2,1607223149.176615,1607223123.808484,95,0.8131375,0.8504605,2.033944,71.8269,0,0,1607223171.943562,34042.74356,0,-0.5681152,94.87691,0,1682321854,1,1,0.35,-120,-120,1
1607223176.975045,36,0,0,1607223174.999964,24.60648923437575,73.67829272779859,593.3621,1.407267,160.4444223945679,3.374910066181151,4.736509165828561,-9999,1607223176.053836,8.048782348632812,164.0806579589844,270.1285705566406,18.11304473876953,17.37766075134277,13.56493949890137,34047.36244216667,0.423919677734375,0.942962646484375,1.1339111328125,34046.847766375,1.332570672035217,0.3900782763957977,1.083105444908142,34046.374093375,-156.1493530273438,141.231201171875,169.5669555664062,34046.399459375,-1.038497673249812,-2.940408726752856,-1.338812720718092,1.834764122962952,1.019004583358765,-1.0481276512146,-0.5789965987205505,1.434593915939331,0.4652809500694275,2,-0.4412707885938739,-0.6464638300050858,0.49692974337713,0.3747336787487001,-0.04594237729907036,0.9732122421264648,0.2252707779407501,6.414169311523438,157.0084381103516,272.128662109375,2,34019.569682875,4,2,1607223149.176615,1607223123.808484,95,0.8131375,0.8504605,2.033944,71.8269,0,0,1607223171.943562,34043.809232,0,-0.5575562,94.87682,0,1682321854,1,1,0.35,-120,-120,1
1607223177.976891,37,0,0,1607223176.99996,24.60646021516444,73.67830748296915,592.5693,1.603765,156.6244684179954,3.368764243268682,4.740882249757235,-9999,1607223177.055353,16.43095397949219,168.6618347167969,263.1776123046875,17.98865699768066,17.25327301025391,13.57996368408203,34048.36424466667,0.5011444091796875,0.044891357421875,-0.0606231689453125,34047.84956916667,1.750778555870056,0.442549467086792,0.848938524723053,34047.37534216667,-148.7888031005859,148.7924499511719,165.1477661132812,34047.40126216667,-1.190834202879506,-3.129648285858416,-1.33856270488692,1.883877873420715,1.228529810905457,-0.8637844324111938,-0.7039618492126465,1.061375737190247,0.2059309184551239,2,-0.4429196267720734,-0.6472167799787346,0.5110208798685753,0.3518382968552225,-0.002748944330960512,0.9731547236442566,0.2301347106695175,9.679519653320312,156.4949188232422,272.3004150390625,2,34019.569682875,4,2,1607223149.176615,1607223123.808484,99,0.8077188,0.8564029,2.020642,74.86376,0,0,1607223174.507974,34044.874896,0,-0.5548706,94.87678,0,1682321854,1,1,0.35,-120,-120,1
1607223178.978724,38,0,0,1607223176.99996,24.60646021516444,73.67830748296915,592.5693,1.603765,156.6244684179954,3.368764243268682,4.740882249757235,-9999,1607223178.057515,14.42433166503906,158.1760101318359,259.370361328125,20.26515579223633,19.52977180480957,13.59172439575195,34049.36604637501,0.48406982421875,-0.032867431640625,-0.2593994140625,34048.85137166667,1.838586211204529,0.643462598323822,0.6469630599021912,34048.37658666667,-146.1333618164062,146.1843414306641,157.5072937011719,34048.40306466667,-1.224400035732399,3.135863896225429,-1.326918744378135,-0.1992476880550385,2.297579050064087,0.2019003182649612,-0.5795845985412598,0.7988934516906738,1.662741780281067,2,-0.4513171884776937,-0.6457898848416911,0.5052944126077286,0.3520594056181403,0.001383301336318254,0.9704089760780334,0.2414635568857193,13.13839721679688,153.5028228759766,265.18701171875,2,34019.569682875,4,2,1607223149.176615,1607223123.808484,99,0.8077188,0.8564029,2.020642,74.86376,0,0,1607223174.507974,34045.940598,0,-0.5548706,94.87678,0,1682321854,1,1,0.35,-120,-120,1
1607223179.980536,39,0,0,1607223178.999957,24.60643266964132,73.67831607374863,593.2338,1.651626,160.3731098373385,3.375663542519539,4.735972200139404,-9999,1607223179.059663,8.451690673828125,154.0084228515625,269.9322509765625,13.78104496002197,13.04566097259521,13.60641288757324,34050.36784725,0.3954620361328125,0.002777099609375,-0.3692626953125,34049.85317237501,1.328466176986694,1.706570625305176,0.2447780519723892,34049.377819375,-152.4620208740234,148.5496063232422,163.5814208984375,34049.404866375,-1.065703407644401,-3.05946121387485,-1.344312042559698,1.008320331573486,-0.1401572078466415,1.409992575645447,0.4074449241161346,-0.1530660390853882,1.12505054473877,2,-0.4191781011435266,-0.6604450988908663,0.5195771269581695,0.3437173189315127,-0.01842213049530983,0.9744618535041809,0.2237960249185562,9.42626953125,156.1313171386719,272.1464233398438,2,34019.569682875,4,2,1607223149.176615,1607223123.808484,105,0.7941229,0.8603968,2.009794,80.00578,0,0,1607223177.072852,34047.006213,0,-0.5548706,94.87678,0,1682321854,1,1,0.35,-120,-120,1
1607223180.982338,40,0,0,1607223178.999957,24.60643266964132,73.67831607374863,593.2338,1.651626,160.3731098373385,3.375663542519539,4.735972200139404,-9999,1607223180.061218,3.020721435546875,150.6001129150391,274.6844482421875,14.5904426574707,13.85505867004395,13.62073993682861,34051.36964854167,0.3311614990234375,0.0571441650390625,-0.388336181640625,34050.85497325,1.496600866317749,1.112372875213623,0.1024528741836548,34050.37904125,-159.5868988037109,145.2942810058594,169.1318054199219,34050.40666725,-1.177213563988616,-3.098704950870555,-1.307576117403404,1.62136971950531,-1.06452488899231,1.036998510360718,0.6025556921958923,-0.7338829040527344,-0.2028231620788574,2,-0.4514571460699777,-0.652811187477807,0.4962809834336869,0.3517516139464189,-0.01115558482706547,0.9655570983886719,0.2599520087242126,2.8837890625,152.6382293701172,276.6163635253906,2,34019.569682875,4,2,1607223149.176615,1607223123.808484,105,0.7941229,0.8603968,2.009794,80.00578,0,0,1607223177.072852,34048.071828,0,-0.5707397,94.87696,0,1682321854,1,1,0.35,-120,-120,1
1607223181.986287,41,0,0,1607223180.999954,24.60640659737554,73.67832320361084,593.1307,1.568279,162.5816959901439,3.386888725402042,4.727951120150605,-9999,1607223181.062905,2.311721801757812,149.8305816650391,278.5067138671875,14.53518390655518,13.79979991912842,13.62898254394531,34052.37144916667,0.3318634033203125,0.0984344482421875,-0.370452880859375,34051.85677454167,1.358425140380859,0.8988104462623596,0.3102191090583801,34051.38030054167,-162.1874084472656,143.1974182128906,171.3817901611328,34051.40846854167,-1.181327723477176,-3.066941950443781,-1.269533968799276,1.518580794334412,-1.458767652511597,0.8871112465858459,0.4378559291362762,-0.9098118543624878,-0.5940413475036621,2,-0.4664983498407568,-0.6559948355695818,0.4754432572475865,0.3549702085048774,-0.02213025651872158,0.9549626708030701,0.2958998680114746,0.4158172607421875,150.3822479248047,280.2913818359375,2,34019.569682875,4,2,1607223149.176615,1607223123.808484,105,0.7941229,0.8603968,2.009794,80.00578,0,0,1607223177.072852,34049.13745,0,-0.5760498,94.87701,0,1682321854,1,1,0.35,-120,-120,1
1607223182.986198,42,0,0,1607223180.999954,24.60640659737554,73.67832320361084,593.1307,1.568279,162.5816959901439,3.386888725402042,4.727951120150605,-9999,1607223182.064394,-13.06468200683594,127.4189758300781,298.8702392578125,7.995319366455078,7.25993537902832,13.64361000061035,34053.373248375,0.3432464599609375,0.020263671875,-0.4005889892578125,34052.85857516667,1.627827167510986,1.424555540084839,0.2382493168115616,34052.38156516667,-178.776123046875,121.2334594726562,192.9983215332031,34052.41026916667,-1.217491130876321,3.11268685060062,-1.278083892730076,1.286250472068787,-1.592885971069336,0.9717538952827454,0.4446632862091064,-0.944936990737915,-0.4450926184654236,2,-0.451877062259351,-0.6633419187800917,0.4958706370160438,0.3315073835776007,0.008339645341038704,0.9574647545814514,0.2884307503700256,-15.43672180175781,128.5515747070312,300.5281372070312,2,34019.569682875,4,2,1607223149.176615,1607223123.808484,109,0.786248,0.8616218,2.006428,83.38094,0,0,1607223179.637312,34050.203071,0,-0.5997925,94.87727,0,1682321854,1,1,0.35,-120,-120,1
1607223183.987935,43,0,0,1607223182.99995,24.60638044236391,73.67832767181682,593.3848,1.277993,166.2365230557079,3.388381824300201,4.726881175314319,-9999,1607223183.066354,-15.74821472167969,132.1356811523438,299.9019165039062,10.37863349914551,9.64324951171875,13.65663623809814,34054.375048125,0.3358917236328125,0.155426025390625,-0.3399505615234375,34053.860373375,1.49703311920166,1.39192008972168,0.2754606008529663,34053.382752375,-180.2943878173828,125.2339630126953,192.3549652099609,34053.412068375,-1.19054075915237,-3.118538502639567,-1.299891058939961,1.494373202323914,-1.651613831520081,0.8267600536346436,0.5356488227844238,-0.8698707222938538,-0.3790283799171448,2,-0.4521546115010487,-0.6552269776326907,0.4958776375015923,0.3468992892281161,-0.00616882462054491,0.9635290503501892,0.2675323784351349,-17.85342407226562,133.2338104248047,300.3623352050781,2,34019.569682875,4,2,1607223149.176615,1607223123.808484,109,0.786248,0.8616218,2.006428,83.38094,0,0,1607223179.637312,34051.268764,0,-0.6235962,94.87756,0,1682321854,1,1,0.35,-120,-120,1
1607223184.989505,44,0,0,1607223182.99995,24.60638044236391,73.67832767181682,593.3848,1.277993,166.2365230557079,3.388381824300201,4.726881175314319,-9999,1607223184.067831,-25.48187255859375,114.5015563964844,311.6401672363281,7.399594306945801,6.664210319519043,13.66900634765625,34055.37684625,0.1898345947265625,0.1005401611328125,-0.402984619140625,34054.862173125,1.583240509033203,0.778696596622467,0.2434882819652557,34054.384071125,-191.56982421875,109.3507385253906,206.2332916259766,34054.413868125,-1.141839676597364,-3.097054034568969,-1.280130907884822,0.637759268283844,-1.109741568565369,0.6565240025520325,0.5161628127098083,-0.9614254236221313,-0.6024378538131714,2,-0.4445189116192672,-0.6674998666565779,0.4927507588173447,0.3377035778493466,-0.01276012416929007,0.9580534100532532,0.2863062620162964,-30.18026733398438,115.9126663208008,314.6711120605469,2,34019.569682875,4,2,1607223149.176615,1607223123.808484,115,0.7757578,0.8629782,2.001619,88.43427,0,0,1607223182.201936,34052.334534,0,-0.6235962,94.87756,0,1682321854,1,1,0.35,-120,-120,1
1607223185.991235,45,0,0,1607223184.999946,24.60635431614082,73.67833658500189,593.2949,1.220616,156.8209557831928,3.381604984163673,4.731731687645469,-9999,1607223185.069902,-26.73588562011719,111.3724670410156,312.4205017089844,7.799655914306641,7.064271926879883,13.68141937255859,34056.37864504167,0.0634002685546875,0.4485931396484375,-0.2877349853515625,34055.86397125,1.514288544654846,-0.2198396921157837,0.4274988770484924,34055.38535725,-194.6735229492188,106.6090545654297,205.5267486572266,34055.41566625,-1.311965005203025,3.076303377766451,-1.259887319954031,0.3207975327968597,-1.509574055671692,0.6362366676330566,0.458189994096756,-1.048766136169434,-0.7861378192901611,2,-0.4773676021935163,-0.6517333679838153,0.4826690087914531,0.3382224486508175,0.01995938271284103,0.9520558714866638,0.3052724301815033,-32.69291687011719,113.6465377807617,315.3539733886719,2,34019.569682875,4,2,1607223149.176615,1607223123.808484,115,0.7757578,0.8629782,2.001619,88.43427,0,0,1607223182.201936,34053.400248,0,-0.5945435,94.87723,0,1682321854,1,1,0.35,-120,-120,1
1607223186.993066,46,0,0,1607223184.999946,24.60635431614082,73.67833658500189,593.2949,1.220616,156.8209557831928,3.381604984163673,4.731731687645469,-9999,1607223186.071585,-35.20240783691406,106.8835372924805,318.6686401367188,10.6455192565918,9.910135269165039,13.69400691986084,34057.38044316667,-0.0320587158203125,0.3556671142578125,-0.222747802734375,34056.86577004167,1.30049741268158,-0.8393048048019409,0.4216929078102112,34056.38649004167,-199.6809234619141,101.5137023925781,210.3505249023438,34056.41746504167,-1.153691731323198,-3.072424193583063,-1.296065698109243,-0.3234679102897644,-1.151555418968201,0.1746301352977753,0.4480403661727905,-0.9146009683609009,-0.5122467279434204,2,-0.4520531633558348,-0.6564811474497817,0.4906083629149398,0.3521134828838051,-0.01874960213899612,0.9624983072280884,0.2706391215324402,-38.80380249023438,108.5505981445312,320.1852111816406,2,34019.569682875,4,2,1607223149.176615,1607223123.808484,115,0.7757578,0.8629782,2.001619,88.43427,0,0,1607223182.201936,34054.465885,0,-0.5866089,94.87714,0,1682321854,1,1,0.35,-120,-120,1
1607223187.994914,47,0,0,1607223186.999942,24.60632888868743,73.67834964690996,593.4118,1.295549,156.2739414363536,3.367297635520766,4.741924046903861,-9999,1607223187.073626,-39.85804748535156,106.7368087768555,320.8433532714844,15.22617149353027,14.49078750610352,13.70230197906494,34058.382240625,-0.1306304931640625,0.2010498046875,-0.1149139404296875,34057.86756816667,0.8768998384475708,-3.140887498855591,0.6980456709861755,34057.38760916667,-201.8567504882812,100.8140411376953,210.0291290283203,34057.41926316667,-1.128175117646793,-2.982831542905925,-1.27540338572291,-0.3552485108375549,-1.401384592056274,0.1211403459310532,0.4360385835170746,-0.8696364164352417,-0.6121922731399536,2,-0.4681121917404117,-0.6516121169244327,0.4674688560123261,0.3711408175595925,-0.04602396488189697,0.9566878080368042,0.287454754114151,-42.84132385253906,107.9929733276367,320.3935852050781,2,34019.569682875,4,2,1607223149.176615,1607223123.808484,120,0.7692381,0.8644789,1.994834,92.54374,0,0,1607223184.766576,34055.531569,0,-0.5707397,94.87695,0,1682321854,1,1,0.35,-120,-120,1
1607223188.996622,48,0,0,1607223186.999942,24.60632888868743,73.67834964690996,593.4118,1.295549,156.2739414363536,3.367297635520766,4.741924046903861,-9999,1607223188.081167,-52.13822937011719,89.18028259277344,334.1755981445312,14.73252201080322,13.99713802337646,13.71600723266602,34059.384038,0.13787841796875,0.5827484130859375,-0.1727447509765625,34058.869365625,1.697083353996277,-0.9437252283096313,0.3432617485523224,34058.388921625,-216.1615447998047,74.87890625,226.0946197509766,34058.42106062501,-1.227280438577866,-3.06472821051859,-1.27450948405998,-0.6978740692138672,-1.414275884628296,-0.6043224334716797,0.04190557450056076,-0.7240203619003296,-0.5589165091514587,2,-0.481175593122839,-0.6434476554331379,0.4682970236896992,0.3676183652318153,-0.02242015488445759,0.9564272165298462,0.2911096811294556,-52.55853271484375,89.34478759765625,332.5810852050781,2,34019.569682875,4,2,1607223149.176615,1607223123.808484,120,0.7692381,0.8644789,1.994834,92.54374,0,0,1607223184.766576,34056.597281,0,-0.5707397,94.87695,0,1682321854,1,1,0.35,-120,-120,1
1607223189.998486,49,0,0,1607223188.999938,24.60629885095318,73.67835489142804,592.8732,1.216086,164.2575534655873,3.365019162569853,4.743541194964635,-9999,1607223189.097181,-47.84898376464844,91.00212097167969,333.001220703125,9.709793090820312,8.974409103393555,13.72634696960449,34060.3858345,0.5792083740234375,0.6250152587890625,-0.3262481689453125,34059.871163,1.769394397735596,1.098915100097656,0.9167705774307251,34059.390213,-217.2427368164062,70.98963928222656,227.1582336425781,34059.42285800001,-1.29796692428912,3.117882432824564,-1.304337557338862,-1.596500396728516,-1.959379434585571,-1.383055210113525,-0.05044746398925781,-0.7766143679618835,-0.4632702171802521,2,-0.4745743675907464,-0.6374955038739725,0.4891859213521631,0.3592711504881736,0.006242712493985891,0.9647094011306763,0.2632426917552948,-52.98226928710938,87.35026550292969,333.581787109375,2,34019.569682875,4,2,1607223149.176615,1607223123.808484,125,0.7645115,0.6224329,1.999256,96.31315,0,0,1607223187.331036,34056.597281,0,-0.5707397,94.87695,0,1682321854,1,1,0.35,-120,-120,1
1607223191.000174,50,0,0,1607223188.999938,24.60629885095318,73.67835489142804,592.8732,1.216086,164.2575534655873,3.365019162569853,4.743541194964635,-9999,1607223190.098814,-53.11906433105469,79.21401214599609,334.3276977539062,17.10610008239746,16.3707160949707,13.72979164123535,34061.387631875,0.6507568359375,0.7491455078125,0.062255859375,34060.8729595,1.73472797870636,3.702861547470093,0.49459108710289,34060.3914075,-219.1614532470703,55.73701477050781,228.482666015625,34060.4246545,-1.709462350112467,2.787950986800152,-1.349293349524872,-1.928001523017883,-0.9770090579986572,-1.599654078483582,-0.3087811172008514,-0.7073187232017517,-0.3145759999752045,2,-0.5078198099676805,-0.5875114408552053,0.5072499345857996,0.3736936465551369,0.07608454674482346,0.9755683541297913,0.2061012983322144,-58.39523315429688,63.90528869628906,338.2838134765625,2,34019.569682875,4,2,1607223149.176615,1607223123.808484,125,0.7645115,0.6224329,1.999256,96.31315,0,0,1607223187.331036,34057.66299,0,-0.5734253,94.87697,0,1682321854,1,1,0.35,-120,-120,1
1607223192.002253,51,0,0,1607223190.999934,24.6062653399229,73.67835929967184,593.611,1.744674,165.4885811772343,3.364348869198852,4.744016622979861,-9999,1607223191.100567,-58.17414855957031,75.01179504394531,337.2897338867188,18.61191749572754,17.87653350830078,13.74107360839844,34062.38942791667,0.4824371337890625,0.85906982421875,0.22674560546875,34061.874755875,3.718882083892822,0.273539662361145,1.817201256752014,34061.392812875,-223.8957672119141,56.4951171875,228.4458770751953,34061.426451875,-1.707648134265019,2.822741548172304,-1.391887314941517,-2.258777141571045,-1.624628067016602,-1.608558177947998,-0.05213817954063416,-0.5661306977272034,-0.3604539632797241,2,-0.5042877754712175,-0.5746191657678641,0.5077722811881091,0.3970818614158293,0.05578501150012016,0.9840384125709534,0.1689866930246353,-62.72978210449219,66.59307098388672,338.1639099121094,2,34019.569682875,4,2,1607223149.176615,1607223123.808484,125,0.7645115,0.6224329,1.999256,96.31315,0,0,1607223187.331036,34058.728676,0,-0.5997925,94.87728,0,1682321854,1,1,0.35,-120,-120,1
1607223193.00459,52,0,0,1607223190.999934,24.6062653399229,73.67835929967184,593.611,1.744674,165.4885811772343,3.364348869198852,4.744016622979861,-9999,1607223192.102519,-51.84603881835938,91.53072357177734,328.4591674804688,21.99448585510254,21.25910186767578,13.74242496490479,34063.39122366667,0.7548828125,0.8910675048828125,0.24725341796875,34062.87655191667,2.154427528381348,-0.1261438131332397,1.109138131141663,34063.39561466667,-232.2340850830078,27.46983337402344,224.2166595458984,34062.42824791667,-1.826245165858804,2.753674084092298,-1.383335277193686,-2.289656400680542,-1.175933718681335,-2.604493379592896,-0.1587059497833252,-0.4230018258094788,-0.3720111846923828,2,-0.5229573907650088,-0.5592624360264348,0.5000608945887236,0.404574093580765,0.07049489766359329,0.9824805855751038,0.1725178062915802,-62.88031005859375,65.74566650390625,336.1850891113281,2,34019.569682875,4,2,1607223149.176615,1607223123.808484,130,0.7628553,0.626358,1.988576,100.0154,0,0,1607223189.895707,34059.794343,0,-0.6077271,94.87737,0,1682321854,1,1,0.35,-120,-120,1
1607223194.005908,53,0,0,1607223192.99993,24.60624124886066,73.67836908360792,593.4094,1.626237,167.9782324175646,3.363475632602175,4.744635781772952,-9999,1607223193.104222,-58.7811279296875,73.16224670410156,324.7695007324219,19.97105979919434,19.23567581176758,13.75301361083984,34064.39301904167,1.035491943359375,1.053024291992188,0.076873779296875,34063.87834766667,3.365890026092529,-0.01270940341055393,2.27625584602356,34064.39692704167,-232.3047027587891,22.55316162109375,225.3187561035156,34063.43004366667,-2.001494155335801,2.551762205691932,-1.395589950602935,-2.446424007415771,-1.468263626098633,-2.099958658218384,-0.0111711174249649,-0.4789531230926514,-0.3706285953521729,2,-0.5164567903718509,-0.5529034234286403,0.5192884558703594,0.3973787002292425,0.09695600718259811,0.9846906065940857,0.1448596268892288,-72.1910400390625,38.35447692871094,334.4930419921875,2,34019.569682875,4,2,1607223149.176615,1607223123.808484,130,0.7628553,0.626358,1.988576,100.0154,0,0,1607223189.895707,34060.860037,0,-0.6420898,94.87776,0,1682321854,1,1,0.35,-120,-120,1
1607223195.007722,54,0,0,1607223192.99993,24.60624124886066,73.67836908360792,593.4094,1.626237,167.9782324175646,3.363475632602175,4.744635781772952,-9999,1607223194.105995,-64.33984375,56.25006103515625,331.0234985351562,18.56464195251465,17.82925796508789,13.76212501525879,34065.394814375,1.0218505859375,1.183761596679688,-0.27734375,34064.88014204167,3.32629919052124,-1.090855240821838,2.189826488494873,34065.398302375,-230.8492279052734,25.76036071777344,223.6999816894531,34064.43183804167,-2.143216179120516,2.402226558044792,-1.396517989800959,-2.263890504837036,-0.9663898348808289,-2.288212060928345,0.1422862112522125,-0.4277993440628052,-0.3185217380523682,2,-0.5158620552366884,-0.5458457804834511,0.5299511355171108,0.3938153071940493,0.1168385148048401,0.9848519563674927,0.128122553229332,-74.21018981933594,31.3573169708252,335.9833374023438,2,34019.569682875,4,2,1607223149.176615,1607223123.808484,130,0.7628553,0.626358,1.988576,100.0154,0,0,1607223189.895707,34061.925815,0,-0.6526489,94.87788,0,1682321854,1,1,0.35,-120,-120,1
1607223196.009328,55,0,0,1607223194.999927,24.60621515119632,73.67838351172036,593.2684,1.625968,161.5797572096538,3.362800755208858,4.745114130719679,-9999,1607223195.107765,-68.65377807617188,52.12834930419922,335.2598266601562,18.22999382019043,17.49460983276367,13.77077674865723,34066.39661016667,1.00347900390625,1.140823364257812,-0.057830810546875,34065.881938375,3.431664705276489,-0.6376491785049438,1.952568650245667,34066.39959516667,-229.1973571777344,25.532958984375,224.0738067626953,34065.433634375,-2.146794836014033,2.40718712095399,-1.402816351250177,-2.284002542495728,-0.9662406444549561,-2.72905421257019,0.1035492569208145,-0.4204643964767456,-0.09810806810855865,2,-0.5160726386820206,-0.5437976780116011,0.5283948305008401,0.3984368804869162,0.1120421290397644,0.9859244823455811,0.1240937635302544,-73.73756408691406,34.14929962158203,335.7266235351562,2,34019.569682875,4,2,1607223149.176615,1607223123.808484,135,0.7595989,0.630326,1.992778,103.6622,0,0,1607223192.46017,34062.991468,0,-0.6526489,94.87788,0,1682321854,1,1,0.35,-120,-120,1
1607223197.011183,56,0,0,1607223194.999927,24.60621515119632,73.67838351172036,593.2684,1.625968,161.5797572096538,3.362800755208858,4.745114130719679,-9999,1607223196.109449,-60.2235107421875,63.02694702148438,326.583251953125,21.98192977905273,21.24654579162598,13.77945613861084,34067.39840454167,1.331314086914062,1.671722412109375,-0.30255126953125,34066.88373416667,2.974925994873047,-0.402311772108078,2.003080368041992,34067.40094854167,-225.1098327636719,37.90542602539062,220.7439575195312,34066.43543016667,-2.269140639049301,2.320334551085556,-1.394733618921127,-1.830824971199036,-0.9480594396591187,-2.230364084243774,0.1782131940126419,-0.4016552567481995,-0.3113952875137329,2,-0.5286802252296671,-0.5293049255837726,0.5261226894492815,0.4043865028638978,0.1282137930393219,0.9845409393310547,0.1193329691886902,-71.86711120605469,32.58155059814453,333.2918090820312,2,34019.569682875,4,2,1607223149.176615,1607223123.808484,135,0.7595989,0.630326,1.992778,103.6622,0,0,1607223192.46017,34064.057122,0,-0.6685181,94.87807,0,1682321854,1,1,0.35,-120,-120,1
1607223198.013126,57,0,0,1607223196.999923,24.60618857073366,73.67839120727311,592.6026,1.709768,164.7967099543918,3.360792436987729,4.746536761500423,-9999,1607223197.111301,-68.40760803222656,44.77390289306641,331.0026550292969,22.77839088439941,22.04300689697266,13.78766632080078,34068.400198625,1.12939453125,2.0506591796875,-0.813720703125,34067.88552754167,3.152365446090698,-0.4879180192947388,1.181321263313293,34068.40236262501,-216.5533294677734,52.89979553222656,215.1972961425781,34067.43722454167,-2.597774569615454,2.021085273289233,-1.384768408243653,-0.6965802907943726,0.04901815205812454,-2.162421226501465,0.4190205633640289,-0.2229658961296082,-0.02948762476444244,2,-0.5369863024526051,-0.5018910171740337,0.5392429182465615,0.4110573154420569,0.1665201783180237,0.9827466607093811,0.08049776405096054,-69.14141845703125,36.13896942138672,329.9259033203125,2,34019.569682875,4,2,1607223149.176615,1607223123.808484,140,0.7574856,0.6350847,1.987445,107.3899,0,0,1607223195.024791,34065.122789,0,-0.6738281,94.87813,0,1682321854,1,1,0.35,-120,-120,1
1607223199.014543,58,0,0,1607223196.999923,24.60618857073366,73.67839120727311,592.6026,1.709768,164.7967099543918,3.360792436987729,4.746536761500423,-9999,1607223198.113346,-69.66758728027344,39.68523406982422,331.2450561523438,21.19733238220215,20.46194839477539,13.78975677490234,34069.401993625,0.840606689453125,1.758438110351562,-0.9881591796875,34068.887322625,1.780285358428955,1.323635220527649,1.412231206893921,34069.403740625,-207.0475158691406,73.08375549316406,209.1828002929688,34068.439018625,-2.677514257448375,1.9126160409013,-1.353687531760738,0.6638480424880981,0.9162645936012268,-2.025914192199707,0.9031031131744385,0.1752396821975708,-0.02212571352720261,2,-0.5368367720597296,-0.4979044333532409,0.5550844697119837,0.3946882009335363,0.2029455006122589,0.976524293422699,0.07220508903264999,-67.55543518066406,40.14855194091797,329.4411315917969,2,34019.569682875,4,2,1607223149.176615,1607223123.808484,140,0.7574856,0.6350847,1.987445,107.3899,0,0,1607223195.024791,34066.188461,0,-0.6738281,94.87813,0,1682321854,1,1,0.35,-120,-120,1
1607223200.016775,59,0,0,1607223198.999918,24.60616458371872,73.67840323579544,592.5315,1.612368,162.4431606651463,3.359386053408635,4.747532240749123,-9999,1607223199.114918,-68.46363830566406,39.78041458129883,329.5341186523438,20.57071876525879,19.83533477783203,13.80002403259277,34070.40378754167,1.447311401367188,2.191864013671875,-0.561370849609375,34069.889116625,1.719999074935913,0.3713375926017761,1.239988803863525,34070.40504654167,-217.8440856933594,55.68731689453125,216.2039489746094,34069.44081262501,-2.688251961938505,1.906993495871542,-1.317374522144523,0.6583631038665771,1.899004697799683,-0.9991893172264099,1.055172920227051,0.6943391561508179,-0.3625426292419434,2,-0.5487335817684251,-0.4901503347174834,0.5582005660823037,0.3834791676216689,0.2366819083690643,0.9680601954460144,0.08271178603172302,-61.42012023925781,53.04501342773438,326.2530822753906,2,34019.569682875,4,2,1607223149.176615,1607223123.808484,140,0.7574856,0.6350847,1.987445,107.3899,0,0,1607223195.024791,34067.254116,0,-0.6790771,94.87818,0,1682321854,1,1,0.35,-120,-120,1
1607223201.018715,60,0,0,1607223198.999918,24.60616458371872,73.67840323579544,592.5315,1.612368,162.4431606651463,3.359386053408635,4.747532240749123,-9999,1607223200.116659,-68.14990234375,40.36672973632812,330.7195129394531,19.59947967529297,18.86409568786621,13.81083393096924,34071.405580625,1.714981079101562,2.150955200195312,-0.3571014404296875,34070.89091054167,2.111406087875366,0.7943485379219055,1.561022281646729,34071.406302625,-226.7746429443359,35.54576110839844,222.3695831298828,34070.44260654167,-2.835264154277253,1.739390954706783,-1.356326785098877,-0.2507417500019073,1.65624463558197,-2.050482988357544,0.6661339402198792,0.1146769523620605,0.1662989854812622,2,-0.5263424631189423,-0.4907338476941768,0.5695828095524716,0.3971390591984463,0.2098120748996735,0.9770894050598145,0.03571219369769096,-65.1798095703125,45.67560577392578,328.3404846191406,2,34019.569682875,4,2,1607223149.176615,1607223123.808484,145,0.7544708,0.6390625,1.991163,111.0588,0,0,1607223197.590369,34068.319792,0,-0.6870117,94.87827,0,1682321854,1,1,0.35,-120,-120,1
1607223202.019957,61,0,0,1607223200.999915,24.60613076934485,73.67840084970913,592.2512,1.72605,167.2949622240395,3.360287966286635,4.746893912488257,-9999,1607223201.119069,-70.07070922851562,36.71804046630859,332.2499389648438,24.68149566650391,23.94611167907715,13.82152366638184,34072.407374125,1.23663330078125,1.385848999023438,-0.1081085205078125,34071.892703625,3.407302856445312,0.428798496723175,1.878584742546082,34072.407610125,-228.5166015625,28.95637512207031,221.6389770507812,34071.44440062501,-2.751417813426085,1.895655262217871,-1.396902138895749,-0.6438555717468262,0.8343837261199951,-2.567594528198242,0.5994424819946289,-0.242318868637085,0.1248148754239082,2,-0.5374489679884676,-0.4886311366546858,0.5395892849628006,0.425713178049127,0.1639699786901474,0.984918475151062,0.05522356182336807,-71.64936828613281,31.6856689453125,331.3907470703125,2,34019.569682875,4,2,1607223149.176615,1607223123.808484,145,0.7544708,0.6390625,1.991163,111.0588,0,0,1607223197.590369,34069.385476,0,-0.6923218,94.87832,0,1682321854,1,1,0.35,-120,-120,1
1607223203.021608,62,0,0,1607223200.999915,24.60613076934485,73.67840084970913,592.2512,1.72605,167.2949622240395,3.360287966286635,4.746893912488257,-9999,1607223202.120272,-67.96867370605469,37.18066024780273,330.7346496582031,24.03009033203125,23.29470634460449,13.82489013671875,34073.40916729167,1.213790893554688,1.177352905273438,-0.03802490234375,34072.894497125,4.379796504974365,0.1785926520824432,1.91004467010498,34073.40890129167,-235.1836395263672,16.46278381347656,229.6870269775391,34072.446194125,-2.666659331632734,2.004076621744544,-1.412620587425799,-1.533417582511902,0.6407027840614319,-1.704832077026367,0.5740490555763245,-0.3312662839889526,-0.2861804962158203,2,-0.5407765494829644,-0.4905379818752719,0.5268799841170231,0.4351214847318793,0.1429614424705505,0.9875162839889526,0.06613357365131378,-71.6124267578125,32.05913543701172,330.1529541015625,2,34019.569682875,4,2,1607223149.176615,1607223123.808484,150,0.7515436,0.6420648,1.985617,114.9839,0,0,1607223200.154433,34070.451208,0,-0.6975708,94.87839,0,1682321854,1,1,0.35,-120,-120,1
1607223204.023695,63,0,0,1607223202.999911,24.60610717533126,73.6784117425406,592.7652,1.415485,161.0992591135762,3.363558031414767,4.744577368121849,-9999,1607223203.122082,-127.0846862792969,-55.61934661865234,392.112548828125,15.84350681304932,15.10812282562256,13.83680820465088,34074.41096066667,0.4235992431640625,1.538742065429688,-0.498077392578125,34073.89629029167,2.321786880493164,1.435236930847168,-0.2366346418857574,34074.41009166667,-209.2599029541016,137.1856384277344,219.9635772705078,34073.44798729167,-2.328687187841586,2.211911467371166,-1.346996169405791,-2.462190628051758,-1.579721450805664,-1.185645818710327,0.08807899057865143,-0.6410920023918152,-0.3134629726409912,2,-0.5312402382334644,-0.5330598109551368,0.5422752126627395,0.3735888441750811,0.1778664290904999,0.9750611186027527,0.1327379047870636,-120.5345764160156,-42.24478149414062,385.1549072265625,2,34019.569682875,4,2,1607223149.176615,1607223123.808484,150,0.7515436,0.6420648,1.985617,114.9839,0,0,1607223200.154433,34071.516966,0,-0.7028809,94.87846,0,1682321854,1,1,0.35,-120,-120,1
1607223205.02559,64,0,0,1607223202.999911,24.60610717533126,73.6784117425406,592.7652,1.415485,161.0992591135762,3.363558031414767,4.744577368121849,-9999,1607223204.12386,-62.26229858398438,121.167366027832,336.26953125,27.40353775024414,26.66815376281738,13.84297466278076,34075.41275391667,0.0488433837890625,1.28369140625,-0.2193145751953125,34074.89808366667,2.226044654846191,2.006798028945923,0.1782368421554565,34075.41134991667,-186.7411651611328,199.7291259765625,191.5877380371094,34074.44978066667,-1.604464836928973,2.954999428380085,-1.432199271219658,-1.156455516815186,0.3698182106018066,-2.024069786071777,0.2419487833976746,-0.2379388213157654,0.09466683864593506,2,-0.4974572121558645,-0.5660515821786518,0.5048381972353081,0.4210230167249782,0.02562931552529335,0.9904108047485352,0.1357561498880386,-56.67214965820312,133.9609069824219,331.6186828613281,2,34019.569682875,4,2,1607223149.176615,1607223123.808484,150,0.7515436,0.6420648,1.985617,114.9839,0,0,1607223200.154433,34072.582681,0,-0.7213745,94.87865,0,1682321854,1,1,0.35,-120,-120,1
1607223206.027189,65,0,0,1607223204.999907,24.60608056285898,73.67841653045416,592.109,1.244962,169.7832062141078,3.380897632496758,4.73223712755042,-9999,1607223205.125565,-22.46865844726562,202.6439971923828,296.2781372070312,44.42414093017578,43.68875503540039,13.84171676635742,34076.41454529167,0.12518310546875,0.8984375,0.458526611328125,34075.89987591667,1.884074568748474,1.792335391044617,1.216279268264771,34076.41263829167,-156.4870452880859,219.1213226318359,163.3768615722656,34075.45157291667,-0.6453696506042034,-2.249701227834176,-1.386156106787853,-0.6308991312980652,0.05801517516374588,-2.241345405578613,0.2884976863861084,-0.1638953685760498,-0.09845495969057083,2,-0.4814383217454241,-0.5708413654400318,0.4414556270394963,0.4974677750178801,-0.1428830623626709,0.9830023646354675,0.1152854412794113,-27.46394348144531,202.9378204345703,300.7513427734375,2,34019.569682875,4,2,1607223149.176615,1607223123.808484,155,0.7469861,0.6432252,1.985617,118.9041,0,0,1607223202.71879,34073.648384,0,-0.7213745,94.87867,0,1682321854,1,1,0.35,-120,-120,1
1607223207.028972,66,0,0,1607223204.999907,24.60608056285898,73.67841653045416,592.109,1.244962,169.7832062141078,3.380897632496758,4.73223712755042,-9999,1607223206.127705,-2.709487915039062,212.4172058105469,281.6007080078125,35.62977981567383,34.89439392089844,13.84387683868408,34077.416338875,0.09820556640625,1.037063598632812,0.1759490966796875,34076.90166829167,1.976451396942139,0.9708175659179688,1.122061133384705,34077.413857875,-159.1201171875,204.4038391113281,164.4533081054688,34076.45336529167,-1.134034064539424,-2.776940729562483,-1.389587065104841,-0.9464583396911621,-0.4146409928798676,-1.71223258972168,0.0306861624121666,-0.2899923324584961,-0.09332726895809174,2,-0.5036854887756914,-0.5748791042092098,0.456271557275621,0.4556658091963011,-0.06427077949047089,0.9836264848709106,0.1683701127767563,-3.098007202148438,217.9455871582031,279.50634765625,2,34019.569682875,4,2,1607223149.176615,1607223123.808484,155,0.7469861,0.6432252,1.985617,118.9041,0,0,1607223202.71879,34073.648384,0,-0.7213745,94.87867,0,1682321854,1,1,0.35,-120,-120,1
1607223208.030619,67,0,0,1607223206.999902,24.60605394787023,73.67842715946678,591.8107,1.281297,168.8321223162228,3.378391590749705,4.734026541152946,-9999,1607223207.129439,0.116973876953125,204.8980560302734,277.77783203125,27.77543640136719,27.04005241394043,13.83713817596436,34078.41813116667,0.0596923828125,0.6584320068359375,0.0865936279296875,34077.903460875,2.167868852615356,0.9995085597038269,0.9265015125274658,34078.41506616667,-176.3759155273438,172.2774658203125,184.4311218261719,34077.455157875,-0.97490238111982,-2.729756618832332,-1.384907581943696,-1.15260922908783,-0.8395079970359802,-1.606415987014771,0.2417221367359161,-0.4211878776550293,-0.2197517156600952,2,-0.4682170169725236,-0.6045299351612639,0.4784429911868389,0.431750817874693,-0.07398229092359543,0.9827724099159241,0.1693672388792038,-1.92828369140625,207.7952423095703,277.6469116210938,2,34019.569682875,4,2,1607223149.176615,1607223123.808484,160,0.7412794,0.6423529,1.983489,123.2791,0,0,1607223205.283305,34074.71405,0,-0.7372437,94.87885,0,1682321854,1,1,0.35,-120,-120,1
1607223209.032569,68,0,0,1607223206.999902,24.60605394787023,73.67842715946678,591.8107,1.281297,168.8321223162228,3.378391590749705,4.734026541152946,-9999,1607223208.130972,-16.08290100097656,175.5801391601562,298.1508178710938,24.6707878112793,23.93540382385254,13.84095287322998,34079.419922875,0.23046875,0.791168212890625,-0.0662841796875,34078.90525316667,2.470508575439453,0.9369453191757202,0.7243044376373291,34079.416494875,-177.5955047607422,175.1660308837891,178.5137939453125,34078.45695016667,-1.040406858910711,-2.778270716044704,-1.367779589135268,-1.413654804229736,-1.485140562057495,-1.223951697349548,0.1326887160539627,-0.6898205876350403,-0.328980952501297,2,-0.4779853958832204,-0.6047820486791304,0.4696084589803506,0.4303910303515476,-0.0716535672545433,0.9794628024101257,0.1884627342224121,-17.24095153808594,178.2410888671875,295.425048828125,2,34019.569682875,4,2,1607223149.176615,1607223123.808484,160,0.7412794,0.6423529,1.983489,123.2791,0,0,1607223205.283305,34075.779712,0,-0.7478027,94.87895,0,1682321854,1,1,0.35,-120,-120,1
1607223210.03429,69,0,0,1607223208.999899,24.60602342406515,73.67843208914822,592.0157,1.184696,163.6447920147189,3.374569886871138,4.736751535748033,-9999,1607223209.132726,-13.52490234375,176.6277313232422,292.7724609375,24.18950271606445,23.4541187286377,13.84141445159912,34080.421713875,0.0414886474609375,0.4975433349609375,-1.52587890625e-05,34079.907044875,2.01249623298645,-0.695314347743988,1.120803594589233,34080.417770875,-172.3446350097656,172.6943359375,177.6536254882812,34079.458741875,-0.9497044813071017,-2.639393444224588,-1.389762384431529,-1.546635746955872,-2.322442770004272,-1.299059391021729,0.2717556953430176,-0.8168488740921021,-0.2685493230819702,2,-0.4816721515538278,-0.5889822407131553,0.464332931943863,0.4533066297098502,-0.08666662126779556,0.9836580753326416,0.1578162759542465,-17.76228332519531,180.1827697753906,289.0063171386719,2,34019.569682875,4,2,1607223149.176615,1607223123.808484,160,0.7412794,0.6423529,1.983489,123.2791,0,0,1607223205.283305,34076.84537,0,-0.7372437,94.87885,0,1682321854,1,1,0.35,-120,-120,1
1607223211.036093,70,0,0,1607223208.999899,24.60602342406515,73.67843208914822,592.0157,1.184696,163.6447920147189,3.374569886871138,4.736751535748033,-9999,1607223210.134565,-10.41590881347656,177.2637023925781,289.9563598632812,23.88754463195801,23.15216064453125,13.83791637420654,34081.423505375,0.16729736328125,0.486114501953125,-0.0970916748046875,34080.908835875,2.010582208633423,-0.7680076956748962,1.071966767311096,34081.419033375,-201.5932464599609,131.8233184814453,214.4265747070312,34080.460533875,-1.225106298687402,-2.937551445593833,-1.348274640775419,-0.5640937089920044,-1.289679288864136,-1.006060004234314,0.2221776843070984,-0.6438316702842712,-0.4364942312240601,2,-0.4988626781687299,-0.5993261515703092,0.462326854321589,0.4221350986992458,-0.04471798241138458,0.9753440618515015,0.2161116153001785,-13.0025634765625,177.7445220947266,289.3697204589844,2,34019.569682875,4,2,1607223149.176615,1607223123.808484,165,0.7381929,0.6422743,1.988538,127.0517,0,0,1607223207.847873,34077.911023,0,-0.723999,94.87868,0,1682321854,1,1,0.35,-120,-120,1
1607223212.03786,71,0,0,1607223210.999895,24.60599528349355,73.67844192884928,592.2117,1.207278,163.952016471036,3.373651745845865,4.737405506238619,-9999,1607223211.13637,-33.22416687011719,140.9813537597656,323.2684326171875,14.49883842468262,13.76345443725586,13.8347225189209,34082.425297,0.001251220703125,0.4069061279296875,-0.14453125,34081.910627375,1.883565902709961,-2.802264928817749,0.8566206693649292,34082.420209,-209.4068908691406,103.7399291992188,230.2742309570312,34081.462325375,-1.053953709523201,-2.882404112668581,-1.342785830555497,-1.599997639656067,-2.324460029602051,-0.7751311659812927,0.1475174725055695,-0.9164246320724487,-0.4032736122608185,2,-0.4599497892597298,-0.6306274666711629,0.4822849844699133,0.3976887504934421,-0.05793314427137375,0.9741180539131165,0.2184896171092987,-37.14439392089844,143.9302520751953,320.6963806152344,2,34019.569682875,4,2,1607223149.176615,1607223123.808484,165,0.7381929,0.6422743,1.988538,127.0517,0,0,1607223207.847873,34078.976681,0,-0.7108154,94.87855,0,1682321854,1,1,0.35,-120,-120,1
1607223213.040063,72,0,0,1607223210.999895,24.60599528349355,73.67844192884928,592.2117,1.207278,163.952016471036,3.373651745845865,4.737405506238619,-9999,1607223212.138213,-37.05812072753906,127.3222579956055,331.7314453125,10.42480087280273,9.689416885375977,13.84418869018555,34083.4270875,-0.1455841064453125,0.12445068359375,-0.1005859375,34082.912419,1.475279927253723,-3.375100374221802,1.250146389007568,34083.42144950001,-220.9654846191406,75.73445129394531,243.6424255371094,34082.464117,-1.132374230804869,-2.995924778068928,-1.321818685811021,-1.17509400844574,-1.75607693195343,-1.069282650947571,0.05879321694374084,-0.8116331100463867,-0.4360339641571045,2,-0.4600422293714502,-0.6405177871416592,0.4858585202043683,0.3768814908535632,-0.03576772287487984,0.9691648483276367,0.2438037842512131,-39.69999694824219,128.7621154785156,329.8228759765625,2,34019.569682875,4,2,1607223149.176615,1607223123.808484,171,0.7340317,0.6421419,1.989843,131.8389,0,0,1607223210.412418,34080.04233,0,-0.6843872,94.87823,0,1682321854,1,1,0.35,-120,-120,1
1607223214.041439,73,0,0,1607223212.999891,24.60596514100779,73.67844904451159,591.2531,1.208827,163.5892272001663,3.367220407066488,4.741978886817594,-9999,1607223213.139976,-53.52192687988281,92.77930450439453,353.5545654296875,4.68300199508667,3.947618007659912,13.85684585571289,34084.42887891667,0.0319366455078125,0.155426025390625,-0.1561431884765625,34083.9142095,1.889039278030396,-2.803582906723022,0.6140484809875488,34084.42275291667,-222.2406158447266,79.4302978515625,243.2096099853516,34083.4659075,-1.058142750240317,-3.004594821835073,-1.313455735598164,-0.7163441777229309,-2.326298952102661,-0.3872349560260773,0.04540890827775002,-0.8303973078727722,-0.5629159212112427,2,-0.4348817391090875,-0.6610146315185109,0.4984581105967715,0.3542273748521647,-0.03475829586386681,0.9670702219009399,0.2521249353885651,-58.2740478515625,95.13493347167969,352.5654602050781,2,34019.569682875,4,2,1607223149.176615,1607223123.808484,171,0.7340317,0.6421419,1.989843,131.8389,0,0,1607223210.412418,34081.107949,0,-0.6790771,94.87818,0,1682321854,1,1,0.35,-120,-120,1
1607223215.043183,74,0,0,1607223212.999891,24.60596514100779,73.67844904451159,591.2531,1.208827,163.5892272001663,3.367220407066488,4.741978886817594,-9999,1607223214.141693,-59.07261657714844,85.309326171875,357.0086059570312,8.026461601257324,7.291077613830566,13.86417007446289,34085.43066975,0.059112548828125,0.0710296630859375,-0.10296630859375,34084.91600091667,1.390649676322937,-3.022294521331787,0.5338258147239685,34085.42393375,-230.7866973876953,65.50376892089844,249.2395629882812,34084.46769891667,-1.218820161847432,-3.107401112062809,-1.325339118873995,-1.078692436218262,-1.928199410438538,-0.163315013051033,0.114645391702652,-0.8543189167976379,-0.6146384477615356,2,-0.4597983312592284,-0.6403237706579668,0.4966869628991794,0.3631433221496924,-0.008306928910315037,0.9700263142585754,0.2428580671548843,-62.49552917480469,87.23213195800781,355.82177734375,2,34019.569682875,4,2,1607223149.176615,1607223123.808484,171,0.7340317,0.6421419,1.989843,131.8389,0,0,1607223210.412418,34082.173545,0,-0.6738281,94.87813,0,1682321854,1,1,0.35,-120,-120,1
1607223216.044985,75,0,0,1607223214.999887,24.60593537711821,73.6784601713417,591.9531,1.258831,166.5055524801857,3.374785687257537,4.736597787217161,-9999,1607223215.143489,-66.62091064453125,72.43830108642578,362.38818359375,11.50106620788574,10.76568222045898,13.86982917785645,34086.43246079167,-0.04937744140625,0.1269683837890625,-0.1553497314453125,34085.91779175001,2.007382869720459,-2.296632528305054,0.774445652961731,34086.42514279167,-233.1941223144531,59.22567749023438,251.565185546875,34085.46948975,-1.293005278231104,-3.128366699738599,-1.285351494880171,-1.011679530143738,-1.712586760520935,-0.2882993817329407,0.01184177398681641,-0.7779721617698669,-0.6553239822387695,2,-0.4853699700292762,-0.6365500536768258,0.4751907443337942,0.3652585905357869,-0.003724116133525968,0.9595364928245544,0.281559944152832,-70.03768920898438,74.31681823730469,361.7539978027344,2,34019.569682875,4,2,1607223149.176615,1607223123.808484,176,0.7301664,0.6419314,1.98861,136.0217,0,0,1607223212.97693,34083.23918,0,-0.6738281,94.87813,0,1682321854,1,1,0.35,-120,-120,1
1607223217.046836,76,0,0,1607223214.999887,24.60593537711821,73.6784601713417,591.9531,1.258831,166.5055524801857,3.374785687257537,4.736597787217161,-9999,1607223216.145655,-68.54234313964844,72.76770782470703,363.5347290039062,11.82852458953857,11.09314060211182,13.87803363800049,34087.43425075,0.130035400390625,0.452484130859375,-0.171905517578125,34086.91958179167,1.919484496116638,-2.73468017578125,0.7121681571006775,34087.42643275,-233.0066986083984,58.65975952148438,249.5567932128906,34086.47127979167,-1.402417499752033,3.069912005457506,-1.300243367389185,-0.9451181292533875,-1.633321642875671,-0.5429341197013855,-0.09860906004905701,-0.8286593556404114,-0.5569982528686523,2,-0.4966378921236381,-0.6218035376856896,0.480578994021514,0.3684493530774515,0.01914125494658947,0.9636232852935791,0.2665776610374451,-70.9915771484375,73.95213317871094,361.6199951171875,2,34019.569682875,4,2,1607223149.176615,1607223123.808484,176,0.7301664,0.6419314,1.98861,136.0217,0,0,1607223212.97693,34084.304849,0,-0.6790771,94.87818,0,1682321854,1,1,0.35,-120,-120,1
1607223218.048609,77,0,0,1607223216.999882,24.60590906023674,73.67846786496409,592.6763,1.249921,166.1591936220128,3.379127727190506,4.73350111821273,-9999,1607223217.147427,-68.54296875,63.83723449707031,364.0921020507812,9.238949775695801,8.503565788269043,13.88737201690674,34088.43604179167,0.063446044921875,0.417938232421875,-0.167022705078125,34087.92137275,1.273032546043396,-1.433290600776672,1.199766039848328,34088.42774679167,-228.4105987548828,57.08587646484375,248.1867980957031,34087.47307075,-1.377429294423845,3.085844248552121,-1.327740793848813,-1.227976322174072,-1.638362646102905,-1.024330854415894,0.0640282928943634,-0.8896133899688721,-0.4131476581096649,2,-0.487110828207142,-0.6187657965208438,0.4894884724000866,0.3745037713028544,0.01341002155095339,0.9706071615219116,0.2402961403131485,-71.08918762207031,66.15671539306641,360.3388061523438,2,34019.569682875,4,2,1607223149.176615,1607223123.808484,176,0.7301664,0.6419314,1.98861,136.0217,0,0,1607223212.97693,34085.370507,0,-0.6923218,94.87832,0,1682321854,1,1,0.35,-120,-120,1
1607223219.050379,78,0,0,1607223216.999882,24.60590906023674,73.67846786496409,592.6763,1.249921,166.1591936220128,3.379127727190506,4.73350111821273,-9999,1607223218.148936,-60.7613525390625,79.88766479492188,357.9407958984375,9.62188720703125,8.886503219604492,13.89603328704834,34089.4378315,0.0589599609375,0.353790283203125,-0.21136474609375,34088.92316279167,1.367619276046753,-0.2349283546209335,1.044414281845093,34089.42903750001,-229.0510864257812,56.99362182617188,244.3267974853516,34088.47486079167,-1.37063117995459,3.079763379419185,-1.326218161188949,-1.432538390159607,-1.800243258476257,-1.150892019271851,0.02895253710448742,-0.8372440338134766,-0.481369286775589,2,-0.4838214470620225,-0.6218994185088471,0.4917759951669022,0.3705593753339056,0.01496222708374262,0.9702395796775818,0.241684153676033,-61.7076416015625,82.09261322021484,353.1381225585938,2,34019.569682875,4,2,1607223149.176615,1607223123.808484,181,0.7279965,0.6417687,1.992684,139.7298,0,0,1607223215.541761,34086.436182,0,-0.6923218,94.87832,0,1682321854,1,1,0.35,-120,-120,1
1607223220.05232,79,0,0,1607223218.999877,24.60588068293652,73.67847893748994,593.0692,1.256226,164.1041588447389,3.375375788421775,4.736177289726907,-9999,1607223219.150995,-65.72134399414062,71.68870544433594,358.7344970703125,14.31548595428467,13.58010196685791,13.90599250793457,34090.43962200001,-0.0428924560546875,0.29449462890625,-0.1516876220703125,34089.92495250001,1.594509124755859,-2.193974733352661,0.9835922122001648,34090.430418,-228.8533630371094,61.87837219238281,244.3570861816406,34089.4766515,-1.402570970316504,3.108973146389042,-1.310809878304408,-1.601308822631836,-1.928182363510132,-0.7347673177719116,-0.01190871093422174,-0.8704768419265747,-0.5257291793823242,2,-0.5038532657858105,-0.6120433634422348,0.4739315524930345,0.3833061778556063,0.008383916690945625,0.9663934707641602,0.2569303810596466,-66.48863220214844,73.35208892822266,355.576904296875,2,34019.569682875,4,2,1607223149.176615,1607223123.808484,181,0.7279965,0.6417687,1.992684,139.7298,0,0,1607223215.541761,34087.501887,0,-0.6790771,94.87819,0,1682321854,1,1,0.35,-120,-120,1
1607223221.054279,80,0,0,1607223218.999877,24.60588068293652,73.67847893748994,593.0692,1.256226,164.1041588447389,3.375375788421775,4.736177289726907,-9999,1607223220.152459,-67.22149658203125,73.66060638427734,359.7467651367188,15.38012218475342,14.64473819732666,13.91331672668457,34091.4414115,0.061920166015625,0.39605712890625,-0.18304443359375,34090.926743,1.935931086540222,-2.724652290344238,1.078889966011047,34091.4318175,-233.5287322998047,49.56797790527344,249.9636840820312,34090.478442,-1.398047586357965,3.127943518208289,-1.304056416185168,-1.441326379776001,-1.858879804611206,-0.5442067980766296,-0.1054500937461853,-0.7771810293197632,-0.5512228012084961,2,-0.508283913312826,-0.6110888221387851,0.4679671317636188,0.3862962850157931,0.003597646486014128,0.9646353125572205,0.2635641694068909,-68.28018188476562,75.16320037841797,356.0403137207031,2,34019.569682875,4,2,1607223149.176615,1607223123.808484,186,0.7257928,0.6416307,1.988975,143.7428,0,0,1607223218.106288,34088.567537,0,-0.6790771,94.87819,0,1682321854,1,1,0.35,-120,-120,1
1607223222.055711,81,0,0,1607223220.999874,24.60585108060039,73.67847979185808,593.3164,1.317199,176.1533557452389,3.381193515573731,4.73202572298915,-9999,1607223221.154242,-67.49874877929688,69.21978759765625,361.9928588867188,13.29170417785645,12.55632019042969,13.92192649841309,34092.44320154167,-0.19342041015625,0.29949951171875,-0.1675872802734375,34091.9285325,1.367104649543762,-0.9668582081794739,0.6288583278656006,34092.43316854167,-232.2680358886719,44.27023315429688,247.2054138183594,34091.48023150001,-1.394148278972463,3.109534521760265,-1.336597737874811,-1.443029046058655,-2.087292909622192,-1.089308023452759,-0.03844413161277771,-0.7564378380775452,-0.4351303577423096,2,-0.4961931686855462,-0.6080826608121355,0.4831169445472518,0.3881054617605992,0.007438251283019781,0.9727006554603577,0.2319443672895432,-69.05416870117188,69.52957153320312,358.0682678222656,2,34019.569682875,4,2,1607223149.176615,1607223123.808484,186,0.7257928,0.6416307,1.988975,143.7428,0,0,1607223218.106288,34089.633234,0,-0.6896362,94.8783,0,1682321854,1,1,0.35,-120,-120,1
1607223223.057541,82,0,0,1607223220.999874,24.60585108060039,73.67847979185808,593.3164,1.317199,176.1533557452389,3.381193515573731,4.73202572298915,-9999,1607223222.156026,-66.72895812988281,74.00247955322266,359.2443542480469,14.82908821105957,14.09370422363281,13.92782688140869,34093.444991375,-0.136871337890625,0.0662078857421875,-0.1423492431640625,34092.93032254167,1.307714343070984,-3.682309865951538,0.9023322463035583,34093.434610375,-222.2204284667969,60.91047668457031,241.4960021972656,34092.48202154167,-1.352006511666004,-3.107605526391519,-1.345470470412454,-1.522190451622009,-2.2095627784729,-0.9453755021095276,-0.01444161031395197,-0.8023579120635986,-0.4427020251750946,2,-0.4975464538118815,-0.603403268661901,0.4777033881874614,0.4001895500087252,-0.007592111360281706,0.974721372127533,0.2232959568500519,-67.75411987304688,75.20206451416016,354.5794372558594,2,34019.569682875,4,2,1607223149.176615,1607223123.808484,186,0.7257928,0.6416307,1.988975,143.7428,0,0,1607223218.106288,34090.698919,0,-0.6975708,94.87838,0,1682321854,1,1,0.35,-120,-120,1
1607223224.059306,83,0,0,1607223222.999869,24.60582366363379,73.67848919105528,592.7648,1.27174,160.3404188406599,3.384926356719372,4.729356255599207,-9999,1607223223.157884,-55.83181762695312,80.39487457275391,353.120361328125,5.945137500762939,5.209753513336182,13.93544578552246,34094.44678141667,-0.215576171875,0.107940673828125,-0.131378173828125,34093.93211237501,1.159406661987305,-2.086607456207275,0.2686090767383575,34094.43602541667,-230.968505859375,43.81651306152344,252.3539123535156,34093.483811375,-1.29868261523067,3.106884270907963,-1.299860649515254,-0.6988481879234314,-1.887465000152588,-0.2287486046552658,0.06918865442276001,-0.9102524518966675,-0.6654520034790039,2,-0.4729506485044618,-0.6403544233966544,0.4902571285713895,0.3548406786912264,0.009287257678806782,0.963520884513855,0.2674722075462341,-58.94349670410156,81.31744384765625,351.2545471191406,2,34019.569682875,4,2,1607223149.176615,1607223123.808484,191,0.7232232,0.6414546,1.976065,147.6057,0,0,1607223220.67109,34090.698919,0,-0.6975708,94.87838,0,1682321854,1,1,0.35,-120,-120,1
1607223225.061236,84,0,0,1607223222.999869,24.60582366363379,73.67848919105528,592.7648,1.27174,160.3404188406599,3.384926356719372,4.729356255599207,-9999,1607223224.159637,-65.22811889648438,62.69687652587891,362.5419921875,2.675120830535889,1.939736604690552,13.94207859039307,34095.44857079167,-0.2138824462890625,0.1209564208984375,-0.1583099365234375,34094.93390241667,1.618086576461792,-2.492815017700195,0.5068038105964661,34095.43737879167,-228.6485595703125,48.54769897460938,243.8420104980469,34094.48560041667,-1.301530087079466,3.064899054066758,-1.273477173558115,-0.7123732566833496,-1.797624707221985,-0.4805521965026855,0.1679836809635162,-0.8331089615821838,-0.6310403347015381,2,-0.4685892759257694,-0.6530486421204488,0.4913828742344516,0.335401894777001,0.02244598604738712,0.9561253190040588,0.292096883058548,-68.39468383789062,64.33818817138672,360.7846069335938,2,34019.569682875,4,2,1607223149.176615,1607223123.808484,191,0.7232232,0.6414546,1.976065,147.6057,0,0,1607223220.67109,34091.764541,0,-0.71875,94.87862,0,1682321854,1,1,0.35,-120,-120,1
1607223226.062965,85,0,0,1607223224.999866,24.60579603394921,73.67849689773372,593.255,1.262666,159.4389050550975,3.384338521073377,4.72977693000079,-9999,1607223225.16142,-59.70228576660156,72.86708831787109,352.8922729492188,7.326844692230225,6.591460704803467,13.94630432128906,34096.450361,-0.1041412353515625,0.2644500732421875,-0.188323974609375,34095.93569179167,1.659680604934692,-2.497824907302856,0.4890083074569702,34096.438747,-229.6682586669922,43.96922302246094,242.7117767333984,34095.48739079167,-1.256734834216762,-3.11329040968483,-1.272529923990356,-0.5718505382537842,-1.714185833930969,-0.2649886012077332,0.1343992650508881,-0.8357911109924316,-0.6730492115020752,2,-0.4795544755030522,-0.645678448773918,0.473958544751384,0.3584553454840274,-0.008315900340676308,0.9558473825454712,0.2937463223934174,-62.70671081542969,73.71720886230469,350.9064331054688,2,34019.569682875,4,2,1607223149.176615,1607223123.808484,196,0.7195525,0.6411953,1.97473,151.9228,0,0,1607223223.235736,34092.830141,0,-0.7398682,94.87888,0,1682321854,1,1,0.35,-120,-120,1
1607223227.064641,86,0,0,1607223224.999866,24.60579603394921,73.67849689773372,593.255,1.262666,159.4389050550975,3.384338521073377,4.72977693000079,-9999,1607223226.163474,-66.81988525390625,62.67166900634766,356.8060302734375,11.40753650665283,10.67215251922607,13.93930721282959,34097.452151,0.0831146240234375,-0.0833740234375,-0.1795806884765625,34096.937482,1.123015284538269,-3.277518510818481,0.74493408203125,34097.440166,-230.7679138183594,45.36239624023438,247.5298461914062,34096.489181,-1.383964438370157,3.078742256977079,-1.302745181323116,-1.058773756027222,-1.344234704971313,-0.6734746098518372,-0.1329529285430908,-0.6928044557571411,-0.5543692111968994,2,-0.4925043066629265,-0.6241831082569036,0.4825367424603846,0.3674143699639267,0.01663516089320183,0.9642888903617859,0.2643300890922546,-66.47630310058594,62.83631134033203,353.1707153320312,2,34019.569682875,4,2,1607223149.176615,1607223123.808484,196,0.7195525,0.6411953,1.97473,151.9228,0,0,1607223223.235736,34093.895809,0,-0.7424927,94.87891,0,1682321854,1,1,0.35,-120,-120,1
1607223228.066395,87,0,0,1607223226.999861,24.60576426752795,73.67849729274792,593.5779,1.599849,167.0235100510363,3.368097067852513,4.741356258952932,-9999,1607223227.165021,-66.74394226074219,51.73178100585938,361.642578125,3.33014965057373,2.594765424728394,13.94684410095215,34098.4539395,-0.0542755126953125,0.208404541015625,-0.16986083984375,34097.939271,1.127918481826782,-2.85185694694519,0.5273714065551758,34098.4415875,-229.6349334716797,40.79899597167969,245.75244140625,34097.49097,-1.278714921169831,3.076283917747136,-1.296085886429353,-0.8444936871528625,-1.818724513053894,-0.109625868499279,0.160427451133728,-0.9655401706695557,-0.6792446374893188,2,-0.4596444611315601,-0.6512083097296648,0.4996714772769468,0.3390918159538798,0.01770363748073578,0.9625037908554077,0.2706905901432037,-70.25759887695312,53.30194091796875,360.7339477539062,2,34019.569682875,4,2,1607223149.176615,1607223123.808484,196,0.7195525,0.6411953,1.97473,151.9228,0,0,1607223223.235736,34094.961422,0,-0.7478027,94.87896,0,1682321854,1,1,0.35,-120,-120,1
1607223229.068598,88,0,0,1607223226.999861,24.60576426752795,73.67849729274792,593.5779,1.599849,167.0235100510363,3.368097067852513,4.741356258952932,-9999,1607223228.167028,-66.64479064941406,51.92355346679688,360.5155029296875,5.90454626083374,5.169162273406982,13.95151996612549,34099.455729,-0.2369384765625,0.318115234375,-0.19403076171875,34098.9410605,0.9408577680587769,-2.847409248352051,0.6082199215888977,34099.44301700001,-223.852294921875,35.77671813964844,243.5334777832031,34098.4927595,-1.288293529656754,3.11520615743426,-1.272389618388336,-1.12211549282074,-1.681586742401123,-0.1331632435321808,0.07625818252563477,-0.8102371692657471,-0.6507227420806885,2,-0.4767230535368129,-0.6478295458194777,0.4814121450339044,0.3482735953163167,0.007756685372442007,0.9558061361312866,0.2938959896564484,-69.06585693359375,54.05088806152344,357.950927734375,2,34019.569682875,4,2,1607223149.176615,1607223123.808484,201,0.7172374,0.6409436,1.983063,155.7933,0,0,1607223225.799917,34096.027001,0,-0.7478027,94.87896,0,1682321854,1,1,0.35,-120,-120,1
1607223230.070221,89,0,0,1607223228.999857,24.60573898075591,73.67850633536925,593.0851,1.660559,163.3148741218279,3.371212998817857,4.739141267085246,-9999,1607223229.168576,-54.31541442871094,75.85578155517578,348.259521484375,6.107483386993408,5.37209939956665,13.95724582672119,34100.45751779167,-0.3867645263671875,0.229248046875,-0.189453125,34099.94285,1.069607496261597,-2.569408178329468,0.4362713098526001,34100.44449079167,-222.5790710449219,33.05891418457031,238.0322418212891,34099.494549,-1.201153319044483,-3.111067072276217,-1.290463610849349,-0.9193015098571777,-1.574000716209412,-0.7121049761772156,0.1338105499744415,-0.8739120960235596,-0.5261192321777344,2,-0.459026860436373,-0.6538865221622892,0.4891986753155121,0.3498734213341121,-0.008444365113973618,0.9609634280204773,0.2765464782714844,-55.66317749023438,75.17649078369141,345.4511108398438,2,34019.569682875,4,2,1607223149.176615,1607223123.808484,201,0.7172374,0.6409436,1.983063,155.7933,0,0,1607223225.799917,34097.092678,0,-0.7478027,94.87896,0,1682321854,1,1,0.35,-120,-120,1
1607223231.071783,90,0,0,1607223228.999857,24.60573898075591,73.67850633536925,593.0851,1.660559,163.3148741218279,3.371212998817857,4.739141267085246,-9999,1607223230.171154,-46.62727355957031,89.73055267333984,336.4733276367188,4.916034698486328,4.18065071105957,13.96077632904053,34101.4593075,-0.3356781005859375,0.384063720703125,-0.149322509765625,34100.94463879167,1.400533199310303,-3.1423499584198,0.4519413709640503,34101.4459985,-233.3034210205078,-4.920745849609375,215.2485809326172,34100.49633779167,-1.164418201066368,-3.08857125413028,-1.302966906493395,-0.8666085004806519,-1.888037204742432,-0.4349039196968079,0.1757985949516296,-0.8971632122993469,-0.5704649686813354,2,-0.4505204045160628,-0.6551067242467453,0.494699386225918,0.3509117405410676,-0.01402494683861732,0.9643476009368896,0.2642669081687927,-48.62753295898438,90.24542999267578,334.4721069335938,2,34019.569682875,4,2,1607223149.176615,1607223123.808484,207,0.7149373,0.6407081,1.985622,160.4982,0,0,1607223228.364826,34098.1584,0,-0.7266235,94.87871,0,1682321854,1,1,0.35,-120,-120,1
1607223232.073582,91,0,0,1607223230.999853,24.60571378194864,73.67850484285847,593.8862,1.28959,168.1168905371702,3.375648339857268,4.73598303611908,-9999,1607223231.172092,-65.42532348632812,28.30997276306152,326.1783447265625,1.71572744846344,0.9803433418273926,13.95959758758545,34102.461097125,0.0992889404296875,-0.060394287109375,-0.4663238525390625,34101.9464275,1.70591127872467,-1.819039106369019,0.7579313516616821,34102.447478125,-225.2706756591797,21.97808837890625,216.2680511474609,34101.4981265,-1.218812725466871,3.128768209630611,-1.25527468637569,-0.702439546585083,-2.268306255340576,0.2672500014305115,0.222430408000946,-0.8475157022476196,-0.7268216609954834,2,-0.4601976829405318,-0.6658541186858722,0.4844856311938358,0.331858614396643,0.003979479428380728,0.9506346583366394,0.3102872371673584,-71.61468505859375,28.43434143066406,326.2743530273438,2,34019.569682875,4,2,1607223149.176615,1607223123.808484,207,0.7149373,0.6407081,1.985622,160.4982,0,0,1607223228.364826,34099.224135,0,-0.723999,94.87868,0,1682321854,1,1,0.35,-120,-120,1
1607223233.075363,92,0,0,1607223230.999853,24.60571378194864,73.67850484285847,593.8862,1.28959,168.1168905371702,3.375648339857268,4.73598303611908,-9999,1607223232.173942,-58.39411926269531,28.70194435119629,322.7399291992188,356.37255859375,355.6371765136719,13.97483825683594,34103.46288454167,0.2802276611328125,-0.0223388671875,-0.3963623046875,34102.94821712501,1.878224730491638,1.538219451904297,0.05710776150226593,34103.44897854167,-231.662841796875,3.913619995117188,219.4187316894531,34102.499916125,-1.168712282482461,3.041165537044086,-1.228380063164457,0.6461405754089355,-1.728572607040405,0.4747425615787506,0.3943305909633636,-1.215826272964478,-0.9558219909667969,2,-0.4261466367602029,-0.6967317651057114,0.5026933447398529,0.2833077371983381,0.03366315737366676,0.9419461488723755,0.3340722024440765,-63.78005981445312,28.31006050109863,327.1311950683594,2,34019.569682875,4,2,1607223149.176615,1607223123.808484,207,0.7149373,0.6407081,1.985622,160.4982,0,0,1607223228.364826,34100.289873,0,-0.7108154,94.87856,0,1682321854,1,1,0.35,-120,-120,1
1607223234.077144,93,0,0,1607223232.999849,24.60568566435756,73.67852109810774,592.975,1.671589,156.5991309552791,3.368113854093841,4.741344334537407,-9999,1607223233.176389,-64.12449645996094,8.506536483764648,326.3056335449219,357.3140563964844,356.5786743164062,13.98091983795166,34104.464673625,0.39166259765625,-0.0587005615234375,-0.3685302734375,34103.95000554167,2.487414360046387,2.261919260025024,0.2099519073963165,34104.450417625,-243.8778228759766,-43.96492004394531,230.7099761962891,34103.50170454167,-1.394791265195265,2.846784962384313,-1.292679492715313,0.6267457008361816,-1.782899856567383,0.8480872511863708,0.4326343536376953,-1.025141954421997,-0.516852080821991,2,-0.4393204732987855,-0.6620788965716761,0.5319410848682442,0.2927250606922054,0.07977104932069778,0.9615741372108459,0.2627018988132477,-68.23825073242188,8.902976989746094,328.9998474121094,2,34019.569682875,4,2,1607223149.176615,1607223123.808484,212,0.7124431,0.6404436,1.984744,164.688,0,0,1607223230.92955,34101.355558,0,-0.7028809,94.87846,0,1682321854,1,1,0.35,-120,-120,1
1607223235.091889,94,0,0,1607223234.999845,24.60565411379841,73.67853448092877,593.3737,1.815829,158.9840727164166,3.363592019214006,4.744553273077317,-9999,1607223234.178214,-76.28623962402344,-38.13858032226562,332.9367980957031,3.509229183197021,2.773844957351685,13.98672294616699,34105.46646279167,0.43157958984375,-0.0507965087890625,-0.3089141845703125,34104.95179462501,1.809900999069214,1.808468580245972,0.2005730420351028,34105.45185679167,-241.9409027099609,-39.37359619140625,230.3751525878906,34104.503493625,-1.536397167910784,2.751305740355948,-1.267490159295572,1.470890998840332,-1.15387487411499,0.8980240225791931,0.3224632143974304,-0.9844139814376831,-0.3588278293609619,2,-0.4667079688059377,-0.6482993831097366,0.5263530759213407,0.2912800934155542,0.1136329397559166,0.9543542265892029,0.2762168347835541,-79.66252136230469,-37.05946350097656,338.8470458984375,2,34019.569682875,4,2,1607223149.176615,1607223123.808484,212,0.7124431,0.6404436,1.984744,164.688,0,0,1607223230.92955,34102.421253,0,-0.6817017,94.87822,0,1682321854,1,1,0.35,-120,-120,1
1607223236.080706,95,0,0,1607223234.999845,24.60565411379841,73.67853448092877,593.3737,1.815829,158.9840727164166,3.363592019214006,4.744553273077317,-9999,1607223235.179989,-74.80760192871094,-34.95359039306641,331.4928588867188,3.491997241973877,2.75661301612854,13.98950386047363,34106.468251125,0.446563720703125,-0.208831787109375,-0.4346771240234375,34105.95358279167,2.021068096160889,1.740112900733948,0.06367111951112747,34106.453301125,-234.5960845947266,-22.73373413085938,224.7864532470703,34105.50528179167,-1.481979089213158,2.80276946137603,-1.277019906452273,1.566907644271851,-1.089480400085449,0.9894796013832092,0.3887085020542145,-1.008380889892578,-0.2803388833999634,2,-0.4601303752565728,-0.651792269807538,0.5248214646486593,0.2966637682149965,0.09624629467725754,0.9571571946144104,0.2731062471866608,-78.41975402832031,-33.32267761230469,338.3332824707031,2,34019.569682875,4,2,1607223149.176615,1607223123.808484,217,0.7090575,0.6400774,1.990236,168.8369,0,0,1607223233.493751,34103.486912,0,-0.6817017,94.87822,0,1682321854,1,1,0.35,-120,-120,1
1607223237.082485,96,0,0,1607223234.999845,24.60565411379841,73.67853448092877,593.3737,1.815829,158.9840727164166,3.363592019214006,4.744553273077317,-9999,1607223236.181806,-66.35792541503906,-20.17595100402832,328.4705200195312,356.3023376464844,355.5669555664062,13.9923267364502,34107.470039375,0.3648223876953125,-0.01708984375,-0.32952880859375,34106.955372125,1.807577729225159,1.794702649116516,0.2048785835504532,34107.454780375,-234.3278503417969,-26.916259765625,223.3164978027344,34106.507071125,-1.430027225869309,2.774294645146921,-1.284395013744582,1.675812244415283,-1.719080090522766,1.105909466743469,0.5879775285720825,-1.030433654785156,-0.4438200294971466,2,-0.4335942795806383,-0.6662024830300426,0.5405347576388381,0.275667296363525,0.1014450863003731,0.959266722202301,0.2636595070362091,-70.66915893554688,-14.82864189147949,333.9571533203125,2,34019.569682875,4,2,1607223149.176615,1607223123.808484,217,0.7090575,0.6400774,1.990236,168.8369,0,0,1607223233.493751,34104.552506,0,-0.7028809,94.87846,0,1682321854,1,1,0.35,-120,-120,1
1607223238.089565,97,0,0,1607223236.99984,24.60562559970141,73.67854053069892,592.695,1.711043,164.7516858229964,3.363443290532542,4.744658708923168,-9999,1607223237.183503,-67.71000671386719,-20.91072082519531,328.0162353515625,1.790534138679504,1.055150032043457,13.99568653106689,34108.47182766667,0.3995361328125,0.1100616455078125,-0.365234375,34107.957159375,2.201662302017212,2.098885774612427,0.1704244613647461,34108.45639766667,-241.5799713134766,-33.13313293457031,225.8968963623047,34107.508858375,-1.390502661605449,2.853990950401,-1.296663615390683,1.877158641815186,-1.269106864929199,0.7339833974838257,0.3914428949356079,-1.008208036422729,-0.2932688593864441,2,-0.4388794268881622,-0.6611967753042706,0.5320836764737951,0.295111034118138,0.07678823173046112,0.9626603722572327,0.2595926523208618,-70.43583679199219,-19.61904525756836,332.4393615722656,2,34019.569682875,4,2,1607223149.176615,1607223123.808484,217,0.7090575,0.6400774,1.990236,168.8369,0,0,1607223233.493751,34105.618107,0,-0.7345581,94.87883,0,1682321854,1,1,0.35,-120,-120,1
1607223239.088258,98,0,0,1607223238.999837,24.60560072481395,73.67855328809151,591.8177,1.574959,160.0346524205028,3.371524403888474,4.738919732045829,-9999,1607223238.185387,-75.10536193847656,-26.44037437438965,330.1524963378906,7.140666961669922,6.405282974243164,14.00133991241455,34109.47361537501,0.3769378662109375,-0.0135955810546875,-0.313201904296875,34108.95894766667,1.651643991470337,1.442213296890259,0.07596347481012344,34109.457997375,-242.7272644042969,-48.52281188964844,223.3073577880859,34108.51064766667,-1.535264192133364,2.833520931006648,-1.259206404084998,1.294478893280029,-1.006179213523865,0.6733608245849609,0.3790405690670013,-0.9404184818267822,-0.4260351657867432,2,-0.4896318050606919,-0.6374404999420492,0.5047922838261553,0.3148256016374167,0.09295953810214996,0.9518473744392395,0.2921393811702728,-77.006591796875,-26.32417106628418,333.8596496582031,2,34019.569682875,4,2,1607223149.176615,1607223123.808484,222,0.706239,0.6396677,1.990177,173.1137,0,0,1607223236.058631,34106.683761,0,-0.7372437,94.87885,0,1682321854,1,1,0.35,-120,-120,1
1607223240.089403,99,0,0,1607223238.999837,24.60560072481395,73.67855328809151,591.8177,1.574959,160.0346524205028,3.371524403888474,4.738919732045829,-9999,1607223239.187035,-75.86503601074219,-42.697265625,331.9983520507812,0.832269549369812,0.09688544273376465,14.00537872314453,34110.47540512501,0.0860595703125,-0.0189056396484375,-0.2839202880859375,34109.960736375,1.470173597335815,0.1031152009963989,0.1015255600214005,34110.459553125,-234.5282440185547,-27.32261657714844,215.3720092773438,34109.512435375,-1.519696007231897,2.837422384708357,-1.247439693850637,0.9558154940605164,-1.667179584503174,0.8530963063240051,0.4375172853469849,-1.060723066329956,-0.825717568397522,2,-0.4885162003965845,-0.6425997953434595,0.5032264505954178,0.3085135759125944,0.09516702592372894,0.9481741786003113,0.3031651377677917,-79.95079040527344,-40.13568115234375,335.9852294921875,2,34019.569682875,4,2,1607223149.176615,1607223123.808484,222,0.706239,0.6396677,1.990177,173.1137,0,0,1607223236.058631,34106.683761,0,-0.7372437,94.87885,0,1682321854,1,1,0.35,-120,-120,1
1607223241.094471,100,0,0,1607223240.999832,24.60556956145819,73.67855761818271,592.0853,1.549138,166.6879296434391,3.368408551258923,4.741134976415943,-9999,1607223240.1885,-65.9193115234375,-21.71665191650391,324.5225830078125,358.8935852050781,358.158203125,14.00756454467773,34111.47719275,-0.0343780517578125,0.0996246337890625,-0.2291259765625,34110.962525125,1.300574421882629,-1.34246039390564,0.4049365818500519,34111.46106875,-238.6878662109375,-44.49969482421875,219.6364593505859,34110.514224125,-1.429223353816726,2.907228726052012,-1.275189713179423,-0.61954265832901,-1.550258994102478,0.2808184921741486,0.3781338036060333,-0.9996858835220337,-0.6759498119354248,2,-0.4703930020591922,-0.6483892804379594,0.508111887518593,0.316455597739053,0.06765171885490417,0.9566255807876587,0.2833564579486847,-73.75953674316406,-21.03665924072266,329.1883544921875,2,34019.569682875,4,2,1607223149.176615,1607223123.808484,222,0.706239,0.6396677,1.990177,173.1137,0,0,1607223236.058631,34107.749404,0,-0.78479,94.87939,0,1682321854,1,1,0.35,-120,-120,1
1607223242.091447,101,0,0,1607223240.999832,24.60556956145819,73.67855761818271,592.0853,1.549138,166.6879296434391,3.368408551258923,4.741134976415943,-9999,1607223241.190272,-71.52613830566406,-35.22737884521484,329.7254333496094,359.7247619628906,358.9893798828125,14.01186943054199,34112.478981,-0.159027099609375,0.15228271484375,-0.108642578125,34111.96431275,0.7539435625076294,-2.169443607330322,0.5189574360847473,34112.462497,-240.2354431152344,-59.10389709472656,214.0644683837891,34111.51601175001,-1.381441070167672,2.938949219147596,-1.27686788006199,-0.4725543558597565,-1.560942769050598,-0.1351854801177979,0.3001210987567902,-0.9356439709663391,-0.6195257902145386,2,-0.4625190026968216,-0.6541937788009431,0.5087340106214699,0.3151134168102632,0.05830781906843185,0.9571131467819214,0.2837866544723511,-78.44636535644531,-35.10779571533203,332.6978149414062,2,34019.569682875,4,2,1607223149.176615,1607223123.808484,227,0.7052302,0.6393141,1.995639,176.8274,0,0,1607223238.622783,34108.815097,0,-0.7979736,94.87953,0,1682321854,1,1,0.35,-120,-120,1
1607223243.093446,102,0,0,1607223242.999827,24.60553717162405,73.6785666734245,592.2847,1.703365,169.2123539556018,3.36643785728046,4.742534468599863,-9999,1607223242.19214,-74.24305725097656,-30.60898399353027,328.5137329101562,5.365154266357422,4.629770278930664,14.01550388336182,34113.480768875,0.0460052490234375,0.2021636962890625,-0.152099609375,34112.96610100001,1.055226445198059,-2.767519235610962,0.2316713035106659,34113.463881875,-237.8963623046875,-45.60502624511719,212.4176025390625,34112.5178,-1.440599147427168,2.992401114059112,-1.274594415452172,-1.033770084381104,-1.631061434745789,0.04562484845519066,0.2156928777694702,-0.888565719127655,-0.6366084814071655,2,-0.4953285015718935,-0.6316432701537975,0.4854912105604307,0.3463736641039284,0.04338607937097549,0.9564520120620728,0.2886470854282379,-79.48573303222656,-28.45041847229004,328.5994567871094,2,34019.569682875,4,2,1607223149.176615,1607223123.808484,227,0.7052302,0.6393141,1.995639,176.8274,0,0,1607223238.622783,34109.880791,0,-0.7979736,94.87954,0,1682321854,1,1,0.35,-120,-120,1
1607223244.096452,103,0,0,1607223242.999827,24.60553717162405,73.6785666734245,592.2847,1.703365,169.2123539556018,3.36643785728046,4.742534468599863,-9999,1607223243.193862,-71.12049865722656,-36.18421173095703,329.2828369140625,358.3862915039062,357.6509094238281,14.02525043487549,34114.48255575,0.093292236328125,0.2369232177734375,-0.1605987548828125,34113.96788875,1.059799909591675,-3.642638683319092,0.4384340643882751,34114.46535575,-238.2939300537109,-67.90968322753906,209.5011749267578,34113.519587875,-1.437702710734326,2.919508108418747,-1.310437565401773,-1.363171815872192,-2.707256078720093,-0.2472521513700485,0.1160428524017334,-1.023197650909424,-0.5771703720092773,2,-0.4681197233238409,-0.6375080961155161,0.5135985551552624,0.3326619192914982,0.0567018948495388,0.9662976861000061,0.2511053085327148,-76.59565734863281,-33.00038909912109,328.239013671875,2,34019.569682875,4,2,1607223149.176615,1607223123.808484,232,0.7030328,0.6389484,1.989401,181.085,0,0,1607223241.187311,34110.946473,0,-0.8085327,94.87964,0,1682321854,1,1,0.35,-120,-120,1
1607223245.096797,104,0,0,1607223244.999824,24.60550657150112,73.67857611612706,592.1423,1.821698,170.0758585717613,3.365975049240507,4.742862954026735,-9999,1607223244.195361,-72.84300231933594,-61.71619415283203,327.3265686035156,359.0660095214844,358.3306274414062,14.02259159088135,34115.48434354167,-0.0606231689453125,0.0684967041015625,-0.1003570556640625,34114.96967554167,0.9061312079429626,-3.128165006637573,0.8834855556488037,34115.46696554167,-236.5641632080078,-78.73005676269531,210.70947265625,34114.52137575,-1.386726264289668,2.989712203864596,-1.289707289500708,-1.249404430389404,-2.291866779327393,-0.2989941537380219,0.1087865829467773,-1.08775269985199,-0.5873042345046997,2,-0.4742377788698179,-0.6420304759535361,0.499711629303068,0.3364279805102665,0.04197023436427116,0.9607539176940918,0.274209201335907,-78.66976928710938,-58.99617004394531,325.1656494140625,2,34019.569682875,4,2,1607223149.176615,1607223123.808484,232,0.7030328,0.6389484,1.989401,181.085,0,0,1607223241.187311,34112.012218,0,-0.8085327,94.87964,0,1682321854,1,1,0.35,-120,-120,1
1607223246.098664,105,0,0,1607223244.999824,24.60550657150112,73.67857611612706,592.1423,1.821698,170.0758585717613,3.365975049240507,4.742862954026735,-9999,1607223245.197162,-74.09951782226562,-69.55343627929688,328.26953125,359.7681884765625,359.0328063964844,14.02243518829346,34116.48613154167,-0.1247406005859375,0.09136962890625,-0.145782470703125,34115.97146354167,1.400778770446777,-2.450098037719727,0.3086473047733307,34116.46850054167,-233.3917694091797,-82.74684143066406,207.3623504638672,34115.52316354167,-1.328040463281137,3.015811216462253,-1.272305828101533,-0.9998937845230103,-1.645950317382812,-0.08773230016231537,0.1898839771747589,-0.9993909597396851,-0.598960280418396,2,-0.4653486990781551,-0.6552313624703896,0.4981019353239013,0.3256025748217219,0.03689213842153549,0.9557814598083496,0.2917551100254059,-79.27783203125,-67.22101593017578,327.7236938476562,2,34019.569682875,4,2,1607223149.176615,1607223123.808484,232,0.7030328,0.6389484,1.989401,181.085,0,0,1607223241.187311,34113.07803,0,-0.7927246,94.87949,0,1682321854,1,1,0.35,-120,-120,1
1607223247.100333,106,0,0,1607223246.999819,24.60547616636901,73.67858825990476,591.6847,1.833187,164.775446207173,3.367482433401304,4.741792814276311,-9999,1607223246.198936,-75.27108764648438,-74.62009429931641,326.940185546875,1.486273765563965,0.7508897185325623,14.0242338180542,34117.4879195,-0.1482696533203125,0.065093994140625,-0.125732421875,34116.9732515,1.554567813873291,-2.542029857635498,0.5722400546073914,34117.4699735,-233.6888275146484,-89.84100341796875,203.0851135253906,34116.52495054167,-1.547331787396606,2.825609224144031,-1.276641158191197,-0.7997406125068665,-1.696520686149597,-0.4738699495792389,0.1368625164031982,-0.8121346235275269,-0.6779975891113281,2,-0.4871221564178829,-0.6328513202540937,0.5092256477753276,0.3207811181139442,0.09009668231010437,0.9570474028587341,0.275577574968338,-77.09794616699219,-72.91014862060547,324.2087707519531,2,34019.569682875,4,2,1607223149.176615,1607223123.808484,237,0.7021843,0.6386445,1.997207,184.8135,0,0,1607223243.751908,34114.143771,0,-0.7927246,94.87947,0,1682321854,1,1,0.35,-120,-120,1
1607223248.102281,107,0,0,1607223246.999819,24.60547616636901,73.67858825990476,591.6847,1.833187,164.775446207173,3.367482433401304,4.741792814276311,-9999,1607223247.200674,-74.28219604492188,-69.00521850585938,325.9001770019531,3.283814430236816,2.548430204391479,14.0195894241333,34118.48970666667,-0.23370361328125,0.187408447265625,-0.170196533203125,34117.97503966667,1.508798956871033,-3.203070878982544,0.6086036562919617,34118.47151866667,-231.4734802246094,-90.23513793945312,198.7583312988281,34117.5267385,-1.5246781582562,2.892570404041963,-1.25889625026665,-0.8786884546279907,-1.500365257263184,-0.4096457362174988,0.03051052242517471,-0.8460696935653687,-0.6825340986251831,2,-0.5010635693403266,-0.630584212114508,0.4917943827319579,0.3308129845693067,0.07562960684299469,0.951752245426178,0.2974022924900055,-76.08035278320312,-67.32550811767578,321.9468383789062,2,34019.569682875,4,2,1607223149.176615,1607223123.808484,237,0.7021843,0.6386445,1.997207,184.8135,0,0,1607223243.751908,34115.209509,0,-0.7927246,94.87947,0,1682321854,1,1,0.35,-120,-120,1
1607223249.103903,108,0,0,1607223248.999816,24.60545176232141,73.67859702377781,591.4623,1.613245,167.0742672029776,3.368178799690884,4.741298198394793,-9999,1607223248.202508,-72.39793395996094,-73.04106140136719,321.16845703125,3.797804355621338,3.062420129776001,14.01773357391357,34119.491494375,-0.102447509765625,0.10247802734375,-0.0939788818359375,34118.976826375,1.535197615623474,-3.19180703163147,0.4936251640319824,34119.472918375,-232.9955291748047,-89.54280090332031,198.831787109375,34118.52852666667,-1.543994154680463,2.880372451800838,-1.278444690587337,-1.020452857017517,-1.632891178131104,-0.2534147202968597,0.01562565565109253,-0.778293251991272,-0.6965796947479248,2,-0.4994000817683495,-0.6243504602936348,0.4967270481465971,0.3377104458965865,0.07443170994520187,0.9575687646865845,0.2784278690814972,-72.98883056640625,-70.45588684082031,316.4188232421875,2,34019.569682875,4,2,1607223149.176615,1607223123.808484,243,0.7006835,0.6383659,1.994103,189.5271,0,0,1607223246.316597,34116.275211,0,-0.7927246,94.87948,0,1682321854,1,1,0.35,-120,-120,1
1607223250.106549,109,0,0,1607223248.999816,24.60545176232141,73.67859702377781,591.4623,1.613245,167.0742672029776,3.368178799690884,4.741298198394793,-9999,1607223249.204278,-73.97657775878906,-76.29533386230469,321.4035034179688,5.55947732925415,4.824093341827393,14.00864887237549,34120.49328166667,-0.2348175048828125,0.1861572265625,-0.1116485595703125,34119.97861466667,1.028625249862671,-3.312066078186035,1.022641897201538,34120.47437966667,-233.6891784667969,-101.2473297119141,197.6827239990234,34119.530313375,-1.566017967170726,2.876090783620429,-1.285026254548179,-1.025109171867371,-1.782203435897827,-0.3577807545661926,0.1535865068435669,-0.8394039869308472,-0.6213536262512207,2,-0.5035652364858232,-0.6184104811812998,0.4957303239975986,0.3438632922730014,0.07396778464317322,0.9594448804855347,0.2720189392566681,-76.04861450195312,-73.19099426269531,318.0513916015625,2,34019.569682875,4,2,1607223149.176615,1607223123.808484,243,0.7006835,0.6383659,1.994103,189.5271,0,0,1607223246.316597,34117.34098,0,-0.7979736,94.87952,0,1682321854,1,1,0.35,-120,-120,1
1607223251.107574,110,0,0,1607223250.999811,24.60542204150041,73.67860043207106,591.5639,1.536121,170.1648854555146,3.368837090337142,4.74083048542738,-9999,1607223250.206075,-74.08598327636719,-90.26221466064453,319.71337890625,4.156835079193115,3.421450853347778,14.00676155090332,34121.495069625,-0.1937103271484375,0.342041015625,-0.1156768798828125,34120.98040162501,0.7186723947525024,-2.839088439941406,0.5567226409912109,34121.475900625,-230.9143371582031,-107.9079437255859,189.6966247558594,34120.53210166667,-1.561367544339753,2.881966324575368,-1.281183472924883,-0.6680645346641541,-1.573969006538391,-0.3353801369667053,0.05879639834165573,-0.8010517358779907,-0.5879149436950684,2,-0.5045264430355936,-0.6192399101986727,0.4940716016611805,0.3433485056027267,0.07331418246030807,0.9583545327186584,0.2760100066661835,-75.22100830078125,-88.54059600830078,314.5516357421875,2,34019.569682875,4,2,1607223149.176615,1607223123.808484,243,0.7006835,0.6383659,1.994103,189.5271,0,0,1607223246.316597,34118.406708,0,-0.8006592,94.87957,0,1682321854,1,1,0.35,-120,-120,1
