Time;AccX;AccY;AccZ;Acc-old;Acc-trns
52:16.3;-0.18952419349321734;-0.3275039483523241;-0.7734929440618105;0.8640000000000001;0.0480106464558751
52:16.3;-0.17926287240990013;-0.3387345606214743;-0.7856365490324821;0.8909999999999999;0.047705839170312105
52:16.3;-0.16932700862417469;-0.3497424876837311;-0.7971682230496765;0.935;0.04720897914678758
52:16.3;-0.1600610705999373;-0.36037137956979465;-0.8074913266787198;0.9540000000000001;0.04657725348865643
52:16.3;-0.1517723144252811;-0.37050503297484216;-0.816209287485908;0.9520000000000001;0.045897412329372236
52:16.3;-0.14470859300703393;-0.38007050140196996;-0.8231662276909585;0.9570000000000001;0.045273704188103496
52:16.3;-0.13904304970238435;-0.3890365249019813;-0.8284389112130599;0.9329999999999999;0.0448126009380756
52:16.4;-0.13486659988612687;-0.3974099636198655;-0.8322825733528467;0.907;0.04460812419855985
52:16.4;-0.13218938667974528;-0.4052315082656972;-0.835045287251519;0.907;0.04473112520768773
52:16.4;-0.1309509075332839;-0.412568095964629;-0.8370748099082164;0.915;0.04522394312491762
52:16.4;-0.13103425438478922;-0.41949857051997724;-0.8386417228030495;0.9390000000000001;0.04609903051114373
52:16.4;-0.13227636781360405;-0.42609180755530357;-0.8398919474447454;0.9359999999999999;0.04733788634838902
52:16.4;-0.13446789985385743;-0.4323802733750379;-0.8408286406979605;0.9179999999999999;0.048886842751456536
52:16.4;-0.13734420894166083;-0.43833571946989275;-0.8413175353153328;0.9179999999999999;0.05064973242962121
52:16.4;-0.14057685364980532;-0.4438558725060125;-0.8411125720334655;0.9440000000000001;0.0524819439970424
52:16.4;-0.14377422750173735;-0.44877105402648976;-0.8399019149693485;0.946;0.054191909144889444
52:16.4;-0.14649086642376075;-0.4528782649916547;-0.8373724090782045;0.922;0.05555340368737715
52:16.5;-0.1482369863519374;-0.45600323328470427;-0.8332891596078117;1.053;0.056327468232825285
52:16.5;-0.14848325246611577;-0.45807458371293397;-0.8275864360061103;1.053;0.0562894534274222
52:16.5;-0.14666964270947047;-0.45917810608573245;-0.82045472844809;1.112;0.05525556560192309
52:16.5;-0.14223443585003775;-0.4595603572811824;-0.8123896305201063;1.0190000000000001;0.05310209854244187
52:16.5;-0.13466746370658186;-0.45957447335311796;-0.8041653357614486;0.8390000000000001;0.04976957446886724
52:16.5;-0.12357360302351383;-0.4595918050690196;-0.796726102656407;0.7759999999999999;0.04524879640657326
52:16.5;-0.10872670175543339;-0.4599194008877996;-0.7910390325626373;0.8370000000000001;0.03955631779327886
52:16.5;-0.09009989613818895;-0.460756784534573;-0.7879761398351663;0.955;0.032712150549860465
52:16.5;-0.0678660434916972;-0.46220374584181717;-0.788261184431075;1.071;0.02472612915708981
52:16.5;-0.04237034688239874;-0.46430766244059124;-0.7924527607192017;1.006;0.015589825466280233
52:16.6;-0.014086551290106986;-0.4671245566090112;-0.8009013734024636;0.836;0.005270070414283261
52:16.6;0.016425622562438607;-0.4707659866639039;-0.8136515726882554;0.836;0.006291662013974022
52:16.6;0.048544212752383506;-0.4754099072498006;-0.8303320704045105;0.852;0.01916273538968184
52:16.6;0.08158074058574806;-0.48126433388182305;-0.8501140243554286;0.982;0.03337709247217681
52:16.6;0.11475630547393532;-0.4884899077600932;-0.8717820509164151;1.046;0.0488697454136168
52:16.6;0.14718533312427196;-0.49710611807079697;-0.893893064776547;1.03;0.0654032321496317
52:16.6;0.17789666732431414;-0.5069111327372069;-0.9149608835422871;1.0759999999999998;0.08250916061019599
52:16.6;0.20590000871424113;-0.5174366030379705;-0.9336186493115152;1.103;0.0994679186246317
52:16.6;0.23027943004097157;-0.5279526002666912;-0.9487405769283818;1.122;0.11534467627907795
52:16.6;0.25028833263600986;-0.5375341626847085;-0.9595187380638153;1.177;0.12909223986761068
52:16.7;0.2654297481701059;-0.545185322930927;-0.9654951176128577;1.188;0.13971525654662778
52:16.7;0.2755154250299253;-0.5499928652711589;-0.9665546161439708;1.188;0.14646348825152167
52:16.7;0.2806992700487027;-0.5512698299258162;-0.9628896184138879;1.188;0.14899853986092126
52:16.7;0.2814803846750689;-0.5486553062686219;-0.9549487339599647;1.159;0.14747818255557588
52:16.7;0.27867233162215016;-0.542152516967048;-0.9433817615059211;1.15;0.14252885799384996
52:16.7;0.27333554346155775;-0.53210089694988;-0.9289915379132355;1.102;0.13511446886367465
52:16.7;0.2666702089183896;-0.5190914099584475;-0.9127006816117418;0.9940000000000001;0.12634170054737318
52:16.7;0.25987707066318294;-0.5038521462620008;-0.8955367958718067;1.028;0.11726124758441829
52:16.7;0.2540113830518834;-0.48714247855717263;-0.8786337345041414;1.16;0.10872190522501743
52:16.7;0.24986092847924754;-0.4696820772450037;-0.8632311344261697;1.192;0.10130466234954937
52:16.8;0.24786361708495183;-0.45211216905235;-0.8506307748115456;0.927;0.09532351990333253
52:16.8;0.24806186648274295;-0.43496892181916247;-0.8420702840301726;0.927;0.09085871218712473
52:16.8;0.2500876970751593;-0.41865642098593603;-0.8385225643605412;0.8170000000000001;0.08779400023645553
52:16.8;0.2531799641879357;-0.4034231676001377;-0.8404824472211043;0.7829999999999999;0.08584575353968485
52:16.8;0.2562412292021548;-0.38935420512958735;-0.8478147948156505;0.843;0.08458529523760647
52:16.8;0.2579429332478328;-0.3763903333504137;-0.8597144362745269;0.9279999999999999;0.08346729031212789
52:16.8;0.2568835539581461;-0.3643794354402129;-0.8747890118711192;1.018;0.08188294967987399
52:16.8;0.2517919160088368;-0.3531546197545886;-0.8912360354422799;1.0590000000000002;0.07925002583511545
52:16.8;0.24174670445782537;-0.3426240205674414;-0.9070650457919229;1.061;0.07513059027879755
52:16.8;0.22636418747586662;-0.33285117303159206;-0.92032392756474;1.112;0.06934234501896164
52:16.9;0.20590434510986175;-0.3241048902043216;-0.9293082444484585;1.103;0.06201701876931235
52:16.9;0.1812650620815621;-0.31686337183392155;-0.9327413166070074;1.103;0.0535731716231714
52:16.9;0.15386253648543258;-0.3117645331742325;-0.9299100913443356;1.091;0.04460674731247552
52:16.9;0.12541907757694665;-0.30950160025906015;-0.9207404893685314;1.045;0.035740756671908035
52:16.9;0.09769637750734468;-0.3106749575191358;-0.9057995564346136;1.004;0.027492663219669974
52:16.9;0.07222757871922163;-0.31562961307205123;-0.8862182206149075;0.914;0.02020326098457907
52:16.9;0.05010615130995879;-0.3243225630554224;-0.8635405188305487;0.856;0.014033013056675436
52:16.9;0.031872479730763334;-0.336262837037319;-0.8395226289152602;0.833;0.008997609345311663
52:16.9;0.017507600996828056;-0.350546393512183;-0.8159179131703339;0.8290000000000001;0.00500747294754934
52:16.9;0.006517267602889802;-0.3659789068709424;-0.7942833718577713;0.815;0.001894510777222791
52:17.0;-0.0019218096656094075;-0.3812562979588216;-0.7758322548080372;0.8440000000000001;0.0005684538746254792
52:17.0;-0.008784138057818594;-0.3951618213979192;-0.7613473745699306;0.8440000000000001;0.0026427555030121997
52:17.0;-0.015017638903026046;-0.4067383249499263;-0.7511625025683449;0.86;0.004588287824579928
52:17.0;-0.021395585041275495;-0.41540367275825546;-0.745211192824526;0.89;0.006623291472742064
52:17.0;-0.028420884321941255;-0.42099221051127916;-0.7431321181497299;0.925;0.008891554179945811
52:17.0;-0.03629431076275813;-0.4237196117564067;-0.7444080482130758;0.932;0.011447961996275933
52:17.0;-0.04494374626855739;-0.4240841797687333;-0.7485036990866667;0.899;0.014266429435707856
52:17.0;-0.05409682492001014;-0.4227349595255777;-0.7549652421343365;0.857;0.01726501255084183
52:17.0;-0.06337379455637629;-0.42034314031663866;-0.7634612840182637;0.863;0.020337646505779995
52:17.0;-0.07238305076757533;-0.4175004749911193;-0.7737730030903532;0.867;0.023383387714326125
52:17.1;-0.0808088724465866;-0.41464982506528264;-0.7857577612658576;0.861;0.026328687684943987
52:17.1;-0.08848196573311448;-0.412045929343531;-0.7993082418677356;0.861;0.02914168648409205
52:17.1;-0.09542129679557851;-0.40974992992384673;-0.8143201626510558;0.8809999999999999;0.031838997913406435
52:17.1;-0.1018366938721232;-0.4076649444675447;-0.8306763543520944;0.9309999999999999;0.034485736646392776
52:17.1;-0.10808915632618972;-0.4056113541385226;-0.848250615154567;1.014;0.03718916384424164
52:17.1;-0.11461818013156833;-0.40342383143068355;-0.8669245874332693;1.042;0.04008633750984343
52:17.1;-0.12185510721349921;-0.4010400522931451;-0.8865987122160061;1.005;0.04332699614692304
52:17.1;-0.13014048267924475;-0.39855188304032924;-0.9071791102566458;0.9570000000000001;0.04705332517267812
52:17.1;-0.13965614787681205;-0.3962027761190923;-0.9285418294030563;1.013;0.05137821902724302
52:17.1;-0.15038156784829923;-0.3943338029346857;-0.9504958047110643;0.953;0.05636491024874509
52:17.2;-0.1620872822392667;-0.3932976272193259;-0.9727665019882993;1.081;0.062012447674282455
52:17.2;-0.17437258255120816;-0.3933670820427183;-0.9950080565938803;1.081;0.06825002443787355
52:17.2;-0.18673757870361132;-0.3946607231512576;-1.0168371197144097;1.081;0.07493884969483518
52:17.2;-0.19866778758773312;-0.3970980964488086;-1.0378750115393431;1.16;0.08187858267261401
52:17.2;-0.20971108884640777;-0.4003881231419299;-1.0577872976616767;1.212;0.08881798763442503
52:17.2;-0.2195312392322958;-0.40404617908352414;-1.0763125065227703;1.179;0.09546973560535255
52:17.2;-0.22792456619217324;-0.40743171032083375;-1.0932708747027122;1.167;0.1015251739657978
52:17.2;-0.23479848039724113;-0.40980012952143896;-1.108550056565427;1.195;0.10666518271644865
52:17.2;-0.24013134213460852;-0.41036466768494967;-1.1220772039794882;1.192;0.11057107925218446
52:17.2;-0.24394484772999728;-0.40836081958331916;-1.1337923122470273;1.2109999999999999;0.11294557601927753
52:17.3;-0.24631068266364967;-0.40310414139484546;-1.1436332678296028;1.266;0.11355003913397664
52:17.3;-0.24738707525825473;-0.39403895566331804;-1.1515345029336719;1.266;0.11225175006440885
52:17.3;-0.2474552086144916;-0.380784727797893;-1.157432891412101;1.253;0.10906161917257949
52:17.3;-0.24692089412818816;-0.36318709889182915;-1.161271883726797;1.2570000000000001;0.10414110110868259
52:17.3;-0.24626777886703452;-0.341371825334561;-1.1629991560936408;1.261;0.09777203788111134
52:17.3;-0.24597696194402668;-0.31579014802137895;-1.1625569963990907;1.23;0.09030405748581466
52:17.3;-0.24644495654709941;-0.2872387681520752;-1.1598651280305534;1.216;0.08210516566304378
52:17.3;-0.24793116477202504;-0.2568382284231448;-1.154798301199707;1.17;0.07353547848945552
52:17.3;-0.25055090088371385;-0.2259603975793132;-1.1471679117141822;1.151;0.06494643086201055
52:17.3;-0.25430836388844796;-0.19610929897504445;-1.1367224625027361;1.165;0.05669088974067332
52:17.4;-0.2591454070486712;-0.1687762913957564;-1.1231792077049298;1.188;0.04912516373923706
52:17.4;-0.26497613314913787;-0.1452999636320782;-1.1062868366630885;1.188;0.042593174400814164
52:17.4;-0.2716886576454935;-0.12675518693469753;-1.0859034536344876;1.127;0.03739628513587147
52:17.4;-0.2791161308960077;-0.11388115406886191;-1.0620680539139347;1.136;0.03375896643249973
52:17.4;-0.28699525979639945;-0.10704799839581201;-1.0350498984186784;1.127;0.03179908048674771
52:17.4;-0.2949344627917835;-0.10625882331687304;-1.0053670241665953;1.074;0.03150758822982723
52:17.4;-0.30240782883315137;-0.11118256171034555;-0.9737669711881601;1.026;0.03274045768068158
52:17.4;-0.3087824639790382;-0.1212101545486207;-0.9411679968326585;0.98;0.03522563125338022
52:17.4;-0.3133788340368355;-0.1355248811742047;-0.9085704777520233;0.961;0.03858755990387937
52:17.4;-0.3155544363196275;-0.153179748872227;-0.8769567108591262;0.9279999999999999;0.04238906129801741
52:17.5;-0.3147924309296234;-0.17317866594429487;-0.8471976856157648;0.885;0.04618526414959717
52:17.5;-0.3107753627182497;-0.19455776206873168;-0.8199822791841898;0.885;0.04957921097564223
52:17.5;-0.30343144452585574;-0.21645714852074854;-0.7957808669712297;0.885;0.05226681194529678
52:17.5;-0.2929503636039541;-0.23817021331613022;-0.7748478800676654;0.8740000000000001;0.05406272548809385
52:17.5;-0.2797708158089799;-0.2591636880717964;-0.757256329213743;0.87;0.05490595790285618
52:17.5;-0.26454341334219317;-0.2790710737172237;-0.7429491520155553;0.867;0.054849271979453974
52:17.5;-0.24807322555995676;-0.29766725446462694;-0.7317911772876744;0.838;0.05403785784853455
52:17.5;-0.23124722626852615;-0.3148341615513907;-0.7236088568265464;0.8290000000000001;0.052682000260001874
52:17.5;-0.2149539442568954;-0.3305279350359817;-0.7182108553871811;0.805;0.05102764833925373
52:17.5;-0.20000492335895143;-0.344755525672523;-0.7153904587744578;0.7909999999999999;0.04932817700689676
52:17.6;-0.1870677455347707;-0.3575631252767996;-0.7149181853881047;0.81;0.04781982486937022
52:17.6;-0.17661782155427144;-0.3690326304849313;-0.7165367175187689;0.81;0.04670224335804737
52:17.6;-0.16891282843468672;-0.379277753253318;-0.7199683096325997;0.828;0.046124681966823906
52:17.6;-0.16399074923669704;-0.388431609776418;-0.7249381547280814;0.8540000000000001;0.046177973774206335
52:17.6;-0.16169003998155534;-0.39662359916341955;-0.7312084761347754;0.883;0.046892462170620416
52:17.6;-0.16168824460953934;-0.40395036776896565;-0.7386102079825916;0.868;0.048241606234932594
52:17.6;-0.16355310172694695;-0.4104501211847541;-0.7470567469355274;0.852;0.05015021109064126
52:17.6;-0.16679851659428796;-0.41609184926329984;-0.7565313508068142;0.88;0.05250592604484777
52:17.6;-0.17093729692651055;-0.4207882827136766;-0.7670524527286334;0.8809999999999999;0.05517286455815638
52:17.6;-0.17552325898255083;-0.4244305551093289;-0.778630741173771;0.875;0.05800599244138801
52:17.7;-0.1801780126585072;-0.42693088823401004;-0.7912345932562292;0.924;0.06086458090495025
52:17.7;-0.1846025485055904;-0.42825773318134597;-0.8047766237723206;0.924;0.06362360295562869
52:17.7;-0.18857835433798345;-0.4284544844419109;-0.8191246071996092;0.9570000000000001;0.0661830087759487
52:17.7;-0.1919643059640875;-0.42764004202683253;-0.8341296622114786;0.997;0.06847505848918672
52:17.7;-0.19469352559866698;-0.4259940632947945;-0.8496580700501088;0.997;0.0704691840729215
52:17.7;-0.19677092844388983;-0.4237319422612925;-0.8656112009768947;0.995;0.0721730412450213
52:17.7;-0.1982688757592957;-0.42107474481590396;-0.8819229268569251;0.986;0.073628231816302
52:17.7;-0.19931589626495785;-0.41821920887331365;-0.8985356731155584;0.9790000000000001;0.07489989983211293
52:17.7;-0.20007372879027752;-0.4153130264612889;-0.9153676055826212;0.997;0.07606084715833519
52:17.7;-0.20070228776049898;-0.4124390557545408;-0.9322873667704331;1.018;0.07717238212413406
52:17.8;-0.20131918735372947;-0.4096080864781895;-0.9491078853830335;1.073;0.07826530322194332
52:17.8;-0.2019664169713188;-0.40675597363376187;-0.9655994937087023;1.073;0.07932500898189984
52:17.8;-0.20259713609397803;-0.40374080697213743;-0.9815116977783882;1.081;0.08028444852935
52:17.8;-0.20308908206200463;-0.4003392590937794;-0.9965908093996879;1.0959999999999999;0.08102734999429029
52:17.8;-0.20328060212337518;-0.3962458473747351;-1.010587183156204;1.11;0.08140188245915997
52:17.8;-0.20301506934678876;-0.3910825656272137;-1.0232523786912338;1.105;0.08124179199858671
52:17.8;-0.2021746954872918;-0.3844268221389983;-1.0343294220616308;1.103;0.08038950561282154
52:17.8;-0.20068975637964623;-0.3758610973013051;-1.043542002787492;1.107;0.07871590941625053
52:17.8;-0.1985219426835749;-0.3650401194668361;-1.0505914328786434;1.1079999999999999;0.07613475759569652
52:17.8;-0.1956331969414491;-0.35176505791471235;-1.0551698550792665;1.13;0.0726135425129033
52:17.9;-0.1919576032353089;-0.3360518214321173;-1.0569930222009185;1.15;0.0681841911088673
52:17.9;-0.18739251197293721;-0.31817996096378715;-1.0558482238864992;1.15;0.06295446692326873
52:17.9;-0.18181808509220204;-0.29870739629684057;-1.0516467200150703;1.157;0.057115361171347696
52:17.9;-0.175144078801851;-0.27843751598370564;-1.0444677217548226;1.161;0.05093522549763339
52:17.9;-0.16737097656020475;-0.25833411328730865;-1.034580391373798;1.1540000000000001;0.04473280708469361
52:17.9;-0.15864379191689543;-0.23939507122203738;-1.0224306976678492;1.012;0.038830427055316113
52:17.9;-0.14927853252122278;-0.22251149890355593;-1.0085880802045808;1.012;0.033501453329449406
52:17.9;-0.13975473922352769;-0.20834691643525866;-0.9936643458889565;1.012;0.028932990762424622
52:17.9;-0.13067972872210645;-0.19726427586927633;-0.9782277635196436;1.012;0.025217187720596154
52:17.9;-0.12272997361373536;-0.18931133865902275;-0.9627270914542492;0.946;0.0223681702961876
52:17.9;-0.11657042376793461;-0.18426074263679948;-0.9474282733105472;0.91;0.020350146185313604
52:18.0;-0.11275735268922729;-0.18169257909448303;-0.9323688665904878;0.91;0.019101603408981843
52:18.0;-0.11164248800563638;-0.181097033180336;-0.9173449672408436;0.897;0.01854699370648126
52:18.0;-0.11330151109803797;-0.18196911162730833;-0.901945019754924;0.91;0.018595738990780566
52:18.0;-0.1175023647447351;-0.18387776609143147;-0.8856321674829166;0.943;0.0191350326770211
52:18.0;-0.123716192977367;-0.1865067201295079;-0.867861262269298;0.965;0.020024945176358624
52:18.0;-0.13116524852953892;-0.1896676093687909;-0.8482047233278516;0.95;0.021101466720315744
52:18.0;-0.13889921237373798;-0.19328262695390655;-0.8264565617366415;0.92;0.022187717864178766
52:18.0;-0.14589096294140744;-0.19733634280981854;-0.8026894289861343;0.8859999999999999;0.023109098816047603
52:18.0;-0.1511424222467905;-0.20180496851994773;-0.7772529726082382;0.843;0.02370721969160435
52:18.1;-0.15379057995266732;-0.20657984511312516;-0.7507161602325033;0.738;0.023850278074929405
52:18.1;-0.15320270549318604;-0.21140838145615448;-0.723769310980962;0.738;0.02344168363272449
52:18.1;-0.14904743737757245;-0.21587948635122722;-0.6971113797112801;0.738;0.022430453888703652
52:18.2;-0.1413286622173436;-0.21947468425436867;-0.6713465908268209;0.7170000000000001;0.020823871195680074
52:18.2;-0.1303771930498949;-0.22167930899508967;-0.6469035355560562;0.7170000000000001;0.018696758155194337
52:18.2;-0.11680782677085662;-0.22210628379024264;-0.6239835354270984;0.7170000000000001;0.016188474295932734
52:18.2;-0.10145578889089421;-0.22056490416609087;-0.6025444602883027;0.584;0.013483490692114485
52:18.2;-0.08530563440946827;-0.21703877836413912;-0.582322118041985;0.584;0.010781478952231414
52:18.2;-0.06942589373301776;-0.21159608236299968;-0.5628864432873072;0.584;0.00826894095714845
52:18.2;-0.05492256542996902;-0.20428712110358246;-0.5437275736138253;0.584;0.006100608573133306
52:18.2;-0.042916067356862715;-0.1950708935473275;-0.5243626757683472;0.584;0.004389794221867489
52:18.2;-0.03453448716770887;-0.1837832780384184;-0.5044481603902656;0.584;0.0032016624853747695
52:18.2;-0.030910668656904568;-0.1701424316289674;-0.483878357518499;0.584;0.0025448209588995597
52:18.2;-0.03317185769877753;-0.15378196862500548;-0.46285084633240176;0.584;0.0023611102797805013
52:18.2;-0.042414296093321605;-0.13430030689179595;-0.4418782512610094;0.584;0.0025170503063966848
52:18.2;-0.05966059866975013;-0.11131389999748736;-0.42172735810239165;0.466;0.002800714122215179
52:18.2;-0.08580595704813734;-0.08450761904906454;-0.40327574863483523;0.345;0.0029242561477913842
52:18.2;-0.1215655774419943;-0.05368487899269154;-0.38730230584885394;0.314;0.002527625211271607
52:18.2;-0.16742946342955212;-0.01881735696570113;-0.3742657836216095;0.262;0.0011791542850509385
52:18.2;-0.22361366831760296;0.01992275353495968;-0.364151538069714;0.322;0.0016222951024428148
52:18.2;-0.28999066080111935;0.06216805861214245;-0.3564550735659255;0.517;0.006426227814985161
52:18.2;-0.3659957701540295;0.10739235112662655;-0.35031632323367806;0.5670000000000001;0.013769234321699488
52:18.3;-0.45052730555654075;0.15494173152324325;-0.34475004444534935;0.603;0.024065442615717567
52:18.3;-0.5418707197449331;0.204024719090992;-0.33888466622407987;0.629;0.0374654015196196
52:18.3;-0.6376830867060428;0.2536600725764923;-0.33213906606619187;0.604;0.0537250676292551
52:18.3;-0.7350812353942112;0.3026262937310789;-0.32430262582460473;0.57;0.07214271139472392
53:01.9;-0.8308774030602746;0.34948133614561633;-0.31551472555746596;1.34;0.09161794969643915
53:01.9;-0.921959573390787;0.3926945468757901;-0.30616789044420906;1.34;0.11084762453758203
53:01.9;-1.0057144096020019;0.4308579926555098;-0.29677940817297765;1.34;0.1286004803659195
53:01.9;-1.0803358606166056;0.4628884953687721;-0.28787451158288774;1.34;0.14395885818662527
53:01.9;-1.1449246041262384;0.48815264524006347;-0.27990305745169697;1.34;0.1564372517554525
53:01.9;-1.1993884584197065;0.506506187675334;-0.27319114348829665;1.34;0.1659629846680068
53:01.9;-1.2442063623632318;0.5182716846330593;-0.2679205612341995;1.34;0.17276507150778814
53:01.9;-1.2801210647166414;0.5241798620356072;-0.2641282743060923;1.34;0.17723368615087662
53:01.9;-1.3078158537803046;0.5252934196073487;-0.26171927840506004;1.34;0.17979775815306615
53:01.9;-1.3276211096818578;0.5229257294084252;-0.2604875485266133;1.34;0.1808427608787681
53:01.9;-1.3392874270613173;0.5185611821088633;-0.2601411739011423;1.34;0.1806686881769531
53:01.9;-1.341853496310075;0.5137792861722348;-0.2603290954384565;1.34;0.17947518202100324
53:01.9;-1.3336285391327436;0.5101812382192664;-0.2606679850976488;1.34;0.17735647933886428
53:01.9;-1.312300353471052;0.5093157379065385;-0.26076865630927853;1.34;0.1742913087816458
53:01.9;-1.275170299647111;0.5126004152878408;-0.26026190985017766;1.34;0.17012093265558204
53:01.9;-1.2195052102855282;0.5212363940887366;-0.2588238675521202;1.34;0.1645215204025727
53:01.9;-1.14298269735802;0.536116174473603;-0.2562006205953826;1.34;0.1569924414518679
53:01.9;-1.0441903561713273;0.5577290465984203;-0.2522314396597784;1.34;0.14689335827670516
53:01.9;-0.9231209611503818;0.5860734184805695;-0.24686890603901493;1.34;0.133560190354427
53:01.9;-0.7815853642287794;0.6205914457769807;-0.24019319540310785;1.34;0.11650455438560439
53:01.9;-0.6234433560296951;0.6601477859468808;-0.23241647081315533;1.34;0.09565442697251669
53:01.9;-0.454531586068661;0.703080687151884;-0.22387202866143482;1.34;0.0715433169846275
53:01.9;-0.28217466119466095;0.7473527739196588;-0.21498293765023735;1.0590000000000002;0.04533646521450252
53:01.9;-0.11428120934575633;0.7908002927275736;-0.2062105167125463;1.0590000000000002;0.01863598959967928
53:01.9;0.04174728822931442;0.8314227695311586;-0.19799422082375237;1.0590000000000002;0.006872309314844636
53:01.9;0.17993914002443684;0.86762298695562;-0.19070081307212472;1.0590000000000002;0.02977208395643869
53:01.9;0.2962776759112425;0.8983397793133633;-0.18459417415224585;1.0590000000000002;0.04913122026390051
53:01.9;0.38882504949802144;0.9230735312430395;-0.17982567665477628;1.0590000000000002;0.06454197295709942
53:01.9;0.45755500464377297;0.9418334929177132;-0.176439279611434;1.0590000000000002;0.07603485399942811
53:01.9;0.5040106460056899;0.9550375572621661;-0.17438528926056993;1.0590000000000002;0.0839402013753488
53:01.9;0.5308806319948545;0.9633894763776529;-0.1735380042085851;1.0590000000000002;0.08875511229767714
53:01.9;0.5415643188582334;0.9677527642646863;-0.1737137893065936;1.0590000000000002;0.0910434606594391
53:01.9;0.5397747462114688;0.9690351356425835;-0.1746874112148544;1.0590000000000002;0.09137211861498407
53:01.9;0.5292091121289126;0.9680925514663992;-0.176205643565994;1.0590000000000002;0.09027427434398588
53:01.9;0.513300282920991;0.9656579491275461;-0.1779981512352687;1.0590000000000002;0.08822878834975556
53:01.9;0.4950502840064469;0.962296588051597;-0.17978644757508705;1.0590000000000002;0.08564760264392338
53:01.9;0.4769376668301554;0.9583876052957289;-0.18129225537646457;1.0590000000000002;0.08286708520400292
53:01.9;0.46088493593064317;0.9541297462301396;-0.1822468731380807;1.0590000000000002;0.08014197389475342
53:01.9;0.4482694696324127;0.9495681626048024;-0.18240314431793211;1.0590000000000002;0.07764216321140556
53:01.9;0.4399610935360462;0.944638484326004;-0.18155134958585298;1.0590000000000002;0.07545349987424534
53:01.9;0.4363711391198275;0.9392239056754392;-0.17953980228179656;1.0590000000000002;0.07358442488004358
53:01.9;0.4375009101075757;0.9332206393192984;-0.17630014995257226;1.0590000000000002;0.07198068539695038
53:01.9;0.442981483292567;0.9266066814111766;-0.17187641122910255;1.0590000000000002;0.07055004213795432
53:01.9;0.4521012253176463;0.9195083516766047;-0.16645566943074788;1.0590000000000002;0.06919742823965172
53:01.9;0.4638218925124438;0.9122585391495248;-0.16039718895819727;1.0590000000000002;0.06786813790365283
53:01.9;0.4767883147713557;0.905440078053146;-0.1542556323298845;1.0590000000000002;0.06659265764432186
53:01.9;0.48934009250331134;0.8999073426537411;-0.14879317776969608;1.0590000000000002;0.06552267421162954
53:01.9;0.49953612370088285;0.8967791821374482;-0.1449748388885428;1.0590000000000002;0.06494489997319496
53:01.9;0.505203807940462;0.8973969526950112;-0.14394135813018352;1.0590000000000002;0.06525845714572558
53:01.9;0.5040241471725165;0.9032428967953868;-0.14695488121596834;1.0590000000000002;0.0669021253122443
53:01.9;0.49366141447019485;0.9158167101277604;-0.15531440891887122;1.0590000000000002;0.07021816807272328
53:01.9;0.471941384304507;0.9364720201415552;-0.17024092238172947;1.0590000000000002;0.0752396612952773
53:01.9;0.43707519638055076;0.966219787909279;-0.19273618917325586;1.0590000000000002;0.08139455564876819
53:01.9;0.38791677818622794;1.005512325435881;-0.2234245943828312;1.0590000000000002;0.08714790288642779
53:01.9;0.3242305751876552;1.0540295221658347;-0.2623938065337389;1.0590000000000002;0.08967271556887034
53:01.9;0.24693354471066314;1.1104976378986724;-0.30905744882909936;1.0590000000000002;0.08474946106606614
53:01.9;0.15826161478830672;1.1725800835311206;-0.3620708214671099;1.0590000000000002;0.06719108178324845
53:01.9;0.06179754296629161;1.236881118133145;-0.4193357132622821;1.496;0.03205243433438221
53:01.9;-0.03770749080574518;1.299078751471641;-0.47812645915073604;1.173;0.02342102463834124
53:01.9;-0.134755910435486;1.3541588765948862;-0.5353554555807079;1.6640000000000001;0.09769215193370984
53:01.9;-0.22371839456076692;1.396704482959448;-0.5879637730544046;1.6640000000000001;0.18372014916807408
53:01.9;-0.29948939484535014;1.421214430535906;-0.6333618662579694;1.6640000000000001;0.26958328955507777
53:01.9;-0.3580173506697295;1.4224476636561623;-0.6698018912041126;1.6640000000000001;0.3411039434133022
53:01.9;-0.39663101407411994;1.3957957534213952;-0.6965952322606328;1.6640000000000001;0.38564618607825735
53:01.9;-0.4141773521903188;1.3376879920972748;-0.7141613343110904;1.6640000000000001;0.3956739960983848
53:01.9;-0.41101938431406926;1.2460234919092938;-0.7239338511351527;1.6640000000000001;0.370755343876473
53:01.9;-0.38893209192588385;1.1206007372650464;-0.7281514800952137;1.6640000000000001;0.3173557854810297
53:01.9;-0.3509143845553968;0.9634843720043863;-0.7295522773554224;1.6640000000000001;0.2466620083030045
53:01.9;-0.3009152402725165;0.7792165273526375;-0.7309829655240645;1.6640000000000001;0.1713995177599378
53:01.9;-0.2434598142615102;0.5747572383522108;-0.734941966863468;0.7709999999999999;0.10284064291994229
53:01.9;-0.18318025029576174;0.35905210876716753;-0.743131081123803;1.091;0.04887666394886019
53:02.0;-0.12431916535970991;0.1421919696025041;-0.7561749519856048;1.16;0.013367046017230813
53:02.0;-0.07032709775336236;-0.06574288318807264;-0.7736471899025595;1.16;0.0035769625578946766
53:02.0;-0.02364423121514738;-0.25589244399917127;-0.7943688854713384;1.16;0.004806233706347131
53:02.0;0.014332596234541082;-0.42154596003571704;-0.8168000685870588;1.16;0.004934981893051223
53:02.0;0.043153178696702196;-0.5585939822474105;-0.839370848894798;1.16;0.020233123231213093
53:02.0;0.06314396808212944;-0.6655283190015494;-0.8607037930512453;1.16;0.036170301351010646
53:02.0;0.07520537635809944;-0.7431263429972699;-0.8797382405185559;1.16;0.049166015772571785
53:02.0;0.08060568153208941;-0.7939569120957733;-0.895778341563326;1.16;0.057327518881847665
53:02.0;0.08079237784589763;-0.8218164381572215;-0.9084855760977355;1.16;0.06032026636135237
53:02.0;0.07723408143980133;-0.8311753429658281;-0.9178344556831476;1.16;0.05892044174273202
53:02.0;0.07129951444330025;-0.8266890285858032;-0.924047349538097;1.16;0.05446568523380088
53:02.0;0.06417484602874092;-0.8128048041772769;-0.927521241351461;1.16;0.048381013463804384
53:02.0;0.05681681686923329;-0.7934776779715909;-0.9287560169496138;1.16;0.041870992271290736
53:02.0;0.049936541082229;-0.7719937978496034;-0.9282908470988995;1.16;0.03578626196068763
53:02.0;0.044007509311747045;-0.7508904763592595;-0.9266525419444308;1.16;0.030621066108681642
53:02.0;0.039290899293831845;-0.7319557483694837;-0.9243175233827166;1.16;0.02658263214571565
53:02.0;0.03587160615753718;-0.716287678170965;-0.921687337378538;1.16;0.023682193431697817
53:02.0;0.03369920693277175;-0.7043934608801948;-0.9190764073698457;1.16;0.021816577139287363
53:02.0;0.032629166036074485;-0.6963100387080751;-0.916709971578182;1.16;0.020827665098401983
53:02.0;0.032460796728542275;-0.6917308093940734;-0.914729784739055;1.16;0.020539464423608624
53:02.0;0.032969681382676336;-0.690126461754224;-0.9132051181127375;1.16;0.020778383949870697
53:02.0;0.03393332353921388;-0.6908515620083722;-0.9121467763995247;1.16;0.02138335615186137
53:02.0;0.03514969645396132;-0.6932318834764379;-0.9115221860686971;1.16;0.022210961092444474
53:02.0;0.03644903719263301;-0.6966303861972055;-0.911270025734974;1.16;0.023138519106135333
53:02.0;0.037699709016726056;-0.7004920806648506;-0.9113133074004441;1.16;0.024066278603072307
53:02.0;0.03880923346821009;-0.7043697063708761;-0.9115702335336388;1.16;0.024918728007905892
53:02.0;0.039721705360341475;-0.7079332430739971;-0.9119625189408214;1.16;0.025644673935696066
53:02.0;0.040412783697187364;-0.7109668192640577;-0.9124211607529066;1.16;0.02621582008711305
53:02.0;0.040883336193470225;-0.7133566848326399;-0.9128898578802049;1.16;0.026623886040951696
53:02.0;0.04115263964139897;-0.7150736824333397;-0.913326424632673;1.16;0.02687661157063518
53:02.0;0.041251833708928584;-0.7161531929211785;-0.913702619489739;1.16;0.026993180632890624
53:02.0;0.041218116948100444;-0.7166749435237184;-0.9140028305585778;1.16;0.0269996359699203
53:02.0;0.04108997959442726;-0.7167444364573475;-0.9142220371470745;1.16;0.026924766260551455
53:02.0;0.040903600659699495;-0.716477145542047;-0.9143634153152653;1.16;0.026796786898486094
53:02.0;0.040690403736531794;-0.715986084903368;-0.9144358864585775;1.16;0.026640958270833518
53:02.0;0.04047566900548655;-0.7153729051169906;-0.9144518323354375;1.16;0.02647813288187868
53:02.0;0.0402780366892629;-0.7147223306938556;-0.9144251257046987;1.16;0.026324115958054773
53:02.0;0.04010970561723613;-0.7140995187455906;-0.9143695588015851;1.16;0.026189666853162347
53:02.0;0.039977124110226664;-0.7135497830174226;-0.9142976959770116;1.16;0.02608095274301969
53:02.0;0.03988198288673637;-0.713100075315945;-0.9142201337515015;1.16;0.026000278900028807
53:02.0;0.03982234499551869;-0.7127616297049856;-0.9141451215233669;1.16;0.0259469484251894
53:02.0;0.03979378031900382;-0.712533234980288;-0.9140784782838188;1.16;0.02591813859878056
53:02.0;0.039790407271042355;-0.7124046902037037;-0.9140237332109671;1.16;0.02590971446952719
53:02.0;0.03980577827563698;-0.7123601010930092;-0.913982418791788;1.16;0.025916929554589945
53:02.0;0.0398335758779993;-0.7123807794087585;-0.9139544518703444;1.16;0.025934987376756025
53:02.0;0.03986811132629999;-0.7124476039713599;-0.9139385485452598;1.16;0.025959456052350005
53:02.0;0.03990463646128014;-0.7125427845451369;-0.9139326311909609;1.16;0.02598654180466882
53:02.0;0.039939492746848215;-0.7126510353263955;-0.9139341984511928;1.16;0.026013236758521605
53:02.0;0.039970128764092026;-0.7127602122919849;-0.9139406406330264;1.16;0.026037362265415982
53:02.0;0.039995020302107984;-0.7128614991098402;-0.9139494926872542;1.16;0.026057531848898544
53:02.0;0.040013526313427465;-0.7129492418133258;-0.9139586244290607;1.16;0.02607305816187055
53:02.0;0.04002571050418181;-0.7130205358319529;-0.9139663726758317;1.16;0.026083826650014217
53:02.0;0.04003215318804852;-0.7130746633487709;-0.9139716226564659;1.16;0.02609015548291988
53:02.0;0.04003377211373089;-0.7131124673257351;-0.9139738466733874;1.16;0.02609265731526867
53:02.0;0.04003166498177495;-0.7131357335648131;-0.9139731070081317;1.16;0.026092114104733846
53:02.0;0.04002698082552706;-0.7131466360130054;-0.913970027975392;1.16;0.026089371992449054
53:02.0;0.04002082269928851;-0.7131472847537581;-0.9139657394144101;1.16;0.026085259489529524
53:02.0;0.04001418039701514;-0.7131394017529462;-0.9139617913327743;1.16;0.02608052913371268
53:02.0;0.04000788929212152;-0.713124136911944;-0.9139600374317561;1.16;0.026075820494586368
53:02.0;0.04000260981888334;-0.7131020263531885;-0.9139624843327818;1.16;0.026071640929081454
53:02.0;0.03999882151365466;-0.7130730858372583;-0.9139711038922593;1.16;0.026068359763962375
53:02.0;0.03999682575913961;-0.7130370243129271;-0.9139876083176987;1.16;0.026066211504746972
53:02.0;0.03999675226161087;-0.7129935553137002;-0.9140131920088591;1.16;0.026065304110894884
53:02.0;0.03999856566324654;-0.7129427767998949;-0.9140482500810114;1.16;0.02606562919590763
53:02.0;0.04000207037275806;-0.712885582867227;-0.9140920910969035;1.16;0.026067072070304176
53:02.0;0.04000691351417523;-0.7128240635562249;-0.9141426701003038;1.16;0.026069420714947517
53:02.0;0.04001258767826724;-0.7127618422128077;-0.9141963767967258;1.16;0.026072373932002606
53:02.0;0.04001843675063314;-0.7127042942630866;-0.9142479215854105;1.16;0.026075549962611043
53:02.0;0.04002366932623482;-0.7126585880347895;-0.9142903677866213;1.16;0.026078497688225274
53:02.0;0.040027384948506946;-0.7126334888423501;-0.9143153603235087;1.16;0.026080713063868652
53:02.0;0.040028618487806186;-0.7126388735880703;-0.9143135977227135;1.16;0.026081663598489045
53:02.0;0.04002640727190193;-0.7126849162510496;-0.9142755840766432;1.16;0.026080823448060293
53:02.0;0.0400198840038962;-0.7127809262353656;-0.9141926793123581;1.16;0.02607772098553118
53:02.0;0.04000839600199254;-0.7129338525070865;-0.9140584389897423;1.16;0.02607199953858481
53:02.0;0.0399916478924612;-0.7131465068090405;-0.9138701989295847;1.16;0.02606349033831906
53:02.0;0.03996986069763231;-0.7134156078837699;-0.9136308163275999;1.16;0.026052294616869528
53:02.0;0.039943935518598664;-0.7137298029702855;-0.9133504300388393;1.16;0.026038869280833734
53:02.0;0.03991560509004866;-0.7140678785638239;-0.9130480523469869;1.16;0.0260241077819323
53:02.0;0.03988755190655539;-0.7143974233772168;-0.9127527583480636;1.16;0.02600940492177854
53:02.0;0.039863468062764806;-0.7146742446159045;-0.9125042042985086;1.16;0.025996691734959478
53:02.0;0.03984803022847242;-0.7148428544633838;-0.9123521915570326;1.16;0.025988424866579485
53:02.0;0.039846764208628635;-0.7148383263303613;-0.912355007743501;1.16;0.025987514782277715
53:02.0;0.03986577827378447;-0.7145897588535707;-0.9125763314165036;1.16;0.02599717966062527
53:02.0;0.03991135380035345;-0.7140254694537176;-0.913080590267841;1.16;0.026020717860327724
53:02.0;0.039989396492560676;-0.7130798601363373;-0.9139268230519946;1.16;0.026061202110664206
53:02.0;0.04010477205222487;-0.7117016513846622;-0.9151613165168362;1.16;0.026121113133702016
53:02.0;0.04026057669172425;-0.7098628658809749;-0.9168095701433598;1.16;0.026201948431288476
53:02.0;0.040457424887548325;-0.7075675695269528;-0.9188684772175684;1.16;0.02630386147269024
53:02.0;0.0406928731526815;-0.7048589577778216;-0.9212999873173894;1.16;0.026425404459868667
53:02.0;0.04096113759789489;-0.701822933939187;-0.9240279119349408;1.16;0.02656346076558598
53:02.0;0.04125330225792896;-0.6985858938359072;-0.9269399239656918;1.16;0.026713458524503145
53:02.0;0.04155820435995932;-0.6953045343199394;-0.9298967083138591;1.1640000000000001;0.026869930698532062
53:02.0;0.041863976826362816;-0.6921476483483496;-0.9327482842196849;1.1640000000000001;0.027027363822628825
53:02.0;0.04215982464116704;-0.6892740921067781;-0.935353708649107;1.1640000000000001;0.02718107464581721
53:02.0;0.04243738729379838;-0.6868135202026319;-0.937598197789559;1.1640000000000001;0.02732777277462043
53:02.0;0.04269127792240086;-0.6848541568206153;-0.9394038138500007;1.1640000000000001;0.027465630323618248
53:02.0;0.04291880767228744;-0.6834377318005512;-0.94073361243504;1.1640000000000001;0.027593911177024262
53:02.0;0.04311912420537934;-0.6825596509247602;-0.9415910178715582;1.1640000000000001;0.027712317746457313
53:02.0;0.04329201867250045;-0.6821724524703152;-0.94201622263754;1.1640000000000001;0.027820209539329354
53:02.0;0.04343663015609554;-0.6821911161474222;-0.942080956337076;1.1640000000000001;0.027915821286729602
53:02.0;0.04355024956487391;-0.6824993023170141;-0.9418825199460235;1.1640000000000001;0.02799558821562037
53:02.0;0.043627396781367254;-0.6829560670487641;-0.941537568146771;1.1640000000000001;0.028053672360376012
53:02.0;0.04365931493965091;-0.6834029849922099;-0.9411757777057954;1.1640000000000001;0.028081773352388057
53:02.0;0.043633992377638556;-0.6836718859795112;-0.9409332886034708;1.1640000000000001;0.02806929507385702
53:02.0;0.04353678357654414;-0.6835935482610859;-0.9409456664215075;1.1640000000000001;0.02800392092057173
53:02.0;0.04335165235113423;-0.6830076741240234;-0.9413401222876365;1.1640000000000001;0.02787262093321569
53:02.0;0.04306300084463958;-0.6817742932339592;-0.9422268466346214;1.1640000000000001;0.027663070687764177
53:02.0;0.04265797431079532;-0.679786395249092;-0.9436895640311538;1.1640000000000001;0.027365403073942075
53:02.0;0.04212904325736179;-0.6769830961131753;-0.9457757893210168;1.1640000000000001;0.026974140398726247
53:02.0;0.041476562067274264;-0.6733620133171972;-0.9484877425480234;1.1640000000000001;0.02649006882492634
53:02.0;0.040710889667479364;-0.6689887979126672;-0.951775434772559;1.1640000000000001;0.02592172687888349
53:02.0;0.03985353852245084;-0.6640009910283625;-0.9555340329216887;1.1640000000000001;0.02528609556708983
53:02.0;0.038936700800175694;-0.6586025968905163;-0.9596082052540464;1.1640000000000001;0.02460801265998075
53:02.0;0.03800053641961446;-0.6530458938393114;-0.9638060590155201;1.167;0.02391790202095554
53:02.0;0.03708823311775078;-0.6476006152255653;-0.9679225639110928;1.167;0.02324791509391417
53:02.0;0.03624007288390153;-0.6425177815236751;-0.9717669648555121;1.167;0.022627488079142777
53:02.0;0.03548843207490107;-0.6379995006511586;-0.9751856459533781;1.167;0.022079765215891115
53:02.0;0.034854954221218974;-0.6341819696264159;-0.9780749926971262;1.167;0.021619744749166104
53:02.0;0.03434991506568835;-0.6311317122290739;-0.9803842337935786;1.167;0.021254064223763268
53:02.0;0.03397317878913366;-0.6288514268890878;-0.9821110071751791;1.167;0.020981900048658103
53:02.0;0.03371611337072111;-0.6272916393661935;-0.9832925300689793;1.167;0.02079647577986926
53:02.0;0.03356395508831057;-0.6263650827147786;-0.9839947027492233;1.167;0.020686805507406106
53:02.0;0.03349823543906505;-0.6259614659357764;-0.9843009167161499;1.167;0.020639416692338704
53:02.0;0.03349900003281864;-0.6259609920919035;-0.9843018088408535;1.167;0.020639890867809756
53:02.0;0.033546652154517305;-0.6262456087494863;-0.9840867321487182;1.167;0.020674130609867402
53:02.0;0.03362333982629804;-0.626707494317674;-0.9837373196815431;1.167;0.02072931186885901
53:02.0;0.033713872555139475;-0.6272546919602623;-0.9833232088272809;1.167;0.020794517560488925
53:02.0;0.03380620255671969;-0.6278140980019702;-0.9828997698666977;1.167;0.020861075100005406
53:02.0;0.033891536515737175;-0.6283322023708461;-0.9825075380532418;1.167;0.020922639288431064
53:02.0;0.03396416024236711;-0.6287740786716095;-0.9821729726877616;1.167;0.020975073427375163
53:02.0;0.0340210628120285;-0.6291211483345865;-0.9819101462354912;1.167;0.021016186268619865
53:02.0;0.0340614420025549;-0.629368215406157;-0.9817229875723401;1.167;0.021045381198138705
53:02.0;0.03408616202727163;-0.6295202037806877;-0.9816077524283926;1.167;0.02106326814751188
53:02.0;0.034097220343571065;-0.6295889429724735;-0.9815554589330624;1.167;0.021071279655325105
53:02.0;0.03409726488701599;-0.6295902551683572;-0.9815540967946479;1.167;0.021071321857723552
53:02.0;0.03408918812838739;-0.6295415055309143;-0.9815904873016524;1.167;0.021065480386622416
53:02.0;0.034075811055750964;-0.6294596967263775;-0.9816517325639572;1.167;0.021055791288364576
53:02.0;0.034059659258436445;-0.6293601218004535;-0.9817262429060725;1.167;0.021044078856050665
53:02.0;0.03404282504793543;-0.6292555387774547;-0.9818043696000899;1.167;0.021031856041878554
53:02.0;0.034026903988135314;-0.6291557957609796;-0.9818786961539111;1.167;0.021020278926639185
53:02.0;0.034012991089709343;-0.6290678155292311;-0.9819440561784625;1.167;0.02101014439959211
53:02.0;0.03400172086891721;-0.6289958414213624;-0.981997351150966;1.167;0.021001919438441857
53:02.0;0.033993336022668734;-0.6289418490340823;-0.9820372392190575;1.167;0.020995790812134183
53:02.0;0.03398777115708633;-0.6289060381330832;-0.9820637586738978;1.167;0.020991725291271406
53:02.0;0.03398474038272272;-0.628887333652101;-0.9820779388495141;1.167;0.02098953220812708
53:02.0;0.033983820272039965;-0.6288838414759246;-0.9820814387036629;1.167;0.020988922180605888
53:02.0;0.0339845223559002;-0.628893222098352;-0.9820762405850406;1.167;0.020989557784344443
53:02.0;0.03398635178987859;-0.6289129618929831;-0.9820644147125094;1.167;0.020991093768596987
53:02.0;0.03398885090176431;-0.6289405367472467;-0.9820479593598361;1.167;0.0209932059648562
53:02.0;0.03399162796286724;-0.6289734756634682;-0.9820287130325663;1.167;0.02099560928018887
53:02.0;0.03399437269010812;-0.6290093423700364;-0.9820083281865841;1.167;0.020998066085670224
53:02.0;0.033996860709918295;-0.6290456609264178;-0.9819882912512101;1.167;0.02100038691747224
53:02.0;0.033998949555418746;-0.6290798167409236;-0.9819699707676903;1.167;0.02100242573569315
53:02.0;0.034000568799173826;-0.6291089673434471;-0.9819546741831716;1.167;0.021004072075198908
53:02.0;0.03400170672541026;-0.6291299976086865;-0.981943694104072;1.167;0.021005242317556964
53:02.0;0.03400239559622739;-0.6291395517760419;-0.9819383264986444;1.167;0.021005872054999083
53:02.0;0.034002697136095536;-0.6291341693634201;-0.9819398463770964;1.167;0.021005911141836395
53:02.0;0.03400268940601658;-0.6291105437053244;-0.9819494308332024;1.167;0.021005322564284126
53:02.0;0.03400245580761644;-0.6290659101948728;-0.9819680249759283;1.167;0.021004085727956336
53:02.0;0.03400207657889061;-0.6289985563596892;-0.9819961531531807;1.167;0.021002204180387545
53:02.0;0.03400162283537893;-0.6289084279037854;-0.9820336858315067;1.167;0.02099971716932492
53:02.0;0.03400115298043013;-0.6287977844381907;-0.9820795812710654;1.167;0.020996713804125884
53:02.0;0.03400071115461849;-0.6286718369340095;-0.9821316302674372;1.167;0.02099334796201973
53:02.0;0.03400032730984444;-0.6285392776716742;-0.982186241042817;1.167;0.020989851498780056
53:02.0;0.03400001846687349;-0.6284125949492994;-0.9822383089412251;1.167;0.02098654283442721
53:02.0;0.03399979073285892;-0.6283080519481414;-0.9822812207678973;1.167;0.020983827655231563
53:02.0;0.03399964170431931;-0.628245205285915;-0.9823070450803876;1.167;0.020982188385568392
53:02.0;0.03399956294862128;-0.6282458474991499;-0.9823069560619113;1.167;0.02098215933029082
53:02.0;0.03399954233253064;-0.6283322824505837;-0.9822719284021844;1.167;0.020984285064609844
53:02.0;0.03399956604131558;-0.6285248863524031;-0.9821937227206748;1.167;0.020989060833165468
53:02.0;0.0339996202000216;-0.6288389714927956;-0.9820661547901162;1.167;0.0209968554545142
53:02.0;0.03399969206592823;-0.6292810548392187;-0.9818866071679847;1.167;0.02100781948918264
53:02.0;0.03399977080585342;-0.6298447370072408;-0.9816576998229232;1.167;0.021021784107494907
53:02.0;0.033999847903514985;-0.6305065130811462;-0.9813889892039247;1.167;0.02103815897194373
53:02.0;0.033999917261425774;-0.6312219562923166;-0.9810985166576169;1.167;0.021055840210755607
53:02.0;0.03399997507044148;-0.6319228255249575;-0.9808139824570787;1.167;0.021073141814385514
53:02.0;0.03400001952021012;-0.6325157310472274;-0.9805732878497708;1.167;0.021087765127310625
53:02.0;0.034000050417655935;-0.6328830293371528;-0.9804241727447851;1.167;0.021096821180235065
53:02.0;0.03400006877045986;-0.632886584514263;-0.9804226902177067;1.167;0.021096919176754325
53:02.0;0.03400007638021995;-0.6323749069740817;-0.9806303105385555;1.167;0.021084331413055036
53:02.0;0.034000075477194976;-0.6311939369973364;-0.9811095459931529;1.167;0.021055240237469467
53:02.0;0.034000068416469256;-0.6292013641780688;-0.9819181407500563;1.167;0.021006066214171053
53:02.0;0.03400005744485969;-0.6262838516836741;-0.9831020818051898;1.167;0.020933867954155718
53:02.0;0.03400004453939294;-0.6223758676090105;-0.9846879576200279;1.167;0.020836792042018704
53:02.0;0.03400003131189104;-0.617478027961569;-0.9866755147972361;1.167;0.020714534414692492
53:02.0;0.03400001897006054;-0.611671957454692;-0.9890316276985055;1.167;0.02056875047394719
53:02.0;0.03400000832326043;-0.6051277230493667;-0.9916872819231916;1.167;0.020403318868932173
53:02.0;0.03399999982050095;-0.5980989550843631;-0.9945395540580041;1.167;0.02022432420768149
53:02.0;0.03399999360882449;-0.5909010071673846;-0.9974604742036767;1.155;0.02003960979280333
53:02.0;0.03399998960166318;-0.5838722666131582;-1.0003127259385698;1.155;0.019857859119736008
53:02.0;0.03399998754870688;-0.5773280845839072;-1.0029683411817638;1.155;0.019687413694814988
53:02.0;0.033999987100953484;-0.5715220865096109;-1.0053244001701027;1.155;0.01953520594800223
53:02.0;0.033999987866715535;-0.5666243319693297;-1.0073118939925134;1.155;0.019406085661337537
53:02.0;0.03399998945625527;-0.5627164358687214;-1.0088977043049383;1.155;0.019302586905038978
53:02.0;0.03399999151430729;-0.5597990021540092;-1.0100815866814945;1.155;0.019225045788654235
53:02.0;0.0339999937409734;-0.5578064849807616;-1.0108901399535974;1.155;0.019171953043407044
53:02.0;0.03399999590233033;-0.5566255323578204;-1.0113693623962294;1.155;0.019140434024842907
53:02.0;0.03399999783260433;-0.5561138185125255;-1.0115770096145669;1.155;0.01912676520095944
53:02.0;0.03399999942998567;-0.5561172695591479;-1.0115756044413649;1.155;0.019126858224551378
53:02.0;0.03400000064814;-0.5564843847388311;-1.011426625456274;1.155;0.019136666559568374
53:02.0;0.034000001485288325;-0.5570770221969975;-1.0111861301941314;1.155;0.019152491818720998
53:02.0;0.03400000197243205;-0.5577775400291534;-1.010901857378513;1.155;0.01917118505363491
53:02.0;0.03400000216195048;-0.5584925601778844;-1.0106116995914558;1.155;0.019190251145565055
53:02.0;0.034000002117437686;-0.559153865509038;-1.0103433392849754;1.155;0.019207872240404825
53:02.0;0.034000001905308816;-0.5597170672322691;-1.0101147895698712;1.155;0.01922286965514424
53:02.0;0.034000001588413875;-0.5601587131263953;-1.009935567706298;1.155;0.019234623968799984
53:02.0;0.03400000122166315;-0.5604724705209265;-1.0098082440361094;1.155;0.01924297121519313
53:02.0;0.03400000084949667;-0.5606649345577306;-1.0097301429521373;1.155;0.019248090154571046
53:02.0;0.03400000050491877;-0.5607515023469425;-1.0096950171016232;1.155;0.019250392209445487
53:02.0;0.03400000020976065;-0.5607526342305059;-1.0096945644750002;1.155;0.019250422269881863
53:02.0;0.03399999997582;-0.5606907075637731;-1.0097197050258897;1.155;0.019248775485280437
53:02.0;0.03399999980654626;-0.5605875653846476;-1.0097615752847529;1.155;0.01924603251616039
53:02.0;0.033999999698982694;-0.5604627776058024;-1.0098122338169482;1.155;0.019242713590098062
53:02.0;0.03399999964573172;-0.5603325683858622;-1.009865096342761;1.155;0.019239250106870807
53:02.0;0.03399999963677081;-0.5602093200980407;-1.0099151368868957;1.155;0.019235971449030383
53:02.0;0.03399999966100487;-0.5601015400195987;-1.0099589011880072;1.155;0.019233104029242148
53:02.0;0.03399999970749405;-0.5600141675646152;-1.0099943819708346;1.155;0.01923077937874276
53:02.0;0.033999999766339765;-0.5599491040435629;-1.0100208039971694;1.155;0.019229048172812575
53:02.0;0.03399999982924527;-0.5599058598997477;-1.0100383615501842;1.155;0.01922789741352029
53:02.0;0.03399999988979042;-0.5598822327111901;-1.010047943562149;1.155;0.01922726846243096
53:02.0;0.03399999994347366;-0.559874949980001;-1.0100508731755657;1.155;0.019227074159312726
53:02.0;0.033999999987580284;-0.5598802314714251;-1.0100486801008353;1.155;0.019227213812593513
53:02.0;0.034000000020934285;-0.5598942448581736;-1.010042916410904;1.155;0.01922758535441853
53:02.0;0.034000000043586255;-0.5599134445339693;-1.010035019856992;1.155;0.019228094384963625
53:02.0;0.03400000005648076;-0.5599347960925923;-1.0100262236398643;1.155;0.01922866016972922
53:02.0;0.03400000006113694;-0.5599558979863871;-1.0100175078857874;1.155;0.01922921889532233
53:02.0;0.034000000059365876;-0.5599750174859187;-1.0100095857743354;1.155;0.019229724639043745
53:02.0;0.03400000005303883;-0.5599910606998838;-1.0100029161710444;1.155;0.01923014857744274
53:02.0;0.03400000004391239;-0.5600034966564408;-1.0099977345019573;1.155;0.019230476964667054
53:02.0;0.03400000003351006;-0.5600122539196299;-1.0099940942196888;1.155;0.019230708370036015
53:02.0;0.0340000000230554;-0.5600176055278503;-1.0099919123087788;1.155;0.019230850592384774
53:02.0;0.034000000013448405;-0.5600200547428454;-1.0099910136442791;1.155;0.019230917581135563
53:02.0;0.03400000000527563;-0.560020230642148;-1.0099911704711968;1.155;0.019230926602933608
53:02.0;0.033999999998844295;-0.560018799323423;-1.0099921346751282;1.155;0.01923089580729977
53:02.0;0.03399999999423093;-0.5600163936550754;-1.0099936617696732;1.155;0.019230842271413976
53:02.0;0.03399999999133664;-0.5600135622422628;-1.0099955265756126;1.155;0.01923078054643611
53:02.0;0.03399999998994255;-0.5600107366320999;-1.009997531383721;1.155;0.01923072168690261
53:02.0;0.033999999989760686;-0.560008214737032;-1.0099995079749986;1.155;0.01923067271998479
53:02.0;0.033999999990477286;-0.5600061579395896;-1.0100013152329537;1.155;0.019230636500570202
53:02.0;0.03399999999178679;-0.5600045992489252;-1.0100028342455298;1.155;0.019230611898040737
53:02.0;0.03399999999341619;-0.5600034600850264;-1.0100039627858206;1.155;0.019230594267504186
53:02.0;0.033999999995140265;-0.560002573640761;-1.0100046109063447;1.155;0.019230576168135317
53:02.0;0.03399999999678868;-0.5600017131918469;-1.0100046991032827;1.155;0.019230548300391902
53:02.0;0.03399999999824659;-0.5600006240827861;-1.0100041601223648;1.155;0.01923050063882924
53:02.0;0.03399999999945024;-0.5599990583274244;-1.0100029450013237;1.155;0.019230423735383723
53:02.0;0.0340000000003792;-0.5599968107683913;-1.0100010333882015;1.155;0.01923031015760033
53:02.0;0.034000000001046665;-0.5599937555140051;-1.009998447555819;1.155;0.01923015600673532
53:02.0;0.03400000000148898;-0.5599898809221627;-1.0099952688719689;1.155;0.01922996243265924
53:02.0;0.03400000000175534;-0.5599853207716788;-1.009991654813977;1.155;0.01922973702811539
53:02.0;0.03400000000189841;-0.5599803785313523;-1.0099878539799767;1.155;0.019229494947722057
53:02.0;0.034000000001966284;-0.5599755409181225;-1.0099842160075552;1.155;0.019229259562150346
53:02.0;0.03400000000199615;-0.5599714763695933;-1.0099811929386449;1.155;0.01922906243145173
53:02.0;0.03400000000200978;-0.5599690138061648;-1.0099793284557725;1.155;0.019228942370816356
53:02.0;0.03400000000201102;-0.5599690972976842;-1.009979231654615;1.155;0.019228943394864823
53:02.0;0.034000000001985296;-0.5599727131476152;-1.0099815327055806;1.155;0.019229111370459257
53:02.0;0.034000000001901065;-0.5599807876082843;-1.0099868189738175;1.155;0.019229489289415286
53:02.0;0.034000000001713285;-0.5599940560395467;-1.0099955519652566;1.155;0.019230111195684463
53:02.0;0.03400000000136888;-0.5600129078411406;-1.010007967852841;1.155;0.019230994967453948
53:02.0;0.034000000000814073;-0.560037215844414;-1.0100239672546623;1.155;0.019232134359413126
53:02.0;0.034000000000003264;-0.5600661638316239;-1.0100430032452572;1.155;0.019233490944508328
53:02.0;0.03399999999890915;-0.5600980911002528;-1.010063980047652;1.155;0.019234986841252535
53:02.0;0.033999999997533524;-0.560130377983445;-1.0100851781371565;1.155;0.019236499347869508
53:02.0;0.03399999999591779;-0.5601594002934135;-1.0101042241449716;1.155;0.0192378587963405
53:02.0;0.03399999999415225;-0.5601805829511287;-1.0101181254463802;1.155;0.019238851049000916
53:02.0;0.033999999992382665;-0.5601885826865428;-1.01012338905866;1.155;0.01923922604396979
53:02.0;0.0339999999908126;-0.5601776256992356;-1.0101162418462923;1.155;0.01923871360808285
53:02.0;0.03399999998969991;-0.5601420176960197;-1.0100929634732483;1.155;0.019237047355267798
53:02.0;0.03399999998934564;-0.5600768301094031;-1.0100503346243195;1.155;0.019233996842662013
53:02.0;0.03399999999007405;-0.5599787472419412;-1.0099861905403147;1.155;0.019229407252540655
53:02.0;0.03399999999220271;-0.5598470347866364;-1.0099000540137966;1.155;0.01922324471838809
53:02.0;0.03399999999600283;-0.5596845615336342;-1.0097938032558595;1.155;0.019215644066238585
53:02.0;0.03400000000165042;-0.5594987748045839;-1.009672309592375;1.155;0.01920695428674798
53:02.0;0.0340000000091709;-0.5593024989006244;-1.00954395950766;1.155;0.019197775621468877
53:02.0;0.03400000001838111;-0.5591143982073237;-1.0094209574776916;1.155;0.019188980910425965
53:02.0;0.03400000002883426;-0.5589589270565227;-1.0093192932567303;1.155;0.019181713009619177
53:02.0;0.034000000039775435;-0.5588655821756111;-1.0092582531835037;1.155;0.019177349864286857
53:02.0;0.03400000005011653;-0.5588672860695796;-1.0092593632582656;1.155;0.01917742943193943
53:02.0;0.034000000058440664;-0.558997766303923;-1.0093446756905484;1.155;0.019183528283793792
53:02.0;0.03400000006304621;-0.559287860829959;-1.0095343532338128;1.155;0.01919709053665001
53:02.0;0.0340000000620399;-0.5597607759310473;-1.0098435686808733;1.155;0.019219207900577986
53:02.0;0.03400000005348615;-0.5604264510863919;-1.0102788204044275;1.155;0.019250357143801144
53:02.0;0.03400000003561574;-0.5612753403596776;-1.0108338663781509;1.155;0.019290108181755316
53:02.0;0.03400000000709159;-0.5622720944649522;-1.0114855932409084;1.155;0.019336824187144667
53:02.0;0.03399999996732149;-0.563349807629033;-1.012190254638192;1.155;0.019387384279336003
53:02.0;0.033999999916798994;-0.5644056590305043;-1.0128806213920305;1.155;0.019436968810059872
53:02.0;0.03399999985744306;-0.5652989043395905;-1.013464668268099;1.155;0.019478955781328296
53:02.0;0.03399999979289686;-0.5658522279090469;-1.0138264580870326;1.155;0.01950498252192721
53:02.0;0.03399999972873619;-0.5658574159789588;-1.0138298511118546;1.155;0.019505226597325072
53:02.0;0.03399999967253019;-0.565086120079846;-1.013325542641639;1.155;0.019468950587637205
53:02.0;0.033999999633693545;-0.5633061139377655;-1.0121616925113415;1.155;0.01938533336044586
53:02.0;0.03399999962307102;-0.5603028791727559;-1.0101980388045595;1.155;0.019244573355665286
53:02.0;0.033999999652204536;-0.5559055686504077;-1.0073228738803062;1.155;0.019039197235888566
53:02.0;0.03399999973225167;-0.5500153914666078;-1.00347160377779;1.155;0.018765443969456893
53:02.0;0.033999999872553435;-0.5426332612351467;-0.9986448259369409;1.155;0.018424528487205074
53:02.0;0.034000000078888856;-0.5338821953363451;-0.9929229748570367;1.155;0.018023532560782648
53:02.0;0.034000000351504044;-0.5240185190577732;-0.9864736478787774;1.155;0.01757563582343566
53:02.0;0.03400000068306146;-0.5134245116006155;-0.9795467968029452;1.155;0.01709939375863653
53:02.0;0.034000001056717674;-0.5025754871317621;-0.9724532039631181;1.047;0.016616859368067474
53:02.0;0.03400000144459919;-0.4919814794655992;-0.9655263529802496;1.047;0.01615071752869149
53:02.0;0.034000001806998144;-0.48211780280293226;-0.9590770261708467;1.047;0.01572119652712726
53:02.0;0.03400000209264412;-0.47336673641134397;-0.9533551753023917;1.047;0.015343746295490077
53:02.0;0.03400000224041408;-0.46598460567423416;-0.9485283976678185;1.047;0.01502798845643595
53:02.0;0.03400000218280785;-0.4600944280921776;-0.9446771277070048;1.047;0.014777784164077016
53:02.0;0.03400000185143223;-0.45569711741625124;-0.9418019627929248;1.047;0.014591999741729008
53:02.0;0.03400000118459288;-0.4526938828864673;-0.9398383088957621;1.047;0.014465608317537867
53:02.0;0.03400000013688524;-0.45091387750608086;-0.9386744583104276;1.047;0.01439088560816918
53:02.0;0.033999998690405105;-0.4501425830098826;-0.9381701490697941;1.047;0.014358550809916028
53:02.0;0.03399999686687243;-0.4501477731965022;-0.9381735409811476;1.047;0.014358767508542203
53:02.0;0.03399999473959892;-0.45070109960562654;-0.9385353293493524;1.047;0.01438196054337649
53:02.0;0.03399999244385648;-0.45159434840138263;-0.9391193744870175;1.047;0.01441943086317964
53:02.0;0.03399999018386179;-0.45265020375537063;-0.9398097393173064;1.047;0.014463768203935893
53:02.0;0.03399998823433157;-0.45372792103584797;-0.940514398767894;1.047;0.014509074836292447
53:02.0;0.033999986934444094;-0.4547246789908447;-0.9411661238845216;1.047;0.014551024169370102
53:02.0;0.033999986672130666;-0.45557357129186205;-0.9417211685942324;1.047;0.014586785663912924
53:02.0;0.03399998785698143;-0.4562392479921297;-0.9421564198634954;1.047;0.014614851820981076
53:02.0;0.033999990880741016;-0.45671216242718193;-0.9424656360183945;1.047;0.014634803708482219
53:02.0;0.03399999606543186;-0.45700225334038025;-0.9426553157770953;1.047;0.014647048821741632
53:02.0;0.03400000360058938;-0.4571327263536856;-0.9427406322284998;1.047;0.014652559797171727
53:02.0;0.03400001347289598;-0.4571344189348731;-0.9427417483206091;1.047;0.01465263565129762
53:02.0;0.03400002539358255;-0.4570410584643117;-0.9426807162965116;1.047;0.014648699881249217
53:02.0;0.034000038731186434;-0.45688556769034994;-0.9425790619665165;1.047;0.014642142853481975
53:02.0;0.03400005245940874;-0.45669744414024965;-0.9424560711964085;1.047;0.014634210063051238
53:02.0;0.034000065131626345;-0.45650114361268884;-0.9423277329360042;1.047;0.014625933401182
53:02.0;0.034000074894751306;-0.4563153327007084;-0.9422062504974484;1.047;0.01461809959521257
53:02.0;0.03400007955521439;-0.45615283866848244;-0.9421000088453361;1.047;0.014611248361894275
53:02.0;0.034000076708483915;-0.456021112489236;-0.9420138774758675;1.047;0.014605692309446396
53:02.0;0.03400006394034628;-0.4559230271220602;-0.9419497325591033;1.047;0.014601550957417506
53:02.0;0.03400003910287292;-0.45585785265269557;-0.9419070947942717;1.047;0.01459879214128791
53:02.0;0.03400000066042044;-0.45582227757347904;-0.9418837974997792;1.047;0.014597275288260212
53:02.0;0.0339999480912019;-0.4558113767445483;-0.9418766198939633;1.047;0.014596792395085073
53:02.0;0.03399988231824776;-0.4558194578628728;-0.9418818409666793;1.047;0.014597103860011177
53:02.0;0.03399980613060324;-0.4558407469250015;-0.941895688068232;1.047;0.014597967516446564
53:02.0;0.033999724542429326;-0.4558698974866642;-0.9419146702293228;1.047;0.014599160222517137
53:02.0;0.0339996450257365;-0.45590232760504645;-0.9419357986914392;1.047;0.0146004921477955
53:02.0;0.03399957754362038;-0.4559344019852367;-0.9419567060342974;1.047;0.014601814461160009
53:02.0;0.03399953430723681;-0.4559634853450022;-0.9419756808363768;1.047;0.01460302147643355
53:02.0;0.033999529183681786;-0.45598789701839676;-0.9419916374278613;1.047;0.014604048482899975
53:02.0;0.03399957669573822;-0.45600679719833775;-0.9420040405566912;1.047;0.01460486651171049
53:02.0;0.033999690580124774;-0.4560200329067862;-0.942012803301544;1.047;0.014605475205474385
53:02.0;0.033999881909801744;-0.4560279676907618;-0.9420181739281928;1.047;0.01460589480509333
53:02.0;0.03400015683839001;-0.45603131399137303;-0.9420206241331637;1.047;0.014606158079379873
53:02.0;0.0340005140897266;-0.4560309818019746;-0.9420207476948762;1.047;0.014606302827408218
53:02.0;0.03400094239004979;-0.45602795214335806;-0.9420191752965832;1.047;0.014606365401854747
53:02.0;0.03400141811912802;-0.4560231794024077;-0.9420165084304175;1.047;0.014606375547164024
53:02.0;0.034001903532285584;-0.45601752292346387;-0.9420132729727555;1.047;0.014606352725312763
53:02.0;0.03400234596781364;-0.4560117055016719;-0.9420098912892481;1.047;0.014606304013908536
53:02.0;0.03400267849165731;-0.45600629459958963;-0.942006670568305;1.047;0.014606223600832292
53:02.0;0.03400282243002286;-0.45600170111629656;-0.9420038044320009;1.047;0.014606093857366947
53:02.0;0.0340026921866703;-0.45599819026126526;-0.9420013846408724;1.047;0.01460588793635355
53:02.0;0.034002202622147;-0.45599589937963275;-0.9419994197875576;1.047;0.014605573801455543
53:02.0;0.034001279076925066;-0.45599485829228925;-0.9419978581566172;1.047;0.014605119537226952
53:02.0;0.03399986984423858;-0.4559950087115994;-0.9419966123165968;1.047;0.01460449970909192
53:02.0;0.033997960543790624;-0.45599622044449106;-0.9419955834246594;1.047;0.014603702433254486
53:02.0;0.03399558942678977;-0.4559983032899755;-0.9419946836043835;1.047;0.01460273667987862
53:02.0;0.03399286218053305;-0.4560010146866721;-0.9419938550673626;1.047;0.014601639175687735
53:02.0;0.03398996433530713;-0.4560040641919088;-0.9419930848761215;1.047;0.014600480108286622
53:02.0;0.03398716896043855;-0.4560071167138023;-0.9419924143982484;1.047;0.014599366684764055
53:02.0;0.03398483703612559;-0.4560097970162446;-0.9419919426066333;1.047;0.014598443488644166
53:02.0;0.03398340778026799;-0.4560116983247342;-0.9419918224796405;1.047;0.014597888544275885
53:02.0;0.03398337637775082;-0.45601239783439196;-0.9419922498981281;1.047;0.014597904071416187
53:02.0;0.03398525708477288;-0.45601148152285004;-0.9419934446764662;1.047;0.014598701129814763
53:02.0;0.03398953063243866;-0.4560085798732805;-0.9419956237510198;1.047;0.014600477744042705
53:02.0;0.033996576277598466;-0.4560034149073384;-0.9419989671194123;1.047;0.014603390682545642
53:02.0;0.03400659075246528;-0.4559958573311577;-0.9420035778956187;1.047;0.014607521845728144
53:02.0;0.034019498702714694;-0.45598599066297296;-0.9420094388112898;1.047;0.014612841177137924
53:02.0;0.03403486186457929;-0.4559741770382389;-0.9420163686110968;1.047;0.014619169102583967
53:02.0;0.03405179702452633;-0.45596111713237686;-0.9420239829791421;1.047;0.014626142644610242
53:02.0;0.03406891545513439;-0.455947894518347;-0.9420316657731306;1.047;0.014633190439660501
53:02.0;0.034084298668260765;-0.4559359930627578;-0.9420385572709989;1.047;0.014639522754574497
53:02.0;0.034095526538652644;-0.45592727499010804;-0.9420435666539032;1.047;0.014644143082024025
53:02.0;0.034099773644815305;-0.4559239073762348;-0.9420454158386075;1.047;0.014645887798017494
53:02.0;0.034093987553623695;-0.45592822644377407;-0.9420427208036829;1.047;0.014643499493354573
53:02.0;0.034075158285320865;-0.45594253246791516;-0.9420341145175769;1.047;0.014635737766864476
53:02.0;0.03404068098794882;-0.45596881362146563;-0.9420184123113822;1.047;0.01462152835378238
53:02.0;0.03398880376327437;-0.4560084048136068;-0.9419948159689072;1.047;0.014600147386615886
53:02.0;0.03391913973151418;-0.4560615974180012;-0.94196314697987;1.047;0.014571432372789518
53:02.0;0.03383320727102924;-0.45612722738039535;-0.941924092531198;1.047;0.014536005275607727
53:02.0;0.03373494582921809;-0.4562022818485268;-0.941879440307746;1.047;0.014495486219184013
53:02.0;0.03363113816942071;-0.45628157710967754;-0.9418322706715951;1.047;0.014452669324004457
53:02.0;0.033531655299042985;-0.45635757179960595;-0.9417870681531872;1.047;0.014411625779261077
53:02.0;0.033449429988728525;-0.45642038724908707;-0.9417497094962024;1.047;0.014377694499401954
53:02.0;0.03340006147759859;-0.45645810937161835;-0.9417272839952937;1.047;0.014357318883614242
53:02.0;0.03340096057920159;-0.4564574414434456;-0.9417277048763991;1.047;0.014357690777972016
53:02.0;0.03346996377202968;-0.4564047623358646;-0.9417590792734353;1.047;0.01438617124175067
53:02.0;0.033623379326686055;-0.45628761843641424;-0.9418288200211434;1.047;0.01444947340796575
53:02.0;0.033873479523460544;-0.4560966385454139;-0.9419425056642009;1.047;0.014552616234642103
53:02.0;0.03422552055854366;-0.4558278094508119;-0.9421025257820768;1.047;0.01469768880682208
53:02.0;0.034674453873463865;-0.4554849871578086;-0.942306586061078;1.047;0.0148825010991588
53:02.0;0.03520158495056789;-0.45508244825585725;-0.9425461895007468;1.047;0.015099235051147845
53:02.0;0.03577153079260501;-0.45464721322297036;-0.9428052534010178;1.047;0.015333244213630946
53:02.0;0.03632991491377469;-0.45422080656288083;-0.9430590615971733;1.047;0.015562175091845779
53:02.0;0.036802305168996026;-0.45386006788724853;-0.9432737816353195;1.047;0.01575559321036609
53:02.0;0.03709492884828052;-0.45363660583189247;-0.9434067898075945;1.047;0.015875288715512297
53:02.0;0.037097672921571685;-0.4536345069634233;-0.9434080349015487;1.047;0.015876410576500535
53:02.0;0.03668977621516962;-0.4539459890393705;-0.9432226255615628;1.047;0.01570953954486279
53:02.0;0.035748426806002674;-0.45466483574483946;-0.9427947382081152;1.047;0.01532376387024847
53:02.0;0.03416017752861917;-0.455877679419016;-0.9420728059194888;1.047;0.014670770234162285
53:02.0;0.03183467658825418;-0.45765351588300507;-0.9410157596347923;1.047;0.01370989542530923
53:02.0;0.02871967884637684;-0.4600322412981311;-0.9395998514799151;1.047;0.012413972781781833
53:02.0;0.02481566750779744;-0.4630134865330019;-0.9378253010015082;1.047;0.010775602142432011
53:02.0;0.020187699874558516;-0.4665475713306335;-0.9357216796109006;1.047;0.00881311555020006
53:02.0;0.014971332610764297;-0.4705309795725865;-0.9333506038942222;1.047;0.006574965740974819
53:02.0;0.009368732609997966;-0.47480932917024443;-0.9308039678304599;1.047;0.004140552670188948
53:02.0;0.0036312679354850333;-0.4791906662609051;-0.9281960295859043;1.044;0.0016151257880208008
53:02.0;-0.0019713320120056783;-0.48346901562713607;-0.9256493934102507;1.044;0.0008822160238081922
53:02.0;-0.007187699180076494;-0.4874524234748593;-0.9232783175066466;1.044;0.0032348545882279105
53:02.0;-0.011815666696210484;-0.4909865078479288;-0.9211746959251044;1.044;0.005344041096894012
53:02.0;-0.015719677926383478;-0.493967752814482;-0.919400145351486;1.044;0.0071391549821101805
53:02.0;-0.018834675605706053;-0.49634647834321793;-0.9179842373171867;1.044;0.008581798507370635
53:02.0;-0.0211601765708413;-0.49812231554698194;-0.9169271914978592;1.044;0.009664739162786502
53:02.0;-0.022748426002467025;-0.49933516082368296;-0.9162052601428914;1.044;0.010407257052309923
53:02.0;-0.02368977573359552;-0.5000540101917909;-0.9157773742921332;1.044;0.010848452036820645
53:02.0;-0.02409767295858286;-0.5003654961126297;-0.9155919670823367;1.044;0.01103988206623821
53:02.0;-0.024094929613932174;-0.5003634022795312;-0.9155932149294193;1.044;0.011038594108036776
53:02.0;-0.023802306864831507;-0.5001399463057525;-0.9157262263897287;1.044;0.010901248647540388
53:02.0;-0.023329917704604172;-0.49977921442652645;-0.915940950061329;1.044;0.010679695564883055
53:02.0;-0.022771534772927038;-0.499352814733535;-0.91619476193261;1.044;0.010418078109727514
53:02.0;-0.022201590107465762;-0.4989175860707288;-0.9164538291272066;1.044;0.010151342546929227
53:02.0;-0.02167446004886102;-0.4985150519610393;-0.9166934349465342;1.044;0.009904913428485535
53:02.0;-0.021225527414822542;-0.4981722317268187;-0.9168974960677735;1.044;0.009695245114453457
53:02.0;-0.020873486517528867;-0.4979034006986857;-0.9170575148194442;1.044;0.009530960338393651
53:02.0;-0.02062338569846883;-0.4977124136289486;-0.9171711962292335;1.044;0.00941431756838669
53:02.0;-0.02046996855390041;-0.49759525620630257;-0.9172409293114672;1.044;0.009342795277564826
53:02.0;-0.020400962632844792;-0.4975425564688525;-0.9172722922387702;1.044;0.009310632153978033
53:02.0;-0.020400059564014958;-0.497541860590014;-0.9172726977803917;1.044;0.009310211104248732
53:02.0;-0.020449422875364713;-0.4975795479995564;-0.9172502534306333;1.044;0.009333218162467046
53:02.0;-0.020531641905202316;-0.49764232352179055;-0.9172128733152481;1.044;0.00937154363758611
53:02.0;-0.02063111774711505;-0.49771827578958006;-0.917167648260715;1.044;0.009417921644973229
53:02.0;-0.020734918171489404;-0.4977975301369278;-0.917120457227818;1.044;0.009466325730266357
53:02.0;-0.020833172933681383;-0.497872550491835;-0.9170757876428285;1.044;0.00951215304254392
53:02.0;-0.020919100247506935;-0.4979381595807624;-0.9170367233549147;1.044;0.0095522380861361
53:02.0;-0.020988761822298092;-0.4979913518108981;-0.9170050559394547;1.044;0.009584740303088127
53:02.0;-0.02104064054768334;-0.4980309706668117;-0.9169814765742285;1.044;0.009608948607721976
53:02.0;-0.021075124576546145;-0.4980573145695372;-0.9169658104146914;1.044;0.009625041619812287
53:02.0;-0.021093966939807942;-0.49807172398861765;-0.9169572620420243;1.044;0.009633835857502842
53:02.0;-0.021099773299259744;-0.4980761899830165;-0.9169546480751031;1.044;0.009636546618021718
53:02.0;-0.021095553909896755;-0.49807301172842916;-0.9169566005597839;1.044;0.009634578602783517
53:02.0;-0.02108436071825551;-0.4980645190330551;-0.9169617316406838;1.044;0.009629356235619757
53:02.0;-0.021069017675334135;-0.4980528660435701;-0.916968755869128;1.044;0.009622197553167879
53:02.0;-0.02105194226264236;-0.4980398946565424;-0.9169765710914395;1.044;0.009614230771693358
53:02.0;-0.021035049028624523;-0.4980270606613148;-0.9169843021429233;1.044;0.009606349225467527
53:02.0;-0.021019721447527825;-0.49801541222271983;-0.916991313617436;1.044;0.009599198256138735
53:02.0;-0.021006836294375986;-0.4980056086973296;-0.9169971989477392;1.044;0.009593186641781565
53:02.0;-0.020996824521298012;-0.4979979676145146;-0.9170017531239784;1.044;0.0095885150664373
53:02.0;-0.020989753825248827;-0.4979925285621044;-0.9170049358209283;1.044;0.009585214705936951
53:02.0;-0.02098542023109816;-0.4979891243245959;-0.9170068307177822;1.044;0.009583190012268993
53:02.0;-0.020983438643570274;-0.4979874515973889;-0.9170076055734265;1.044;0.0095822610119421
53:02.0;-0.02098332508691275;-0.4979871356685178;-0.9170074763286147;1.044;0.009582201725758178
53:02.0;-0.020984565977722677;-0.4979877854109133;-0.917006677269818;1.044;0.009582772541167524
53:02.0;-0.020986672075271617;-0.4979890366216713;-0.9170054381955898;1.044;0.009583745437443971
53:02.0;-0.020989216615654713;-0.49799058310097705;-0.9170039686280687;1.044;0.009584921828713708
53:02.0;-0.020991858519973604;-0.49799219585704746;-0.9170024484334448;1.044;0.009586143432153896
53:02.0;-0.020994352485418245;-0.4979937314728421;-0.9170010237565087;1.044;0.009587296994973356
53:02.0;-0.020996548273525987;-0.4979951310250601;-0.9169998069200617;1.044;0.009588313948560682
53:02.0;-0.02099838167879307;-0.49799641107595455;-0.9169988788640147;1.044;0.009589166137291244
53:02.0;-0.02099985958180554;-0.4979976482430835;-0.9169982927703617;1.044;0.00958985873430083
53:02.0;-0.021001041253870516;-0.49799895877062983;-0.916998077706643;1.044;0.009590421348993168
53:02.0;-0.021002017767158584;-0.4980004744497465;-0.9169982413912454;1.044;0.009590898189698868
53:02.0;-0.02100289104453458;-0.49800231622139224;-0.9169987715109457;1.044;0.009591338001992288
53:02.0;-0.021003753807992617;-0.498004566880582;-0.9169996353795087;1.044;0.009591784382702738
53:02.0;-0.021004671485726056;-0.49800724449985545;-0.9170007780933218;1.044;0.009592266986296451
53:02.0;-0.02100566702696022;-0.4980102784904591;-0.9170021196945403;1.044;0.009592794099043763
53:02.0;-0.02100670954292226;-0.4980134905843008;-0.9170035521723945;1.044;0.009593347052807495
53:02.0;-0.021007707716340522;-0.4980165833848584;-0.9170049373960172;1.044;0.009593876971403088
53:02.0;-0.02100850896064124;-0.49801913941511294;-0.9170061072520123;1.044;0.009594304368052925
53:02.0;-0.02100890531276992;-0.49802063368224053;-0.9170068673293903;1.044;0.009594522116841725
53:02.0;-0.02100864695361345;-0.4980204625698418;-0.9170070054247144;1.044;0.00959440227558912
53:02.0;-0.02100746401051991;-0.4980179912477969;-0.9170063059036873;1.044;0.009593807113391575
53:02.0;-0.02100509685719221;-0.4980126206610388;-0.9170045705290338;1.044;0.009592604467848187
53:02.0;-0.021001334451173557;-0.49800387345601527;-0.9170016457347465;1.044;0.009590687206683567
53:02.0;-0.020996059324297503;-0.4979914959103434;-0.916997455494905;1.044;0.009587996089879026
53:02.0;-0.02098929668311028;-0.4979755700972051;-0.9169920379236366;1.044;0.009584544731357137
53:02.0;-0.020981263738295883;-0.497956627275938;-0.9169855826005445;1.044;0.009580444673439095
53:02.0;-0.02097241396194623;-0.4979357500871257;-0.9169784644240399;1.044;0.009575927864882934
53:02.0;-0.020963469613172445;-0.4979146478838288;-0.9169712686691314;1.044;0.009571363149658469
53:02.0;-0.020955434765934818;-0.49789568689514957;-0.9169648010165062;1.044;0.009567262825414148
53:02.0;-0.020949580447680652;-0.4978818554303146;-0.9169600758066079;1.044;0.009564275031179422
53:02.0;-0.020947393610090764;-0.4978766445895579;-0.9169582758569212;1.044;0.009563157795693325
53:02.0;-0.020950482767560476;-0.4978838275667871;-0.9169606780690202;1.044;0.009564731142673763
53:02.0;-0.020960435497494857;-0.49790712617328886;-0.9169685409335541;1.044;0.009569804817306245
53:02.0;-0.02097862678484675;-0.4979497621137658;-0.9169829530608916;1.044;0.009579081055500118
53:02.0;-0.02100598249862914;-0.498013903007042;-0.9170046460893595;1.044;0.009593034414198218
53:02.0;-0.02104270905299467;-0.498100029026933;-0.9170337807045901;1.044;0.009611774017121946
53:02.0;-0.02108800828239002;-0.498206264762038;-0.9170697208447962;1.044;0.009634897576710714
53:02.0;-0.021139805271394897;-0.4983277413350044;-0.9171108180880087;1.044;0.009661351064709722
53:02.0;-0.021194525588706534;-0.49845607425477817;-0.917154235133944;1.044;0.009689312622171195
53:02.0;-0.02124696607784235;-0.4985790605463774;-0.9171958434092711;1.044;0.00971612374496401
53:02.0;-0.021290308803467158;-0.4986807114785565;-0.9172302341485766;1.044;0.009738294246578716
53:02.0;-0.021316329498728546;-0.4987417413070169;-0.9172508836901352;1.044;0.009751609029831304
53:02.0;-0.021315848368867105;-0.4987406242667235;-0.9172505109572867;1.044;0.009751363123823836
53:02.0;-0.021279460894923097;-0.49865530810055236;-0.9172216569957603;1.044;0.009732745518206262
53:02.0;-0.021198568109443473;-0.49846562979790504;-0.9171575020223149;1.044;0.009691381008089922
53:02.0;-0.021066698927033545;-0.498156416162353;-0.9170529141109064;1.044;0.009624022112851295
53:02.0;-0.020881081501180968;-0.49772116832002794;-0.9169056953954506;1.044;0.009529360805635436
53:02.0;-0.02064437727343319;-0.497166127732233;-0.9167179573190694;1.044;0.009408904447208356
53:02.0;-0.02036644271208489;-0.49651440715117945;-0.91649751785694;1.044;0.009267835737843306
53:02.0;-0.020065933556528925;-0.4958097522882369;-0.9162591738383403;1.044;0.009115757651077052
53:02.0;-0.019771520191215926;-0.49511939164843466;-0.9160256648561169;1.044;0.008967216192947892
53:02.0;-0.019522447710991594;-0.4945353497683445;-0.9158281174424863;1.044;0.008841899657379953
53:02.0;-0.019368158896270728;-0.49417356311643296;-0.9157057460207522;1.044;0.008764432223852611
53:02.0;-0.019366712310664815;-0.494170170729626;-0.9157045982418645;1.044;0.008763706472386201
53:02.0;-0.01958178104179521;-0.4946744766604785;-0.9158751745952151;1.044;0.00887172314198416
53:02.0;-0.020078119628201236;-0.4958383205376897;-0.9162688330999843;1.044;0.009121915390484858
53:02.0;-0.020915545100065134;-0.49780196393337145;-0.9169330155028268;1.044;0.009546922645913503
53:02.0;-0.022141697350707673;-0.5006771144330254;-0.9179055053317344;1.044;0.010175754611988344
53:02.0;-0.023784124257696614;-0.5045283663376786;-0.9192081503908733;1.044;0.011030282118480221
53:02.0;-0.025842572226581623;-0.5093551230499964;-0.9208407481788417;1.044;0.012121069639307291
53:02.0;-0.0282827403856766;-0.5150769515077247;-0.9227760921597239;1.044;0.013442806203500942
53:02.0;-0.031033156444630214;-0.5215262564613814;-0.924957493892427;1.044;0.014970072519142558
53:02.0;-0.033987227338991;-0.528453088862816;-0.9273004093907341;1.044;0.016654922984029537
53:02.0;-0.03701241845460259;-0.5355466697258966;-0.9296997193106284;1.0979999999999999;0.01842839389391039
53:02.0;-0.03996651439339831;-0.5424735192113356;-0.9320426256926951;1.0979999999999999;0.02020740712315562
53:02.0;-0.04271698144515639;-0.5489228589475585;-0.934224008866147;1.0979999999999999;0.021905990593447392
53:02.0;-0.04515722801457885;-0.5546447408846873;-0.9361593243142874;1.0979999999999999;0.023447251484891594
53:02.0;-0.0472157831941791;-0.5594715707112239;-0.9377918830985218;1.0979999999999999;0.024772605713234804
53:02.0;-0.048858346497056844;-0.5633229156212616;-0.9390944785496165;1.0979999999999999;0.025846721938481948
53:02.0;-0.05008466262349096;-0.5661981778481062;-0.9400669087936144;1.0979999999999999;0.026658271421803697
53:02.0;-0.05092227449195922;-0.5681619483048491;-0.9407310234454159;1.0979999999999999;0.02721732280868354
53:02.0;-0.051418812683617636;-0.5693259282217417;-0.9411246094259406;1.0979999999999999;0.027550541351087678
53:02.0;-0.05163407969026242;-0.5698303692538949;-0.9412951137734956;1.0979999999999999;0.02769541239511898
53:02.0;-0.05163280981988809;-0.5698270972345693;-0.9412939018659764;1.0979999999999999;0.02769453658168983
53:02.0;-0.05147865036924569;-0.5694653986333728;-0.9411714835694643;1.0979999999999999;0.027590733948591416
53:02.0;-0.05122962946537354;-0.568881391741384;-0.9409739175958793;1.0979999999999999;0.02742335138233939
53:02.0;-0.050935156662992816;-0.5681909903850114;-0.9407404304377242;1.0979999999999999;0.027225872004291014
53:02.0;-0.05063444394866598;-0.5674861965448129;-0.9405021606471312;1.0979999999999999;0.027024716388746466
53:02.0;-0.050356132699932964;-0.5668342189722331;-0.9402818583387982;1.0979999999999999;0.026839009646265323
53:02.0;-0.05011885872765814;-0.5662787898202888;-0.9400943275566221;1.0979999999999999;0.026681049001075964
53:02.0;-0.049932473393349164;-0.5658430183925517;-0.9399473880962398;1.0979999999999999;0.026557218479407584
53:02.0;-0.049799653968626706;-0.5655331569783819;-0.939843145606026;1.0979999999999999;0.026469136647726762
53:02.0;-0.04971767128245064;-0.565342735833749;-0.9397793866651702;1.0979999999999999;0.026414871949307347
53:02.0;-0.049680128709532215;-0.5652566325570022;-0.9397509522417666;1.0979999999999999;0.02639010715909736
53:02.0;-0.049678536570306076;-0.5652547586667387;-0.9397509827948991;1.0979999999999999;0.026389174788559473
53:02.0;-0.0497036345643856;-0.5653151602336112;-0.9397719669299847;1.0979999999999999;0.02640591772673703
53:02.0;-0.04974641812473348;-0.5654164309390394;-0.9398065598801809;1.0979999999999999;0.026434354681015598
53:02.0;-0.04979886026144736;-0.5655394194892218;-0.9398481663080549;1.0979999999999999;0.026469149286629308
53:02.0;-0.04985434756591505;-0.5656682765126854;-0.9398913031732904;1.0979999999999999;0.026505896130723714
53:02.0;-0.04990786760090354;-0.5657909289444125;-0.9399317726877767;1.0979999999999999;0.026541247082070056
53:02.0;-0.049955995684502916;-0.565899094235266;-0.939966683272189;1.0979999999999999;0.026572907681260867
53:02.0;-0.049996733327587965;-0.5659879554288124;-0.9399943589195134;1.0979999999999999;0.02659953631299824
53:02.0;-0.05002924977188613;-0.566055614686984;-0.9400141756447041;1.0979999999999999;0.02662057891290638
53:02.0;-0.05005357369044192;-0.5661024307933311;-0.9400263589906058;1.0979999999999999;0.026636069645742565
53:02.0;-0.05007027552090813;-0.5661303288491438;-0.9400317700404122;1.0979999999999999;0.026646424016591473
53:02.0;-0.05008017324545129;-0.566142150661506;-0.9400317000883981;1.0979999999999999;0.026652245944140552
53:02.0;-0.05008408656889122;-0.5661410944585314;-0.9400276868916712;1.0979999999999999;0.026654165062352138
53:02.0;-0.05008265694263744;-0.5661302741651657;-0.9400213589135363;1.0979999999999999;0.026652715403364526
53:02.0;-0.05007624402139336;-0.5661124125234002;-0.940014308623521;1.0979999999999999;0.0266482619463455
53:02.0;-0.0500649029728059;-0.5660896692912164;-0.9400079920093782;1.0979999999999999;0.026640977408285107
53:02.0;-0.05004844146389902;-0.5660635956188262;-0.9400036490953925;1.0979999999999999;0.02663086806742724
53:02.0;-0.05002654989774261;-0.5660351981840146;-0.9400022394321002;1.0979999999999999;0.02661784421420558
53:02.0;-0.04999899332112239;-0.5660050912960106;-0.940004387102982;1.0979999999999999;0.02660182784629616
53:02.0;-0.04996584817346441;-0.5659737114165752;-0.9400103315770418;1.0979999999999999;0.026582887313074725
53:02.0;-0.04992776162619011;-0.5659415659137389;-0.9400198834466369;1.0979999999999999;0.0265613856920136
53:02.0;-0.04988620577840119;-0.5659094860082433;-0.9400323873934798;1.0979999999999999;0.02653812677770054
53:02.0;-0.049843693760005116;-0.5658788526411208;-0.9400466982381382;1.0979999999999999;0.02651447984892192
53:02.0;-0.04980392041883171;-0.565851763457589;-0.9400611792224385;1.0979999999999999;0.02649246215492103
53:02.0;-0.04977178753771336;-0.5658311095741009;-0.9400737342897709;1.0979999999999999;0.026474756758335938
53:02.0;-0.04975327343502334;-0.5658205327828603;-0.9400818875877959;1.0979999999999999;0.026464643513912856
53:02.0;-0.04975511045419561;-0.5658242380074947;-0.9400829232508614;1.0979999999999999;0.026465823121188243
53:02.0;-0.049784242346458785;-0.5658466428667323;-0.9400740962972713;1.0979999999999999;0.026482118926394477
53:02.0;-0.04984704784009757;-0.5658918567799436;-0.9400529208609165;1.0979999999999999;0.026517048943477527
53:02.0;-0.04994833736674149;-0.5659629966067877;-0.9400175347782321;1.0979999999999999;0.026573271739191173
53:02.0;-0.0500901570208092;-0.5660613644414458;-0.9399671297977872;1.0979999999999999;0.026651924465501436
53:02.0;-0.05027046662469603;-0.5661855354483035;-0.9399024246888428;1.0979999999999999;0.026751889170735448
53:02.0;-0.05048179553523371;-0.5663304284274225;-0.9398261449745451;1.0979999999999999;0.026869043872811665
53:02.0;-0.050710017675059726;-0.5664864572377386;-0.9397434589997663;1.0979999999999999;0.026995576428796957
53:02.0;-0.05093342206764193;-0.5666388845202888;-0.9396623071081428;1.0979999999999999;0.027119459910878198
53:02.0;-0.051122281507199725;-0.5667675167244619;-0.9395935508395082;1.0979999999999999;0.027224204986492563
53:02.0;-0.05123913340939126;-0.5668468868524403;-0.9395508646528788;1.0979999999999999;0.0272890136417972
53:02.0;-0.051239976081790435;-0.5668470636562687;-0.9395502963948191;1.0979999999999999;0.02728945444011651
53:02.0;-0.05107654306344989;-0.566735198103924;-0.9396094373253717;1.0979999999999999;0.027198756697611123
53:02.0;-0.05069974068094248;-0.5664778649168588;-0.9397461705775013;1.0979999999999999;0.026989773949309123
53:02.0;-0.05006421374977572;-0.5660441749100241;-0.9399770105685304;1.0979999999999999;0.02663759168333614
53:02.0;-0.04913383796482015;-0.5654095203753434;-0.9403151063515229;1.0979999999999999;0.026122649259963188
53:02.0;-0.04788772495895521;-0.5645596708213759;-0.9407680591873783;1.0979999999999999;0.025434114392306393
53:02.0;-0.04632607170453726;-0.5634947630299998;-0.9413357971116907;1.0979999999999999;0.024573099183518972
53:02.0;-0.044474899554038216;-0.562232534194344;-0.942008853440821;1.0979999999999999;0.023555153208588645
53:02.0;-0.04238842498536766;-0.5608099402282228;-0.942767506466972;1.0979999999999999;0.02241132782630276
53:02.0;-0.04014750443824857;-0.5592820970889274;-0.9435823466068564;1.0979999999999999;0.021186990870900153
53:02.0;-0.03785267104017078;-0.5577175344476082;-0.9444168098834156;1.097;0.019937676170800923
53:02.0;-0.0356117989492508;-0.5561897860592253;-0.9452316646779418;1.097;0.018722126866109516
53:02.0;-0.033525414591433114;-0.5547673754764857;-0.9459903537883538;1.097;0.01759429131833771
53:02.0;-0.03167436121608843;-0.5535054061181621;-0.9466634803414863;1.097;0.016596838030363468
53:02.0;-0.030112836091363043;-0.5524408144272513;-0.947231339614925;1.097;0.01575772349516441
53:02.0;-0.028866836147844206;-0.551591310646624;-0.9476844837515103;1.097;0.015089691924487138
53:02.0;-0.027936529974664153;-0.5509569967937039;-0.9480228583293282;1.097;0.01459180350102564
53:02.0;-0.027300998665597324;-0.5505235999749066;-0.9482540771880564;1.097;0.014252110917261232
53:02.0;-0.026924087673728326;-0.5502664634531297;-0.9483912929673243;1.097;0.014050817706250919
53:02.0;-0.026760415018693393;-0.5501546445447824;-0.9484510105919782;1.097;0.013963443491912367
53:02.0;-0.026760867494358034;-0.5501546635666591;-0.9484510868630301;1.097;0.013963681197039737
53:02.0;-0.026877170726822087;-0.5502336213042293;-0.9484090669146571;1.097;0.014025758961781825
53:02.0;-0.027065331370306134;-0.550361547249184;-0.9483409310873436;1.097;0.014126218745200435
53:02.0;-0.0272879159704706;-0.550512954141082;-0.948260265351582;1.097;0.01424509876665331
53:02.0;-0.027515251095405695;-0.5506676561706965;-0.9481778247801165;1.097;0.01436656172869543
53:02.0;-0.027725706700380496;-0.5508109609342358;-0.9481014314412824;1.097;0.014479047769152906
53:02.0;-0.02790526517833966;-0.5509333728495578;-0.9480361333449417;1.097;0.014575052399930379
53:02.0;-0.028046589307240036;-0.5510299531447167;-0.9479845471063293;1.097;0.014650637413750035
53:02.0;-0.02814779092484703;-0.5510994738870268;-0.9479473110355864;1.097;0.014704779342257054
53:02.0;-0.02821107595074874;-0.5511434858261073;-0.9479235847491146;1.097;0.014738648368881358
53:02.0;-0.028241406851728636;-0.5511653965215313;-0.947911543762109;1.097;0.014754893641017487
53:02.0;-0.028245286215360793;-0.5511696299941939;-0.9479088308985608;1.097;0.014756991551414292
53:02.0;-0.028229728900241353;-0.5511609147907143;-0.9479129392504467;1.097;0.014748694209364827
53:02.0;-0.02820145813957379;-0.5511437258152491;-0.9479215128071763;1.097;0.014733597832529909
53:02.0;-0.028166334680721408;-0.5511218876832072;-0.9479325601717735;1.097;0.014714836320274274
53:02.0;-0.028129008229109;-0.5510983341073574;-0.9479445837697984;1.097;0.014694894343181495
53:02.0;-0.028092767008687566;-0.5510750088023473;-0.9479566317286112;1.097;0.014675526897782258
53:02.0;-0.028059553447579936;-0.551052888048217;-0.9479682824634758;1.097;0.01465776804447091
53:02.0;-0.0280301107715966;-0.5510321025932108;-0.9479795733940708;1.097;0.014642009849969544
53:02.0;-0.028004225389777423;-0.5510121360925668;-0.9479908856308261;1.097;0.014628132672148504
53:02.0;-0.02798103212449756;-0.5509920778707581;-0.9480027964086468;1.097;0.014615669138767209
53:02.0;-0.027959352435384204;-0.5509709086637059;-0.9480159109363866;1.097;0.014603985851120695
53:02.0;-0.027938038892834256;-0.5509477985323414;-0.9480306854966682;1.097;0.01459246849357575
53:02.0;-0.02791630164057576;-0.5509223959662483;-0.9480472542549144;1.097;0.014580697322462973
53:02.0;-0.027893994136084583;-0.5508950862154518;-0.9480652733404887;1.097;0.014568600794169382
53:02.0;-0.027871836090830857;-0.5508671952841491;-0.9480837971992047;1.097;0.014556575401083318
53:02.0;-0.02785155157981562;-0.5508411142520484;-0.9481012036730779;1.097;0.014545559805626372
53:02.0;-0.02783590035404665;-0.5508203173598687;-0.9481151852818065;1.097;0.014537051422215674
53:02.0;-0.02782858128142556;-0.5508092474952939;-0.9481228241902971;1.097;0.014533054117586664
53:02.0;-0.02783398949495539;-0.5508130453399108;-0.9481207667141869;1.097;0.01453594715644247
53:02.0;-0.027856814192208493;-0.5508371044807383;-0.9481055093114367;1.097;0.014548268387154686
53:02.0;-0.02790147294559833;-0.5508864451132144;-0.9480738012907304;1.097;0.01457240936164385
53:02.0;-0.0279713914335734;-0.5509649141410269;-0.9480231595794538;1.097;0.014610226923255556
53:02.0;-0.028068154864088028;-0.5510742396328839;-0.9479524777706052;1.097;0.014662584913846382
53:02.0;-0.02819057864532992;-0.5512129922222441;-0.9478626956470152;1.097;0.014728850946620735
53:02.0;-0.0283337699693686;-0.5513755338420637;-0.9477574773066465;1.097;0.014806386248095587
53:02.0;-0.028488276996032496;-0.5515510629668028;-0.9476438273178207;1.097;0.01489008055881562
53:02.0;-0.02863944545637682;-0.5517228920940779;-0.9475325570882507;1.097;0.014971997632994812
53:02.0;-0.028767120061819678;-0.5518681133644597;-0.9474385005389849;1.097;0.015041207976680245
53:02.0;-0.028845835660785867;-0.551957816952992;-0.9473803724927736;1.097;0.015083891372912616
53:02.0;-0.028845635636059488;-0.551958018519072;-0.9473801685710525;1.097;0.015083789038781738
53:02.0;-0.028733627394871848;-0.5518314207050614;-0.9474620256390694;1.097;0.015023070083923482
53:02.0;-0.028476332075395905;-0.5515400738957972;-0.9476505005220297;1.097;0.014883645523407634
53:02.0;-0.02804280378847307;-0.5510489086848024;-0.9479682847497501;1.097;0.01464891259566683
53:02.0;-0.02740838045208511;-0.5503299840550592;-0.9484334562071263;1.097;0.014305841694427269
53:02.0;-0.02655878352763497;-0.5493671311499116;-0.9490564747854152;1.097;0.013847230051663863
53:02.0;-0.02549411074181225;-0.5481604761042032;-0.9498372562295863;1.097;0.01327384636594164
53:02.0;-0.024232070755954266;-0.5467301041916709;-0.9507628015285859;1.097;0.01259608834245477
53:02.0;-0.022809602099092743;-0.5451178932821098;-0.9518060107880251;1.097;0.011834681928425664
53:02.0;-0.021281814422469816;-0.5433863130590975;-0.9529264603551449;1.097;0.011019876649951372
53:02.0;-0.01971724158737281;-0.5416130447284276;-0.9540738842618431;1.0979999999999999;0.010188664966840314
53:02.0;-0.018189431059977314;-0.5398814488825769;-0.9551943420972037;1.0979999999999999;0.009380138723136668
53:02.0;-0.01676692831664497;-0.53826921463719;-0.956237563660456;1.0979999999999999;0.008630160038916744
53:02.0;-0.015504865269913163;-0.5368388268363627;-0.957163117187144;1.0979999999999999;0.007967056017891178
53:02.0;-0.014440211404153977;-0.5356321844327908;-0.9579438915046432;1.0979999999999999;0.0074093530358754905
53:02.0;-0.013590712076652096;-0.5346693976957712;-0.9585668742348921;1.0979999999999999;0.006965462464066973
53:02.0;-0.012956503495548794;-0.5339506189767437;-0.9590319671100833;1.0979999999999999;0.006634710758433633
53:02.0;-0.012523342478608125;-0.5334597035143686;-0.9593496171541228;1.0979999999999999;0.006409125611275726
53:02.0;-0.012266593435829063;-0.533168728358736;-0.9595378926228623;1.0979999999999999;0.006275535204492677
53:02.0;-0.012155321780491482;-0.5330426318356652;-0.9596194809612085;1.0979999999999999;0.006217667025373954
53:02.0;-0.012156038242350337;-0.5330434572864013;-0.9596189428299289;1.0979999999999999;0.006218039650674826
53:02.0;-0.01223581195128896;-0.5331338813387847;-0.9595604290930378;1.0979999999999999;0.006259525415955574
53:02.0;-0.012364615084083245;-0.5332798712180932;-0.9594659613748976;1.0979999999999999;0.006326526982045543
53:02.0;-0.012516875289090611;-0.5334524441533182;-0.9593542936178169;1.0979999999999999;0.006405759924130405
53:02.0;-0.012672294027035198;-0.5336285947818505;-0.9592403119932628;1.0979999999999999;0.006486669279103145
53:02.0;-0.01281604173885631;-0.5337915162642085;-0.959134891820442;1.0979999999999999;0.006561532291516619
53:02.0;-0.012938468329052545;-0.5339302720735704;-0.959045109924131;1.0979999999999999;0.006625313708803751
53:02.0;-0.013034474696381295;-0.5340390836323535;-0.9589747055540019;1.0979999999999999;0.006675345174074917
53:02.0;-0.013102683112725281;-0.5341163899777484;-0.9589246888063554;1.0979999999999999;0.006710898078580683
53:02.0;-0.013144526120023581;-0.5341638150881096;-0.9588940087878484;1.0979999999999999;0.006732711481484509
53:02.0;-0.013163349726519679;-0.5341851514270138;-0.9588802112817593;1.0979999999999999;0.006742525348049524
53:02.0;-0.013163600730738802;-0.5341854388476693;-0.9588800347118005;1.0979999999999999;0.006742656303632026
53:02.0;-0.013150142829781634;-0.534170189471777;-0.958889911659859;1.0979999999999999;0.00673563999509049
53:02.0;-0.013127723769916578;-0.5341447837716063;-0.9589063596212326;1.0979999999999999;0.006723952246156657
53:02.0;-0.013100597377568864;-0.5341140422080559;-0.9589262581897995;1.0979999999999999;0.006709811299671444
53:02.0;-0.013072290399807944;-0.5340819610137224;-0.9589470200657246;1.0979999999999999;0.006695055948856101
53:02.0;-0.01304549468290152;-0.534051590055545;-0.9589666701714434;1.0979999999999999;0.006681089316326044
53:02.0;-0.013022059934362631;-0.5340250247229861;-0.9589838510344548;1.0979999999999999;0.0066688752357619025
53:02.0;-0.013003060507551166;-0.5340034817387382;-0.95899777391762;1.0979999999999999;0.006658973264133069
53:02.0;-0.012988910550654561;-0.5339874298094957;-0.9590081345121217;1.0979999999999999;0.006651598867854047
53:02.0;-0.012979504679190405;-0.5339767492238352;-0.9590150099377389;1.0979999999999999;0.006646696842991083
53:02.0;-0.012974365316866208;-0.5339708990171446;-0.9590187508669997;1.0979999999999999;0.0066440181431744036
53:02.0;-0.012972782356771422;-0.5339690754268573;-0.9590198792788011;1.0979999999999999;0.006643192657176433
53:02.0;-0.01297393530447251;-0.5339703504672169;-0.9590189990342757;1.0979999999999999;0.006643792832976591
53:02.0;-0.012976992195633362;-0.533973784130151;-0.9590167234330521;1.0979999999999999;0.006645385193443244
53:02.0;-0.01298118308586672;-0.5339785076879134;-0.9590136213338241;1.0979999999999999;0.006647568607182681
53:02.0;-0.012985848661175447;-0.5339837786891944;-0.9590101814044109;1.0979999999999999;0.006649999603765426
53:02.0;-0.01299046648322986;-0.5339890104699649;-0.9590067926264871;1.0979999999999999;0.006652406041726105
53:02.0;-0.012994658609030148;-0.5339937803943944;-0.9590037382874375;1.0979999999999999;0.006654591073898706
53:02.0;-0.012998184904278372;-0.5339978217082959;-0.9590012002774971;1.0979999999999999;0.006656429656748426
53:02.0;-0.013000926428318722;-0.5340010039691135;-0.9589992704838762;1.0979999999999999;0.006657859882204143
53:02.0;-0.013002862940955389;-0.5340033066657962;-0.9589979663359719;1.0979999999999999;0.006658871241629822
53:02.0;-0.013004047999471259;-0.5340047900077668;-0.958997248010022;1.0979999999999999;0.006659491630004382
53:02.0;-0.01300458439562848;-0.5340055660770342;-0.9589970353599424;1.0979999999999999;0.00665977452525749
53:02.0;-0.013004601925091345;-0.5340057727100823;-0.9589972232297657;1.0979999999999999;0.0066597873839326785
53:02.0;-0.013004238760246676;-0.5340055516881802;-0.9589976943641036;1.0979999999999999;0.006659601918909228
53:02.0;-0.01300362706318053;-0.5340050321205088;-0.9589983296245557;1.0979999999999999;0.0066592865946760995
53:02.0;-0.013002882958495792;-0.5340043193331574;-0.9589990156149572;1.0979999999999999;0.006658901406240112
53:02.0;-0.013002100597301065;-0.5340034891364143;-0.9589996501026343;1.0979999999999999;0.0066584948051780345
53:02.0;-0.013001349781225262;-0.5340025870241406;-0.9590001457925904;1.0979999999999999;0.006658102499045004
53:02.0;-0.013000676465561333;-0.5340016316423731;-0.9590004330709444;1.0979999999999999;0.006657747771360836
53:02.0;-0.013000105404085771;-0.534000621723516;-0.9590004622930345;1.0979999999999999;0.006657442938422671
53:02.0;-0.012999644212307603;-0.5339995455901361;-0.9590002060646808;1.0979999999999999;0.0066571915644759155
53:02.0;-0.012999288188404753;-0.533998392263952;-0.9589996617696642;1.0979999999999999;0.006656991086604019
53:02.0;-0.012999025321572861;-0.533997163152927;-0.9589988543526684;1.0979999999999999;0.006656835544563336
53:02.0;-0.012998841019218105;-0.5339958832231128;-0.9589978390973547;1.0979999999999999;0.006656718160172744
53:02.0;-0.012998722185087847;-0.5339946104931919;-0.9589967038690812;1.0979999999999999;0.0066566335596788566
53:02.0;-0.012998660372472758;-0.5339934426306301;-0.9589955700488267;1.0979999999999999;0.006656579477231436
53:02.0;-0.012998653816948525;-0.5339925194015063;-0.9589945911993373;1.0979999999999999;0.006656557817138114
53:02.0;-0.012998708222580405;-0.5339920197626143;-0.9589939484082662;1.0979999999999999;0.006656574987951684
53:02.0;-0.012998836237951663;-0.5339921525212744;-0.9589938412782588;1.0979999999999999;0.006656641455322607
53:02.0;-0.01299905561961563;-0.5339931397639214;-0.9589944737105328;1.0979999999999999;0.006656770496566974
53:02.0;-0.012999386147175331;-0.5339951927037566;-0.9589960339810825;1.0979999999999999;0.006656976181997656
53:02.0;-0.01299984543219864;-0.5339984802453028;-0.9589986691519997;1.0979999999999999;0.006657270659734303
53:02.0;-0.013000443856810071;-0.5340030914173893;-0.9590024545946949;1.0979999999999999;0.006657660884228868
53:02.0;-0.013001178988286401;-0.534008993869579;-0.9590073603070609;1.0979999999999999;0.006658145004462519
53:02.0;-0.01300202994049302;-0.5340159918131276;-0.9590132167376979;1.0979999999999999;0.006658708713439841
53:02.0;-0.013002952283853985;-0.5340236880327844;-0.9590196839125231;1.0979999999999999;0.0066593219508623005
53:02.0;-0.01300387422978827;-0.5340314557772874;-0.9590262286858163;1.0979999999999999;0.006659936436894382
53:02.0;-0.013004694914962997;-0.5340384272924509;-0.959032115770684;1.0979999999999999;0.006660484584439392
53:02.0;-0.013005285662509513;-0.5340435062954522;-0.9590364186772173;1.0979999999999999;0.0066608803748584204
53:02.0;-0.013005495075479288;-0.5340454115831059;-0.9590380566156161;1.0979999999999999;0.006661022769812963
53:02.0;-0.013005158695160545;-0.5340427579951929;-0.9590358626171072;1.0979999999999999;0.00666080215122437
53:02.0;-0.013004113708213085;-0.5340341789088084;-0.9590286864139382;1.0979999999999999;0.00666011011480339
53:02.0;-0.013002218792365162;-0.5340184911623008;-0.959015532868527;1.0979999999999999;0.006658852676860968
53:02.0;-0.012999378641206757;-0.533994898723498;-0.9589957328897225;1.0979999999999999;0.006656966583278713
53:02.0;-0.01299557200986046;-0.5339632255765898;-0.958969138864185;1.0979999999999999;0.0066544379388218736
53:02.0;-0.012990881300140424;-0.533924161418839;-0.9589363308435254;1.0979999999999999;0.006651321824167043
53:02.0;-0.012985520805224556;-0.533879496244216;-0.9588988134099566;1.0979999999999999;0.0066477609738103145
53:02.0;-0.012979859835688059;-0.5338323123807773;-0.958859176828626;1.0979999999999999;0.006644001004841142
53:02.0;-0.012974436154508634;-0.5337870959069568;-0.9588211905104176;1.0979999999999999;0.006640399184907348
53:02.0;-0.012969954587579555;-0.533749724677069;-0.9587897928608213;1.0979999999999999;0.006637423389897354
53:02.0;-0.012967265497524883;-0.5337272886819323;-0.9587709403232926;1.0979999999999999;0.006635637815699762
53:02.0;-0.012967318171126391;-0.5337277014810787;-0.9587712809519592;1.0979999999999999;0.0066356722596514605
53:02.0;-0.012971085228042706;-0.5337590702481885;-0.9587976252434162;1.0979999999999999;0.0066381724530317635
53:02.0;-0.012979456038958347;-0.5338288076391858;-0.9588562001176695;1.0979999999999999;0.006643730070188889
53:02.0;-0.012993099923187605;-0.5339424918749855;-0.9589516914116731;1.0979999999999999;0.006652792711886852
53:02.0;-0.01301230357969322;-0.5341025121325611;-0.959086106038837;1.0979999999999999;0.0066655563939996615
53:02.0;-0.013036791685152297;-0.5343065736721544;-0.9592575163293995;1.0979999999999999;0.006681845880540775
53:02.0;-0.013065544627112189;-0.5345461790860739;-0.9594587843119474;1.0979999999999999;0.006700991555288115
53:02.0;-0.013096632531054227;-0.5348052453153158;-0.9596764000364504;1.0979999999999999;0.006721715320667777
53:02.0;-0.013127089518309197;-0.5350590559020134;-0.9598896014904066;1.0979999999999999;0.006742041985898761
53:02.0;-0.013152855758522023;-0.5352737781721693;-0.9600699690507382;1.0979999999999999;0.0067592562524141165
53:02.0;-0.01316881646725362;-0.5354067882700091;-0.9601816985253165;1.0979999999999999;0.006769927877866727
53:02.0;-0.013168965551304097;-0.5354080349006484;-0.9601827467041724;1.0979999999999999;0.0067700276737715755
53:02.0;-0.013146716089379987;-0.5352226266810785;-0.9600270047371422;1.0979999999999999;0.006755153137555115
53:02.0;-0.013095369281367054;-0.534794740047162;-0.9596675807749258;1.0979999999999999;0.006720873183160064
53:02.0;-0.013008737114460456;-0.5340728081227619;-0.9590611586156457;1.0979999999999999;0.0066631855440343075
53:02.0;-0.012881891308894555;-0.5330157619110166;-0.9581732403002287;1.0979999999999999;0.006579058075612883
53:02.0;-0.012711982119151725;-0.5315998536101412;-0.9569838776914023;1.0979999999999999;0.00646699830726079
53:02.0;-0.012499035884572116;-0.5298253028392625;-0.9554932552967976;1.0979999999999999;0.006327568213720273
53:02.0;-0.012246601165339181;-0.5277216810763223;-0.9537262131903838;1.0979999999999999;0.00616373886598026
53:02.0;-0.011962071942376362;-0.5253506049642283;-0.9517345093838125;1.0979999999999999;0.005980967790609291
53:02.0;-0.011656475485976366;-0.5228039685267317;-0.9495953348827968;1.0979999999999999;0.005786883010825459
53:02.0;-0.0113435227732174;-0.5201960299621564;-0.9474046665899433;1.067;0.005590498049333069
53:02.0;-0.011037926317054657;-0.517649393539878;-0.9452654920951045;1.067;0.005401035153768417
53:02.0;-0.01075339711163007;-0.5152783174714906;-0.9432737882857961;1.067;0.005226672864451673
53:02.0;-0.010500962459608427;-0.5131746958057725;-0.9415067461390384;1.067;0.005073618119032962
53:02.0;-0.010288016386095713;-0.5114001452194155;-0.9400161236271638;1.067;0.004945700320564852
53:02.0;-0.01011810750206952;-0.5099842372284774;-0.9388267607786299;1.067;0.004844416813670171
53:02.0;-0.009991262197476338;-0.5089271914888062;-0.9379388420551924;1.067;0.0047692548815480434
53:02.0;-0.009904630769017058;-0.5082052602271275;-0.9373324192804044;1.067;0.004718142834459957
53:02.0;-0.009853284961501776;-0.5077773744593173;-0.9369729944707496;1.067;0.0046879337159012584
53:02.0;-0.009831036759285068;-0.5075919672983887;-0.936817251423192;1.067;0.004674863562229745
53:02.0;-0.009831187322466538;-0.5075932151383803;-0.9368182983189943;1.067;0.004674951875075158
53:02.0;-0.009847149644742882;-0.5077262265173896;-0.9369300263777454;1.067;0.004684327950769965
53:02.0;-0.009872917496894743;-0.5079409500208031;-0.937110392503845;1.067;0.004699476572851881
53:02.0;-0.009903375905589035;-0.508194761632006;-0.9373235926662998;1.067;0.004717403192288937
53:02.0;-0.009934464802285064;-0.5084538284794676;-0.9375412074474577;1.067;0.004735723768948058
53:02.0;-0.009963218031353253;-0.508693433881331;-0.9377424750761061;1.067;0.004752688536224044
53:02.0;-0.009987705421248307;-0.5088974945450886;-0.9379138858638386;1.067;0.004767152038796994
53:02.0;-0.010006907070121432;-0.5090575128441391;-0.9380483020977967;1.067;0.004778503623759488
53:02.0;-0.010020547409639327;-0.5091711938654964;-0.9381437963322604;1.067;0.004786572968231621
53:02.0;-0.01002891298301859;-0.5092409266956083;-0.9382023756313794;1.067;0.004791524258119758
53:02.0;-0.010032673093887848;-0.5092722895884211;-0.9382287258651963;1.067;0.0047937505719239
53:02.0;-0.010032717290330687;-0.5092726953978247;-0.9382290738223183;1.067;0.004793777287323766
53:02.0;-0.01003001861244833;-0.5092502516977244;-0.9382102296586221;1.067;0.00479218036258451
53:02.0;-0.010025527050528137;-0.5092128726776319;-0.9381788408412636;1.067;0.004789522534161572
53:02.0;-0.010020093975604301;-0.5091676491990131;-0.9381408629585759;1.067;0.0047863080870765165
53:02.0;-0.010014425521398883;-0.5091204602145223;-0.9381012332939288;1.067;0.004782955039466325
53:02.0;-0.010009061015988465;-0.5090757930845482;-0.9380637199015638;1.067;0.004779782369429538
53:02.0;-0.010004371504998312;-0.5090367315212851;-0.9380309115269411;1.067;0.004777009252188106
53:02.0;-0.010000573047725739;-0.5090050668820196;-0.9380043111859985;1.067;0.00477476307254184
53:02.0;-0.009997749649965406;-0.5089814900409819;-0.9379844974818681;1.067;0.004773093116843133
53:02.0;-0.009995881263659611;-0.508965825768553;-0.9379713216813298;1.067;0.00477198721729787
53:02.0;-0.009994873084649183;-0.5089572781940975;-0.93796411415173;1.067;0.0047713891201961005
53:02.0;-0.009994583286329016;-0.5089546634458262;-0.9379618800664512;1.067;0.004771214898774708
53:02.0;-0.009994847234943649;-0.5089566130826546;-0.9379634705967301;1.067;0.004771367270948911
53:02.0;-0.009995497065051366;-0.508961738823679;-0.9379677215864669;1.067;0.004771747170705704
53:02.0;-0.009996376201323627;-0.5089687549277939;-0.9379735566086217;1.067;0.0047722623339132506
53:02.0;-0.009997348968905981;-0.508976559164443;-0.9379800551475422;1.067;0.004772832981952513
53:02.0;-0.009998305832057604;-0.5089842765952506;-0.9379864893993688;1.067;0.004773394917336593
53:02.0;-0.009999165047469947;-0.5089912724281784;-0.937992334895253;1.067;0.0047739004893491265
53:02.0;-0.00999987163239074;-0.5089971411684906;-0.9379972609635621;1.067;0.00477431795497837
53:02.0;-0.010000394552161866;-0.5090016793805902;-0.9380011071325454;1.067;0.004774629764530315
53:02.0;-0.010000722953063871;-0.509004848816383;-0.9380038511242889;1.067;0.004774830257169047
53:02.0;-0.010000862130118832;-0.5090067356783787;-0.9380055732892376;1.067;0.004774923174101728
53:02.0;-0.010000829749183315;-0.5090075105659072;-0.9380064213435577;1.067;0.0047749192998963325
53:02.0;-0.010000652658420301;-0.5090073923643476;-0.9380065782358675;1.067;0.004774834437336839
53:02.0;-0.010000364442546558;-0.5090066181061487;-0.9380062349891367;1.067;0.004774687817940325
53:02.0;-0.010000003707020927;-0.5090054197466802;-0.9380055695080443;1.067;0.004774500956238498
53:02.0;-0.00999961293837755;-0.5090040079107023;-0.9380047316510429;1.067;0.0047742968766333535
53:02.0;-0.009999237678549017;-0.5090025619998849;-0.9380038343523166;1.067;0.004774099580912451
53:02.0;-0.009998925680756148;-0.5090012256083669;-0.938002950233149;1.067;0.00477393358495261
53:02.0;-0.00999872568650966;-0.5090001059550123;-0.938002112941129;1.067;0.0047738233364519895
53:02.0;-0.00999868548054166;-0.5089992759802205;-0.9380013223659089;1.067;0.004773792332736092
53:02.0;-0.009998848945012436;-0.5089987778387401;-0.9380005528647496;1.067;0.004773861789202468
53:02.0;-0.009999251946583534;-0.5089986267132031;-0.9379997636533909;1.067;0.004774048764503176
53:02.0;-0.009999917048208356;-0.5089988141424976;-0.9379989105460436;1.067;0.004774363726817872
53:02.0;-0.010000847236968794;-0.5089993103738298;-0.9379979582383761;1.067;0.0047748076438382464
53:02.0;-0.010002019091030061;-0.5090000655798205;-0.9379968923049796;1.067;0.004775368792758968
53:02.0;-0.01000337605865279;-0.5090010101076894;-0.9379957300249153;1.067;0.004776019608650273
53:02.0;-0.010004822770036134;-0.5090020542241727;-0.9379945290643201;1.067;0.004776714010282097
53:02.0;-0.010006221522018197;-0.5090030880663512;-0.9379933929538709;1.067;0.004777385749007238
53:02.0;-0.01000739223368277;-0.5090039826846673;-0.9379924722315558;1.067;0.004777948403066001
53:02.0;-0.010008117230171466;-0.509004593149978;-0.9379919601160562;1.067;0.004778297668729382
53:02.0;-0.010008152132348788;-0.5090047646720423;-0.9379920816761483;1.067;0.004778316561928077
53:02.0;-0.010007243872242456;-0.5090043425246372;-0.9379930757102496;1.067;0.004777884020772159
53:02.0;-0.010005156384978092;-0.5090031862786628;-0.9379951689858202;1.067;0.0047768871747659435
53:02.0;-0.010001703825576837;-0.5090011884019808;-0.9379985431375036;1.067;0.004775237210290043
53:02.0;-0.009996790220391714;-0.5089982966965959;-0.9380032953938652;1.067;0.00477288831266131
53:02.0;-0.009990453310826522;-0.5089945393277603;-0.9380093953778159;1.067;0.004769858613727119
53:02.0;-0.009982909036705628;-0.508990050391682;-0.9380166414552071;1.067;0.004766251447067234
53:02.0;-0.009974591731972291;-0.5089850931264546;-0.9380246214016427;1.067;0.004762274555346846
53:02.0;-0.009966183801607248;-0.5089800770760458;-0.9380326833902463;1.067;0.0047582542709331665
53:02.0;-0.009958627592320789;-0.5089755648747706;-0.938039924303437;1.067;0.004754641185960997
53:02.0;-0.009953111573159474;-0.5089722639554057;-0.9380452029349301;1.067;0.004752003543120011
53:02.0;-0.00995102304271004;-0.5089709985378573;-0.9380471855453801;1.067;0.004751004626688282
53:02.0;-0.009953860620256735;-0.5089726578703313;-0.938044430231238;1.067;0.0047523609307565705
53:02.0;-0.009963101982550987;-0.5089781180027422;-0.9380355144453143;1.067;0.004756778934746232
53:02.0;-0.009980025846611005;-0.5089881364728793;-0.9380192066036972;1.067;0.004764870006713651
53:02.0;-0.010005492151411739;-0.5090032222256717;-0.9379946779498346;1.067;0.004777045320546122
53:02.0;-0.010039690702562184;-0.5090234868314479;-0.9379617447748314;1.067;0.0047933956883330865
53:02.0;-0.010081875982603915;-0.5090484874825871;-0.93792112393561;1.067;0.004813564764419756
53:02.0;-0.010130113949811297;-0.5090770770649039;-0.9378746767981749;1.067;0.00483662796145563
53:02.0;-0.010181074764331763;-0.509107281413704;-0.937825608922115;1.067;0.00486099330466458
53:02.0;-0.010229912557813331;-0.5091362281208702;-0.9377785858942862;1.067;0.004884343892426723
53:02.0;-0.01027027843668907;-0.5091601542684018;-0.9377397208358229;1.067;0.004903644070791627
53:02.0;-0.010294514536730132;-0.5091745214295847;-0.9377163875408417;1.067;0.004915232220101925
53:02.0;-0.010294073696921308;-0.5091742643538831;-0.9377168163349975;1.067;0.004915021502140143
53:02.0;-0.010260199812184083;-0.50915419411692;-0.9377494388983748;1.067;0.004898825356156451
53:02.0;-0.010184887003644488;-0.5091095664892799;-0.9378219645908363;1.067;0.004862816402552445
53:02.0;-0.010062110707858722;-0.5090368114401895;-0.9379401949271373;1.067;0.004804115375847983
53:02.0;-0.009889290628096547;-0.5089344000418542;-0.9381066147784065;1.067;0.004721490772905817
53:02.0;-0.009668905169178354;-0.5088038011450058;-0.9383188377038466;1.067;0.004616130555624293
53:02.0;-0.00941013166229696;-0.5086504533419723;-0.9385680264523284;1.067;0.004492425576688112
53:02.0;-0.009130339963766344;-0.5084846500454172;-0.9388374546648044;1.067;0.0043586821811692645
53:02.0;-0.008856224003360337;-0.508322210023903;-0.9391014172232227;1.067;0.004227661182638772
53:02.0;-0.008624323212687812;-0.5081847863896775;-0.9393247281272967;1.067;0.004116825310921049
53:02.0;-0.00848067147849925;-0.5080996585682798;-0.9394630585366541;1.067;0.0040481710108181
53:02.0;-0.008479324295273573;-0.5080988595005773;-0.9394643550688507;1.067;0.004047527165731738
53:02.0;-0.008679564424423377;-0.5082175197399519;-0.9392715306489775;1.067;0.004143226945913256
53:02.0;-0.009141681355848039;-0.5084913663968258;-0.9388265287363379;1.067;0.004364103239849075
53:02.0;-0.009921367332442414;-0.5089534022694256;-0.9380757197505717;1.067;0.00473682616006737
53:02.0;-0.011062976868023423;-0.5096299114893664;-0.9369763919117484;1.067;0.005282695312003608
53:02.0;-0.01259215757147696;-0.510536092607736;-0.9355038474890666;1.067;0.006014121223990899
53:02.0;-0.014508672228269053;-0.5116718050183713;-0.9336583148752887;1.067;0.006931179165449454
53:02.0;-0.016780583612736277;-0.5130181229246354;-0.931470548401241;1.067;0.008018791035125155
53:02.0;-0.019341345722196958;-0.5145356116295076;-0.9290046293730063;1.067;0.009245278629839784
53:02.0;-0.022091712987887934;-0.5161654589223176;-0.9263561275751335;1.067;0.010563219629310172
53:02.0;-0.024908286541010696;-0.5178345395344707;-0.9236438715348702;1.053;0.011913501411499088
53:02.0;-0.02765865376688719;-0.5194643867281941;-0.9209953696934466;1.053;0.013232571926231904
53:02.0;-0.030219415805433674;-0.5209818752602214;-0.9185294505913214;1.053;0.01446111449373792
53:02.0;-0.03249132710481203;-0.5223281929689096;-0.9163416840385344;1.053;0.015551359501563881
53:02.0;-0.034407841686433224;-0.5234639052266233;-0.9144961513770477;1.053;0.016471230859183093
53:02.0;-0.035937022354254174;-0.5243700863212809;-0.9130236069810405;1.053;0.017205290313330793
53:02.0;-0.037078631926583776;-0.5250465957392588;-0.9119242792901178;1.053;0.0177533505030654
53:02.0;-0.037858318045349004;-0.525508632122894;-0.9111734706187341;1.053;0.018127680415588567
53:02.0;-0.03832043525385084;-0.5257824796824419;-0.9107284692245288;1.053;0.018349551611397282
53:02.0;-0.03852067581648658;-0.5259011412690651;-0.9105356455500796;1.053;0.01844569245429711
53:02.0;-0.03851932923174747;-0.5259003440061188;-0.9105369430555488;1.053;0.018445045961272208
53:02.0;-0.03837567825158962;-0.5258152184053607;-0.9106752746374033;1.053;0.01837607527342826
53:02.0;-0.03814377833808369;-0.5256777972980375;-0.9108985868484782;1.053;0.0182647348814852
53:02.0;-0.03786966331854791;-0.5255153599215351;-0.9111625507427236;1.053;0.018133127698216848
53:02.0;-0.037589872535630224;-0.5253495591159402;-0.9114319801712454;1.053;0.017998797387983583
53:02.0;-0.037331099800518526;-0.5251962132956437;-0.9116811698266084;1.053;0.017874559822172918
53:02.0;-0.03711071482451092;-0.5250656154490604;-0.9118933931271264;1.053;0.017768753716354984
53:02.0;-0.03693789477467677;-0.5249632036983147;-0.912059812579745;1.053;0.017685784275714322
53:02.0;-0.03681511788472635;-0.5248904464159774;-0.9121780415036287;1.053;0.01762684059603406
53:02.0;-0.036739803697117816;-0.5248458142407173;-0.912250564560329;1.053;0.01759068332336186
53:02.0;-0.03670592752024778;-0.5248257368193122;-0.9122831831208795;1.053;0.017574419796936937
53:02.0;-0.03670548340643839;-0.5248254697887517;-0.9122836065079157;1.053;0.01757420637420772
53:02.0;-0.03672971527073158;-0.5248398243641665;-0.9122602665139062;1.053;0.0175858394023601
53:02.0;-0.03677007609122818;-0.5248637357910185;-0.9122213937680326;1.053;0.01760521564654596
53:02.0;-0.036818908289097854;-0.524892666567669;-0.9121743625936578;1.053;0.017628658883318812
53:02.0;-0.03686986342278841;-0.524922855179734;-0.9121252868879715;1.053;0.01765312136954438
53:02.0;-0.03691809625106883;-0.5249514311134321;-0.9120788332609339;1.053;0.017676277009367324
53:02.0;-0.03696027772765079;-0.524976422548984;-0.9120382085140356;1.053;0.017696527602907054
53:02.0;-0.0369944747397343;-0.5249966850607722;-0.9120052754100978;1.053;0.01771294512167108
53:02.0;-0.037019942776050675;-0.5250117786876503;-0.9119807522526308;1.053;0.017725172178029033
53:02.0;-0.037036872637400034;-0.5250218177324502;-0.9119644566797875;1.053;0.017733300424265606
53:02.0;-0.037046125127712555;-0.5250273134006183;-0.9119555609901819;1.053;0.017737743174654968
53:02.0;-0.03704897955099488;-0.5250290245842789;-0.9119528341343516;1.053;0.017739114650602898
53:02.0;-0.0370469137234821;-0.5250278272935389;-0.9119548533266677;1.053;0.017738124352974834
53:02.0;-0.03704142577674803;-0.5250246088377671;-0.9119601753973973;1.053;0.017735491496923845
53:02.0;-0.037033901721725423;-0.5250201891294498;-0.911967464084257;1.053;0.01773188141698406
53:02.0;-0.03702552779658892;-0.5250152685584142;-0.9119755742340633;1.053;0.01772786347504632
53:02.0;-0.03701724308751912;-0.5250103997961367;-0.9119835972949087;1.053;0.017723888307220576
53:02.0;-0.037009725710483436;-0.5250059795901635;-0.91199087460371;1.053;0.017720281189071336
53:02.0;-0.03700340480260236;-0.525002255994485;-0.911996985977093;1.053;0.017717247799734975
53:02.0;-0.03699849046894739;-0.5249993464188295;-0.9120017212102718;1.053;0.017714888616092616
53:02.0;-0.036995014420611885;-0.5249972622223994;-0.9120050415125895;1.053;0.0177132184511455
53:02.0;-0.036992875084776236;-0.5249959361836314;-0.9120070368876191;1.053;0.017712188151739767
53:02.0;-0.0369918822542581;-0.524995249920166;-0.9120078842044895;1.053;0.017711706087497333
53:02.0;-0.03699179769609451;-0.5249950591075663;-0.9120078093752884;1.053;0.017711657710434953
53:02.0;-0.03699236942129159;-0.5249952150721242;-0.9120070557813741;1.053;0.017711922078645345
53:02.0;-0.036993358438630455;-0.5249955819591371;-0.91200585996987;1.053;0.01771238477333024
53:02.0;-0.0369945577212227;-0.5249960491744633;-0.9120044347245552;1.053;0.01771294707107931
53:02.0;-0.0369958037859432;-0.5249965391563477;-0.9120029589258117;1.053;0.01771353155348236
53:02.0;-0.03699698173029117;-0.5249970107658627;-0.9120015731507816;1.053;0.017714084547762188
53:02.0;-0.03699802481542235;-0.5249974587098742;-0.9120003797084819;1.053;0.01771457590831583
53:02.0;-0.03699890976713937;-0.5249979094602946;-0.9119994457253694;1.053;0.01771499668898854
53:02.0;-0.036999648933487866;-0.524998414141315;-0.9119988079593753;1.053;0.017715355241546785
53:02.0;-0.03700028033369386;-0.5249990388559027;-0.9119984781884208;1.053;0.017715672229320693
53:02.0;-0.03700085650000439;-0.5249998529438714;-0.9119984482586594;1.053;0.01771597498656037
53:02.0;-0.03700143288592625;-0.5250009157292844;-0.9119986941579733;1.053;0.017716291600339176
53:02.0;-0.03700205651639357;-0.5250022624383874;-0.9119991787761421;1.053;0.017716645054784652
53:02.0;-0.037002755501850115;-0.5250038901528516;-0.9119998533037741;1.053;0.017717047763572163
53:02.0;-0.03700353003223099;-0.5250057448961174;-0.9120006574905801;1.053;0.017717496826814633
53:02.0;-0.03700434550050899;-0.5250077112087991;-0.9120015192156792;1.053;0.017717970377897678
53:02.0;-0.03700512846085045;-0.5250096058147993;-0.9120023540056922;1.053;0.01771842542433304
53:02.0;-0.03700576617692074;-0.5250111771633393;-0.9120030652583765;1.053;0.017718797619678414
53:02.0;-0.03700611052848995;-0.5250121126945633;-0.912003545978457;1.053;0.017719003412904565
53:02.0;-0.03700598698269948;-0.5250120555536499;-0.9120036827961931;1.053;0.017718944987278433
53:02.0;-0.03700520916375311;-0.5250106321073359;-0.9120033629069678;1.053;0.017718518302933372
53:02.0;-0.03700359923944897;-0.5250074909428489;-0.9120024843329891;1.053;0.017717624378364077
53:02.0;-0.03700101386236734;-0.5250023530157885;-0.9120009695618041;1.053;0.017716183673980482
53:02.0;-0.036997374750025534;-0.5249950712520275;-0.9119987821637418;1.053;0.017714153071872435
53:02.0;-0.03699270217462223;-0.524985696229878;-0.9119959454450518;1.053;0.01771154448794053
53:02.0;-0.036987148697321295;-0.524974542652532;-0.911992561582254;1.053;0.017708443627840235
53:02.0;-0.03698102949213355;-0.524962249304735;-0.9119888290489957;1.053;0.017705026845630523
53:02.0;-0.03697484465991493;-0.5249498232716764;-0.911985055550131;1.053;0.01770157353993673
53:02.0;-0.03696928816470212;-0.5249386576437503;-0.9119816631970549;1.053;0.017698471099784074
53:02.0;-0.03696523759063;-0.5249305110533561;-0.9119791823873558;1.053;0.01769620917768324
53:02.0;-0.03696371899463597;-0.5249274375411139;-0.9119782308950133;1.053;0.01769536011615767
53:02.0;-0.0369658418994016;-0.5249316567898689;-0.9119794751417007;1.053;0.01769654278174448
53:02.0;-0.036972701099302674;-0.5249453580276227;-0.9119835716035432;1.053;0.0177003679550684
53:02.0;-0.03698524456722308;-0.5249704361389465;-0.9119910878858879;1.053;0.017707364854665276
53:02.0;-0.03700411041161246;-0.5250081658565827;-0.9120024052056764;1.053;0.01771789037139328
53:02.0;-0.03702944050125712;-0.5250588292500836;-0.9120176068318089;1.053;0.01773202514896532
53:02.0;-0.03706068387898489;-0.5251213227439332;-0.9120363603451361;1.053;0.017749463691975494
53:02.0;-0.037096409095233575;-0.5251927819237927;-0.9120578051930639;1.053;0.017769409063470167
53:02.0;-0.037134150600118106;-0.525268274410154;-0.9120804606241891;1.053;0.01779048619711027
53:02.0;-0.03717031964624822;-0.5253406217095832;-0.9121021722806301;1.053;0.017810691021057146
53:02.0;-0.037200213911307005;-0.5254004184694495;-0.9121201179822054;1.053;0.01782739496293009
53:02.0;-0.03721816125411459;-0.5254363199724096;-0.9121308939604956;1.053;0.017837425333845795
53:02.0;-0.03721783061080785;-0.5254356638926697;-0.9121307013564995;1.053;0.017837240828748525
53:02.0;-0.03719273599497364;-0.5253854782496805;-0.9121156485690519;1.053;0.017823217163545964
53:02.0;-0.03713694703256154;-0.5252739024276439;-0.9120821775199709;1.053;0.017792050054502472
53:02.0;-0.037046000917394385;-0.525092011037715;-0.9120276107732512;1.053;0.01774127102002821
53:02.0;-0.03691798611255666;-0.5248359812771745;-0.9119508017075943;1.053;0.017669856110385348
53:02.0;-0.03675473825619355;-0.5245094847049253;-0.9118528520199247;1.053;0.017578889697289272
53:02.0;-0.036563055164504525;-0.5241261172199261;-0.9117378406967175;1.053;0.017472226819314984
53:02.0;-0.03635580321624226;-0.5237116118112412;-0.911613487823771;1.053;0.017357080971631102
53:02.0;-0.03615275554561823;-0.5233055149328398;-0.9114916574897999;1.053;0.017244452658023185
53:02.0;-0.035980978289252126;-0.5229619589932767;-0.9113885895299424;1.053;0.01714931008115705
53:02.0;-0.03587457055111309;-0.5227491422867613;-0.9113247435059885;1.053;0.017090438342975984
53:02.1;-0.03587357340090388;-0.5227471469950691;-0.9113241441109622;1.053;0.017089886835008006
