Time;AccX;AccY;AccZ;Acc-old;Acc-trns
51:35.2;-0.041779239853828004;-0.3006344249895226;-0.9429934186485145;0.998;0.01184425925460487
51:35.3;-0.032483945617309246;-0.3087703736960137;-0.9607799640832151;1.074;0.009636699928455587
51:35.3;-0.023817285171340113;-0.3168427653109842;-0.9785347778435218;1.088;0.007384350749466376
51:35.3;-0.016219083838218608;-0.32455247335282067;-0.9959578693809075;1.085;0.005242666226899648
51:35.3;-0.009993583657769086;-0.3314656483704277;-1.0129544531018897;1.103;0.0033554416971410795
51:35.3;-0.005285688190105896;-0.3370213078825012;-1.0296334155035325;1.103;0.001834178203505178
51:35.3;-0.0020840283238505336;-0.340566261959948;-1.0462527444932381;1.103;0.0007425776092691335
51:35.3;-0.00024114932247508984;-0.3414139162153343;-1.0631243976890443;1.0959999999999999;8.752887573488196e-05
51:35.3;0.0004967837397864122;-0.3389215045597928;-1.0804951174226678;1.0959999999999999;0.00018192371119492943
51:35.3;0.0004533610225527132;-0.3325778719246452;-1.0984234807692437;1.101;0.00016561792433279226
51:35.3;-2.0737431720404226e-05;-0.3220897059229544;-1.116675824672509;1.103;7.458627670128364e-06
51:35.4;-0.0005930494615066211;-0.3074522620737791;-1.134662330735843;1.111;0.00020688797353203754
51:35.4;-0.000991795047189134;-0.28899190262693364;-1.1514303099859495;1.145;0.0003300238048619479
51:35.4;-0.0010420066059107322;-0.26736887822113076;-1.1657253237963046;1.175;0.0003247712352886377
51:35.4;-0.0006949624881067601;-0.24353152626014996;-1.1761198274654334;1.244;0.00019905272412888654
51:35.4;-4.946303468603117e-05;-0.21862494349943756;-1.1811922789958673;1.244;1.2773239862973545e-05
51:35.4;0.0006416316607451587;-0.1938759898559374;-1.1797238538970187;1.244;0.00014675407681344124
51:35.4;0.0009891591870321377;-0.17048344923835326;-1.1708769211101104;1.249;0.00019745114578793865
51:35.4;0.0005156808127103329;-0.149528874068614;-1.1543302945925562;1.24;8.900945242639992e-05
51:35.4;-0.0012685741237917702;-0.13190848508533506;-1.1303577069873265;1.208;0.00018914918784910614
51:35.5;-0.004772923728016138;-0.11828478418969565;-1.0998406385125215;1.162;0.0006209307086353383
51:35.5;-0.010233495605820066;-0.10906099569470021;-1.0642107068966296;1.111;0.001187739199047448
51:35.5;-0.01763874860514796;-0.10438182142394342;-1.0253244973826248;1.054;0.001887791277848912
51:35.5;-0.026689557111081157;-0.10415990104796773;-0.9852815536831743;0.995;0.0027390646173551694
51:35.5;-0.036806162470286806;-0.10812178847058453;-0.9462032045513976;0.818;0.0037654611772119685
51:35.5;-0.04718468566962111;-0.11586245524364808;-0.9100013897888742;0.818;0.004974917111623091
51:35.5;-0.05689047906652698;-0.1268961548704268;-0.8781802399041528;0.818;0.0063397438959803725
51:35.5;-0.06496643722835813;-0.14069587684408438;-0.8517109389650579;0.799;0.007785072228053063
51:35.5;-0.0705389596987243;-0.15672078359825703;-0.8309964744276715;0.81;0.00918660040781214
51:35.5;-0.07291170713046446;-0.1744352010783416;-0.8159178857067129;0.846;0.010377144168298212
51:35.6;-0.07163875328864307;-0.19332201158002132;-0.8059416291385815;0.862;0.011161766003266758
51:35.6;-0.0665692412439602;-0.21289081261046822;-0.800262277886958;0.861;0.011341300887563742
51:35.6;-0.057858791861615765;-0.2326804155243856;-0.7979529475976691;0.875;0.010742527522180122
51:35.6;-0.0459463136952657;-0.25225704545356686;-0.7981005207102391;0.895;0.009250209574428278
51:35.6;-0.031498720255908816;-0.2712118614674077;-0.7999100986115207;0.875;0.006833493231588155
51:35.6;-0.015332741297043666;-0.2891607282326651;-0.802769488077248;0.875;0.0035591801875213525
51:35.6;0.0016700749298210094;-0.3057461014713901;-0.8062722075117496;0.875;0.0004116978268599881
51:35.6;0.018639752485640208;-0.32064073820599165;-0.8102050386983569;0.884;0.004842323284954297
51:35.6;0.034779423774963555;-0.333556430263339;-0.8145085277770013;0.885;0.009449032339080565
51:35.6;0.04941302364768923;-0.34426140549266493;-0.8192177360961325;0.878;0.013935710426989645
51:35.7;0.062019747484186635;-0.35260500168166986;-0.824391751939392;0.867;0.018028188905524004
51:35.7;0.07225370885676369;-0.35854340558526354;-0.8300449436237018;0.866;0.021503219710524525
51:35.7;0.07994813038840863;-0.3621594036511966;-0.8360966938321509;0.889;0.024208316269724042
51:35.7;0.08510531932074179;-0.36367017915888245;-0.8423547578271322;0.9109999999999999;0.026071104431610308
51:35.7;0.08787457233505631;-0.3634185323444768;-0.8485383664661454;0.953;0.02709828326259681
51:35.7;0.08852147139448555;-0.36184627233783;-0.8543332496936021;0.953;0.02736528881258243
51:35.7;0.08739451982066557;-0.3594544982656865;-0.8594590638259553;0.953;0.026999350654975073
51:35.7;0.08489594746375757;-0.3567593829496843;-0.8637282974201023;0.955;0.026160106747196463
51:35.7;0.08146070700398461;-0.35425038779247037;-0.867084612674212;0.9520000000000001;0.02502188297804098
51:35.7;0.07754332876750847;-0.3523544481743988;-0.8696184834934421;0.945;0.02376035695610864
51:35.8;0.07360948959343874;-0.3514089168683821;-0.8715627304608732;0.94;0.022544740175350863
51:35.8;0.07012831539381259;-0.35164633738018486;-0.8732723112219642;0.941;0.021535214161703942
51:35.8;0.06756116373947482;-0.3531927153598125;-0.875193956241371;0.9440000000000001;0.020883975220098567
51:35.8;0.06634209717076037;-0.3560783192332515;-0.8778311768212697;0.95;0.020736990488477505
51:35.8;0.06684577095641087;-0.3602574955817945;-0.8817085199268597;0.961;0.021233031278089176
51:35.8;0.06934267455401788;-0.36563182658114185;-0.8873368966934341;0.961;0.022497440968930808
51:35.8;0.07394907415477449;-0.3720700428820194;-0.8951806246620555;0.961;0.024630210246141298
51:35.8;0.080583979426424;-0.37942003467553465;-0.9056273405397249;0.972;0.027689715570363378
51:35.8;0.08894443537449961;-0.38751223161966747;-0.9189635641295382;0.9940000000000001;0.031673969216900605
51:35.8;0.09850636356237623;-0.396156195238766;-0.9353588861901627;1.023;0.03650135743397837
51:35.9;0.10855387477956928;-0.4051323058331073;-0.9548587194948498;1.06;0.04199342759436805
51:35.9;0.11823517876773668;-0.41418005401835906;-0.9773807283437917;1.0759999999999998;0.04786297223163488
51:35.9;0.12663915962203984;-0.4229853605969424;-1.002707381772226;1.081;0.053711535592818195
51:35.9;0.1328858298973159;-0.43117126308078174;-1.0304700358010113;1.102;0.05904237908633649
51:35.9;0.13622515327519133;-0.4382977761663714;-1.0601267354983221;1.175;0.06329717966217684
51:35.9;0.13613711300722464;-0.44387554278378616;-1.0909393401338605;1.175;0.06592321145720365
51:35.9;0.1324196232949219;-0.447393827330923;-1.1219536736662505;1.175;0.06646871162890791
51:35.9;0.12524650518143055;-0.44836022966749717;-1.151986873842503;1.224;0.06469045859946598
51:35.9;0.11518075662313614;-0.4463493247098018;-1.1796315546607892;1.232;0.060645864378045033
51:35.9;0.10313507490702017;-0.4410570722281892;-1.2032889722626798;1.245;0.054735755283108874
51:36.0;0.0902785022252616;-0.43235518876624135;-1.221240460346037;1.27;0.047667920340987685
51:36.0;0.07789731619310096;-0.42033680487763975;-1.2317624926267565;1.294;0.04033173355468065
51:36.0;0.06722952761059714;-0.40534311002046614;-1.2332850717691164;1.3519999999999999;0.03360828331802774
51:36.0;0.05929994753569531;-0.38795974316149684;-1.224581748145656;1.385;0.02817271840992349
51:36.0;0.0547827875478279;-0.3689733334667663;-1.2049648157070447;1.314;0.024356421030683282
51:36.0;0.05391275438577235;-0.34928899606721303;-1.1744506221641797;1.314;0.022116234522719633
51:36.0;0.056457580650085284;-0.3298273671155421;-1.1338634675122308;1.314;0.021113960967293115
51:36.0;0.06175741952063383;-0.3114279530557046;-1.0848547041621006;1.242;0.02086499614791029
51:36.0;0.06882846151246962;-0.2947750735201954;-1.0298184879284278;1.14;0.020893899563743
51:36.0;0.07651567266587056;-0.28034893730190247;-0.9716949870995877;1.015;0.020843914209869047
51:36.1;0.08366405704700126;-0.2684009152340367;-0.9136744521622064;0.882;0.020517025325458585
51:36.1;0.08927027467514968;-0.2589533252160223;-0.8588440472636175;0.759;0.019853755676204617
51:36.1;0.09258543160182268;-0.25182333141919655;-0.8098400835212832;0.68;0.01888156069957344
51:36.1;0.09315915308983767;-0.24666890046737872;-0.7685731992120975;0.672;0.017661401593083444
51:36.1;0.09083062897840145;-0.2430525701078684;-0.7360795937148993;0.7240000000000001;0.016250147873862544
51:36.1;0.08567928312538495;-0.24051477455006653;-0.7125184534171046;0.758;0.014682962865494866
51:36.1;0.07795183846887796;-0.23864488667393688;-0.6972952782129455;0.758;0.012971649941029853
51:36.1;0.06798538296861233;-0.2371390742319724;-0.6892635368794884;0.758;0.011112300385515571
51:36.1;0.056142147537122086;-0.23583879071576236;-0.6869551922117872;0.809;0.009095627600606308
51:36.1;0.04276284473145679;-0.23474769403514265;-0.6888030366464677;0.8190000000000001;0.006914534950136774
51:36.2;0.02814046215787539;-0.23402647554567835;-0.6933262993351127;0.812;0.004565978814272268
51:36.2;0.012516200876777494;-0.23396608715004807;-0.6992556914862977;0.787;0.0020476769734357656
51:36.2;-0.0039035977119647866;-0.23494082768580282;-0.7055858715945652;0.762;0.0006471030178892703
51:36.2;-0.02091923014328824;-0.23734384985308757;-0.7115623427385896;0.698;0.003532943049681288
51:36.2;-0.038315806244726025;-0.24151055493325804;-0.7166271255773965;0.711;0.006631432100440645
51:36.2;-0.05586242426566368;-0.24764148356706778;-0.7203558731825626;0.711;0.009965297704492523
51:36.2;-0.07333172499294423;-0.25574318790228023;-0.7224145898823477;0.711;0.013548227603181216
51:36.2;-0.09052769354574829;-0.265606795728797;-0.7225499449048275;0.794;0.01737354767762948
51:36.2;-0.10731303272959028;-0.2768347082777862;-0.7206113257938248;0.809;0.0214079011689056
51:36.2;-0.12363511269870163;-0.28890827736405483;-0.7165901691253783;0.8190000000000001;0.025596032894357797
51:36.3;-0.13954917502642145;-0.3012728928124231;-0.7106567867233444;0.861;0.02987770527075491
51:36.3;-0.1552323189967104;-0.3134117918148846;-0.7031780952687575;0.8440000000000001;0.03421076701553686
51:36.3;-0.1709797523119559;-0.32488832010647867;-0.6947050730935729;0.794;0.038590397537663794
51:36.3;-0.1871805113334004;-0.3353534725003891;-0.6859240357198634;0.759;0.04305657283757247
51:36.3;-0.20428173747900008;-0.3445335049249981;-0.6775752698565429;0.755;0.047689036922177554
51:36.3;-0.22275538726265823;-0.35221950727776535;-0.6703550757383445;0.755;0.05259524995299486
51:36.3;-0.24306936366491425;-0.3582708479804269;-0.6648259293275969;0.755;0.05789614469391655
51:36.3;-0.2656518097831111;-0.3626298623709083;-0.6613583022067531;0.755;0.06371081399110191
51:36.3;-0.29084148212405225;-0.3653414598134846;-0.6601167873219493;0.804;0.07014166749775082
51:36.3;-0.3188296664057025;-0.36657392005046346;-0.661090021479784;0.843;0.07726465869293775
51:36.4;-0.34960271049553215;-0.3666340809075714;-0.6641541802689971;0.86;0.08512880449924387
51:36.4;-0.3828924777461973;-0.36596371683091505;-0.669153765876393;0.8540000000000001;0.09376500703408694
51:36.4;-0.4181463236057343;-0.36510532472154816;-0.6759816331427416;0.863;0.10320039167931801
51:36.4;-0.45453642701924013;-0.36463830600242086;-0.6846425717315626;0.885;0.1134736133847875
51:36.4;-0.49102734337406906;-0.3651014792052797;-0.6952883772162439;1.001;0.12464769130077373
51:36.4;-0.5265000633486466;-0.3669216551458382;-0.7082167489282949;1.001;0.136816338956718
51:36.4;-0.5598997855160646;-0.37035849030761075;-0.723833376372144;1.001;0.15009672316213069
51:36.4;-0.5903628927425841;-0.3754653416718482;-0.7425852362992328;1.0;0.16460204143294954
51:36.4;-0.6172978607479798;-0.3820650571780925;-0.7648817406588317;1.01;0.18039578476159068
51:36.4;-0.6404193426532762;-0.3897451255959424;-0.7910272250968284;1.075;0.1974406462477518
51:36.5;-0.6597446590843389;-0.3978779522012355;-0.8211856469466229;1.1520000000000001;0.21555947000339654
51:36.5;-0.675563761633873;-0.40566512086935225;-0.8553803841535133;1.208;0.2344192653277234
51:36.5;-0.6883922243084774;-0.41219569609061224;-0.893510146962696;1.242;0.2535355700695693
51:36.5;-0.6989102177537315;-0.4165062811726255;-0.9353552619580263;1.263;0.27228238038367064
51:36.5;-0.7078842053926172;-0.4176352926639659;-0.9805594525984761;1.2930000000000001;0.2898900738724226
51:36.5;-0.7160696049317031;-0.41467131468500973;-1.0285863670611506;1.2930000000000001;0.3054217752066372
51:36.5;-0.7241005683431712;-0.40680216819882203;-1.0786581540196565;1.2930000000000001;0.31773567391642143
51:36.5;-0.7323800030896602;-0.39337369498684815;-1.1296904611977354;1.315;0.3254627237552954
51:36.5;-0.7409863942463462;-0.373962645350848;-1.1802473721458326;1.3319999999999999;0.32704800107680565
51:36.5;-0.7496174162551448;-0.3484593890651498;-1.2285423603778227;1.409;0.3209090572539743
51:36.6;-0.7575918191406206;-0.3171466721027191;-1.2725016495560484;1.521;0.30574107544662943
51:36.6;-0.763922349616992;-0.2807514717010126;-1.3098884586988646;1.58;0.28093482181348084
51:36.6;-0.7674529593727667;-0.24044344424659544;-1.3384680021038546;1.624;0.24698620592733073
51:36.6;-0.7670335998051669;-0.19776130433135478;-1.3561838499308998;1.6340000000000001;0.20571893847770387
51:36.6;-0.7616960224430639;-0.1544665977268195;-1.3613218057681642;1.595;0.16016848576421783
51:36.6;-0.7507980788370441;-0.11234980108935695;-1.3526507456119554;1.595;0.11409881573420996
51:36.6;-0.7341173460694322;-0.07303774246961907;-1.3295396482477304;1.595;0.071287620707815
51:36.6;-0.7118868587107007;-0.037851750306352364;-1.2920506613722196;1.555;0.03481580852962511
51:36.6;-0.6847721623891642;-0.007735946712555457;-1.2410011292728367;1.473;0.006574030931644413
51:36.6;-0.6537959615791178;0.016756508462437744;-1.1779812049761544;1.406;0.012905181743275021
51:36.7;-0.6202256789647144;0.0354391886021442;-1.105314720067629;1.33;0.02429514340792938
51:36.7;-0.5854433656999724;0.04844157726993069;-1.0259562665373692;1.227;0.029095914565423188
51:36.7;-0.5508154822388998;0.056137428290014856;-0.943321018185926;1.112;0.029168773171390414
51:36.7;-0.5175774406556023;0.05906206567450307;-0.8610476250490937;0.992;0.026321530852911564
51:36.7;-0.4867460448598515;0.05783431662512165;-0.7827057702707885;0.7290000000000001;0.022033656525960656
51:36.7;-0.45906985406385503;0.053097179455926395;-0.7114834270870911;0.7290000000000001;0.017342632242737435
51:36.7;-0.43502125785177065;0.04548207550904378;-0.6499129688992757;0.7290000000000001;0.012858963334862382
51:36.7;-0.4148250474563025;0.035592152152928;-0.5996907667679016;0.667;0.008854144044479454
51:36.7;-0.3985113868090826;0.023996111141956534;-0.5616073734655256;0.632;0.00537049604441435
51:36.7;-0.3859817432356291;0.011224645642501975;-0.53557261947707;0.633;0.0023203728150106248
51:36.8;-0.37707957964836714;-0.002236271361830453;-0.5207152096094838;0.679;0.00043909427997454605
51:36.8;-0.37165292727156185;-0.01595942678546247;-0.5155426997849;0.6559999999999999;0.003057873308397947
51:36.8;-0.3695894744030007;-0.029600753873928642;-0.5181472180634406;0.645;0.005668596404610977
51:36.8;-0.3708155579876666;-0.042931843978989394;-0.5264360596535137;0.669;0.008380754508535867
51:36.8;-0.37527353869024693;-0.055867215107353915;-0.5383613949204659;0.7809999999999999;0.011287009101128231
51:36.8;-0.3828981627423091;-0.06846646866793289;-0.552120974824629;0.7809999999999999;0.014474229592350719
51:36.8;-0.3935957374772648;-0.08090071197498397;-0.5662992966346496;0.7809999999999999;0.018032201527936772
51:36.8;-0.4072166318263766;-0.0933901502238153;-0.5799226836951082;0.706;0.022054472662734352
51:36.8;-0.423518104715214;-0.10613027318097613;-0.5924226487272488;0.635;0.026628267807044508
51:36.8;-0.4421305327242189;-0.11922501941836039;-0.6035329446455961;0.74;0.031814044996226906
51:36.9;-0.4625478857466779;-0.13264085595377498;-0.613163721278356;0.721;0.037619278958583496
51:36.9;-0.48415415525041644;-0.14618802163115263;-0.6212898181739239;0.742;0.04397336378972088
51:36.9;-0.5062797872080539;-0.15952963245675275;-0.6278748429936754;0.787;0.05071133410919247
51:36.9;-0.5282724883502601;-0.1722188480246796;-0.6328436053933221;0.843;0.05757514890835263
51:36.9;-0.5495687112712772;-0.18376154628560928;-0.6361054005201616;0.934;0.06424002752224964
51:36.9;-0.5697556612576626;-0.19369260637891564;-0.6376129574157932;0.934;0.07036534582382407
51:36.9;-0.5886136777906402;-0.20164678181871107;-0.6374280741651596;0.934;0.07565764731129805
51:36.9;-0.6061312814968342;-0.20740885532961326;-0.6357661759061949;0.945;0.07992661333223224
51:36.9;-0.6224932433452426;-0.21093751313335135;-0.6330041985361913;0.9490000000000001;0.08311799414495674
51:36.9;-0.6380487991931072;-0.2123627811903042;-0.6296483030544685;0.934;0.08531597087647065
51:37.0;-0.653267833624053;-0.21195660914423295;-0.6262661460929372;0.899;0.08671558800195223
51:37.0;-0.668691290839437;-0.21007774999129056;-0.6233968837666548;0.888;0.08757302491792518
51:37.0;-0.6848812512394045;-0.20709864883445125;-0.6214618210102127;0.9009999999999999;0.08814689042287115
51:37.0;-0.7023743579839928;-0.20332738574535555;-0.6207035906210366;0.9159999999999999;0.08864388519752354
51:37.0;-0.7216383965558946;-0.1989366971027431;-0.6211758975549282;0.9940000000000001;0.08917623492554251
51:37.0;-0.7430278186075703;-0.19390844649664973;-0.6227886066774078;0.9940000000000001;0.08973099009947938
51:37.0;-0.7667337027532254;-0.18800005334789271;-0.6253916392157217;0.9940000000000001;0.09014768885566109
51:37.0;-0.7927293885618074;-0.1807374055471717;-0.6288697188181798;1.037;0.09010184538304035
51:37.0;-0.8207215309175504;-0.17143476858703027;-0.6332231691663124;1.062;0.08909463017295724
51:37.0;-0.8501206610656754;-0.15923847620598722;-0.638616561949048;1.065;0.08645074927866411
51:37.1;-0.8800429723996972;-0.14318971083254725;-0.6453814525954693;1.0979999999999999;0.08132651670966935
51:37.1;-0.9093488755386969;-0.1223016917314394;-0.6539680819311754;1.121;0.07273099866249264
51:37.1;-0.93671610604166;-0.09564630352150733;-0.6648542765367251;1.133;0.05956657707430119
51:37.1;-0.9607370637159452;-0.06244419076681607;-0.678432298523438;1.16;0.04070081471866182
51:37.1;-0.9800244121014587;-0.022152472927022413;-0.6949035144438026;1.185;0.01508633046056819
51:37.1;-0.9933082867614239;0.025453445447633182;-0.7142122236936664;1.222;0.01805751213564227
51:37.1;-0.9995136817249836;0.08020518501190878;-0.7360382351441559;1.222;0.059005373472248934
51:37.1;-0.9978160939149642;0.141476893714668;-0.7598473615637042;1.27;0.10726607266306275
51:37.1;-0.9876815859568397;0.20814187940547696;-0.7849820405126237;1.319;0.16137496064713458
51:37.1;-0.9688982772992368;0.27856924633913915;-0.8107642079150221;1.369;0.21882952667630035
51:37.2;-0.9415991231991675;0.3506778100807315;-0.8365770749259541;1.3769999999999998;0.27623600880321103
51:37.2;-0.906265191510756;0.42205182028134003;-0.8618980565245308;1.351;0.329668140710335
51:37.2;-0.8636935449840459;0.49010709110051487;-0.8862762191630693;1.325;0.37516278942347425
51:37.2;-0.8149215605806345;0.5522863221836917;-0.9092724439140485;1.3;0.40923627753019176
51:37.2;-0.7611169836427633;0.6062606290397994;-0.9303938490987999;1.315;0.4293165288486148
51:37.2;-0.7034617990998715;0.6501141748318768;-0.9490509878922888;1.315;0.43402995052574883
51:37.2;-0.6430684739643249;0.682488806559275;-0.9645520852427398;1.315;0.4233294051152978
51:37.2;-0.5809561062698154;0.7026743636882425;-0.9761357886675899;1.344;0.3984810432607778
51:37.2;-0.5180833733876985;0.7106466091506034;-0.9830398004667857;1.3659999999999999;0.3619298847865564
51:37.2;-0.4554108925891757;0.7070622441677208;-0.9845988297364077;1.374;0.3170446116480669
51:37.3;-0.3939640980826575;0.6932139534621845;-0.9803546561394492;1.3519999999999999;0.2677362388466944
51:37.3;-0.3348784645745001;0.6709408587049683;-0.9701516461203245;1.3159999999999998;0.21797720764891534
51:37.3;-0.27941739597065346;0.6424917371663024;-0.9541907889236452;1.2570000000000001;0.1712995442677879
51:37.3;-0.22895477747125847;0.6103482411819796;-0.9330231122621534;1.171;0.13038265173233415
51:37.3;-0.18491369726313492;0.5770252362439502;-0.9074784296301237;0.96;0.09682783033140409
51:37.3;-0.14866202771755313;0.5448714001935342;-0.8785485538976313;0.96;0.07116391515113546
51:37.3;-0.12138465346594243;0.5158963226064864;-0.8472642646675486;0.96;0.0530572949579378
51:37.3;-0.10396004344688196;0.49164552629030234;-0.8146027527406063;0.9359999999999999;0.04163556067355335
51:37.3;-0.09685692623185942;0.4731293799532349;-0.7814367634952704;0.909;0.03581000973188644
51:37.3;-0.10005635981691569;0.46079909697369453;-0.7485122591581281;0.856;0.03451081658648381
51:37.4;-0.1130084843957817;0.4545634293007216;-0.7164359134472504;0.8079999999999999;0.0368029719986096
51:37.4;-0.13463849691299098;0.45384515390373636;-0.6856642144140838;0.769;0.041897531947967394
51:37.4;-0.16341173663725095;0.45767677019930747;-0.656500866078476;0.772;0.04909953948065489
51:37.4;-0.19745677870626469;0.4648303151276113;-0.6291171227176902;0.8079999999999999;0.05774282098492117
51:37.4;-0.2347334192983437;0.47397073714361526;-0.6036036030655088;0.8959999999999999;0.06715498831008085
51:37.4;-0.2732196576698573;0.48381605014591744;-0.5800458552262057;0.8959999999999999;0.07667513375890009
51:37.4;-0.3110823167221432;0.4932815612920191;-0.5586017086949008;0.8959999999999999;0.08571808625649778
51:37.4;-0.3468020136115851;0.5015866745603106;-0.5395543213071193;0.892;0.09385615874458124
51:37.4;-0.3792445181807847;0.5083133982533478;-0.5233205964426505;0.872;0.10088316450985027
51:37.4;-0.4076865839746044;0.5134163674196408;-0.5104086917314931;0.852;0.10683515662296719
51:37.5;-0.4318047753301778;0.5171881791377406;-0.5013369242332583;0.8370000000000001;0.11196073045062958
51:37.5;-0.4516319549421451;0.5201861802427298;-0.4965394480293077;0.816;0.11665335393524114
51:37.5;-0.4674865979121313;0.5231327802091499;-0.49628480516187806;0.8109999999999999;0.12137020283995129
51:37.5;-0.4798823565027359;0.5268074743223599;-0.5006267555986671;0.813;0.12656125343335578
51:37.5;-0.48942682868799364;0.5319492405914512;-0.5093982987242541;0.888;0.132621964155848
51:37.5;-0.4967201568925843;0.539181873612446;-0.5222461744450947;0.888;0.1398692785905193
51:37.5;-0.5022657746428083;0.5489662138958293;-0.5386856891937601;0.888;0.14853015706686312
51:37.5;-0.5064053553082333;0.5615780325126766;-0.5581494417353529;0.914;0.15872995583878186
51:37.5;-0.5092870109986288;0.5771101146648395;-0.5800154029649952;0.943;0.1704750446401541
51:37.5;-0.5108711450351192;0.5954966235019901;-0.6036156793914489;0.983;0.1836331945151747
51:37.6;-0.510972333780984;0.6165532228797465;-0.6282348153158196;1.0270000000000001;0.19792012601649606
51:37.6;-0.5093274349444471;0.6400201464493277;-0.6531093841585379;1.07;0.21290047916424173
51:37.6;-0.50567140971604;0.6655917227324211;-0.6774434408623241;1.1;0.228007616305363
51:37.6;-0.49979791729683454;0.6929182669812762;-0.7004537141946785;1.109;0.2425805045805172
51:37.6;-0.49158680742577476;0.7215760180493644;-0.721449958554142;1.163;0.2559107460525106
51:37.6;-0.4809968918562629;0.751014520026606;-0.7399386373017333;1.163;0.2672922145108869
51:37.6;-0.4680415056814598;0.7805027590678265;-0.7557188032876334;1.163;0.2760698877057772
51:37.6;-0.4527703994197388;0.8091012399618377;-0.7689340766529018;1.213;0.2816890732643337
51:37.6;-0.43527045941763876;0.8356837552325359;-0.7800596333373795;1.23;0.2837454841471438
51:37.6;-0.4156844396571564;0.8590184987525699;-0.789822541489119;1.236;0.28203032541850714
51:37.7;-0.3942427961130009;0.8778986134811808;-0.7990672639160158;1.262;0.27656133845333536
51:37.7;-0.3713034337059354;0.8912962319337004;-0.8085905005597028;1.295;0.2675960329570555
51:37.7;-0.34738910524983646;0.8985057426136097;-0.8189799490895578;1.3019999999999998;0.25562911729163224
51:37.7;-0.3232045979664811;0.8992415004655496;-0.8304924550727593;1.2819999999999998;0.2413734863789782
51:37.7;-0.29961569816241174;0.8936650507556557;-0.842997208252677;1.2409999999999999;0.22571762633562467
51:37.7;-0.27758537276305106;0.8823395935290019;-0.8559912083253569;1.2409999999999999;0.20965327432009764
51:37.7;-0.2580818013965525;0.866135562293817;-0.8686725037135073;1.2409999999999999;0.194177688444105
51:37.7;-0.24197984575414544;0.8461208472789994;-0.8800459615684058;1.24;0.18018429942445793
51:37.7;-0.2299679593751051;0.8234573321599186;-0.889042300038315;1.232;0.16835687556054735
51:37.7;-0.22246375271197802;0.799310942187142;-0.8946389734487726;1.226;0.15908265513028313
51:37.8;-0.21954453602901183;0.774778451749092;-0.8959709131795326;1.22;0.15240319701930316
51:37.8;-0.22090514482754736;0.7508337922139913;-0.8924176902428019;1.205;0.14801911784514818
51:37.8;-0.22585531278128176;0.7282924492544026;-0.8836574337299031;1.192;0.14535167924066308
51:37.8;-0.23336501405665244;0.7077877494373959;-0.86968266046006;1.1909999999999998;0.1436480054525358
51:37.8;-0.24216057694352108;0.6897521437650751;-0.8507761898846191;1.058;0.1421058081194452
51:37.8;-0.25086297348541675;0.6744020283872018;-0.8274525383720621;1.058;0.13999048755542615
51:37.8;-0.25814429212055096;0.6617331633244876;-0.8003845966477379;1.058;0.13672380902959871
51:37.8;-0.2628728349628773;0.651536398653647;-0.7703418873472897;1.058;0.13193739501374216
51:37.8;-0.26422802167102755;0.6434364009565623;-0.7381522873508694;1.03;0.1254961693149571
51:37.8;-0.26177965458634506;0.6369474856942007;-0.7046790238225277;1.006;0.11749810488682014
51:37.9;-0.2555291486140991;0.6315377476813185;-0.6707999317122969;0.98;0.10825121302076003
51:37.9;-0.24590749388930175;0.6266930290717179;-0.6373841271236056;0.95;0.0982263195417
51:37.9;-0.23372582069462766;0.621971820489326;-0.605269168054915;0.915;0.08798850808209138
51:37.9;-0.22008166173410693;0.6170419985112081;-0.5752440569577787;0.88;0.07811792916961943
51:37.9;-0.20623363593792385;0.6116933404838352;-0.548041137992764;0.8540000000000001;0.06913634407391037
51:37.9;-0.19346486374784388;0.6058263226396485;-0.5243350643566065;0.797;0.0614552716381329
51:37.9;-0.1829575391704398;0.5994253041191133;-0.5047428768517556;0.797;0.05535483763597249
51:37.9;-0.17569638369421178;0.5925290983365822;-0.489818838070924;0.7759999999999999;0.05099269780510355
51:37.9;-0.1724095285732676;0.5852110462506985;-0.4800398919685359;0.76;0.048434086026462445
51:37.9;-0.17354663743750737;0.5775750632946561;-0.47578043113366547;0.7559999999999999;0.047690427257792614
51:38.0;-0.179288948813468;0.5697678670163787;-0.4772791099403541;0.757;0.048755532028401515
51:38.0;-0.18958380863765392;0.5620027407559972;-0.4846051503168143;0.755;0.051633040828627026
51:38.0;-0.2041957662554074;0.5545870605479274;-0.49763425043668175;0.762;0.056354257168224446
51:38.0;-0.22276732885273046;0.5479454222381459;-0.5160437725645441;0.782;0.06299054151275849
51:38.0;-0.24488371173005916;0.5426321973531122;-0.5393325749286831;0.872;0.07166747612382385
51:38.0;-0.2701334352259804;0.5393295068447007;-0.5668608087621007;0.872;0.08258647977109504
51:38.0;-0.29815126144376103;0.5388277162407364;-0.5978936989111392;0.872;0.0960529161523394
51:38.0;-0.32863142914778715;0.5419861388896506;-0.6316332737445922;0.904;0.11250252641912542
51:38.0;-0.3613107228641765;0.5496728121621267;-0.6672356119778861;0.932;0.13251478146492987
51:38.0;-0.3959313415002187;0.5626851053640128;-0.703823220450929;0.96;0.1568010229274551
51:38.1;-0.43219533759317413;0.5816576610057125;-0.7405026772766927;1.001;0.18615476748433843
51:38.1;-0.4697205181879945;0.6069689585068467;-0.7763929020658121;1.063;0.2213540990494251
51:38.1;-0.5080060776419754;0.638659683971437;-0.8106652855408288;1.1420000000000001;0.2630146780493286
51:38.1;-0.5464135055477357;0.6763732213293285;-0.8425920583325295;1.216;0.31140472038355227
51:38.1;-0.5841642275465087;0.7193220403386537;-0.8715929974637799;1.32;0.36624529857022803
51:38.1;-0.6203514468840948;0.766277624317442;-0.8972655060022814;1.32;0.4265254166790321
51:38.1;-0.6539625376283932;0.8155816761150445;-0.9193834449319828;1.32;0.4903622278246442
51:38.1;-0.6839141015845179;0.8651860991082029;-0.9378591560476667;1.3519999999999999;0.554943430113291
51:38.1;-0.7091112097389387;0.9127412184147443;-0.9526782539319163;1.4269999999999998;0.6166067378530549
51:38.2;-0.7285428229850012;0.9557504788727342;-0.9638289020652284;1.521;0.67111903010364
51:38.2;-0.7414111108203593;0.9917915054137599;-0.9712483828774885;1.629;0.7141834519202439
51:38.2;-0.7472722930148207;1.0187787151334409;-0.9747997362659996;1.768;0.7421200170657999
51:38.2;-0.74615185922473;1.0352192453695193;-0.974277430216717;1.8230000000000002;0.7525618603915412
51:38.2;-0.7385926587193858;1.0403961253897223;-0.9694309868844764;1.801;0.7449388260163341
51:38.2;-0.725605122858623;1.0344167732067144;-0.9599927148330375;1.4780000000000002;0.7205495173304429
51:38.2;-0.7085197742649437;1.0181090477849097;-0.9457019996972849;1.4780000000000002;0.6821825088717309
51:38.2;-0.6887814087370034;0.9928131191501748;-0.9263306408543392;1.4780000000000002;0.6334538111665088
51:38.2;-0.6677406314347278;0.9601505281486973;-0.9017196175036847;1.406;0.5781208689284087
51:38.2;-0.6464811616431877;0.921828969498309;-0.8718314183160139;1.351;0.5195636295465053
51:38.3;-0.6256989687549772;0.8795028713058942;-0.8368128708290973;1.3090000000000002;0.46050150320078426
51:38.3;-0.6056433420835303;0.834692168848291;-0.7970591226659877;1.2930000000000001;0.4029339145678732
51:38.3;-0.5861289099905684;0.7887560341729504;-0.7532663976092763;1.28;0.3482446330642774
51:38.3;-0.5666176303592126;0.7429096234225396;-0.7064557734005453;1.255;0.2973795132674386
51:38.3;-0.5463542797579065;0.6982624917228616;-0.6579459666238104;1.214;0.25100553142884774
51:38.3;-0.5245277974282198;0.6558544258287159;-0.6092585166470285;0.9390000000000001;0.2095933846589332
51:38.3;-0.5004303838035745;0.6166737846024464;-0.5619637240354441;0.9390000000000001;0.1734232970290854
51:38.3;-0.4735949382935948;0.5816618473725698;-0.5175115856124625;0.9390000000000001;0.14256000673764552
51:38.3;-0.44389872472473807;0.5517151579724774;-0.4771028102774335;0.9390000000000001;0.1168451762701726
51:38.3;-0.4116197606081324;0.5276855589694728;-0.44162448207844274;0.8490000000000001;0.09592340045718199
51:38.4;-0.37743046460545493;0.5103629548876768;-0.4116378507763757;0.762;0.07929236965116758
51:38.4;-0.34232281139544024;0.5004292976456862;-0.38739648480517064;0.696;0.0663642580602697
51:38.4;-0.3074780891076332;0.4983886006640727;-0.3688833816922903;0.6509999999999999;0.05652900800823166
51:38.4;-0.27410878973572006;0.5044907609839852;-0.35586309680438827;0.619;0.04921065357913246
51:38.4;-0.2433031304272628;0.5186708565588346;-0.34794395500290615;0.604;0.04390852402964399
51:38.4;-0.21589794170131468;0.5405221624131722;-0.3446423511021808;0.711;0.04021894292059
51:38.4;-0.1923984727312769;0.5693085071622924;-0.3454403251797397;0.711;0.037837490732051164
51:38.4;-0.17295492717706046;0.6040022065817209;-0.34982886137841435;0.711;0.036544927155859226
51:38.4;-0.15739471984446057;0.6433261300784383;-0.3573321956812347;0.711;0.036182077407478905
51:38.4;-0.14529922424368624;0.6857938302411409;-0.367512484301916;0.774;0.03662089598764403
51:38.5;-0.13610793415396955;0.7297606578039225;-0.3799581491784051;0.833;0.037739805029275715
51:38.5;-0.1292316528643496;0.7734983647399375;-0.3942619476449662;0.884;0.03941061044257905
51:38.5;-0.12415793459524353;0.8152908888595245;-0.40999652558645444;0.9279999999999999;0.041501829773668286
51:38.5;-0.12053600285325144;0.8535382657074274;-0.42669654198957035;0.976;0.043899432390103674
51:38.5;-0.118233431551604;0.8868550771132216;-0.4438568953615436;1.008;0.04654102269250348
51:38.5;-0.11736110208341123;0.91415354000038;-0.4609538820681898;1.102;0.049453929042241454
51:38.5;-0.1182662648984146;0.9347033948296316;-0.4774872629393701;1.102;0.05278329435896819
51:38.5;-0.12149607155544596;0.948161328494877;-0.4930286930597031;1.102;0.056795858549721016
51:38.5;-0.12773488293475657;0.9545660387912138;-0.5072572834376476;1.115;0.06185058120269145
51:38.5;-0.13771870728606395;0.9543017449402704;-0.5199720966062344;1.102;0.06833743818130383
51:38.6;-0.15213181233045464;0.9480375436708931;-0.5310843608500693;1.084;0.07659652868239421
51:38.6;-0.17149511538898662;0.9366500875308373;-0.5406000571350307;1.075;0.08683708174026727
51:38.6;-0.19606116656577366;0.9211358253658777;-0.548606822483885;1.065;0.0990778240509618
51:38.6;-0.22573282449287518;0.9025187109163114;-0.5552771408271768;1.065;0.1131255556374442
51:38.6;-0.26002080160837204;0.8817599612557843;-0.5608888671665915;1.11;0.1285983177410635
51:38.6;-0.2980481624515865;0.859678107983919;-0.5658463666427734;1.06;0.14498425711684793
51:38.6;-0.33859550075517;0.8368892500123546;-0.5706745712020893;1.06;0.16171030394395708
51:38.6;-0.38016597122995854;0.8137766010847495;-0.5759678388382692;1.06;0.17818726931925097
51:38.6;-0.4210514534218556;0.7904928203218428;-0.5822986333081424;0.9740000000000001;0.1938112003912273
51:38.6;-0.4594009996508938;0.7669910834628542;-0.5901123628875043;0.955;0.20792990936548525
51:38.7;-0.4933085743340744;0.7430782880698017;-0.5996533374844731;0.97;0.21981305954328065
51:38.7;-0.5209352692460854;0.7184860077012278;-0.6109754018853976;1.08;0.2286787461454251
51:38.7;-0.5406686365306793;0.6929544350165613;-0.6240651385724916;1.2329999999999999;0.23381145197918876
51:38.7;-0.5513057325697011;0.6663191269366787;-0.6390434418951678;1.3330000000000002;0.23474976744932238
51:38.7;-0.5522294825108428;0.6385849022797636;-0.6563489203396929;1.361;0.23145843419841733
51:38.7;-0.5435389833944786;0.6099722732765812;-0.6767890033212435;1.041;0.22438513658511405
51:38.7;-0.5261030685376574;0.5809316297314808;-0.7013971743036796;1.041;0.21436795736951667
51:38.7;-0.5015274643377872;0.5521315971577779;-0.731134290028729;1.041;0.20245778202836048
51:38.7;-0.4720404509150844;0.5244283139364807;-0.7665434672191731;0.977;0.18975889144082808
51:38.7;-0.4403028802422543;0.49881206174159337;-0.8074646353308351;0.9390000000000001;0.177342155808391
51:38.8;-0.4091510264938444;0.4763218919019252;-0.8528721978781274;0.9259999999999999;0.16621420808656964
51:38.8;-0.38129677640278864;0.45792713474398306;-0.900863153080329;0.966;0.1572962381025704
51:38.8;-0.3590289563309863;0.4443906312885784;-0.9487940570462735;1.037;0.1513792422086549
51:38.8;-0.34396735221225894;0.4361412899966364;-0.9935364625987467;1.122;0.14904871539940032
51:38.8;-0.3369138489656322;0.43318742797465043;-1.0317996322829799;1.198;0.1505878996444259
51:38.8;-0.33782613419214336;0.43509607921894816;-1.0604624520471844;1.285;0.15587401039017604
51:38.8;-0.34591046525023544;0.4410464344937323;-1.0768641798760765;1.262;0.164289174740679
51:38.8;-0.35979776978315764;0.4499413077860272;-1.079025511612026;1.262;0.17468115154239622
51:38.8;-0.377750785806624;0.46054373202709187;-1.065799748600619;1.262;0.18541798872439663
51:38.8;-0.39786197300057924;0.47160968133574105;-1.036970587868112;1.2819999999999998;0.19457255519781397
51:38.9;-0.41822730509959566;0.48200384063046575;-0.9933072925576022;1.3019999999999998;0.20023800337955683
51:38.9;-0.4370953832282361;0.4907940850108909;-0.9365691573356189;1.2930000000000001;0.20091640144960654
51:38.9;-0.4529912941700172;0.49731832057293135;-0.8694354931239817;1.232;0.19586718399623548
51:38.9;-0.4648114059069086;0.5012158295709345;-0.7953343599419653;1.129;0.18528970946717402
51:38.9;-0.4718842050594886;0.5024207704633048;-0.7181575499739686;1.005;0.1702639704236998
51:38.9;-0.47399242601818126;0.5011233447845872;-0.6418818312104613;0.7909999999999999;0.15246533761887823
51:38.9;-0.4713537647218643;0.4977091416249421;-0.5701601778486003;0.7909999999999999;0.1337579115107848
51:38.9;-0.4645622608666874;0.4926892180491771;-0.5059770056919836;0.7909999999999999;0.11581045437504907
51:38.9;-0.45449643690338043;0.4866321022051659;-0.4514460532315036;0.754;0.09984747773086972
51:38.9;-0.44220117987442253;0.48010381590418844;-0.4077730509954993;0.7390000000000001;0.08657122749776379
51:39.0;-0.42875263418931564;0.473617389453755;-0.3753529370614428;0.727;0.07622093280698636
51:39.0;-0.41512170731989834;0.46759251452825557;-0.3539492721248695;0.7140000000000001;0.06870431557179428
51:39.0;-0.40205712302917485;0.4623269662970336;-0.34290099712999217;0.701;0.06373907170246051
51:39.0;-0.39000834696312664;0.45798146296967146;-0.34130840472023033;0.6940000000000001;0.06096334452007064
51:39.0;-0.3791020340355238;0.45457822354165994;-0.3481656099068833;0.6990000000000001;0.059999911960667986
51:39.0;-0.36917457328143166;0.4520112615290176;-0.3624272273416493;0.677;0.06047861726412677
51:39.0;-0.3598504587589725;0.4500652744352105;-0.3830170629950567;0.677;0.06203198632545128
51:39.0;-0.3506465654276136;0.44844161870108;-0.40880262270483897;0.677;0.06428196948073198
51:39.0;-0.3410806059151303;0.44679242295540844;-0.4385667858326373;0.69;0.06683417064604558
51:39.0;-0.33076718252295145;0.4447638740665768;-0.47100464981463624;0.7290000000000001;0.06929104529416573
51:39.1;-0.31949153569196687;0.44204698539700193;-0.5047613448481978;0.763;0.07128758112573214
51:39.1;-0.3072558293863908;0.4384310178608533;-0.5385101513445371;0.797;0.07254296421516426
51:39.1;-0.29429563998049096;0.4338527969486838;-0.5710560640316245;0.8190000000000001;0.07291300162254546
51:39.1;-0.28106612233637784;0.42843521013059604;-0.6014438856050344;0.8390000000000001;0.07242504462685984
51:39.1;-0.26819906951362815;0.42251000677446926;-0.629051588367827;0.86;0.07128210716418024
51:39.1;-0.2564352686106434;0.4166223615971129;-0.6536534923189737;0.88;0.0698341606265011
51:39.1;-0.24654244268368852;0.4115160374545781;-0.6754398368879418;0.88;0.06852753829302524
51:39.1;-0.23923516627279;0.40809784947506095;-0.6949814321569986;0.88;0.06785198022423382
51:39.1;-0.23511282514831214;0.40737951193775274;-0.7131350519404458;0.861;0.06830418078976593
51:39.1;-0.23462345685094455;0.4103965999170079;-0.7308973922763693;0.8190000000000001;0.07037713704307356
51:39.2;-0.23805225128046903;0.41811029024420493;-0.7492290179668759;0.787;0.07457233444948277
51:39.2;-0.24552802641030144;0.4313048037877066;-0.768882688701302;0.812;0.08142269090576174
51:39.2;-0.2570378512873978;0.4504965090495816;-0.7902772487936167;0.88;0.09150988114019924
51:39.2;-0.27244076760221675;0.4758687721099331;-0.8134475930881078;0.9390000000000001;0.10546027021488395
51:39.2;-0.291478431210038;0.5072427738396628;-0.838074234743421;0.977;0.12390955046282504
51:39.2;-0.3137875040790152;0.5440875735320426;-0.8635722096571776;1.18;0.1474358540489182
51:39.2;-0.33891563632546245;0.5855595581985784;-0.8892095702477031;1.18;0.17646834337732903
51:39.2;-0.3663310323433974;0.6305488754931979;-0.9142239345335714;1.18;0.21117623969211294
51:39.2;-0.39541128568540446;0.677714113925322;-0.9379108083642901;1.217;0.25133740774852054
51:39.2;-0.42540915484312836;0.725507272331439;-0.9596746076973247;1.193;0.2961915098870113
51:39.3;-0.4554077874451782;0.7722085657183979;-0.9790532532364854;1.335;0.34430345623319325
51:39.3;-0.4842829272743378;0.81599051135967;-0.995731976455803;1.4340000000000002;0.3934836774382109
51:39.3;-0.5106910224941454;0.855018856517776;-1.0095435249695714;1.416;0.44081763859839046
51:39.3;-0.5331071009871646;0.8875864702646202;-1.0204293847883545;1.391;0.4828453987534665
51:39.3;-0.5499359971966993;0.9122705319461717;-1.0283464216686649;1.411;0.5159115324577016
51:39.3;-0.559702001904977;0.9280975260552613;-1.0331470414330877;1.5930000000000002;0.5366765405800756
51:39.3;-0.5612875460676142;0.9346881492049852;-1.0344911396517402;1.5930000000000002;0.5427238634191134
51:39.3;-0.55416143696356;0.9323426126354052;-1.0318325356669664;1.5930000000000002;0.5331151847471919
51:39.3;-0.5385335504799726;0.9220302170365197;-1.0244853333374817;1.589;0.5087022568417428
51:39.3;-0.5153966688787545;0.9052675883202111;-1.0117508797161752;1.5319999999999998;0.472054529733691
51:39.3;-0.4864474367625287;0.8838984710207204;-0.9930733456019304;1.4380000000000002;0.4269918909863834
51:39.4;-0.4539025928974838;0.859816110628819;-0.9681833745594777;1.3330000000000002;0.3778555997403216
51:39.4;-0.4202431315526811;0.8346889290898544;-0.9371935713311071;1.246;0.32874153465777156
51:39.4;-0.38792831533196415;0.8097519436716611;-0.9006297568321825;1.187;0.2829109594211628
51:39.4;-0.35912238029319904;0.7857074728742836;-0.8594039541627958;1.161;0.24249383521474627
51:39.4;-0.33547119799233327;0.7627469052100688;-0.8147466058839506;1.126;0.20847705032581737
51:39.4;-0.3179565530199559;0.7406729297432001;-0.7681168379958961;1.126;0.18089290691177287
51:39.4;-0.30684293319506645;0.7190797600439317;-0.7211048920372314;1.126;0.15910785919498943
51:39.4;-0.3017178555531919;0.6975440906031939;-0.6753297215072366;1.069;0.1421309110255126
51:39.4;-0.301614855149407;0.6757887418371292;-0.6323230984922986;1.0070000000000001;0.12888510413463425
51:39.4;-0.3051986681639089;0.6537946145284645;-0.59339498239292;0.9390000000000001;0.11840440034359284
51:39.5;-0.3109838911928812;0.6318499783340108;-0.5594945684093203;0.892;0.10993797748720853
51:39.5;-0.3175534118913091;0.6105391991909257;-0.5310985693485692;0.865;0.1029687563855122
51:39.5;-0.32374419661571807;0.5906829676229208;-0.5081589952478797;0.838;0.09717533755661431
51:39.5;-0.32877584721995684;0.5732461912127802;-0.49012905286070285;0.82;0.09237437859739342
51:39.5;-0.3323094426217253;0.5592295806771539;-0.4760666387411152;0.821;0.08847092460188725
51:39.5;-0.33443802998430106;0.5495595195445495;-0.4647961644088216;0.821;0.08542656175241542
51:39.5;-0.3356220835687748;0.5449887164251711;-0.4550941857460116;0.821;0.08324139061849087
51:39.5;-0.3365876410540279;0.5460160099757192;-0.4458592255729118;0.821;0.08194100754620097
51:39.5;-0.33820067954215954;0.5528279989331604;-0.4362352744070944;0.792;0.08156151544455074
51:39.5;-0.3413270313360914;0.5652616875733205;-0.42567450412173885;0.754;0.08212925305663524
51:39.6;-0.34669062141229745;0.5827884347785586;-0.4139398042770839;0.7340000000000001;0.0836354134442253
51:39.6;-0.3547506766169376;0.6045232788195188;-0.4010601933142848;0.738;0.0860093806787121
51:39.6;-0.3656214813231431;0.6292662127615846;-0.38725981938093473;0.758;0.08909812324751169
51:39.6;-0.37905288674081167;0.6555804420654775;-0.3728810181185099;0.7959999999999999;0.09266080587080569
51:39.6;-0.39447896339871436;0.6819067145948989;-0.35831472806072623;0.9259999999999999;0.09638589287197068
51:39.6;-0.41112604023552335;0.7067022771892404;-0.3439439999815833;0.9259999999999999;0.0999307653900602
51:39.6;-0.4281525632430429;0.728581662259634;-0.33010433909534015;0.9259999999999999;0.10297410302119252
51:39.6;-0.44478641956345505;0.7464360119330937;-0.31706472673833536;0.9620000000000001;0.10526694814930639
51:39.6;-0.4604373682886902;0.7595210234722967;-0.30502894502665134;0.986;0.10667224008743556
51:39.6;-0.47477647932713263;0.7675157278104087;-0.29415101921630693;0.997;0.10718816519600871
51:39.7;-0.4877784946468368;0.7705547163246265;-0.28455700190591254;1.005;0.1069536003056623
51:39.7;-0.49972449736513375;0.7692313282490881;-0.276367374389509;1.0090000000000001;0.10623665201612513
51:39.7;-0.5111677069086318;0.7645658340051893;-0.26971629430528443;1.023;0.10541089007363631
51:39.7;-0.522869570573266;0.7579316620386409;-0.26476314306123044;1.015;0.10492547543996804
51:39.7;-0.5357126291290856;0.7509358550350235;-0.2616889130676736;0.9179999999999999;0.10527373929448687
51:39.7;-0.5505953165449969;0.7452606525484312;-0.26067115082482895;0.9179999999999999;0.1069630245063114
51:39.7;-0.5683172661229721;0.7424876797514786;-0.2618408718007165;0.9179999999999999;0.11048861779259785
51:39.7;-0.5894695471039515;0.7439318775736108;-0.2652353273254242;0.91;0.11631237150099577
51:39.7;-0.6143466372267995;0.7505043974683625;-0.2707624664561494;0.927;0.12484041055503403
51:39.7;-0.6428939367222515;0.762613837932026;-0.2781893307724827;0.97;0.13639061292144897
51:39.8;-0.6746974895485129;0.7801120264771721;-0.28716132316527065;1.034;0.15114438338787195
51:39.8;-0.7090135974248143;0.8022889977754645;-0.2972497740664396;1.092;0.16908572105415204
51:39.8;-0.7448291470955022;0.8279168180122276;-0.3080139899958033;1.137;0.18993885287015969
51:39.8;-0.7809423179240154;0.8553370196171113;-0.3190582626352522;1.17;0.2131209886581227
51:39.8;-0.8160567170305367;0.8825854965513794;-0.330066002871943;1.307;0.23772667942557346
51:39.8;-0.8488828585015987;0.9075476627218438;-0.34080011236094926;1.307;0.262552970300027
51:39.8;-0.8782365555803899;0.928131993935389;-0.35106873448669984;1.307;0.2861629521793831
51:39.8;-0.9031237848500493;0.942448826799131;-0.36066484153294653;1.376;0.30697914104390556
51:39.8;-0.9228099709800136;0.9489861793136811;-0.3692940086330096;1.439;0.3234032856001227
51:39.9;-0.93687466692046;0.9467731498108335;-0.37650823499248537;1.5;0.3339657334383123
51:39.9;-0.9452428235864234;0.9355090879548482;-0.38166458590489666;1.5;0.33749960111676064
51:39.9;-0.9481750331879044;0.9156265441853503;-0.3839241619684966;1.4369999999999998;0.33331306328101423
51:39.9;-0.9462054971805631;0.8882606033818713;-0.38230170142665926;1.3659999999999999;0.3213158122841019
51:39.9;-0.9400353014361662;0.8551161964271555;-0.375771377710575;1.287;0.3020598431066466
51:39.9;-0.9304062255859333;0.8182505716833065;-0.3634265756197692;1.196;0.27667862396589576
51:39.9;-0.9179862344024728;0.7798136254180773;-0.34467564716933907;1.165;0.24673887924404475
51:39.9;-0.9032915042957471;0.7418057855542756;-0.3194369578848946;1.165;0.2140441205928268
51:39.9;-0.886657296163181;0.7059065996668138;-0.2882895564923486;1.165;0.18043963686576245
51:39.9;-0.8682573832962437;0.6733950862134669;-0.252544451179835;1.138;0.14765775423594624
51:40.0;-0.8481624340741493;0.6451488277917713;-0.21421472894119709;1.1340000000000001;0.11721637176975826
51:40.0;-0.8264214281512544;0.6216931199911367;-0.1758757429352069;1.115;0.09036152997382182
51:40.0;-0.8031447120659412;0.6032712706542338;-0.1404232020565894;1.088;0.06803702571208683
51:40.0;-0.7785635666665476;0.5899122957715293;-0.11075604075795238;1.054;0.0508685019023694
51:40.0;-0.7530441473619685;0.5814786363726799;-0.0894261001954215;0.99;0.03915781883358169
51:40.0;-0.7270473603190458;0.5776845503702237;-0.0783031950432345;0.838;0.03288765727987323
51:40.0;-0.7010497490103546;0.5780879994854453;-0.0783034739558063;0.838;0.03173392728048113
51:40.0;-0.6754629615593825;0.5820724716875485;-0.08922547083894451;0.838;0.0350806352135705
51:40.0;-0.6505915033619203;0.5888403781781139;-0.10972974734666385;0.84;0.0420368678389284
51:40.0;-0.6266458780029;0.5974326138664967;-0.1374785776173757;0.8690000000000001;0.05146904908535799
51:40.1;-0.6038013008200807;0.6067773589921384;-0.16942145791318355;0.9159999999999999;0.06207144079743577
51:40.1;-0.5822774694599339;0.6157631601561401;-0.20217782689936264;0.9490000000000001;0.07248985191408149
51:40.1;-0.5624102000437019;0.6233284028354522;-0.2324446175911832;0.9690000000000001;0.08148723832412806
51:40.1;-0.544686392768408;0.6285596577202709;-0.2573559916446568;0.9890000000000001;0.08811042850823926
51:40.1;-0.5297192317153402;0.6307913757378425;-0.27474384262140783;0.987;0.09180354578382284
51:40.1;-0.5181525616016046;0.6296958580630988;-0.28327734052262526;0.846;0.09242731194932524
51:40.1;-0.5105094694826083;0.6253466875968219;-0.2824889677010427;0.846;0.09018330510733545
51:40.1;-0.5070370904414733;0.6182358709927108;-0.2727169653253241;0.846;0.08548818274527482
51:40.1;-0.5076165759576953;0.6092285200760235;-0.2549992047338057;0.833;0.07885965037122951
51:40.1;-0.5117799739390262;0.5994501587645328;-0.23093970853307158;0.825;0.07084920489824763
51:40.2;-0.5188248685214879;0.5901198541622568;-0.2025540698068874;0.787;0.062015747779804835
51:40.2;-0.5279807939938583;0.5823612426368461;-0.17209950306334018;0.792;0.05291638957918257
51:40.2;-0.5385739029652183;0.5770328811096457;-0.1419031174164817;0.81;0.04409992015997562
51:40.2;-0.5501490315807096;0.5746135811403739;-0.11420348173375527;0.807;0.03610235927004071
51:40.2;-0.562527930702462;0.5751606320132178;-0.0910125336375376;0.774;0.02944655191568295
51:40.2;-0.5758054123401556;0.5783377944897474;-0.07399579948097408;0.8140000000000001;0.024641343569900626
51:40.2;-0.5903055154845837;0.5834949780188838;-0.06436965226982728;0.852;0.022171502582167647
51:40.2;-0.6065224171140322;0.5897770873408629;-0.06282628687006958;0.852;0.022473781098949232
51:40.2;-0.6250564063942072;0.5962437332594951;-0.06950465228981798;0.852;0.025903408427735534
51:40.2;-0.646545110857393;0.6019894588627502;-0.08401733069206453;0.887;0.03270066601546098
51:40.3;-0.6715933981529645;0.6062601771837632;-0.1055278571204739;0.92;0.04296675739948064
51:40.3;-0.7007097193141569;0.6085616337705793;-0.13285945338580607;0.9890000000000001;0.05665459926356369
51:40.3;-0.7342523751726041;0.6087511932264676;-0.16460653912172263;1.043;0.07357533860335515
51:40.3;-0.7723806045786008;0.6070995739903239;-0.19921770818718243;1.057;0.09341556123114776
51:40.3;-0.8150027757829993;0.6043074267733279;-0.23502394532886894;1.0759999999999998;0.11575216747526304
51:40.3;-0.8617200510667102;0.6014649693768106;-0.270201217110351;1.097;0.14004378422041378
51:40.3;-0.9117683051058423;0.5999526800207319;-0.3026905570684648;1.097;0.1655771341730252
51:40.3;-0.9639579809943483;0.6012939171642775;-0.3301434172979101;1.097;0.19135841105451581
51:40.3;-1.0166139441366098;0.6069776608133558;-0.34998011953643815;1.117;0.21595941633911048
51:40.3;-1.0675337924893897;0.6182689961672654;-0.359618430635187;1.155;0.23735645207801534
51:40.4;-1.113998993724688;0.6360254629119193;-0.3568628048293705;1.244;0.2528486189321757
51:40.4;-1.1528732067424203;0.6605431909098781;-0.3403806537545342;1.341;0.25920754229325055
51:40.4;-1.1808078766298762;0.6914596900524143;-0.3101551741331723;1.429;0.25323582173857745
51:40.4;-1.1945543089454207;0.7277346762887739;-0.26779737907870377;1.5319999999999998;0.23280124087809412
51:40.4;-1.191356396275031;0.767719708100427;-0.21661543334254904;1.65;0.19812249394982087
51:40.4;-1.1693708222034522;0.8093130902977763;-0.1613748592477295;1.6340000000000001;0.15272308728681397
51:40.4;-1.1280420231736963;0.8501746501428973;-0.10775183943006016;1.6340000000000001;0.1033375409895409
51:40.4;-1.0683586493358654;0.8879525647842282;-0.06157641107397197;1.6340000000000001;0.058414573374488944
51:40.4;-0.99293269389834;0.9204744447543335;-0.028015458554838342;1.5630000000000002;0.025605265405182435
51:40.4;-0.9058618307955445;0.9458832649195139;-0.0108222557502163;1.505;0.009272936704564643
51:40.5;-0.8123641468246201;0.9627280905443426;-0.011753666129855737;1.358;0.009192375188857118
51:40.5;-0.718221025045783;0.9700273636776645;-0.030274049693839986;1.192;0.021091750214298304
51:40.5;-0.6291196968700413;0.9673131841804593;-0.06365621410716897;1.074;0.0387383568502347
51:40.5;-0.5500245126031605;0.9546511309789556;-0.1074960348171581;1.128;0.05644418168070058
51:40.5;-0.48469818992065394;0.932620625431658;-0.15652077690778227;1.198;0.07075357827670857
51:40.5;-0.43544172764466604;0.902242216414368;-0.20547548904761015;0.997;0.08072595868227662
51:40.5;-0.40305441187193386;0.8648565162146378;-0.24987222718369814;0.997;0.08710151903476507
51:40.5;-0.38696505699150385;0.8219884844985548;-0.2864757119269608;0.997;0.09112242957476657
51:40.5;-0.3854685502957471;0.7752406859909706;-0.3135060420035068;0.997;0.09368529374048148
51:40.5;-0.3960150153217145;0.7262332851895438;-0.3305975749531329;0.932;0.09507962636487763
51:40.6;-0.415521203697609;0.6765747494186408;-0.33856671247094644;0.871;0.09518165067430281
51:40.6;-0.44068598590756486;0.6278377109064379;-0.3390498194180181;0.8290000000000001;0.09380806013117321
51:40.6;-0.4682943561097377;0.5815258029449032;-0.3340853887215809;0.8109999999999999;0.09097988748980369
51:40.6;-0.4954941897486;0.5390295432828457;-0.3257186192040338;0.8190000000000001;0.08699488534344957
51:40.6;-0.5200267873925039;0.5015742716511727;-0.3156982139533377;0.825;0.08234421457629353
51:40.6;-0.5403870011565423;0.4701654954897773;-0.30531354458812354;0.8079999999999999;0.07757141594533426
51:40.6;-0.5558917788350081;0.44554131143899806;-0.29537951434599335;0.8079999999999999;0.07315745724984704
51:40.6;-0.5666525581452152;0.42814447731414984;-0.2863282554648981;0.8079999999999999;0.06946585849487745
51:40.6;-0.5734650863385683;0.4181221371703382;-0.2783438933947588;0.7879999999999999;0.06674086662720058
51:40.6;-0.577637445276546;0.4153508362602662;-0.2714915913884728;0.7659999999999999;0.06513685878811522
51:40.7;-0.5807778433270735;0.4194770220155352;-0.2658203706667076;0.735;0.06475994557569428
51:40.7;-0.5845679570433715;0.429962677259502;-0.2614356547851732;0.728;0.06570986592593113
51:40.7;-0.5905540821275218;0.44612904831151134;-0.2585401123209057;0.743;0.06811583909507896
51:40.7;-0.5999880326340602;0.4671961122759089;-0.25743835547519006;0.76;0.07216307993187686
51:40.7;-0.6137385771565782;0.4923202931578488;-0.25849975092667243;0.784;0.07810723942595049
51:40.7;-0.6322767450707327;0.5206343206569382;-0.26207940387628764;0.9420000000000001;0.08627260165583765
51:40.7;-0.6557183687074137;0.5512866470765103;-0.26841037484796726;0.9420000000000001;0.09702733918770697
51:40.7;-0.6838891339121179;0.5834675531771314;-0.2774926033901218;0.9420000000000001;0.11072707424332179
51:40.7;-0.7163757480150027;0.6164091171386377;-0.2890066060608014;0.9420000000000001;0.12761969385384128
51:40.7;-0.7525483309543106;0.6493616179441541;-0.3022727100242077;0.988;0.14771341937871083
51:40.8;-0.791564564730876;0.6815644396398975;-0.31626650075439144;1.057;0.17062649160289253
51:40.8;-0.8323750966960218;0.7122297085195488;-0.3296919118366072;1.122;0.19545530223766808
51:40.8;-0.8737446519073256;0.7405442714020289;-0.3411051329895408;1.169;0.22071091539667906
51:40.8;-0.9142971096078697;0.7656837034019801;-0.34907612120597903;1.215;0.2443750661100158
51:40.8;-0.9525907340034757;0.7868308263709406;-0.3523680903835594;1.278;0.26410966351771425
51:40.8;-0.9872263140653567;0.8031989713608048;-0.35010710007416523;1.409;0.2776136298280046
51:40.8;-1.0169776426284083;0.8140658572912569;-0.34191073598655686;1.409;0.28306337706403295
51:40.8;-1.0409154646242613;0.8188211493581506;-0.32795405414620143;1.409;0.2795229791227033
51:40.8;-1.058492631973218;0.8170258259072652;-0.3089652701762633;1.412;0.26719805250721
51:40.8;-1.0695752076620024;0.8084810157669872;-0.28615388975169936;1.4069999999999998;0.24744621087171184
51:40.9;-1.074421810093253;0.7933039553202289;-0.2610846807016606;1.3869999999999998;0.22253371870460772
51:40.9;-1.0736190792331979;0.7720038740765807;-0.2355247855051091;1.37;0.19521191300078283
51:40.9;-1.06798303511514;0.7455431380107721;-0.2112967047591956;1.36;0.16824023079107173
51:40.9;-1.0584403336856585;0.7153626050035422;-0.19015848892351533;1.34;0.1439820433675534
51:40.9;-1.0459067750299558;0.6833454810276788;-0.17371095220388244;1.307;0.12415393929420311
51:40.9;-1.0311810653931557;0.6516962381320726;-0.16331389122377876;1.128;0.1097496820297986
51:40.9;-1.0148695712173161;0.6227343951071403;-0.15999320133995854;1.128;0.10111477345350922
51:40.9;-0.9973511153109226;0.5986441302834018;-0.16434080885438138;1.128;0.0981210589122878
51:40.9;-0.978780713858653;0.5812418423193216;-0.17642956154561812;1.128;0.10037224287253012
51:40.9;-0.9591222029823524;0.5718020482696174;-0.19576681810220065;1.0859999999999999;0.10736401238918901
51:41.0;-0.9381960941461484;0.570949485607059;-0.22130058404018094;1.083;0.11854244121631025
51:41.0;-0.9157305239487783;0.5786165363025622;-0.2514836578741547;1.097;0.13325033223747676
51:41.0;-0.8914055715585382;0.5940708245796816;-0.28439264382180884;1.117;0.15060241188616563
51:41.0;-0.8648818857587232;0.616015175093421;-0.31788753370874034;1.1340000000000001;0.16936423664861788
51:41.0;-0.8358064733960258;0.6427477087359674;-0.34979145118634386;1.128;0.18791240843232088
51:41.0;-0.8037968487369747;0.6723543509814308;-0.378072934556667;1.122;0.204324341115782
51:41.0;-0.7684218772226603;0.7028986764034892;-0.401014930332774;1.122;0.21659727510009094
51:41.0;-0.7292150789479804;0.7325777263675499;-0.4173490181186209;1.122;0.22295065197108851
51:41.0;-0.6857539670679166;0.7598263203974402;-0.4263324218764982;1.16;0.22214217686862003
51:41.0;-0.637810592155165;0.7833702802899505;-0.4277590513264338;1.117;0.2137263290411631
51:41.1;-0.5855438239899174;0.8022414323729865;-0.42191472190918516;1.158;0.1981933926122412
51:41.1;-0.5296827574241513;0.8157711519062313;-0.40949815707205955;1.1420000000000001;0.17694411811360777
51:41.1;-0.47164563409567245;0.8235764878581389;-0.391529985474106;1.087;0.15208444121595874
51:41.1;-0.4135487103093163;0.8255456955523393;-0.3692657469437152;1.033;0.12606856588910367
51:41.1;-0.35808327128949174;0.8218234668124832;-0.34412312547855495;0.992;0.10126897850196832
51:41.1;-0.3082696910251376;0.8127938369599091;-0.31762884657872076;0.9;0.07958499009405144
51:41.1;-0.26712969317260377;0.7990586812243172;-0.2913814738720412;0.9;0.062196045875133665
51:41.1;-0.23734346707589982;0.7814095739492489;-0.2670137931239501;0.9;0.04952103425580442
51:41.1;-0.22095648703608778;0.7607894058724605;-0.2461305459813922;0.847;0.04137487816227542
51:41.1;-0.21916849428180316;0.7382389522985883;-0.2302004038489603;0.763;0.037246130593119
51:41.2;-0.2322058624327863;0.7148278408209475;-0.22039781222897148;0.718;0.03658321910322166
51:41.2;-0.2592710049066704;0.691579192100022;-0.21741736006251677;0.685;0.03898433111121895
51:41.2;-0.29856749548845224;0.6694036286342446;-0.2213091794983703;0.677;0.04423133172063645
51:41.2;-0.34740294495709345;0.6490551228524742;-0.23139482750060655;0.716;0.0521757528687061
51:41.2;-0.40237326739698975;0.6311108672532227;-0.24631021349334808;0.741;0.06254854314852051
51:41.2;-0.459631997870156;0.6159666058549171;-0.26418431910019774;0.903;0.07479532592892905
51:41.2;-0.5152363626311507;0.6038361767279753;-0.2829121784351978;0.903;0.08801917165544251
51:41.2;-0.5655362026256627;0.5947521487165092;-0.30044580850610303;0.903;0.10105611092363587
51:41.2;-0.6075590380089767;0.5885722573021303;-0.3150313311919284;1.043;0.11265280804619755
51:41.2;-0.6393552191031173;0.5849935228129562;-0.3253561064403942;1.113;0.12168925558874291
51:41.3;-0.6602675284979914;0.5835691724080421;-0.3306060145281641;1.122;0.12738639034087498
51:41.3;-0.6710687525001935;0.5837246583635782;-0.3304555274538826;1.088;0.12944583376727353
51:41.3;-0.6739085765576545;0.5847779933374946;-0.32502374589556526;0.987;0.12808760210149353
51:41.3;-0.6720511269407609;0.5859766608346362;-0.31482471995161093;0.929;0.1239799503286078
51:41.3;-0.6694439555812477;0.5865607251618419;-0.30071897581770607;0.922;0.11808317951017196
51:41.3;-0.6702023292209454;0.5858496000581036;-0.28385057978762;0.8690000000000001;0.11145045767665288
51:41.3;-0.6780983854639798;0.5833366782605282;-0.2655518664588006;0.8690000000000001;0.1050416059319008
51:41.3;-0.6961201093915591;0.5787714078385532;-0.2472184517459812;0.8690000000000001;0.09960293367567213
51:41.3;-0.7261356233060277;0.5722134102701104;-0.2301745931882166;0.8809999999999999;0.09563858876861688
51:41.3;-0.7686797400852632;0.5640516910407731;-0.21554385127518425;0.887;0.09345444843670665
51:41.4;-0.8228695445834503;0.5549894939473797;-0.20412785661423544;0.9309999999999999;0.0932219162990437
51:41.4;-0.8864472452812688;0.5460003839828029;-0.19629884501791278;0.9890000000000001;0.09500874626453945
51:41.4;-0.9559399870271502;0.5382626923201664;-0.19192570642304993;1.047;0.09875476404924609
51:41.4;-1.0269208020650271;0.5330780059145671;-0.1903615740503833;1.084;0.10420942582771478
51:41.4;-1.0943572715864525;0.5317773527711402;-0.19051858297303864;1.117;0.1108731300949165
51:41.4;-1.1530393451524386;0.5356181318271039;-0.19104820446024215;1.518;0.11798922750876625
51:41.4;-1.1980621703811283;0.545674121185669;-0.19062608013005683;1.518;0.12462209000810469
51:41.4;-1.2252990927349297;0.5627178036959171;-0.1882991864008637;1.518;0.1298318398045039
51:41.4;-1.2317792932755363;0.587093067195491;-0.18381638944179593;1.546;0.13293032986597486
51:41.4;-1.2159176996654244;0.6185846276614896;-0.1778562634992359;1.474;0.13377423243637068
51:41.5;-1.1775971597229926;0.6563088767420344;-0.17207333171139377;1.37;0.1329898803884076
51:41.5;-1.1181294086437927;0.6986690510972695;-0.16890738603113803;1.33;0.13195085753110053
51:41.5;-1.040122326034021;0.7434177494053029;-0.1711649110161388;1.273;0.13235247986664656
51:41.5;-0.9472747447040947;0.7878428905540157;-0.18146120420206044;1.265;0.13542516320599324
51:41.5;-0.8441137732142496;0.8290552869171754;-0.201654620741632;1.3;0.14112132898969065
51:41.5;-0.7356840398714651;0.8643302713815848;-0.23239966298417358;1.178;0.1477769000080398
51:41.5;-0.6272044129012272;0.8914447732855472;-0.27290553159748593;1.178;0.15258642112252924
51:41.5;-0.5237301427879519;0.9089484951815345;-0.32092763644745037;1.178;0.1527755875639083
51:41.5;-0.4298613757823692;0.916319481483005;-0.3729801425753235;1.178;0.14691328000847914
51:41.5;-0.34949845625225673;0.9139823187746124;-0.42475667253813765;1.186;0.13568232161036234
51:41.6;-0.28561422140026427;0.903195935927346;-0.4717307203538748;1.27;0.12169030020699557
51:41.6;-0.2400484012813999;0.8858364481051111;-0.5098331003583019;1.145;0.10841275766934157
51:41.6;-0.21338674863524637;0.864111136133275;-0.5360405093284388;1.089;0.09884043757789217
51:41.6;-0.20498950050136555;0.8402448945357692;-0.5487473336515873;1.068;0.09451699869426988
51:41.6;-0.21317624777673141;0.8161812532927595;-0.5478906268778928;1.061;0.09532774060178995
51:41.6;-0.23551434679260122;0.7933400563899197;-0.5348518062366253;0.975;0.09993329740114848
51:41.6;-0.269134820197106;0.7724727460576893;-0.5121599321930362;0.871;0.10647769836526684
51:41.6;-0.3110123329613472;0.7536433104711749;-0.4830366671024324;0.871;0.1132201064024284
51:41.6;-0.3581769965128705;0.7363330479699425;-0.4508690662179726;0.8290000000000001;0.11891110720318845
51:41.7;-0.4078582383580788;0.7196380616293788;-0.4187230740367935;0.89;0.12289954013211096
51:41.7;-0.45758181723179;0.702517498602972;-0.3889892055858299;0.9329999999999999;0.12504417192491826
51:41.7;-0.5052434220188187;0.6840503015453495;-0.36320703271479216;1.03;0.12552867818550253
51:41.7;-0.5491684796911985;0.6636570855368532;-0.342071195307719;1.0390000000000001;0.124671114833599
51:41.7;-0.5881494585042684;0.6412469442709646;-0.32558468107988775;1.048;0.12279395089792103
51:41.7;-0.6214439393980234;0.617263801839833;-0.3133005559328126;1.025;0.12018047933912698
51:41.7;-0.6487258500368691;0.5926299110160814;-0.30458439535408977;0.919;0.11709879353726013
51:41.7;-0.6699996578910842;0.568608589164696;-0.2988376901155696;0.919;0.11384746570339911
51:41.7;-0.6854985208304215;0.5466271052860853;-0.2956455394765685;0.919;0.11078195271013071
51:41.7;-0.6955885913939477;0.5281012670136364;-0.2948369375097954;0.8740000000000001;0.10830575927492869
51:41.7;-0.7006975117065015;0.5142840300969928;-0.2964633675124796;0.889;0.10683280987601433
51:41.8;-0.7012767231077992;0.5061418926881137;-0.30071550434001254;0.902;0.10673762344527324
51:41.8;-0.6977937834412021;0.5042597691081273;-0.3078075881074314;0.899;0.10830805044979867
51:41.8;-0.690739166875298;0.5087801358552987;-0.3178557828502219;0.8690000000000001;0.11170544589519164
51:41.8;-0.6806321323623162;0.5193854362200587;-0.3307658796483719;0.84;0.11692918403473544
51:41.8;-0.6680223251555868;0.5353318446210213;-0.3461430067933852;0.8320000000000001;0.12378545493403126
51:41.8;-0.653496085112519;0.5555364344573526;-0.36324294542926455;0.986;0.13187204039871514
51:41.8;-0.6376964853988104;0.5787062582973397;-0.3809833424487466;0.986;0.14059769151973414
51:41.8;-0.6213530659238592;0.6034820479788976;-0.39801369268090403;0.986;0.1492453518739787
51:41.8;-0.605303857757521;0.6285669945053569;-0.4128242671708466;0.995;0.15706891122236843
51:41.8;-0.5904911512600041;0.6528275235171808;-0.42387523127941035;0.9890000000000001;0.16339918644295998
51:41.9;-0.5779234809241914;0.6753700226063061;-0.42973749150722923;0.998;0.16773178331603328
51:41.9;-0.5686113668805758;0.6955993921415788;-0.42924054547380913;1.012;0.16977567630261084
51:41.9;-0.5634954034797318;0.7132575328682826;-0.42162017498192683;1.0490000000000002;0.1694564597539257
51:41.9;-0.563386495956567;0.7284338868432146;-0.406653081127281;1.077;0.16688628275115014
51:41.9;-0.5689282451405164;0.7415391663610994;-0.3847574992004039;1.1179999999999999;0.16232248513683478
51:41.9;-0.5805763820139086;0.7532363209778674;-0.35703446867392347;1.024;0.1561351783762002
51:41.9;-0.5985798868771666;0.7643309238705102;-0.32523161464361694;1.024;0.14879773007058072
51:41.9;-0.6229506007847082;0.775636515163093;-0.29162773734413144;1.024;0.14090963299490142
51:41.9;-0.653420793575457;0.7878405971924547;-0.2588463275127517;0.995;0.13325187063198005
51:41.9;-0.689401369418674;0.801396200423391;-0.22960442889069926;0.991;0.12685269017876422
51:42.0;-0.7299591068719654;0.8164566732144104;-0.20641027046143798;1.025;0.12301638968275987
51:42.0;-0.7738284757935145;0.8328640358802774;-0.19124905190710265;1.0979999999999999;0.12325884875559888
51:42.0;-0.819465105039046;0.8501916217441216;-0.18531860919795323;1.216;0.12911191360617433
51:42.0;-0.865135511344619;0.8678276309598438;-0.18887339654023086;1.308;0.1418039743181074
51:42.0;-0.9090208556764975;0.8850751534114283;-0.2012139348116949;1.345;0.16188702806382288
51:42.0;-0.9492996621084093;0.9012456094396875;-0.2208343798639043;1.358;0.18893532904249302
51:42.0;-0.9841851344724907;0.9157329536446398;-0.245705299985099;1.358;0.22144208837797766
51:42.0;-1.011929568511748;0.9280637903009719;-0.2736204803723793;1.358;0.2569666220606306
51:42.0;-1.0308406948477753;0.937922270405277;-0.30251427502327216;1.413;0.29248545637773016
51:42.0;-1.0393537753226394;0.9451541236926374;-0.33068229797740484;1.482;0.32484559229970306
51:42.1;-1.036174264738792;0.9497589195304141;-0.35687566613773797;1.534;0.3512069638819767
51:42.1;-1.0204708617150902;0.9518766098873882;-0.38026111397525464;1.5319999999999998;0.36937132713166715
51:42.1;-0.9920720318497038;0.9517669439690953;-0.4002692282803671;1.49;0.37794275747496225
51:42.1;-0.9516071037701659;0.9497797208829146;-0.4163990561887717;1.493;0.3763485996531638
51:42.1;-0.900538239854329;0.9463199002212079;-0.4280742623085269;1.482;0.36480371225333985
51:42.1;-0.8410529255030128;0.941811301716564;-0.43462209058078305;1.248;0.3442698734818348
51:42.1;-0.7758314710235464;0.9366565389631144;-0.4353805517899218;1.248;0.31638565717807887
51:42.1;-0.7077549890247513;0.931194630614227;-0.4298752410331498;1.248;0.2833125642442641
51:42.1;-0.6396314387006415;0.925668953922311;-0.41798747545891884;1.192;0.24748493565126573
51:42.1;-0.5739778742045701;0.9202186746102796;-0.40006069097475083;1.157;0.2113061195345899
51:42.2;-0.5128582068422853;0.9148955477080654;-0.37692607915355986;1.103;0.17685812262188416
51:42.2;-0.45777577013777476;0.9096974579776725;-0.3498475270982374;1.055;0.14568961361925903
51:42.2;-0.40963535251521144;0.9046052352504771;-0.3203979829601592;1.044;0.11872612690020773
51:42.2;-0.368787264259084;0.8996087052394036;-0.2902945664742508;1.044;0.09630935428006826
51:42.2;-0.33514333047449524;0.8947102420582744;-0.26122992493259817;1.026;0.07833140486667951
51:42.2;-0.30832855225807;0.8899001812251064;-0.23473171715409002;0.9279999999999999;0.06440607222908533
51:42.2;-0.2878233709200301;0.8851104556986714;-0.21206531629604328;0.9279999999999999;0.05402480038312365
51:42.2;-0.2730658070403473;0.8801664795973545;-0.19417843738953314;0.9279999999999999;0.046669500039284786
51:42.2;-0.26350291551221144;0.8747612639951347;-0.1816761685273531;0.904;0.04187674625749708
51:42.2;-0.2585915456935304;0.8684662214175777;-0.17481373780036405;0.893;0.03925932355484801
51:42.3;-0.2577551629697784;0.8607798742671633;-0.17350280413748315;0.905;0.03849514640535164
51:42.3;-0.2603139291585744;0.8512068593927795;-0.17733659491286938;0.9129999999999999;0.039294420408955595
51:42.3;-0.26541437592083544;0.8393536524473655;-0.18563841888509391;0.929;0.04135588202187302
51:42.3;-0.27198800215793384;0.8250222175071906;-0.1975277002129832;0.934;0.04432445439444872
51:42.3;-0.27876510016691947;0.8082798372185366;-0.21198996791788752;0.937;0.0477656240436007
51:42.3;-0.28435971225389234;0.7894854809329035;-0.22793919606659988;0.877;0.05117186268138654
51:42.3;-0.28742140474507777;0.7692643651224579;-0.24426662163645788;0.877;0.054008093699829285
51:42.3;-0.28682568121409013;0.7484403580587626;-0.25987294659483656;0.877;0.05578742324470038
51:42.3;-0.28186417711061684;0.7279453675105332;-0.2736833703507915;0.841;0.056154825209927484
51:42.3;-0.2724044247244957;0.7087189610597188;-0.284651125711521;0.8;0.05495422851497313
51:42.4;-0.259002230611922;0.691605461667908;-0.2917617883975937;0.757;0.05226251810959851
51:42.4;-0.24295645887440376;0.6772605506181038;-0.29405309942891045;0.737;0.04838491581961369
51:42.4;-0.22629971492124618;0.666085530828709;-0.2906628423560837;0.741;0.0438130535843492
51:42.4;-0.21172122770824492;0.658204633080907;-0.2809108762673697;0.7490000000000001;0.0391465860154115
51:42.4;-0.20241906854781508;0.6534901628846898;-0.26441191853678897;0.755;0.03497610981874754
51:42.4;-0.2018817424519201;0.65162754844916;-0.2412063176768119;0.777;0.03173110232558984
51:42.4;-0.2136072166792268;0.6522025028539351;-0.2118888773344859;0.777;0.029519333133245885
51:42.4;-0.24077564230524962;0.6547891501816457;-0.177710292494039;0.777;0.028017321024423312
51:42.4;-0.28589522686251256;0.6590221447151912;-0.14062163965730756;0.785;0.026494703906902773
51:42.4;-0.3504414145155384;0.6646443883377964;-0.10323022595886311;0.7809999999999999;0.024044272700289977
51:42.5;-0.434513129766421;0.6715297554331475;-0.06863747709404064;0.735;0.020027626194342923
51:42.5;-0.5365399519482341;0.6796858902380918;-0.04014379648046073;0.7120000000000001;0.014639584899725692
51:42.5;-0.6530924132121092;0.6892468768682357;-0.020838633257535263;0.762;0.009380342095332209
51:42.5;-0.7788689202346872;0.7004665947631452;-0.013139623848708749;0.85;0.007168606399168118
51:42.5;-0.9069391303925598;0.7137172010260272;-0.018380137496987324;1.078;0.011897427301043458
51:42.5;-1.0292861656416459;0.7294864735969778;-0.03655049815280873;1.618;0.027443953793275154
51:42.5;-1.1375922626140174;0.7483589533948665;-0.06627167494838845;1.618;0.05641888974787715
51:42.5;-1.2241028932472218;0.7709633345633058;-0.10503510744578864;1.618;0.09912566933119599
51:42.5;-1.2823841397732778;0.7978739419592951;-0.1496938357569254;1.8840000000000001;0.15316387190372838
51:42.5;-1.3078760716001856;0.8294620151571853;-0.197115531676304;1.8519999999999999;0.21383753645459336
51:42.6;-1.2982386746535912;0.865701084386262;-0.24479697000342535;1.719;0.27512404126942797
51:42.6;-1.253512422622739;0.9059547711709812;-0.29120264237423565;1.656;0.33069716381889575
51:42.6;-1.1760973907589567;0.9488155078347087;-0.33572587940568127;1.5930000000000002;0.37463632185501194
51:42.6;-1.07053861305477;0.9920814557802383;-0.3783616494657946;1.484;0.4018433431339305
51:42.6;-0.9431147173011041;1.0329282228868184;-0.419253790099745;1.3330000000000002;0.4084243845905523
51:42.6;-0.8012666149195795;1.068269262170737;-0.4582479642885195;1.444;0.3922458205681472
51:42.6;-0.6529521510872061;1.0952326624193895;-0.49455395102086513;1.444;0.3536726037956463
51:42.6;-0.506027436697709;1.111634555918722;-0.5266238854976686;1.444;0.29623519620824107
51:42.6;-0.3677092662738859;1.1163291930918298;-0.5523346510661966;1.5830000000000002;0.2267248619637803
51:42.6;-0.24410920553145538;1.1093648669664338;-0.5694715256825226;1.7590000000000001;0.15421640639302114
51:42.7;-0.1398322705198862;1.0919318364624633;-0.576353709674298;1.538;0.08800189635456813
51:42.7;-0.05770377278768842;1.0661273669617413;-0.5723342142700303;1.219;0.035209755528482926
51:42.7;0.001276367569645314;1.0345938759938398;-0.5579779035208168;1.0270000000000001;0.0007368221367698236
51:42.7;0.03771918937846988;1.0001093938648187;-0.5349228760774288;1.021;0.020179064490036498
51:42.7;0.05344964393514503;0.9652111406833013;-0.5055669830827756;0.985;0.026082297620820677
51:42.7;0.05106083916604041;0.9319123924063996;-0.4727076368277976;0.883;0.022493428339468432
51:42.7;0.033529251528080006;0.9015427780944965;-0.43919352890809077;0.883;0.013275965958648528
51:42.7;0.003936269340433168;0.8747147588731974;-0.40761912525062977;0.883;0.001403478663128718
51:42.7;-0.03471219430796261;0.8513997176635132;-0.3800937328872138;0.922;0.011233272101936694
51:42.7;-0.07959741768734677;0.8310847020679194;-0.3581017908760978;0.92;0.02368921991673836
51:42.8;-0.12815847869362387;0.8129730778865695;-0.3424470259043271;0.927;0.03567934772281282
51:42.8;-0.178138757954256;0.7961914842156814;-0.3332626491071344;0.943;0.04726749537241109
51:42.8;-0.22761175117445778;0.779973428888205;-0.33006966422686407;0.9159999999999999;0.058597636514282035
51:42.8;-0.2749804586959609;0.7638013247627726;-0.3318707557249756;0.885;0.06970296039532758
51:42.8;-0.3189487934971933;0.7474974459635769;-0.33728361400246726;0.8809999999999999;0.08041293605642631
51:42.8;-0.35847738844082355;0.7312598147283411;-0.3447330735526205;0.9890000000000001;0.09036836535824089
51:42.8;-0.39274372285988324;0.7156443904642297;-0.352702872696765;0.9890000000000001;0.09913237724203026
51:42.8;-0.42111998065608747;0.7015003940276284;-0.3599937849308922;0.9890000000000001;0.10634786362092127
51:42.8;-0.44317396122921954;0.6898668767041639;-0.3659012192847087;0.943;0.11186735901748265
51:42.8;-0.4586978884048444;0.6818363138156399;-0.3702526904379901;0.894;0.11579907530477226
51:42.9;-0.46776585427664574;0.6783947108992717;-0.37330486256305084;0.871;0.11846078779324815
51:42.9;-0.4708044773885533;0.6802600072380064;-0.37554557731494437;0.877;0.12027577819902435
51:42.9;-0.46864452271196977;0.6877495827627836;-0.3774656758883809;0.857;0.12166099029011711
51:42.9;-0.46251864998210207;0.7007039515376339;-0.37936440808598015;0.856;0.12294769724424404
51:42.9;-0.4539854204454818;0.7184809552791377;-0.38123600265554564;0.8909999999999999;0.12435151305059011
51:42.9;-0.44478464552028274;0.7400198508377285;-0.3827560881939612;0.953;0.12598396243261378
51:42.9;-0.436653092999239;0.7639587163606678;-0.38335296882321573;0.953;0.1278807757323127
51:42.9;-0.4311430819698598;0.7887757065024664;-0.38232763651803947;0.953;0.13002014328107434
51:42.9;-0.42948280623417284;0.8129266065226176;-0.37898804716654216;0.988;0.13231912889946534
51:42.9;-0.43249880455315026;0.8349678824997133;-0.3727763528740483;1.036;0.13461796987691155
51:43.0;-0.44060107312708013;0.8536674952406467;-0.36337497257149376;1.072;0.13667507090115458
51:43.0;-0.4538189842937988;0.8681041677130591;-0.3507765474971893;1.099;0.13819268340131716
51:43.0;-0.4718700960556589;0.8777484551294115;-0.3353035272150341;1.11;0.13887710391232724
51:43.0;-0.4942423370362463;0.8825160910381818;-0.3175704274396158;1.101;0.13851685767623198
51:43.0;-0.5202745915382124;0.8827854032604602;-0.2983942489868511;1.099;0.13704973783749724
51:43.0;-0.5492294279174009;0.8793730439437322;-0.2786731404412907;1.089;0.13459287169436635
51:43.0;-0.580355728020208;0.8734673390888158;-0.2592649221142687;1.089;0.1314270341189986
51:43.0;-0.612934957116551;0.8665267029563769;-0.24089867597054693;1.089;0.1279471906363332
51:43.0;-0.6463038064644857;0.8601554848533829;-0.22414088618031724;1.0959999999999999;0.12460479683258534
51:43.0;-0.6798535063200636;0.8559684652792116;-0.20941738473813926;1.1079999999999999;0.12186692096628138
51:43.1;-0.7130105488295746;0.855454975823322;-0.19707397418479403;1.1159999999999999;0.12020495953399296
51:43.1;-0.7452001808633903;0.8598565840776834;-0.1874497062869512;1.138;0.1201112639043894
51:43.1;-0.7757939172971275;0.8700706577262868;-0.18093898201764427;1.1540000000000001;0.12213300295781386
51:43.1;-0.8040501334689162;0.8865833530281197;-0.1780286920009032;1.16;0.12690908178035887
51:43.1;-0.8290658320244252;0.9094276070783329;-0.1793075625661896;1.172;0.13519348327063158
51:43.1;-0.8497615717416029;0.9381609801088554;-0.18544914075944804;1.285;0.14784249348491516
51:43.1;-0.8649156584169114;0.9718618027795382;-0.19716371075767566;1.285;0.16573157447679246
51:43.1;-0.8732492490948043;1.009145187345573;-0.21510325431186536;1.285;0.1895565759137149
51:43.1;-0.8735529437209917;1.048205026038038;-0.23970199573030299;1.3419999999999999;0.2194861493082149
51:43.1;-0.8648433401180855;1.0868942565814492;-0.2709541276262696;1.405;0.25469505352573346
51:43.2;-0.8465332477743258;1.1228547832314222;-0.30816657795090746;1.45;0.2929227811701732
51:43.2;-0.8185853497091483;1.1536980215056545;-0.3497615047365721;1.496;0.33031486943958893
51:43.2;-0.7816087926896589;1.1772249386261706;-0.3932160933534538;1.556;0.3618096735001401
51:43.2;-0.7368648996594396;1.19166133333635;-0.4352009095257889;1.621;0.3821470501657254
51:43.2;-0.686170080029899;1.1958652305051594;-0.47192291175211176;1.666;0.38724434004681924
51:43.2;-0.6317102541469882;1.1894511232656702;-0.499618366521172;1.4509999999999998;0.375407480690507
51:43.2;-0.575805331982995;1.172796642197963;-0.5150937003003941;1.4509999999999998;0.3478440944060304
51:43.2;-0.520677887411227;1.1469487106911909;-0.5161978487399886;1.4509999999999998;0.3082686225858625
51:43.2;-0.46827166880632676;1.1134813524610017;-0.5021364979225651;1.385;0.26181988071657913
51:43.2;-0.4201343208800921;1.0743455431322966;-0.4735863355222915;1.295;0.21376239676155837
51:43.3;-0.3773554574405578;1.0317216272381196;-0.4326072740039272;1.187;0.16842516723949047
51:43.3;-0.34055215315301574;0.9878722636405383;-0.3823773752106936;1.093;0.12864017142666218
51:43.3;-0.30990084929760364;0.9449962971910825;-0.32679703795858894;1.0190000000000001;0.09570419723189921
51:43.3;-0.2852110979296336;0.905086902130431;-0.27002513843111636;0.9520000000000001;0.06970451310660489
51:43.3;-0.2660258623427679;0.8697980619461634;-0.21601465645489706;0.889;0.049983367709762354
51:43.3;-0.25172558431201597;0.8403259845166731;-0.1681090215486429;0.792;0.035560361807234486
51:43.3;-0.24161543534164642;0.8173189619837893;-0.12874776122392598;0.792;0.025424705783127607
51:43.3;-0.2349846770483177;0.8008358006006224;-0.09931359700685313;0.792;0.01868924403897387
51:43.3;-0.23113529138872999;0.7903695920794257;-0.08013172766887788;0.7909999999999999;0.01463864879191625
51:43.3;-0.22938150954587744;0.7849390469251035;-0.07060731676412116;0.812;0.012712882933117788
51:43.4;-0.22902832399844472;0.7832342687979643;-0.06946398349296981;0.836;0.01246064607270015
51:43.4;-0.22934638767333262;0.7837952448787987;-0.07502827622719124;0.8690000000000001;0.013487128558430917
51:43.4;-0.22956527631301585;0.785197852662311;-0.08549969196928266;0.892;0.01541167532776344
51:43.4;-0.22890193136909437;0.7862211785458751;-0.09915958897368926;0.9;0.017845507914995007
51:43.4;-0.22662925165760633;0.785971735438688;-0.11450000465994878;0.912;0.020395220152983836
51:43.4;-0.22217721283551253;0.7839463880396463;-0.13028025970885052;0.845;0.02269156729730219
51:43.4;-0.21524872123936256;0.7800288293371861;-0.14553287352120542;0.845;0.024434999741548495
51:43.4;-0.2059259159993273;0.7744321086458605;-0.15953822886022223;0.845;0.025442461367676313
51:43.4;-0.19474246769661763;0.7676101977799471;-0.1717793549054967;0.818;0.025678660893192994
51:43.4;-0.18270418316337037;0.7601580669114026;-0.18188491264491088;0.779;0.025260914882618505
51:43.5;-0.17125034219226096;0.7527128897492081;-0.1895703097602993;0.747;0.02443605651164703
51:43.5;-0.16215944554661557;0.7458686719935604;-0.19458988826014953;0.733;0.02353557893718864
51:43.5;-0.15741483707471682;0.7401174313710893;-0.19671537956836307;0.7390000000000001;0.02291841674476036
51:43.5;-0.15905390645460502;0.7358249379087126;-0.19575492659338045;0.754;0.022910340475094413
51:43.5;-0.1690242927922783;0.7332396930616439;-0.191621110971051;0.769;0.023748623815596438
51:43.5;-0.18906086131608038;0.7325257009071657;-0.18444542238657327;0.847;0.025544204361153604
51:43.5;-0.22058026291545502;0.7338054330630792;-0.17471987444551168;0.847;0.028280682225597948
51:43.5;-0.26457321906936976;0.7371990469050788;-0.1634283289049087;0.847;0.031875571972444505
51:43.5;-0.3214736949148338;0.7428489590302836;-0.1521225363313926;0.882;0.036327835202834585
51:43.5;-0.39100291180318975;0.7509242324074535;-0.14290389619058413;0.905;0.041958521900581074
51:43.6;-0.4720064879607757;0.7616046206120901;-0.13827998889039878;0.885;0.04970921151870191
51:43.6;-0.5623116118609274;0.775049139520838;-0.14087367744737372;0.885;0.061395443673969
51:43.6;-0.6586383270383077;0.7913590971660471;-0.15298433486538363;0.855;0.0797384080995661
51:43.6;-0.7566186788311678;0.8105474804645499;-0.17604357889443378;0.96;0.10796318989096529
51:43.6;-0.8509995657625231;0.8325228910663582;-0.21008428811745508;1.379;0.14883980610527286
51:43.6;-0.9360847953767596;0.8570893448200068;-0.25343336984243947;1.693;0.20333169712653293
51:43.6;-1.0063715886020863;0.883954399505083;-0.3028248149501866;1.693;0.2693888954927079
51:43.6;-1.0572116019308149;0.9127279477378248;-0.3539309030709534;1.693;0.3415244129721668
51:43.6;-1.0852982894846666;0.9428931450439845;-0.40210115668073915;1.676;0.4114782833148372
51:43.6;-1.0888797314431482;0.9737478358876218;-0.44308600165728224;1.5619999999999998;0.4698015540068164
51:43.7;-1.0677213440253;1.0043381996157017;-0.47363063979949943;1.494;0.5078993948918791
51:43.7;-1.022915352034726;1.0334186528569218;-0.49189316411756356;1.538;0.5199801679120044
51:43.7;-0.9566497332888446;1.0594678198956278;-0.4976552150006168;1.557;0.5043932711980819
51:43.7;-0.8720241468803203;1.080775523652447;-0.49229185183743085;1.541;0.46396653752894007
51:43.7;-0.7729415485092719;1.0956014471464977;-0.4784775282110932;1.5290000000000001;0.40519193823530464
51:43.7;-0.6640318670247749;1.1023957404449194;-0.45966266773992714;1.426;0.33648497884292583
51:43.7;-0.5505274273196292;1.1000538018197499;-0.4394441136663829;1.426;0.2661316571433135
51:43.7;-0.4380379212817183;1.0881497049724567;-0.42099606060916506;1.426;0.20066812374084836
51:43.7;-0.3322181423247235;1.0670803849101202;-0.40668445476032045;1.306;0.1441710476364401
51:43.7;-0.23834144400138832;1.0380743032135489;-0.3978942369401826;1.147;0.09844545161985493
51:43.8;-0.1608235031085293;1.0030590721237886;-0.39502156138347855;1.025;0.06372309033726847
51:43.8;-0.10279538259064241;0.9644194829428939;-0.39756720454672156;0.97;0.03941396573207421
51:43.8;-0.06583412109958331;0.924699773899342;-0.40430228377988575;0.9079999999999999;0.024612628014114176
51:43.8;-0.04989981706949964;0.8863078511772613;-0.41350567295162755;0.899;0.018287949846916663
51:43.8;-0.05346006071485076;0.8512682797695794;-0.42326201380524553;0.9390000000000001;0.01926216915661703
51:43.8;-0.07375284029035938;0.8210541890578855;-0.43177897868724713;0.997;0.026146409938398372
51:43.8;-0.10714044993691109;0.7965098867743305;-0.4376598323271035;0.938;0.037349201935569815
51:43.8;-0.14951060027295648;0.7778577128697952;-0.4400725460239982;0.938;0.05117954532995147
51:43.8;-0.19667541422363424;0.764770282912344;-0.4387941853641982;0.938;0.06599969695541595
51:43.9;-0.24472260981923508;0.756486536390404;-0.4341493883324876;0.9329999999999999;0.08037379818000787
51:43.9;-0.2902956148538469;0.7519531820644705;-0.42687580061300995;0.963;0.09318216841322621
51:43.9;-0.3307954009319961;0.7499762050403554;-0.41794820107027025;0.98;0.10368821727608375
51:43.9;-0.364492091793537;0.7493676769032573;-0.4083946428771098;0.978;0.11154833776721507
51:43.9;-0.3905313687402192;0.7490730978438869;-0.3991371629191571;0.9540000000000001;0.11676220549887881
51:43.9;-0.40883717332752056;0.748266988690537;-0.39088070852415835;0.9309999999999999;0.11957797640325056
51:43.9;-0.41993788216879047;0.7464099539532041;-0.38406228699656214;0.932;0.12038271667085972
51:43.9;-0.4247596627563309;0.7432673770378978;-0.37885924472917226;0.932;0.11960965230817314
51:43.9;-0.42443014579338956;0.7388959949618332;-0.3752392897859207;0.932;0.1176786941817451
51:43.9;-0.4201222746506828;0.7336064624489493;-0.37302421718389484;0.929;0.11496771090004226
51:44.0;-0.41295155849088383;0.727907243550379;-0.37194372395613334;0.909;0.11180272416560506
51:44.0;-0.40392587626992943;0.722433137553079;-0.37166902783849176;0.893;0.10845653018482579
51:44.0;-0.3939369112179937;0.717864280421123;-0.37182727882061656;0.885;0.10515023989518225
51:44.0;-0.3837770718745374;0.7148451685438529;-0.37200417114876777;0.8740000000000001;0.10205606537129863
51:44.0;-0.37416602428751233;0.7139135922923698;-0.37174452049512074;0.858;0.09930121806069687
51:44.0;-0.3657750597046678;0.715447114869484;-0.3705602978145309;0.85;0.09697292898219947
51:44.0;-0.3592423613365582;0.7196329997383162;-0.36795479557637667;0.853;0.09512465182103291
51:44.0;-0.3551758913353042;0.7264657564583467;-0.3634695763266904;0.907;0.09378355504470476
51:44.0;-0.35414321358268774;0.7357712173221287;-0.35675442350300646;0.907;0.09295892339017159
51:44.0;-0.35664981462175477;0.7472483663465592;-0.34765008202716025;0.907;0.09265082974796326
51:44.1;-0.36310902836373987;0.7605175455743438;-0.3362659205469396;0.9329999999999999;0.09286009860942167
51:44.1;-0.3738072713819467;0.7751683875648202;-0.3230342271140192;0.953;0.09360355405202407
51:44.1;-0.3888689275991063;0.790804914934192;-0.3087254186123153;0.972;0.09493907377621348
51:44.1;-0.40822643468742814;0.8070839877678581;-0.29441046684035677;0.968;0.09700030528203442
51:44.1;-0.43160317013984906;0.8237412438764231;-0.28136267491732686;0.9570000000000001;0.10003268392836842
51:44.1;-0.45851997430983094;0.840600215562902;-0.27090512588421944;0.958;0.10441550156615144
51:44.1;-0.48833626111379375;0.8575645799729203;-0.2642288585182431;1.055;0.11065372983392062
51:44.1;-0.5203242893841777;0.8745973554482461;-0.26221899881361077;1.055;0.11932911355767405
51:44.1;-0.5537532755588948;0.891692696994907;-0.26532328980889064;1.055;0.13101073752951045
51:44.1;-0.5879514327454323;0.9088470412032286;-0.273483362492442;1.136;0.14613800074205255
51:44.2;-0.622327969716341;0.9260359383816387;-0.28613417885967574;1.19;0.1648985737266308
51:44.2;-0.6563520105412464;0.9431974820319798;-0.3022667354530929;1.209;0.1871241360286389
51:44.2;-0.689488688559781;0.9602156818048913;-0.3205435906335693;1.21;0.21221840082508459
51:44.2;-0.7210988215800492;0.9768962327678026;-0.3394553696011735;1.195;0.23912550682439918
51:44.2;-0.7503264581575109;0.9929357304703094;-0.3575050681533604;1.176;0.2663505529670747
51:44.2;-0.7760182712827534;1.0078983574921783;-0.37340095076666;1.185;0.2920546354528671
51:44.2;-0.7967249842396029;1.0212225798478007;-0.38622986139214827;1.444;0.31424957085914945
51:44.2;-0.810812158389068;1.0322728295906631;-0.39557797332245226;1.444;0.3310905993397895
51:44.2;-0.8166589214263811;1.0404271165848078;-0.4015709092598946;1.444;0.3412043956320932
51:44.2;-0.8128883445058198;1.045173468913053;-0.4048180556554845;1.444;0.3439371973879866
51:44.3;-0.7985815336177536;1.0461928881853158;-0.40625969223556824;1.473;0.33941791552488787
51:44.3;-0.7734526029247395;1.0434185317015672;-0.4069290600706739;1.474;0.32840590417858007
51:44.3;-0.7379673967412308;1.037060768220494;-0.407662694697226;1.4180000000000001;0.3119912049432056
51:44.3;-0.6933793296171048;1.0275841890555653;-0.4088236754941289;1.2990000000000002;0.2912891729739646
51:44.3;-0.6416551847127905;1.0156335476699125;-0.4101275315841107;1.202;0.26727458858428665
51:44.3;-0.5852837542961035;1.0019278163214826;-0.4106489829021176;1.2229999999999999;0.24080952169637415
51:44.3;-0.5269942297811181;0.9871544246260506;-0.4090230252758994;1.124;0.21278387476037627
51:44.3;-0.46944430953738053;0.9718893076189418;-0.4037694384597564;1.124;0.18421896038492158
51:44.3;-0.4149529384240999;0.9565540643016031;-0.39362987710599884;1.124;0.15624150737892883
51:44.3;-0.36533370219406125;0.9414113732948469;-0.377830702865893;1.124;0.12994705002169218
51:44.4;-0.3218389344956109;0.9265930490376463;-0.3562307739412864;1.069;0.10623290413776114
51:44.4;-0.28518490443170175;0.9121493800840689;-0.3293476361215634;1.037;0.0856736069290391
51:44.4;-0.25561733666322695;0.8981055068399995;-0.29828161765133754;1.001;0.0684769099758412
51:44.4;-0.23298699374755738;0.8845112106552993;-0.26457656032421056;0.972;0.05452383381288773
51:44.4;-0.2168217577658651;0.8714736701654103;-0.23005601530248668;0.955;0.043470108533586495
51:44.4;-0.20639480674925664;0.8591665068535594;-0.19665640331779577;0.965;0.03487258937162021
51:44.4;-0.2007936978146368;0.8478108925337111;-0.1662615973944077;0.83;0.028303557024908537
51:44.4;-0.1989929833304536;0.8376300243575663;-0.14054151150595384;0.83;0.0234258101365935
51:44.4;-0.19992760932796402;0.8287910868454788;-0.12080981713556593;0.83;0.020017971733436175
51:44.4;-0.20256113188770714;0.8213579741006778;-0.10792363345475309;0.83;0.01795581619992442
51:44.5;-0.20594402270211615;0.8152711250100478;-0.1022370903568284;0.8390000000000001;0.017165629459804082
51:44.5;-0.20926007104584896;0.8103557680114206;-0.1036037088591045;0.8490000000000001;0.01756860986893393
51:44.5;-0.21185969067704222;0.8063506273244005;-0.11141551143404535;0.851;0.019033467733144536
51:44.5;-0.21327861186283667;0.8029470252171856;-0.12466755133730224;0.85;0.021349496059343907
51:44.5;-0.21324114192075594;0.7998293875339768;-0.14203949503148836;0.852;0.024225763671011914
51:44.5;-0.21164809104371815;0.7967106696656718;-0.16199152188110932;0.852;0.027315381760679932
51:44.6;-0.20854995433652362;0.7933590002265384;-0.18287703386884988;0.8440000000000001;0.03025791657918559
51:44.6;-0.20410990472794016;0.789614642816083;-0.20307055321427034;0.8440000000000001;0.03272850934434386
51:44.6;-0.1985697945390614;0.7853992408851725;-0.22109610176262023;0.8440000000000001;0.03448138876338306
51:44.6;-0.19223694341325817;0.7807203441158567;-0.2357356376022978;0.8440000000000001;0.03537998067766722
51:44.6;-0.1855029886008942;0.7756721580394532;-0.24610832714470857;0.841;0.03541240499780932
51:44.6;-0.17889395161569394;0.7704307422798526;-0.2517268428188266;0.845;0.034694352785289394
51:44.6;-0.17314014082874454;0.7652414633527546;-0.25254202612939614;0.8390000000000001;0.03346030693066222
51:44.6;-0.1692465219507012;0.760398594932288;-0.24898251471892974;0.833;0.03204275928957789
51:44.6;-0.16853992297557735;0.7562200505040774;-0.24198776586270127;0.841;0.03084213183282684
51:44.6;-0.17267107625829403;0.7530222638581267;-0.23302535413339026;0.8390000000000001;0.030299160061384754
51:44.6;-0.1835555775099957;0.7510997009813151;-0.22407752240213794;0.857;0.030893240721743202
51:44.6;-0.20324538395935468;0.7507108900737549;-0.21757731034799901;0.857;0.033197624671990944
51:44.6;-0.23373058016054324;0.7520699010849141;-0.21627244036445073;0.857;0.0380167446489586
51:44.6;-0.27668026322519407;0.7553407057463198;-0.22299849858025747;0.8440000000000001;0.046603980181295926
51:44.7;-0.3331416262751348;0.7606330340126644;-0.24035314139444647;0.843;0.06090513173670104
51:44.7;-0.40322681677629085;0.7680013497114027;-0.27027905789853457;0.8240000000000001;0.08369967796975884
51:44.7;-0.48582795579218085;0.777451359049321;-0.3135859056551126;0.785;0.11844378122832004
51:44.7;-0.5784147414762156;0.7889603412827243;-0.3694771469693023;0.81;0.16860952593833733
51:44.7;-0.6769861465605688;0.8025175701571716;-0.43520086916304923;0.9209999999999999;0.23644170652093185
51:44.7;-0.7762526543127432;0.8181850817777603;-0.5059951006855958;1.1159999999999999;0.3213667691287935
51:44.8;-0.8700873731576495;0.8361642305605821;-0.5754901008551008;1.896;0.4186897308514553
51:44.8;-0.9521877165250071;0.8568366569171081;-0.636590948696862;1.896;0.5193750370263023
51:44.8;-1.0167858204822224;0.8807435929080372;-0.6826289516880689;1.896;0.6113130645768189
51:44.8;-1.0592304723893031;0.9084812271470604;-0.7084386149093305;1.896;0.6817241027460045
51:44.8;-1.0763502454683056;0.9405137985008709;-0.7111085878493437;1.787;0.7198710512514551
51:44.8;-1.066605770007138;0.9769309778392001;-0.6903338847887018;1.6280000000000001;0.7193280583473526
51:44.8;-1.0300834580792213;1.017201010527431;-0.6484025979997382;1.528;0.6793974965097277
51:44.8;-0.9683871764243752;1.059989923045559;-0.5898835497975465;1.551;0.605504048804318
51:44.8;-0.884471472590906;1.103115211898693;-0.5210790628680527;1.557;0.5084032601864049
51:44.8;-0.7824324967793543;1.143678259175082;-0.4492751340958805;1.489;0.4020343191222358
51:44.8;-0.6672421077361768;1.1783844780149282;-0.38180554485753915;1.495;0.30020138395674784
51:44.8;-0.5444124991879509;1.2040116388473052;-0.325017759019059;1.495;0.21304231090457232
51:44.8;-0.4196233320337101;1.2179291405575592;-0.2833574683741108;1.495;0.1448159219045961
51:44.8;-0.29836869139213695;1.2185457206953925;-0.2588279924122227;1.609;0.09410361823793995
51:44.9;-0.18564210636059125;1.2055891381108839;-0.2509549512179492;1.495;0.05616575257545928
51:44.9;-0.08563720685376833;1.1801609133948825;-0.2572026085570185;1.3019999999999998;0.02599435762756257
51:44.9;-0.0014710866573886716;1.14455035734859;-0.27367859642268555;1.251;0.00046080161834484115
51:44.9;0.06499752353773472;1.1018543217915624;-0.2959419238931908;1.151;0.02119471017274641
51:44.9;0.11317206125589752;1.055503356796468;-0.3197506243770888;1.128;0.03819532818776099
51:44.9;0.14353274600424448;1.0087995991488672;-0.34162711164056875;1.055;0.0494661629491642
51:44.9;0.15734147228778464;0.9645414968098447;-0.3591709641123559;0.9009999999999999;0.05450864004991745
51:44.9;0.1563447502794077;0.9247775748010283;-0.3711109535989391;0.9009999999999999;0.05365675027596566
51:44.9;0.1425414087144513;0.8907023819743808;-0.3771590297052978;0.9009999999999999;0.047884854271557906
51:44.9;0.11802762284710293;0.8626823615388939;-0.37776849297328996;0.9009999999999999;0.03846451957080621
51:45.0;0.08490569584064671;0.8403834155127288;-0.3738768897524807;0.927;0.026677364334291163
51:45.0;0.045239435524440166;0.8229659115619655;-0.3666675181675509;0.919;0.013651219909952201
51:45.0;0.001039006098580118;0.8093112817558451;-0.35735941395985366;0.898;0.0003004961543692636
51:45.0;-0.04574367183063882;0.798245645602807;-0.3470384013327722;0.903;0.012671998550524756
51:45.0;-0.09322733570180032;0.7887323145846887;-0.3365484695236003;0.92;0.024746884261594375
51:45.0;-0.13963348576458381;0.7800144092749917;-0.3264549533218296;0.9;0.035556210433416356
51:45.0;-0.18334039303027133;0.7716971029474092;-0.3170727061126128;0.888;0.0448604769961584
51:45.0;-0.22295320473028024;0.7637674047737774;-0.3085394554372291;0.9129999999999999;0.05253945313371995
51:45.0;-0.25737756542734835;0.7565585760499141;-0.30090976184080126;0.9129999999999999;0.058593511243436744
51:45.0;-0.2858783811834002;0.7506710924952813;-0.29424249595233837;0.915;0.06314462698255004
51:45.1;-0.308106383829195;0.7468607539140998;-0.28865538439536403;0.875;0.06642323122538409
51:45.1;-0.32408520509069966;0.7459040620904641;-0.28432814154492914;0.8140000000000001;0.06873248152616318
51:45.1;-0.3341642510894102;0.7484567932051708;-0.28145221357489736;0.778;0.07039331056893706
51:45.1;-0.33895169798452096;0.7549293134939032;-0.2801473326206496;0.787;0.07168538049144807
51:45.1;-0.33924400465761395;0.7654032451756722;-0.2803814776947045;0.8240000000000001;0.07280342329149349
51:45.1;-0.3359620678973968;0.7796056174514991;-0.2819277840603537;0.867;0.07384193748975834
51:45.1;-0.330095296577112;0.7969416683797187;-0.2843710527796673;0.934;0.07480855340041224
51:45.1;-0.32265217204788765;0.8165710104766027;-0.28715500703427044;0.934;0.0756562731732664
51:45.1;-0.3146196446168138;0.8375012754235943;-0.28965320808312434;0.934;0.07632198484358618
51:45.1;-0.30693593541572467;0.8586769363734716;-0.29125078895364925;0.9520000000000001;0.0767617109653941
51:45.2;-0.3004771333827214;0.8790567203675047;-0.2914308505256029;0.975;0.07697750835977873
51:45.2;-0.2960517904799191;0.897686237986344;-0.28985943291452765;1.024;0.07703351189698256
51:45.2;-0.2943956729588189;0.913773141414009;-0.2864551615354228;1.046;0.07705954904048709
51:45.2;-0.29616148102638445;0.92676383843398;-0.28142268769876977;1.054;0.07724257785038488
51:45.2;-0.30190243141639583;0.9364121196869755;-0.275233978326935;1.069;0.07781004819416926
51:45.2;-0.3120509995745514;0.9428261357557645;-0.2685577188236454;1.085;0.07901232297227936
51:45.2;-0.32689396298504186;0.9464809552860162;-0.26215264274769284;1.0490000000000002;0.0811097420149993
51:45.2;-0.3465438384650054;0.9481884767974943;-0.256748290064571;1.0490000000000002;0.0843646316204442
51:45.2;-0.3709074069362251;0.9490246458677427;-0.25293787922529803;1.0490000000000002;0.08903420191139572
51:45.2;-0.39965569806519974;0.9502217762466498;-0.25110313348552143;1.037;0.09535931450499516
51:45.3;-0.43220393978757093;0.9530372879523711;-0.25138067052348495;1.042;0.10354532477678338
51:45.3;-0.4677085171770111;0.9586124558350847;-0.25366962468156795;1.051;0.11373308323371327
51:45.3;-0.5050804321023133;0.9678384116918082;-0.25767501173694335;1.0759999999999998;0.12596088469949787
51:45.3;-0.5430085821830943;0.9812477178846044;-0.26297980245066077;1.1079999999999999;0.14012245835344292
51:45.3;-0.5799866439612069;0.9989457720258602;-0.26913784642581917;1.131;0.15593179516597275
51:45.3;-0.6143437053998371;1.0205901600919873;-0.2757776131360189;1.157;0.17291067177987893
51:45.3;-0.6442873849173614;1.045420341814797;-0.2827015847428776;1.32;0.19041397416525602
51:45.3;-0.6679711647927871;1.0723318841630147;-0.2899573918542866;1.32;0.20769264588415856
51:45.3;-0.6835905584354619;1.099978929697588;-0.2978486825073847;1.32;0.223962911873416
51:45.3;-0.6895048739998484;1.1268862300405118;-0.3068567019606609;1.376;0.23842567760125233
51:45.4;-0.6843804321269327;1.1515611792181255;-0.3174648796428571;1.3969999999999998;0.2501959565796237
51:45.4;-0.667348048809082;1.1726023572001731;-0.3299161179883608;1.413;0.2581705448678363
51:45.4;-0.6381553407324663;1.1887978069404874;-0.34397587092241927;1.419;0.26095305309805544
51:45.4;-0.5972814143821605;1.1992049640076208;-0.35880019357187537;1.444;0.2569952445770654
51:45.4;-0.5459778227122647;1.2032086303693592;-0.3729855170671797;1.483;0.24502359594362136
51:45.4;-0.48620903395580367;1.2005543080405663;-0.3847999260395459;1.508;0.22461554763240763
51:45.4;-0.420489861954917;1.1913501664780106;-0.3925074430279373;1.266;0.19662686540391514
51:45.4;-0.35165305536054664;1.1760341556057001;-0.3946655427033473;1.266;0.16321630476758506
51:45.4;-0.2826072820173106;1.1553172347400702;-0.39032629962763987;1.266;0.12744195197075153
51:45.4;-0.21613679905315178;1.1301221705535482;-0.3791446181343427;1.25;0.0926102392032933
51:45.5;-0.15475652159568162;1.1015271259446107;-0.361421484869942;1.234;0.0616109807263381
51:45.5;-0.10061214966682809;1.0707072001053666;-0.33808816771406586;1.168;0.03642093770508781
51:45.5;-0.055419834448334634;1.038863162428767;-0.31061597932717727;1.064;0.0178832877501135
51:45.5;-0.020447308777745796;1.0071363457235238;-0.2808422651297338;0.992;0.005783448753564074
51:45.5;0.0034697709590602865;0.9765219195940079;-0.25073252550775665;0.948;0.0008495588709700575
51:45.5;0.015898139762912926;0.9477991359708888;-0.22212901680242841;0.907;0.0033470940315919475
51:45.5;0.01679371264477829;0.9214936450990333;-0.19654490062761007;0.905;0.0030415911984363517
51:45.5;0.006524733609945201;0.8978783485264966;-0.1750439115433022;0.905;0.00102548023383122
51:45.5;-0.01407359965429691;0.8770098052092836;-0.15821129821035856;0.905;0.0019527522000710974
51:45.5;-0.04363912000935918;0.8587885085860858;-0.14619436852120204;0.892;0.005478893424466761
51:45.6;-0.08024842110515289;0.8430266651041123;-0.13878342629102677;0.868;0.009388915127544136
51:45.6;-0.12143508358177987;0.8295095103772595;-0.13550922666515444;0.8640000000000001;0.013650055352520068
51:45.6;-0.1642805893820134;0.8180429732176111;-0.1357390961962625;0.863;0.01824178462991522
51:45.6;-0.2055858915195504;0.8084852328452221;-0.13875926735498023;0.867;0.02306361594209586
51:45.6;-0.24211290325950965;0.8007602901528815;-0.1438380138725831;0.8859999999999999;0.027886508444548336
51:45.6;-0.27086779840631175;0.7948515717918472;-0.15026873774285796;0.893;0.03235281345081401
51:45.6;-0.289389269616812;0.7907758446012694;-0.15739120326781517;0.877;0.036017724679130635
51:45.6;-0.2960045597233905;0.7885427997727388;-0.16458972434942676;0.877;0.03841726023593851
51:45.6;-0.29001978703683745;0.7881117544142683;-0.17127599066717025;0.877;0.039148211178864155
51:45.6;-0.27181838083480053;0.7893589378406347;-0.17687359903771877;0.8690000000000001;0.037950400626300874
51:45.7;-0.24285414948763803;0.7920639936199834;-0.18081962294347634;0.857;0.034781744365328805
51:45.7;-0.2055406434615465;0.7959170914719841;-0.18258786572133898;0.845;0.029870153524271
51:45.7;-0.16305158236532807;0.8005433074871943;-0.18172981144318268;0.838;0.023721165580258545
51:45.7;-0.11905771068815052;0.80553856659829;-0.17792821837270534;0.826;0.017064308556189296
51:45.7;-0.07743310912671163;0.8105107227800411;-0.1710618439583656;0.823;0.010735903806378105
51:45.7;-0.04196490803665348;0.8151213279906534;-0.16128221118740838;0.8290000000000001;0.005516898597025099
51:45.7;-0.016092969311662948;0.8191268170762431;-0.1491007397834218;0.878;0.0019654731969388547
51:45.7;-0.0026950654768816812;0.8224174426521428;-0.1354756317740566;0.878;0.00030027751874713775
51:45.7;-0.0039234691029277746;0.8250475484079893;-0.12187588475193001;0.878;0.00039451815779864346
51:45.7;-0.021091948024206473;0.8272479370827998;-0.11029299360287186;0.8809999999999999;0.0019244219857644262
51:45.8;-0.054607538322586274;0.8294145451516609;-0.10317304049093555;0.871;0.004672942915148899
51:45.8;-0.1039387892415837;0.8320740757174856;-0.1032479782260955;0.8590000000000001;0.008929377855248886
51:45.8;-0.16761285426235786;0.8358323740043396;-0.11325209002830108;0.858;0.015866193105367837
51:45.8;-0.24324034623776813;0.8413144383050433;-0.13552084814537182;0.85;0.027733205266978853
51:45.8;-0.32757840402271965;0.8491062260197239;-0.1714896504207226;0.833;0.04769965117194626
51:45.8;-0.4166555113182145;0.8597083080538698;-0.22115058150233283;0.9440000000000001;0.07921662585967032
51:45.8;-0.5059905086940113;0.8735098397242933;-0.2825935618686386;1.065;0.12490287509676642
51:45.8;-0.590925510126555;0.8907851907022363;-0.3518156712988417;1.268;0.18519143965677407
51:45.8;-0.6670411171467067;0.911704459498122;-0.42295114817633983;1.268;0.2572153558143518
51:45.8;-0.7305593678494341;0.9363410220340602;-0.4889447965158137;1.463;0.3344640107250211
51:45.9;-0.7786271610576432;0.9646599945032994;-0.5425566660995703;1.73;0.40751999405234324
51:45.9;-0.809426126163924;0.996474842775681;-0.5775033453651276;1.73;0.4657984739993847
51:45.9;-0.8221241493999263;1.0313624383409215;-0.5894963686012282;1.636;0.4998386676573745
51:45.9;-0.8167246687520708;1.0685413036631253;-0.5769562709038291;1.515;0.5035120698378195
51:45.9;-0.7938806461674162;1.1067486511673983;-0.5412817037951869;1.442;0.47558435924745945
51:45.9;-0.7547364509819536;1.14418117387399;-0.486661566018712;1.409;0.42025914468774944
51:46.0;-0.7008479006224438;1.1785665553524487;-0.41947263556462727;1.493;0.3464826754869401
51:46.0;-0.6341996856200114;1.2073902873471647;-0.34735380073136546;1.493;0.2659780242178209
51:46.0;-0.5572904162812514;1.2282295729935293;-0.27813258113393713;1.493;0.1903763476763886
51:46.0;-0.4732127277364094;1.2391018387438635;-0.21881951232021235;1.493;0.12830673813877932
51:46.0;-0.3856431087678099;1.2387560366534087;-0.17481313500200588;1.588;0.08351133384901695
51:46.0;-0.29867636933645564;1.2268731286027978;-0.14936641793453273;1.4780000000000002;0.0547335332008206
51:46.0;-0.21648964736087137;1.2041471662127603;-0.1433515180648351;1.354;0.03736964716562716
51:46.0;-0.14289081334150536;1.172214739040423;-0.15536171099183305;1.2229999999999999;0.026022887335447605
51:46.0;-0.08086593249641733;1.1334280071868257;-0.18212831974807334;1.097;0.016693100952772343
51:46.0;-0.03225703845603987;1.0905154154712284;-0.21915177539288058;1.016;0.007709057667223628
51:46.0;0.00233818684019722;1.0462104126377714;-0.2614181084289379;1.054;0.0006394902359825228
51:46.0;0.023436513611556634;1.0029316247940503;-0.30408401539474905;1.054;0.00714756188588145
51:46.0;0.03238456261017684;0.9625691979938963;-0.3430319945721835;1.054;0.010693124530498654
51:46.0;0.031026935209783717;0.9263903970125597;-0.37522691533067337;1.036;0.010785167799943587
51:46.1;0.021406811285503567;0.8950456074845101;-0.3988540396329668;1.001;0.007642072280923041
51:46.1;0.005534607172919731;0.8686432429697152;-0.413265863574096;0.9620000000000001;0.001986816603387334
51:46.1;-0.014766901504515456;0.8468639523832788;-0.4187929637917818;0.9359999999999999;0.005237239100891778
51:46.1;-0.037945760353406965;0.8290919717585794;-0.4164827643314923;0.924;0.013102766532305427
51:46.1;-0.06274580676957814;0.8145483627665908;-0.40782367193681845;0.9179999999999999;0.020843661585130523
51:46.1;-0.08819207584339928;0.8024147428867698;-0.3944944829479318;0.9109999999999999;0.027917041901631263
51:46.2;-0.11355599530756873;0.7919378252820277;-0.3781599405866863;0.87;0.03400765419634784
51:46.2;-0.13831426131688906;0.7825083461897421;-0.3603213452974579;0.87;0.038998322860673694
51:46.2;-0.16210485379200873;0.7737140520675253;-0.3422258497464475;0.87;0.04292292543255341
51:46.2;-0.18467840185578452;0.7653701700568276;-0.32483321603520804;0.87;0.045914310976359764
51:46.2;-0.2058494232342849;0.7575281525158818;-0.30883119152103455;0.875;0.04815812714049077
51:46.2;-0.2254594359329956;0.7504594183901068;-0.2946823141323874;0.862;0.04985970449909095
51:46.2;-0.24336059881538696;0.7446121381133199;-0.2826790587625079;0.845;0.05122406187325231
51:46.2;-0.25941798896129864;0.7405450815685786;-0.2729850775640626;0.833;0.05244335865237716
51:46.2;-0.27352173814450664;0.7388474850152434;-0.2656508523272804;0.8140000000000001;0.05368560610509712
51:46.2;-0.28560087230924625;0.7400551765415023;-0.2606072924776346;0.797;0.05508206261748401
51:46.2;-0.29563512160399946;0.7445728894281923;-0.2576513274702186;0.82;0.05671469889237353
51:46.2;-0.3036644700956981;0.7526119059561542;-0.2564390766157787;0.82;0.05860697010258896
51:46.2;-0.3097973166696449;0.7641497404042276;-0.2564966898643855;0.82;0.0607208561684819
51:46.2;-0.31421860804317997;0.7789158203201896;-0.2572519132922501;0.847;0.06296236586405447
51:46.3;-0.3172002673141735;0.796405822054901;-0.2580859064891436;0.877;0.06519769773804968
51:46.3;-0.31911623082099516;0.8159248911344651;-0.2584046147345666;0.9079999999999999;0.06728206949139702
51:46.3;-0.32046239633939455;0.8366549853612459;-0.2577276198423326;0.9490000000000001;0.06910101746762527
51:46.3;-0.32187785198315605;0.857737955170651;-0.2557866227036779;0.9840000000000001;0.07061932308141124
51:46.3;-0.3241584456705616;0.8783663567924308;-0.2526167216789723;1.02;0.07192752706797892
51:46.3;-0.32824975024313097;0.8978758513972629;-0.24861663190402516;1.042;0.07327416433895609
51:46.3;-0.33520691679128156;0.9158328071972873;-0.24455487925777045;1.09;0.07507675627040293
51:46.3;-0.34611432596109165;0.9321064705047575;-0.24151030822431882;1.09;0.07791494535913879
51:46.3;-0.3619666557631355;0.9469091404823647;-0.24075183167023026;1.09;0.08251757832935565
51:46.4;-0.38352183037177046;0.9607883157668072;-0.2435731992550654;1.073;0.08975265466075211
51:46.4;-0.4111436262080553;0.9745652184472815;-0.25110076628112826;1.072;0.10061263141617584
51:46.4;-0.44465870474481944;0.9892256928430344;-0.26409531015513654;1.077;0.1161670271036023
51:46.4;-0.4832571548751749;1.0057748196310197;-0.2827767243668373;1.068;0.13744302676407527
51:46.4;-0.5254612233607026;1.025069552462914;-0.3067049967265614;1.097;0.16520183154555892
51:46.4;-0.5691743527681227;1.047648896995618;-0.3347473519235106;1.1159999999999999;0.19960813300818667
51:46.4;-0.6118103052083331;1.0735859944746335;-0.3651527767793763;1.146;0.23984365437657182
51:46.4;-0.6504943362287974;1.102386657028006;-0.39574115725230685;1.392;0.28378451041481306
51:46.4;-0.6823178527598937;1.1329526569202417;-0.42418620390778894;1.392;0.3279102833578462
51:46.4;-0.7046118846287314;1.1636178178517633;-0.44833398834191873;1.392;0.36758856343232
51:46.5;-0.7151995161463003;1.19225927563508;-0.4664842494116566;1.514;0.3977726388382455
51:46.5;-0.7126006718141775;1.2164874220171582;-0.4775818923353935;1.6;0.4140012976109982
51:46.5;-0.6961743504115304;1.2339120050752863;-0.4812887046382265;1.65;0.4134356068645288
51:46.5;-0.6661841671734462;1.2424581105091208;-0.47791515869549833;1.681;0.39557320687343095
51:46.5;-0.6237760224635521;1.2406747929311674;-0.46821746611686244;1.6480000000000001;0.362354989473539
51:46.5;-0.5708634625685827;1.2279624025055003;-0.45311885711998195;1.534;0.31763580636292116
51:46.5;-0.5099214943985299;1.2046572301011411;-0.4334624170756318;1.4340000000000002;0.2662675601454463
51:46.5;-0.44370620732095073;1.1719524293273518;-0.40989458219141134;1.172;0.2131462351756052
51:46.5;-0.3749530080007765;1.1316869555024236;-0.3829025911947608;1.172;0.16247683753235778
51:46.5;-0.3061311589923373;1.0860753473018037;-0.3529446019475114;1.172;0.11734755237448911
51:46.6;-0.23931157156293353;1.0374531613719815;-0.32058428420004254;1.068;0.07959291776545169
51:46.6;-0.17615042171499942;0.9880771667083362;-0.28657097568056134;1.01;0.04987773838323338
51:46.6;-0.11794843852332286;0.9399851857185806;-0.2518479529641561;0.955;0.027922328370264416
51:46.6;-0.0657368284815221;0.8949102907494123;-0.21749890471673727;0.903;0.012795148298990307
51:46.6;-0.02035352964224312;0.8542426424884759;-0.1846558571965535;0.86;0.0032105842346123016
51:46.6;0.017509487705384588;0.8190273805726169;-0.15439817730336916;0.8340000000000001;0.002214185638082243
51:46.6;0.04729393190542192;0.789982873328153;-0.1276735279161617;0.835;0.004770061262978518
51:46.6;0.06859583122188885;0.7675235506445555;-0.1052610279329991;0.7609999999999999;0.0055418790112802315
51:46.6;0.08121046539758252;0.7517766954298372;-0.08777364214067775;0.7609999999999999;0.005358768276704377
51:46.6;0.08518616978540355;0.7425929449441322;-0.07567496974408408;0.7609999999999999;0.004787096325626051
51:46.7;0.08087017022852042;0.7395580453480013;-0.06927980955373265;0.732;0.004143499668020695
51:46.7;0.06893641182890115;0.7420128081924996;-0.0687193224621381;0.7120000000000001;0.0035151102030619398
51:46.7;0.05039313119365715;0.7490862035916619;-0.07387288096379864;0.72;0.0027886125596495717
51:46.7;0.0265708070274716;0.7597481023051618;-0.08429085652690031;0.754;0.001701589653804507
51:46.7;-0.0009099294216541405;0.7728862752156193;-0.0991442810734857;0.809;6.97253930132706e-05
51:46.7;-0.030195133008481187;0.7874020014485912;-0.11723077110707601;0.8370000000000001;0.0027872446017862137
51:46.7;-0.05929025424128907;0.8023063695422095;-0.13704658145165458;0.877;0.006519161792931008
51:46.7;-0.08620082614165805;0.8167944329124344;-0.15691455540195698;0.888;0.011048095706494829
51:46.7;-0.1091187794489604;0.8302804612678961;-0.17514326391434393;0.888;0.01586783793809999
51:46.7;-0.12662738501154353;0.8423910780574551;-0.19018573930609792;0.888;0.020287070851381487
51:46.8;-0.13788714051691942;0.8529260405297553;-0.20077152338516974;0.887;0.023612243522041353
51:46.8;-0.1427774693107986;0.861802980969635;-0.2060009159010176;0.884;0.02534759872347463
51:46.8;-0.1419831485719014;0.869003991971965;-0.20540246312309146;0.888;0.025343361673805145
51:46.8;-0.13701465119539663;0.8745411309558606;-0.19895805928017105;0.905;0.02384013911020187
51:46.8;-0.13014900025822626;0.8784526971168554;-0.18710081277882318;0.912;0.021391187335651686
51:46.8;-0.12428399994470905;0.8808316131664315;-0.170693267350313;0.924;0.018686351195647675
51:46.8;-0.12271211902070836;0.8818758331509275;-0.1509950092804302;0.9540000000000001;0.016340204602102493
51:46.9;-0.1288334437534961;0.8819429441655968;-0.12962547246368963;0.94;0.014728531847909135
51:46.9;-0.1458330410742421;0.8815892512381246;-0.10851955645096407;0.94;0.013951799573294779
51:46.9;-0.17634576005028785;0.8815786398096146;-0.08986438366409001;0.94;0.013970555699639198
51:46.9;-0.22212805662701754;0.8828551397085957;-0.07599961712987241;0.94;0.014904049047992507
51:46.9;-0.2837588242827419;0.886479217469405;-0.06926187426585281;0.9390000000000001;0.01742256823728552
51:46.9;-0.36039809648645876;0.893530573338661;-0.07175389062686342;0.935;0.02310666988677997
51:46.9;-0.449637908269276;0.9049837169728099;-0.08502405291201735;0.905;0.034597561259324935
51:46.9;-0.5474823558262992;0.9215691920258581;-0.10966504482464019;0.9059999999999999;0.055330716707527934
51:46.9;-0.6484965898610062;0.9436427778191416;-0.1448966297196114;1.074;0.08866936554961279
51:46.9;-0.7461603619441123;0.9710937119295376;-0.18828018404846258;1.24;0.13642624650603663
51:46.9;-0.8334297139325434;1.0033204824793271;-0.23576092418820332;1.631;0.19714260173496712
51:46.9;-0.9034405658289698;1.0392788802925235;-0.2821497878323269;1.631;0.2649179691007491
51:46.9;-0.9502201729755347;1.0775730519112883;-0.3219487631506656;1.631;0.329653528841685
51:47.0;-0.9692724153564414;1.1165484376495853;-0.35027492344078287;1.742;0.37908139339294084
51:47.0;-0.9579726058021464;1.1543664426366735;-0.36366754253260625;1.726;0.40216227162813434
51:47.0;-0.9157755556013925;1.1890685336084363;-0.36065937924839403;1.6880000000000002;0.39272917410807756
51:47.0;-0.8442593750105305;1.2186524139432398;-0.3420458063483098;1.666;0.35191681233110644
51:47.0;-0.7470128255709708;1.2411863127006078;-0.31082095209336763;1.6280000000000001;0.28818762137967496
51:47.0;-0.6293602378317329;1.254977334963258;-0.27179318182112333;1.525;0.2146711790612615
51:47.0;-0.4979236617639558;1.2587861960011402;-0.23092222437249543;1.4809999999999999;0.14473730064933887
51:47.1;-0.3600456852602504;1.2520560954223787;-0.19444960485231602;1.4569999999999999;0.08765737529910177
51:47.1;-0.2231331009448752;1.235105781479343;-0.16794856179050333;1.4569999999999999;0.04628544513716389
51:47.1;-0.0940182962897381;1.2092258126863233;-0.1554678792896774;1.4569999999999999;0.017675042257110366
51:47.1;0.02156830919080539;1.1766200449588906;-0.15892680303926934;1.329;0.004033197512962679
51:47.1;0.11936989560265114;1.1401625463337162;-0.17784191392608403;1.163;0.02420447728836656
51:47.1;0.1968031844121927;1.1029938484979585;-0.209402236280092;0.99;0.045455509186304754
51:47.1;0.25296341509019815;1.0680411396051153;-0.2488892193394737;0.919;0.06724372799672994
51:47.1;0.28842545889787174;1.0375797653366683;-0.29041727589295235;1.011;0.08691155761657647
51:47.1;0.3048825392405997;1.0129362412691618;-0.3279005902360329;1.181;0.10126441567448521
51:47.1;0.30470571343785946;0.9943817565533887;-0.3560611518663071;1.2830000000000001;0.10788432234793445
51:47.1;0.29051653807723127;0.9812118413415138;-0.3712560867144709;1.188;0.10582961679112526
51:47.1;0.26484847044863086;0.9719688768425212;-0.37196123676071624;1.188;0.09575192436587264
51:47.1;0.22993981005250216;0.9647436611521596;-0.35886800527214485;1.188;0.0796087569528331
51:47.2;0.18766496853722206;0.9574943974201283;-0.33464377054912803;1.135;0.06013152203562084
51:47.2;0.13958277001614247;0.9483401281492909;-0.30342898177991445;1.102;0.04016548357866793
51:47.2;0.08706143810248458;0.9358020172109701;-0.27014350740319554;1.061;0.02200920461116383
51:47.2;0.03142776002972322;0.9189718729575101;-0.23969828123266929;1.014;0.006922780591010237
51:47.2;-0.025913368829505776;0.897593091645471;-0.21624169364012175;0.976;0.005029708454104153
51:47.2;-0.08342828458420802;0.8720525362891981;-0.20258322195310421;0.9129999999999999;0.014738708769165236
51:47.2;-0.13948517896682425;0.8432972343571249;-0.19991119349744377;0.858;0.02351504704747679
51:47.2;-0.1924504518644148;0.8126994369449272;-0.20784696104148784;0.887;0.032508173802477586
51:47.2;-0.24081602727019039;0.781897479943335;-0.22477181711982974;0.887;0.04232305975125502
51:47.2;-0.28331806819447375;0.7526390411998686;-0.24828245050976347;0.887;0.052942816006183176
51:47.3;-0.31902122955102336;0.7266435351096843;-0.2756286630488247;0.884;0.06389477969927398
51:47.3;-0.34736694526845074;0.7054841326237978;-0.3040513379978956;0.87;0.07451138888347496
51:47.3;-0.36819810740072956;0.6904810805715247;-0.33100564280834427;0.855;0.08415283135043038
51:47.3;-0.3817676908085873;0.6826026502791207;-0.3542881478442575;0.836;0.09232594575923524
51:47.3;-0.38872771919876353;0.6823802349579002;-0.37209880902485226;0.826;0.09870297189151298
51:47.3;-0.39008821990287673;0.6898521392469735;-0.38307297146901514;0.857;0.10308615977241112
51:47.3;-0.38713594190788053;0.7045527409784659;-0.3863110528235188;0.8959999999999999;0.10536931000425695
51:47.3;-0.3813118259862977;0.7255561413761333;-0.3814123113540744;0.915;0.10552272659682184
51:47.3;-0.3740639504512246;0.7515671110409375;-0.36849742662931945;0.915;0.1035972154502302
51:47.3;-0.36670836910693105;0.7810382961922053;-0.34819953269910586;0.915;0.09972897018751112
51:47.3;-0.3603301575596107;0.8122944961059306;-0.3216122454849764;0.9229999999999999;0.09413404011383102
51:47.4;-0.3557414664531885;0.8436594482363224;-0.2901917988598564;0.958;0.08709371186332744
51:47.4;-0.3534959631690247;0.873588977116902;-0.2556179188293006;1.01;0.07893741472731818
51:47.4;-0.353946984770556;0.9008068530357302;-0.21962948490971576;1.053;0.07002619704638191
51:47.4;-0.35732775274452794;0.9244269247838469;-0.18386048545118103;1.072;0.060733419872653786
51:47.4;-0.3638266108316769;0.9440406836921421;-0.14970280013132375;1.081;0.0514179899815574
51:47.4;-0.37363294279696835;0.9597555059670503;-0.11821575607892128;1.093;0.04239172966509433
51:47.4;-0.3869406510550837;0.9721786248557466;-0.09009023254945368;1.089;0.03388973197201133
51:47.4;-0.40390984432451105;0.9823489991968012;-0.06566274124095997;1.089;0.026053690792418274
51:47.4;-0.42459701837743685;0.9916229679029377;-0.044970739139303606;1.089;0.018934487001339304
51:47.4;-0.44886843552047717;1.0015223819890926;-0.027842334971282454;1.063;0.0125165713777298
51:47.5;-0.47631340004824835;1.0135576725153361;-0.01401199905272436;1.0759999999999998;0.006764588211867149
51:47.5;-0.5061742976935775;1.02904321090824;-0.003248176939834784;1.075;0.0016918948930049467
51:47.5;-0.5373075249879313;1.0489261603320397;0.004525969914181092;1.085;0.0025508181736158815
51:47.5;-0.5681855324624535;1.0736506079346126;0.009138079101359192;1.1179999999999999;0.005574527453994773
51:47.5;-0.596947988988103;1.1030760306478176;0.010112982898310962;1.162;0.0066591870499146995
51:47.5;-0.6215085052180358;1.136463684173614;0.006669561061155796;1.206;0.004710856677959579
51:47.5;-0.6397176135303484;1.1725358161287245;-0.002220356840923374;1.442;0.001665471490697003
51:47.5;-0.6495689113653015;1.2095963762870117;-0.01769748527778879;1.442;0.013905200905666961
51:47.5;-0.6494189133335845;1.2456798503947104;-0.04080347494078418;1.442;0.03300870775212564
51:47.5;-0.6381866984815759;1.2786882937340078;-0.07221091276915731;1.442;0.0589271276092506
51:47.6;-0.6155098940522151;1.3064993600765709;-0.11192685450005242;1.474;0.09000746673704933
51:47.6;-0.5818425889175927;1.327057685756059;-0.1590157571609468;1.48;0.1227822167576503
51:47.6;-0.5384783155794728;1.3384725785040086;-0.21141480904192606;1.449;0.15237478378904773
51:47.6;-0.48747894804281816;1.3391391301394429;-0.2659318556313729;1.444;0.1736008829726411
51:47.6;-0.4315023095447288;1.3278882693860454;-0.3184868986887117;1.4869999999999999;0.18248880645663976
51:47.6;-0.3735443173477517;1.3041544094485074;-0.3645862160984904;1.557;0.1776116272910566
51:47.6;-0.31663169730226165;1.2681278477092406;-0.39994355529372194;1.61;0.16058912491342123
51:47.6;-0.2635106478273364;1.2208446472789145;-0.42111868814169445;1.44;0.13547622503787435
51:47.6;-0.21637714274422498;1.1641761643817439;-0.426040647357053;1.44;0.10732011286898291
51:47.6;-0.17668846788628476;1.1007122528390036;-0.41431652217935816;1.2919999999999998;0.08057758711078117
51:47.7;-0.1450818716090327;1.033560219694738;-0.38727991460015204;1.1420000000000001;0.058072952805887236
51:47.7;-0.12140742405047529;0.9660901593733897;-0.34778637670220686;1.003;0.040792044155032396
51:47.7;-0.10486423844643646;0.9016574245784734;-0.299805843672801;0.9009999999999999;0.02834712795529067
