Time;AccX;AccY;AccZ;Acc-old;Acc-trns
21:04.3;0.10226302222036596;-0.07764990541395793;-1.122346434894029;1.131;0.008912232051507296
21:04.3;0.09392608717018078;-0.09391031835451523;-1.0606052234076333;0.851;0.009355204923810662
21:04.3;0.08496054894914963;-0.10907786087439918;-1.0034876526316336;0.851;0.009299636113419926
21:04.3;0.07492913798965384;-0.12237338125565446;-0.9543739030162098;0.851;0.00875097114060899
21:04.4;0.06355333017919619;-0.1332252913304628;-0.9157399113857582;0.816;0.0077534882630501565
21:04.4;0.050755443636816104;-0.14132140746136693;-0.8889366424855936;0.799;0.006376192067204569
21:04.4;0.03667557746394805;-0.14662585182775048;-0.8741122500912266;0.799;0.004700615360493013
21:04.4;0.02166486727601987;-0.14936670879316022;-0.8702582209400601;0.82;0.002816164237193925
21:04.4;0.00625751354188407;-0.15000012388097855;-0.875362929849538;0.852;0.0008216399867093966
21:04.4;-0.008878773923555253;-0.14915679684180028;-0.8866543044695322;0.893;0.0011742224324883222
21:04.4;-0.02301536195159881;-0.14757803057389646;-0.9009077890439904;0.935;0.0030599889723660913
21:04.4;-0.03545453584613556;-0.14605019274977768;-0.9147902340973021;1.038;0.004736913544088776
21:04.5;-0.045626907905695055;-0.14534590676756456;-0.9252044452585524;1.038;0.006135663796273776
21:04.5;-0.05317354549644074;-0.14617560287206918;-0.9295949153273318;1.038;0.00722543922336609
21:04.5;-0.05799462903566918;-0.14914773593115413;-0.9261803171112418;1.038;0.008011244514300858
21:04.5;-0.060257052756110804;-0.1547344581164936;-0.9140937444996036;1.015;0.008522866017945914
21:04.5;-0.06036313547603069;-0.16324126090495766;-0.8934268367879031;0.972;0.008803608576979023
21:04.5;-0.05888775337608786;-0.1747815890794067;-0.8651825755768077;0.92;0.008904887430448274
21:04.5;-0.05649480871321528;-0.189259803575727;-0.8311479198040401;0.863;0.008886796796088831
21:04.5;-0.053847390284963444;-0.20636742919577;-0.7937040374983161;0.81;0.00881991507842902
21:04.5;-0.051527149392554206;-0.22559795896619345;-0.7555960277881104;0.762;0.00878336537658361
21:04.6;-0.049975847360897725;-0.24628422450821705;-0.7196850599256783;0.688;0.0088580728590176
21:04.6;-0.04946615926542157;-0.267656675231956;-0.6887074042106446;0.688;0.009118450029898
21:04.6;-0.05010181846119144;-0.28891153846632395;-0.6650666001361555;0.688;0.009626834681837613
21:04.6;-0.05184258396619695;-0.3092749180210077;-0.650678550668239;0.695;0.010432726706387448
21:04.6;-0.05454813700059249;-0.3280569748355005;-0.6468730147266607;0.718;0.011575725845977984
21:04.6;-0.05803308102724737;-0.34469757598469336;-0.654341438323207;0.746;0.01308935606670896
21:04.6;-0.062120658270512594;-0.3588026810032844;-0.6731185010684814;0.759;0.015003177804684445
21:04.6;-0.06667961580092156;-0.3701664076098322;-0.7025889704487976;0.764;0.017341690091779015
21:04.6;-0.07163212874794683;-0.3787746778919176;-0.7415188176478232;0.775;0.020119212228354128
21:04.6;-0.07693152404486213;-0.38479079048619985;-0.7881192864749905;0.8059999999999999;0.023330334239898144
21:04.7;-0.08252175135358365;-0.3885264616797927;-0.8401579912353142;0.995;0.02693704811129304
21:04.7;-0.08829810101809119;-0.39040186242300373;-0.8951207530678729;0.995;0.030856372630592748
21:04.7;-0.09408629723670861;-0.3908962853629814;-0.9504057081483125;0.995;0.034954006016542596
21:04.7;-0.09964894095979676;-0.3904899101084832;-1.0035237843284426;1.08;0.039049023162341455
21:04.7;-0.10471979818010035;-0.3895981243256092;-1.052295808129967;1.183;0.042932234640662655
21:04.7;-0.1090571952488835;-0.3885027403901804;-1.0950457231465562;1.278;0.046396013283611676
21:04.7;-0.11249883845610748;-0.3872879077181017;-1.1307722908365339;1.335;0.04926711521509681
21:04.7;-0.11499819220143144;-0.3857911979212959;-1.1592597133970552;1.355;0.051430893750615755
21:04.7;-0.11662865383843972;-0.38358210270418136;-1.1810851595806124;1.338;0.05283781026423258
21:04.7;-0.11755004861339216;-0.3799814133599239;-1.1974987282672127;1.3019999999999998;0.053488476446864996
21:04.7;-0.1179396876187178;-0.3741331602781613;-1.2101793458186132;1.177;0.05339934280252077
21:04.7;-0.11790199432082833;-0.36513018402894204;-1.2209024623051248;1.177;0.05255933441855601
21:04.7;-0.11738605274830122;-0.35217562535362446;-1.2311833719421983;1.177;0.05089774423285374
21:04.8;-0.11614623292463307;-0.3347491734662865;-1.2419669990327122;1.1440000000000001;0.04828749742430909
21:04.8;-0.11376865228242727;-0.31274822942852776;-1.2534183012161468;1.153;0.044597807093329625
21:04.8;-0.10976466504012494;-0.286581451581324;-1.2648465016707717;1.2;0.039787665532205155
21:04.8;-0.1037132869077621;-0.25719564318477156;-1.274780849315744;1.2690000000000001;0.03400427629658217
21:04.8;-0.09541978404698769;-0.22602136216984445;-1.281194696623224;1.3419999999999999;0.02763141016139783
21:04.8;-0.08504886776135434;-0.19483581833941038;-1.2818449251961312;1.4069999999999998;0.021240895613143133
21:04.8;-0.07319214440088201;-0.1655609018093018;-1.2746670560289617;1.455;0.015446106191987887
21:04.8;-0.06084314045262875;-0.14003010542160188;-1.258153625448827;1.421;0.010719307054741207
21:04.8;-0.04927749316809775;-0.11976514221880598;-1.231647756911446;1.421;0.007268847562048889
21:04.8;-0.03986158246908341;-0.10580051988583916;-1.1955023244583598;1.339;0.005041882988887623
21:04.9;-0.033827406111454905;-0.098582103329564;-1.1510804050585002;1.23;0.0038385962811200883
21:04.9;-0.032053932533531664;-0.09794792926163667;-1.1005998861282906;1.114;0.0034554613602631318
21:04.9;-0.03489434824859748;-0.10318474410693336;-1.0468523526313276;1.003;0.0037692593075071786
21:04.9;-0.04208440225701213;-0.1131453617406173;-0.9928477501575352;0.907;0.004727598371377251
21:04.9;-0.05275313302570483;-0.12640736992305251;-0.9414445434390128;0.836;0.006277914484434521
21:04.9;-0.06553609219064738;-0.14145113182274607;-0.8950202310081229;0.789;0.008296975746537458
21:04.9;-0.07877090131988528;-0.1568345924310317;-0.8552245859179068;0.764;0.01056544641928428
21:04.9;-0.09074054833243576;-0.17134446111595517;-0.822842906932961;0.765;0.012793471296701992
21:04.9;-0.099922498713068;-0.1841077534185251;-0.7977815365946445;0.789;0.014676393426202543
21:04.9;-0.10520157614613806;-0.19465328323050643;-0.7791729245810408;0.823;0.015955772402694093
21:05.0;-0.10601190673951677;-0.20291837680677646;-0.7655815822185652;0.858;0.016469010348351534
21:05.0;-0.10238732279528745;-0.20920220277404902;-0.7552765281140654;0.877;0.01617776150238495
21:05.0;-0.0949172788750571;-0.21407442187374226;-0.7465246246667211;0.878;0.015168903792658851
21:05.0;-0.08462242404345906;-0.21825519900746976;-0.7378573609351345;0.866;0.013627697150675033
21:05.0;-0.07277773784432623;-0.22248721143965577;-0.7282722077534969;0.843;0.011792268029556217
21:05.0;-0.06071914059484466;-0.22742029940902436;-0.7173449572144045;0.8109999999999999;0.00990564803418867
21:05.0;-0.04966901849141168;-0.23352511119592698;-0.7052463297671527;0.7709999999999999;0.008180126131541933
21:05.0;-0.040606868416374425;-0.24104489880987212;-0.6926713323228828;0.73;0.006779921367448434
21:05.0;-0.03419692387368051;-0.24998651772558242;-0.6807019686083984;0.6940000000000001;0.005819164511075121
21:05.0;-0.0307706141544484;-0.2601450466547073;-0.670631818256404;0.674;0.005368288905936938
21:05.1;-0.03035217001464424;-0.2711526169617744;-0.663783489532841;0.67;0.005462984802707931
21:05.1;-0.032711983841190576;-0.2825406224935534;-0.6613465696485771;0.675;0.006112472045016894
21:05.1;-0.03743328799134676;-0.2938047840258496;-0.6642556169711501;0.698;0.0073055358138666366
21:05.1;-0.04398073774578439;-0.30446465060254;-0.673117214562442;0.728;0.009013429878001005
21:05.1;-0.05176248231924303;-0.31411266516492875;-0.6881843962267475;0.758;0.011189363023057943
21:05.1;-0.06018013890120492;-0.322451033242414;-0.7093684363309883;0.7879999999999999;0.013765399471800272
21:05.1;-0.0686644474436693;-0.3293155282093855;-0.736274733847985;0.8140000000000001;0.01664884217704387
21:05.1;-0.07669792810040361;-0.3346846618047132;-0.7682513371687958;0.863;0.01972071998749453
21:05.1;-0.0838283880967384;-0.3386726867857783;-0.8044423020675228;0.863;0.02283842700838878
21:05.1;-0.08967806632895227;-0.3415067823679393;-0.8438419101762749;0.8959999999999999;0.025843222085109616
21:05.2;-0.09395311288050039;-0.3434914508239226;-0.8853510750964132;0.9420000000000001;0.028572130509158754
21:05.2;-0.09645710268274184;-0.34496517231474627;-0.9278415343697164;0.996;0.03087331565305559
21:05.2;-0.09710925324227603;-0.3462550559472654;-0.9702311043848837;1.053;0.032623603602516454
21:05.2;-0.09596301139351436;-0.34763475530757393;-1.0115652202100722;1.111;0.033745894632476625
21:05.2;-0.09321677808261776;-0.3492900767709306;-1.0510923905255107;1.16;0.03422324825441443
21:05.2;-0.0892093584108928;-0.3512958842225748;-1.0883175132274678;1.198;0.03410665243201986
21:05.2;-0.08439814957992423;-0.3536066356598547;-1.123017769745443;1.219;0.033515056769290376
21:05.2;-0.0793235751296713;-0.356060889827019;-1.1552114394221138;1.228;0.032627818170242844
21:05.2;-0.074564486433775;-0.35839754500449456;-1.1850799708106168;1.228;0.031669755843888724
21:05.2;-0.07068643351532315;-0.3602791582462271;-1.212855493147831;1.228;0.030887607419406608
21:05.3;-0.06818146952066645;-0.3613173852948037;-1.2386955019432204;1.238;0.030515449857342662
21:05.3;-0.06739808137716928;-0.36109857820310437;-1.262569743603413;1.2670000000000001;0.030727603465208902
21:05.3;-0.06846512348545683;-0.35921216261698435;-1.2841793609616095;1.3119999999999998;0.03158247162594688
21:05.3;-0.07122368585767241;-0.35528719257920016;-1.3029167349648358;1.328;0.03297012999141017
21:05.3;-0.07519054830585306;-0.3490404884050494;-1.3178633565887425;1.307;0.03458672509377616
21:05.3;-0.07957829296008938;-0.3403329010748872;-1.3278223163523692;1.286;0.0359615595879563
21:05.3;-0.08338551869624798;-0.3292223825011144;-1.3313932018958923;1.2990000000000002;0.036549910951241514
21:05.4;-0.08554920376492052;-0.3159983305555182;-1.3271066743845723;1.4169999999999998;0.035876212963383294
21:05.4;-0.08512913692852153;-0.3011841994496369;-1.3136254450735403;1.4169999999999998;0.033680766535608385
21:05.4;-0.08148144428178473;-0.2855038266170563;-1.2899888947378078;1.4169999999999998;0.03000935239689913
21:05.4;-0.07438135795922535;-0.2698139605925157;-1.2558553409587805;1.421;0.02520392257331848
21:05.4;-0.06407155797495921;-0.2550071074457464;-1.211694925688614;1.3880000000000001;0.01979752311604339
21:05.4;-0.0512306304653196;-0.24189284806977393;-1.1588954596001826;1.311;0.014361406988008465
21:05.4;-0.036870227975671896;-0.23107641626768063;-1.0997526071261996;1.21;0.009369716414611274
21:05.4;-0.022180751735054353;-0.2228611970740023;-1.0373304449004848;1.103;0.005127761817147998
21:05.4;-0.008353906451511935;-0.21719862860095193;-0.9752006238626437;0.991;0.0017694596224877132
21:05.4;0.0035867267695133273;-0.21369734259453518;-0.9170893998246263;0.8859999999999999;0.0007029251616186187
21:05.5;0.012920624995197756;-0.21168990199334842;-0.8664768635159296;0.716;0.002369957917308708
21:05.5;0.019314527761696274;-0.21034358465090297;-0.8262050390668131;0.716;0.003356612475876066
21:05.5;0.02285064833366301;-0.20879302091947521;-0.798158126175037;0.716;0.003808057033471802
21:05.5;0.0240008448812385;-0.20627102363085456;-0.7830652661869707;0.7170000000000001;0.0038767046449494557
21:05.5;0.02355127982916137;-0.20222006974521503;-0.7804443759804862;0.731;0.0037168986897471194
21:05.5;0.02248310928658466;-0.19637360859501926;-0.7886781196601143;0.7559999999999999;0.0034820843296552947
21:05.5;0.021818783560959457;-0.18879945835818535;-0.8052031033025435;0.807;0.0033169331458357066
21:05.5;0.02245251528704426;-0.17990015175290608;-0.8267905691650964;0.873;0.003339581485085372
21:05.5;0.024993767586457452;-0.17036961664232966;-0.849890667789643;0.934;0.003618986255750737
21:05.5;0.02965769546351276;-0.1611110862059874;-0.8710037270619464;0.987;0.004161815663645348
21:05.6;0.03623077431230727;-0.15312695394989492;-0.8870361107063193;1.024;0.004921194832175209
21:05.6;0.04411981741822685;-0.1473971504813746;-0.8955987801517404;1.024;0.005824200102030577
21:05.6;0.05246469418854589;-0.14476601351920335;-0.8952142769150079;1.024;0.006799246097809903
21:05.6;0.060279712186139055;-0.1458546955850524;-0.8854112067218127;0.982;0.007784605339727187
21:05.6;0.06659511032422884;-0.15100783559617612;-0.8667016351135398;0.92;0.008715883997948133
21:05.6;0.07058157380780734;-0.1602756117590279;-0.8404536999048992;0.855;0.009507636616014305
21:05.6;0.0716438489401291;-0.17342816061611427;-0.8086870927292017;0.804;0.010047986409477981
21:05.6;0.06947175223757442;-0.18999632211001716;-0.7738282992923189;0.759;0.010214051777291159
21:05.6;0.06404492994466514;-0.20932995859999332;-0.7384616881629232;0.721;0.00990020326274574
21:05.6;0.05559763756303895;-0.2306648802844026;-0.7051038914431143;0.6940000000000001;0.009042550148616208
21:05.7;0.04455668289779097;-0.2531916040316116;-0.6760185641491544;0.682;0.007626420966120534
21:05.7;0.03146874809880756;-0.27611938633610295;-0.6530808222405122;0.682;0.005674705088285691
21:05.7;0.016932750573425814;-0.2987260956545312;-0.6376951974297562;0.682;0.0032256245812969497
21:05.7;0.0015474535125420338;-0.3203858786534091;-0.6307649548838582;0.69;0.000312722070629368
21:05.7;-0.014124056001793237;-0.34057564723545397;-0.6327042812908233;0.705;0.0030435034240951972
21:05.7;-0.029576762507877746;-0.3588692245940142;-0.6434820848243088;0.727;0.006830040998729812
21:05.7;-0.044376446922017365;-0.37492777039892794;-0.6626878542239224;0.76;0.011025775537033674
21:05.7;-0.058164491068886826;-0.3884911353612896;-0.6896123533873797;0.8059999999999999;0.01558274911569338
21:05.7;-0.07065651724374117;-0.39937203039770414;-0.723335811500445;0.8490000000000001;0.020411261180454728
21:05.7;-0.08163784563570131;-0.407453534340018;-0.762814329233969;0.888;0.02537397264532155
21:05.8;-0.0909597435148749;-0.4126900038975433;-0.8069534830115088;0.9790000000000001;0.03029156259993522
21:05.8;-0.09853919943384486;-0.4151113034036174;-0.8546570835784436;0.9790000000000001;0.03495952195837221
21:05.8;-0.10436139623507236;-0.41482921893057423;-0.9048408858007626;0.9790000000000001;0.03917251322365017
21:05.8;-0.1084820988862007;-0.4120435095576154;-0.9564118251579719;1.004;0.042750981894992164
21:05.8;-0.111028905813022;-0.40704453957663095;-1.00823135732944;1.053;0.04556571542114706
21:05.8;-0.11220201590132511;-0.4002089012911973;-1.0590917718543986;1.1179999999999999;0.047557716937292355
21:05.8;-0.1122737196222506;-0.3919834124707828;-1.1077271798838728;1.178;0.04875044814976444
21:05.8;-0.11158286658534264;-0.3828536673773317;-1.1528635585038975;1.228;0.04925022710264977
21:05.8;-0.11051845408449433;-0.37329748217613923;-1.1932975258428007;1.273;0.049230993751701826
21:05.8;-0.10948596931801297;-0.363729301721707;-1.2279871995902096;1.31;0.04890244759276699
21:05.9;-0.10885257110878695;-0.3544462545203548;-1.2561381536940643;1.368;0.04846480727144057
21:05.9;-0.10887525793499969;-0.34558923717829065;-1.2772676259562856;1.368;0.04805862156542479
21:05.9;-0.10962797726875914;-0.33713254827131234;-1.29123003424737;1.368;0.047722776578335985
21:05.9;-0.11095006007433521;-0.32891069925358823;-1.2981922109119035;1.3559999999999999;0.047374489357788124
21:05.9;-0.11243513535864584;-0.3206798645741051;-1.2985598235135705;1.314;0.04682046262596584
21:05.9;-0.11347285911152989;-0.3121983040803849;-1.2928716005205179;1.275;0.04580131350233928
21:05.9;-0.11334667186831959;-0.3033037525229157;-1.2816892371984236;1.262;0.04406251616135778
21:05.9;-0.11137421260880158;-0.29397076717636206;-1.2655141292219882;1.2770000000000001;0.04143389782907164
21:05.9;-0.10705833802032294;-0.28434074153634536;-1.244753459809854;1.294;0.03789159884776249
21:05.9;-0.10020978612436597;-0.27472254687747016;-1.2197391132046267;1.297;0.03357928076851131
21:05.9;-0.09101223801327003;-0.26556354093760226;-1.1907830371754742;1.24;0.028780668954820073
21:05.9;-0.08001974515403247;-0.2573952558712371;-1.1582430214493349;1.24;0.02385598725826456
21:05.9;-0.06809413883739543;-0.25076436217463444;-1.1225758731086952;1.183;0.019168637824418053
21:06.0;-0.05629810078758454;-0.24616121418643627;-1.0843638068574843;1.119;0.015027556973520291
21:06.0;-0.045759611281248204;-0.24395514292020287;-1.044309419738769;1.056;0.01165793152358606
21:06.0;-0.03752359496822285;-0.24434275367786712;-1.0032051573779286;1.003;0.009198005387731105
21:06.0;-0.03240911471480852;-0.24731409863002562;-0.9618920286177632;0.9620000000000001;0.007709786799783278
21:06.0;-0.030891340927841286;-0.25263954763577673;-0.9212243346234764;0.932;0.007189579611832476
21:06.0;-0.033025089786031796;-0.2598777546769749;-0.8820519407986478;0.9129999999999999;0.007570198593357363
21:06.0;-0.038422584153119055;-0.26840426588221195;-0.8452225502923304;0.9009999999999999;0.008716598854939727
21:06.0;-0.04629265511846091;-0.2774606110784148;-0.811596845059158;0.8959999999999999;0.010424465083983175
21:06.0;-0.055540490926255175;-0.2862224085375889;-0.7820617632470291;0.895;0.012432383518106464
21:06.0;-0.06491578822508205;-0.29388088045723937;-0.7575233069701085;0.883;0.014451657705797814
21:06.1;-0.07318504060705627;-0.2997277866302938;-0.7388614592992327;0.8490000000000001;0.016207362212066267
21:06.1;-0.07929511167461194;-0.3032325041016364;-0.7268377181622949;0.802;0.017476707742431485
21:06.1;-0.08249500085490506;-0.3041020347090629;-0.7219606882131694;0.753;0.018111753866033198
21:06.1;-0.08239338758798839;-0.3023175857448013;-0.7243329615694436;0.715;0.018042388022011965
21:06.1;-0.078948144436208;-0.2981431090217244;-0.7335159126555819;0.7;0.017265384028548582
21:06.1;-0.07240223022318158;-0.2921025282062015;-0.7484523809253758;0.71;0.015828925470392316
21:06.1;-0.06319075891902003;-0.2849255627253911;-0.7674789695747948;0.743;0.013818199856846562
21:06.1;-0.051845513580810805;-0.2774676944970937;-0.7884421697471263;0.804;0.011342099450203005
21:06.1;-0.038918466373642054;-0.2706156194902425;-0.8089105825622062;0.8759999999999999;0.008519401674309663
21:06.1;-0.024936540262332635;-0.2651925907897229;-0.8264544269710354;0.941;0.0054653313217242925
21:06.2;-0.010387846897618824;-0.2618777049492032;-0.8389477889399167;0.99;0.002282227846498663
21:06.2;0.0042701374815819725;-0.2611502138885289;-0.8448423217075159;1.012;0.0009421236480432726
21:06.2;0.018593439501281582;-0.2632647325645017;-0.8433653071447619;0.9940000000000001;0.004128270545283985
21:06.2;0.032136359716140234;-0.2682567512773606;-0.8346096472175891;0.948;0.0071949990537099875
21:06.2;0.0444450556707149;-0.275972686302234;-0.8195054966284638;0.893;0.01005174416202621
21:06.2;0.055063634450839324;-0.28611626614887625;-0.7996870590721861;0.848;0.012598750932121107
21:06.2;0.06355387611800438;-0.298302329008248;-0.7772859727991783;0.8109999999999999;0.014735996767070207
21:06.2;0.06952653754244681;-0.3121088949426406;-0.7546900141067779;0.765;0.016376660707545114
21:06.2;0.07267847351137449;-0.32711878811315;-0.7343041858066072;0.765;0.017457710589572493
21:06.3;0.07282757359560303;-0.3429441969672591;-0.7183441859602522;0.758;0.01794121622561413
21:06.3;0.0699387285130692;-0.3592322605086585;-0.7086805662231113;0.7609999999999999;0.01780506597318005
21:06.3;0.06413795751641525;-0.37565543914814564;-0.7067382018903563;0.7759999999999999;0.017027989521884064
21:06.3;0.055715439184774035;-0.39189369148587844;-0.7134458663590801;0.7959999999999999;0.015577754555175651
21:06.3;0.04511934312746402;-0.4076155214246366;-0.7292264905591638;0.8220000000000001;0.013411455661265366
21:06.3;0.03294115096701643;-0.4224637127923928;-0.7540175329071777;0.8540000000000001;0.010493240465317348
21:06.3;0.019891255706115836;-0.4360500795433831;-0.7873116222879287;0.889;0.006828813201044577
21:06.3;0.006762786433618106;-0.4479615835114821;-0.8282103140926989;0.924;0.0025090370742790187
21:06.4;-0.005617316272785596;-0.45777776801130426;-0.8754865694117441;1.043;0.002251298397103243
21:06.4;-0.01644692290524953;-0.46509677483967465;-0.9276505023440179;1.043;0.007095979770577021
21:06.4;-0.025008135708067328;-0.4695649477669707;-0.9830097509310263;1.043;0.011543428395206695
21:06.4;-0.030716970680243934;-0.4709049756490524;-1.0397215495063594;1.11;0.015039337579848003
21:06.4;-0.03315798455688328;-0.46893889344418904;-1.0958490507715295;1.186;0.017039432051384376
21:06.4;-0.03210410411719316;-0.46360137774324733;-1.149440702544657;1.261;0.017107708627399198
21:06.4;-0.027522757530150665;-0.454936965107763;-1.1986380234791512;1.325;0.015008290267438247
21:06.4;-0.019568219317643267;-0.44307850956404377;-1.2417970929490347;1.371;0.010766700496633658
21:06.4;-0.008560498812241132;-0.4282141927293576;-1.277597614731328;1.405;0.004683324184197139
21:06.4;0.005045960972215518;-0.41055873809207344;-1.305113760036469;1.4080000000000001;0.0027037563693255583
21:06.5;0.020696071981828955;-0.39034323838279894;-1.323831392762843;1.354;0.010694666903503895
21:06.5;0.03776079631902069;-0.36782831407967065;-1.333614518524799;1.354;0.01852322558336022
21:06.5;0.05555209874660942;-0.3433353193736771;-1.334642678727178;1.354;0.02545563656156886
21:06.5;0.07333104384096718;-0.3172841835139902;-1.3273481889742251;1.3659999999999999;0.030883118789119233
21:06.5;0.09032037577477528;-0.2902227630018628;-1.3123724493582611;1.367;0.03440125709052486
21:06.5;0.10573167334908418;-0.2628325806261867;-1.2905428741509548;1.351;0.03586383616803901
21:06.5;0.11881029864049304;-0.23590272812094096;-1.262858406372824;1.3230000000000002;0.03539498318924784
21:06.5;0.128893214115727;-0.2102750181883053;-1.23046724828329;1.2819999999999998;0.03334938206025822
21:06.5;0.13546818828313753;-0.18677226112071;-1.1946241880066524;1.2329999999999999;0.030226022621253075
21:06.5;0.13822016505751578;-0.16612377959034413;-1.156622783161344;1.181;0.026557974740468532
21:06.6;0.13705382967518798;-0.14889986604805686;-1.1177067961289855;1.04;0.022809374413407555
21:06.6;0.13209046016467202;-0.1354639132903916;-1.0789762895871335;1.04;0.019306652140920876
21:06.6;0.12364702880544981;-0.12594830062768053;-1.0413133008162363;1.04;0.016216510690421345
21:06.6;0.11220872913374699;-0.12025584829049951;-1.0053480320365922;1.01;0.013565920946465311
21:06.6;0.09840105722266136;-0.11808323242892432;-0.971467264538051;0.9890000000000001;0.01128797836611581
21:06.6;0.08296110900852702;-0.11895962967221567;-0.9398499509310183;0.9690000000000001;0.009275400598876021
21:06.6;0.06670532518154056;-0.12229434912163446;-0.910512213480387;0.94;0.007427671212561895
21:06.6;0.05049147832658406;-0.12742929877473905;-0.8833486578523031;0.904;0.005683548014300555
21:06.6;0.03517424838510295;-0.13369375055311797;-0.8581624368443316;0.867;0.004035575100382479
21:06.6;0.02155581146978872;-0.14045921737791192;-0.8346829856798776;0.8370000000000001;0.0025271800333177418
21:06.7;0.010334895226861433;-0.14719125503309058;-0.8125770377060744;0.7909999999999999;0.0012360972269862937
21:06.7;0.002059282768944793;-0.15349311159477427;-0.7914633430737478;0.7909999999999999;0.0002501702605373488
21:06.7;-0.002912782386952008;-0.15913492346523994;-0.7709424012450989;0.7909999999999999;0.00035735138662443586
21:06.7;-0.004438648592908093;-0.16406372457752266;-0.7506469263496632;0.7809999999999999;0.0005466370206782207
21:06.7;-0.002604540696283307;-0.16839358057188666;-0.7303085644798566;0.7709999999999999;0.00032030452418000907
21:06.7;0.002272462359565887;-0.17237858553853713;-0.7098290520564122;0.758;0.0002780569671482507
21:06.7;0.009654043988219004;-0.17637261415372882;-0.6893432345235038;0.745;0.0011737509125249854
21:06.7;0.018805369434916175;-0.18077972566638661;-0.6692636903094729;0.732;0.002275248603259163
21:06.7;0.0288401743752326;-0.18599934678091176;-0.6502986298964167;0.7140000000000001;0.0034883667631419356
21:06.7;0.03879018012319717;-0.19237136960455858;-0.6334362017684595;0.693;0.004726776999036174
21:06.8;0.04769796683804042;-0.20012737767717823;-0.6198913015083488;0.645;0.005917277194949932
21:06.8;0.054723704486843244;-0.20935339562812275;-0.6110177891895421;0.645;0.007000182343825429
21:06.8;0.05924643682060075;-0.21996679054894644;-0.6081977032954016;0.645;0.007926183642290776
21:06.8;0.06093827529741733;-0.2317085443651694;-0.6127222437586543;0.643;0.008651588491374188
21:06.8;0.05979784351686552;-0.24415331892970185;-0.6256749747666205;0.647;0.009134755749595342
21:06.8;0.05613932737258603;-0.2567398703626167;-0.6478238158862413;0.6609999999999999;0.009337216575951381
21:06.8;0.05053976851090043;-0.2688212351878562;-0.6795297981276045;0.691;0.009232202598821872
21:06.8;0.043752896207794274;-0.27973031746799004;-0.7206828104013111;0.735;0.008820445237757837
21:06.8;0.03660406087845571;-0.28885407731213486;-0.7706734780012755;0.7909999999999999;0.008148509657121028
21:06.8;0.029883753343743154;-0.29570729217602415;-0.8284070386932133;0.852;0.007320503588289847
21:06.9;0.024254896001793196;-0.29999444016942545;-0.8923600484968853;1.031;0.006493109714204228
21:06.9;0.02018428236602703;-0.3016483924335402;-0.960669790759917;1.031;0.0058490921337810585
21:06.9;0.017904162173212484;-0.30083925093011155;-1.0312334335090145;1.031;0.005554506590571125
21:06.9;0.017406303678844097;-0.29795278324532143;-1.1017983193652887;1.112;0.00571420883556328
21:06.9;0.0184671685270116;-0.29354157630370237;-1.1700485181329399;1.194;0.0063426946694254225
21:06.9;0.02069906830141933;-0.28825418393457214;-1.233706695945932;1.273;0.007361025787198568
21:06.9;0.023618873175492903;-0.2827504131046074;-1.2906588343879593;1.3430000000000002;0.00861933738840556
21:06.9;0.026723839628362427;-0.2776133382544407;-1.3390911626955981;1.4040000000000001;0.009934575834551339
21:06.9;0.02956405237310394;-0.27326897140020256;-1.3776208376422068;1.456;0.011129713586124815
21:06.9;0.03180268126232954;-0.26992345103664117;-1.4054020817233903;1.4880000000000002;0.012064378303265184
21:06.9;0.03325802033559809;-0.267526446894465;-1.4221918127881046;1.5090000000000001;0.012653809450924782
21:06.9;0.03392443763177212;-0.2657682224939648;-1.4283621374409763;1.5090000000000001;0.012878166578326754
21:07.0;0.03397196426875974;-0.2641154140058582;-1.424851712135125;1.5019999999999998;0.012784509639850393
21:07.0;0.03372444175035583;-0.2618856541370579;-1.4130537906003329;1.465;0.012480016876582744
21:07.0;0.03361358407407028;-0.2583531441946868;-1.394646476720206;1.392;0.012111354252722577
21:07.0;0.03410556112305066;-0.25286889438625937;-1.3713821401217485;1.314;0.01182712258299448
21:07.0;0.03560356055179371;-0.24497551895622435;-1.3448675506961112;1.26;0.011729935749329191
21:07.0;0.038342700386835536;-0.23449788162015112;-1.3163772827140336;1.2409999999999999;0.011835919388744507
21:07.0;0.042303743623963566;-0.22159317571414328;-1.2867411641971198;1.245;0.012062195906883795
21:07.0;0.04717254827749254;-0.2067462947732524;-1.2563291179142464;1.258;0.012252663266255345
21:07.1;0.052362774080769836;-0.19070465133840248;-1.225130414686203;1.244;0.012233937401554639
21:07.1;0.057101904254257915;-0.17436489297998362;-1.1929011177911462;1.244;0.011877200409747102
21:07.1;0.06056098344265016;-0.15864295116518368;-1.1593420819527351;1.244;0.011138463845258663
21:07.1;0.061999319346173976;-0.1443611870598403;-1.1242697413653706;1.219;0.010062546224477421
21:07.1;0.06090055140188275;-0.13216991821003857;-1.087747435471971;1.177;0.008755519389056568
21:07.1;0.05708277615261482;-0.12250334705794988;-1.0501539874027552;1.121;0.007343549502862645
21:07.1;0.0507651841828979;-0.11556434481006508;-1.0121790881912933;1.056;0.005938095639136631
21:07.1;0.042575118331297616;-0.11133397701583085;-0.9747493181254436;0.986;0.004620367568163526
21:07.1;0.03348834304808532;-0.10960286919106582;-0.9389005163965859;0.92;0.0034461578086341393
21:07.1;0.024707325052920184;-0.11002094535033842;-0.9056200294144378;0.862;0.0024617679901361217
21:07.2;0.017493346567342843;-0.11216016898224428;-0.8756866742190759;0.7809999999999999;0.0017181469124329708
21:07.2;0.012978974573380467;-0.11558195377033964;-0.8495385554974215;0.7809999999999999;0.0012744227240986243
21:07.2;0.011996094507169803;-0.11989836757573513;-0.8271976701646352;0.7809999999999999;0.0011897684583690863
21:07.2;0.014953363889387178;-0.12481714627213412;-0.8082699967075769;0.79;0.0015085843875674268
21:07.2;0.02178298523009393;-0.1301652592130166;-0.7920209521133428;0.8079999999999999;0.002245686639144571
21:07.2;0.03195960932437797;-0.13589054491953273;-0.7775085542235829;0.8240000000000001;0.0033767264359253857
21:07.2;0.0445819798099106;-0.14204376151572118;-0.7637470733106515;0.8290000000000001;0.0048364986889686
21:07.2;0.0585001254127843;-0.1487460176690605;-0.7498714441616414;0.8270000000000001;0.0065251268669343065
21:07.2;0.07246594483262901;-0.15614927931504252;-0.7352756312949859;0.8240000000000001;0.008320015126779752
21:07.2;0.08528299072822731;-0.16439849487686176;-0.7197050786387703;0.813;0.01009054971223783
21:07.3;0.09593269913468205;-0.17360196584476534;-0.7032923349727551;0.73;0.011712704503856175
21:07.3;0.10366088168082936;-0.1838123529388084;-0.6865366140915258;0.73;0.013081372016350389
21:07.3;0.10801943588325516;-0.19501599600290173;-0.6702407807368672;0.73;0.014118969148134652
21:07.3;0.10886829169726987;-0.2071270497157543;-0.6554236449354768;0.693;0.014779520094095236
21:07.3;0.10634702064516313;-0.21998635206218403;-0.6432187749330943;0.6679999999999999;0.015048034495174448
21:07.3;0.10082622473665002;-0.23336786551481378;-0.6347656973872537;0.657;0.014935783495783039
21:07.3;0.09284884701454894;-0.24699429395114492;-0.6311022432318273;0.655;0.01447315320319097
21:07.3;0.08307027129029892;-0.26056044400354683;-0.6330699941234469;0.6579999999999999;0.013702690356653762
21:07.3;0.07220284698098124;-0.2737611954660192;-0.6412427698911297;0.672;0.012675021140919002
21:07.3;0.060967037148935206;-0.2863210462690367;-0.6558839517932767;0.6920000000000001;0.011449205932626706
21:07.4;0.050049517748208164;-0.29802280001365933;-0.6769341091969147;0.779;0.01009707973196933
21:07.4;0.040068426421777666;-0.30873182784674585;-0.7040239814685328;0.779;0.00870905722413238
21:07.4;0.031546225783073964;-0.31840960112409367;-0.7365014384602425;0.779;0.007397877939432038
21:07.4;0.02488957536018878;-0.32711034785026805;-0.7734632920626696;0.807;0.006297257862579888
21:07.4;0.02037401863821618;-0.33495986184915977;-0.8137952239377542;0.8420000000000001;0.005553727983424811
21:07.4;0.018132347241087032;-0.34212114889034495;-0.8562327534597488;0.9;0.005311605183144763
21:07.4;0.01814918481679152;-0.34875378431405557;-0.8994529197912878;0.976;0.005693174401178074
21:07.4;0.020266452548577375;-0.3549735604163134;-0.9421937678598122;1.045;0.006778193615328016
21:07.4;0.024202555635147047;-0.3608179251044862;-0.9833851562286181;1.104;0.008587623196013293
21:07.4;0.029584418070932927;-0.3662215314753076;-1.0222660089281148;1.147;0.011075690874074121
21:07.5;0.03598874075249807;-0.37100511194050734;-1.0584628076089493;1.203;0.014132602595722032
21:07.5;0.04298713919811287;-0.3748788888057645;-1.0920101697836664;1.203;0.017597712191044394
21:07.5;0.05018833584591384;-0.3774587732304988;-1.1233038786264136;1.203;0.02127989976849081
21:07.5;0.05727124741751996;-0.3782922179378619;-1.1529891852441196;1.214;0.02497981878814089
21:07.5;0.06400667064083705;-0.37689190501843206;-1.181800196430603;1.217;0.028509270528890258
21:07.5;0.07026857231480801;-0.3727769182850282;-1.210374151238052;1.219;0.03170514793145488
21:07.5;0.0760357010492218;-0.3655206652174425;-1.2390662529009182;1.222;0.03443689755612799
21:07.5;0.08138241621600303;-0.3548033205851441;-1.2677904606269703;1.235;0.0366071345182145
21:07.5;0.08645702336945449;-0.3404649050477084;-1.295910818599677;1.253;0.03814588949239215
21:07.5;0.09144635962841681;-0.3225531875400207;-1.322205073590703;1.262;0.03900017706370156
21:07.6;0.09652656403520173;-0.3013590074157121;-1.3449163420741754;1.36;0.0391224725757638
21:07.6;0.10180431339826652;-0.27743275008323925;-1.3618969100593146;1.36;0.03846521290991317
21:07.6;0.10726079067670825;-0.25157935256943603;-1.370832045310173;1.36;0.036991354786214244
21:07.6;0.11271574428865228;-0.22482950154093193;-1.3695217544658995;1.4409999999999998;0.034706180093356055
21:07.6;0.11782525315288407;-0.19838023582141073;-1.3561969954392934;1.504;0.03170002185348282
21:07.6;0.12211737351814947;-0.1734985148242236;-1.3298378574563965;1.5330000000000001;0.02817551796597947
21:07.6;0.12506085331848146;-0.15139276207300187;-1.290440840943581;1.5119999999999998;0.024432313911676693
21:07.6;0.126155077125223;-0.13307270905483162;-1.2391715308953337;1.444;0.020802961191978504
21:07.6;0.12502350216994937;-0.1192266003906709;-1.178352047596505;1.338;0.017564665428502234
21:07.6;0.12148874460814123;-0.11014367416178428;-1.1112625375568073;1.205;0.014870044826132188
21:07.7;0.11560863364228446;-0.10570011309725881;-1.0417735146631237;0.794;0.012730311552492561
21:07.7;0.10766419577395712;-0.10540934377401227;-0.9738728219341967;0.794;0.011052299786665002
21:07.7;0.09811016825806068;-0.10851772998747933;-0.9111946302480427;0.794;0.009701209261927942
21:07.7;0.08751018320470351;-0.11411745646331346;-0.8566560290022567;0.794;0.008554943624752882
21:07.7;0.07647210251917609;-0.12125601072451746;-0.8122475485336769;0.755;0.007531729535355507
21:07.7;0.0655865476149913;-0.12903387543324174;-0.7789617664090108;0.735;0.006592264950785519
21:07.7;0.055368735046755935;-0.13668555060537352;-0.7568250500356819;0.731;0.005727732229513993
21:07.7;0.046208404718481616;-0.1436367017972957;-0.7450071597694624;0.745;0.004944778543548056
21:07.7;0.03833585151804445;-0.14953141532314895;-0.7419913363299067;0.77;0.00425340162450766
21:07.7;0.03181098048386738;-0.1542299151623898;-0.7457858884763973;0.7909999999999999;0.0036589783216700532
21:07.8;0.026538411143610895;-0.15778363644551124;-0.754153749636172;0.833;0.0031578883698618553
21:07.8;0.0223059664974635;-0.1603970050403973;-0.7648345896710093;0.833;0.002736433012088632
21:07.8;0.018837947688426535;-0.1623835277525147;-0.7757368463158585;0.833;0.0023729576035238075
21:07.8;0.015851844131925554;-0.16412073524799586;-0.7850852057505158;0.835;0.0020424904791356622
21:07.8;0.013108937364704022;-0.16600683129266616;-0.7915201689977737;0.836;0.0017224849422493346
21:07.8;0.010452643410028262;-0.16842164893133396;-0.7941545146326425;0.831;0.0013980704579210643
21:07.8;0.007830645348957027;-0.17169415253176323;-0.7925940571306787;0.825;0.0010656237010019535
21:07.8;0.0052985145023864855;-0.17607778889122397;-0.7869297178933419;0.8170000000000001;0.0007341666453149207
21:07.8;0.003005002231561541;-0.18173428796337468;-0.777706916955076;0.8140000000000001;0.00042471503385506197
21:07.8;0.0011623282750466825;-0.18872628278440443;-0.7658765181310881;0.809;0.00016800412414244456
21:07.9;7.302267249591962e-06;-0.19701857853522117;-0.7527290652700953;0.7859999999999999;1.082937993135924e-06
21:07.9;-0.00024004495479259532;-0.20648635061954546;-0.7398125557693167;0.7859999999999999;3.666955409582613e-05
21:07.9;0.000585519737863279;-0.21692695499195103;-0.7288342062176502;0.7859999999999999;9.257288677694833e-05
21:07.9;0.00256379105726718;-0.22807301209857692;-0.7215461894565882;0.767;0.0004219108209077946
21:07.9;0.005668005525814526;-0.23960800156800766;-0.7196140157203302;0.746;0.0009773074183318095
21:07.9;0.009754164765660201;-0.25118753363159596;-0.724469024573468;0.733;0.001775039371889443
21:07.9;0.014561183826445298;-0.26246745614871136;-0.7371550236862087;0.7240000000000001;0.0028172862539147404
21:07.9;0.019721734465177852;-0.27313676152137684;-0.7581881791738251;0.7240000000000001;0.004084155528549248
21:07.9;0.02478283796855199;-0.2829514252980947;-0.7874545023059999;0.7390000000000001;0.0055218981740612644
21:07.9;0.029234648845008784;-0.29176405210050826;-0.8241707819537969;0.7759999999999999;0.007029863262716218
21:08.0;0.032545880392282144;-0.2995424535686974;-0.8669300877890684;0.978;0.008451591209789128
21:08.0;0.03420440184875175;-0.3063696958997002;-0.9138341016315485;0.978;0.00957624318336208
21:08.0;0.03376119013934696;-0.31242114097290796;-0.9626864014806596;0.978;0.010154136544716948
21:08.0;0.030875502910177925;-0.31791945238690195;-1.0112104495295398;1.0759999999999998;0.009925963886497663
21:08.0;0.02535870179634568;-0.3230729783019357;-1.0572721572573844;1.17;0.008661925566025453
21:08.0;0.017212776250358153;-0.32800567643847117;-1.0990981074263888;1.244;0.00620538516437617
21:08.0;0.006658243566202713;-0.3326895062081786;-1.1354680696445452;1.294;0.0025152068464932573
21:08.0;-0.005853605144543586;-0.3368925479549189;-1.1658459923867954;1.314;0.002299090211327183
21:08.0;-0.019647248312880634;-0.3401559002691442;-1.1904171546162021;1.315;0.007955709548299706
21:08.0;-0.03384847035764597;-0.3418096379103108;-1.2100161230819138;1.3;0.013999563949844753
21:08.1;-0.04742613870209765;-0.34103357907997983;-1.2259505229781429;1.238;0.019828408302943468
21:08.1;-0.05924740084704139;-0.3369602640427729;-1.2397459353704738;1.238;0.024750312441948377
21:08.1;-0.06814781772036971;-0.3288055854356829;-1.2528538347813158;1.238;0.02807317584639189
21:08.1;-0.0730231020202373;-0.3160048156330396;-1.2663691765463545;1.208;0.029222294283295834
21:08.1;-0.07294889873228627;-0.29833326110374614;-1.2807968817987516;1.19;0.027874088656104332
21:08.1;-0.06732570405073202;-0.27599513291828864;-1.2958993715440923;1.2;0.024079840528876538
21:08.1;-0.056029558970275575;-0.24966590523711762;-1.310654913243455;1.2429999999999999;0.018334319799667216
21:08.1;-0.03953322372241726;-0.22047549055948576;-1.3233479883948638;1.3130000000000002;0.011534442524277313
21:08.1;-0.01895594584384834;-0.18992602107426226;-1.3317906013356064;1.389;0.004794748973799236
21:08.1;0.003992729149389089;-0.1597488643350711;-1.3336432985689628;1.446;0.000850642969299662
21:08.2;0.027187634364302254;-0.13171833612864134;-1.326779544242451;1.449;0.0047513434429191865
21:08.2;0.0483580497114396;-0.10745183157769214;-1.309628718333028;1.449;0.006805041687732477
21:08.2;0.0653941830099924;-0.08823283197766627;-1.2814433948160935;1.449;0.007393818135053716
21:08.2;0.07662250088687997;-0.07488652187586217;-1.2424551364135616;1.379;0.0071291983647179
21:08.2;0.08100725379223134;-0.06771928877144238;-1.1938998360899205;1.286;0.006549440338360813
21:08.2;0.07826410424770834;-0.06651823567718447;-1.1379107671075754;1.181;0.005923952223990404
21:08.2;0.06888341554516145;-0.07060274290805246;-1.0772980451749308;1.074;0.005239286150806791
21:08.2;0.05406539923199784;-0.07891967596730658;-1.0152503410572808;0.98;0.004331894306437247
21:08.2;0.035576548958829765;-0.0901708986951997;-0.9550013248291528;0.899;0.003063615019458708
21:08.2;0.015543423676015095;-0.10295855857244389;-0.8995004314169509;0.8320000000000001;0.0014394961734273393
21:08.3;-0.0037953192507239634;-0.11593290586938633;-0.8511208653391232;0.7190000000000001;0.0003744952144501364
21:08.3;-0.020349960148557052;-0.12792775624042202;-0.811434114633328;0.7190000000000001;0.002112426506630324
21:08.3;-0.032415947691097506;-0.1380690930126354;-0.7810795022997972;0.7190000000000001;0.0034958310517562152
21:08.3;-0.038849160831500106;-0.14584575373929418;-0.7597487382755777;0.718;0.004304725063945256
21:08.3;-0.039160497194374685;-0.15113785291634707;-0.746285748991534;0.737;0.00441699180850435
21:08.3;-0.03352753743050307;-0.1542027806434735;-0.7388839412683428;0.775;0.0038200591622077774
21:08.3;-0.022730458676940703;-0.15561912111601417;-0.735353380300315;0.807;0.002601161101390685
21:08.3;-0.008025563121598574;-0.15619217510630135;-0.733423054785608;0.8340000000000001;0.000919367919517755
21:08.3;0.009024391250286572;-0.15683355440009075;-0.7310370235667432;0.852;0.001034656697760962
21:08.3;0.02674068445801068;-0.15843558917890027;-0.7266032033316681;0.858;0.0030783824236693402
21:08.4;0.04351673725035865;-0.1617622060583681;-0.7191623999716747;0.777;0.005062445490019498
21:08.4;0.05798080428260102;-0.16737027250427444;-0.7084628375969234;0.777;0.0068751097108322775
21:08.4;0.06911344080349503;-0.17556442684350235;-0.6949469747410814;0.777;0.008432390426030133
21:08.4;0.07630863293782307;-0.18638200124081564;-0.6796693705538541;0.732;0.009666635493133435
21:08.4;0.07937935721079989;-0.1996046807982546;-0.6641616317185184;0.695;0.01052330316768456
21:08.4;0.078517758883967;-0.21479395237550988;-0.6502567373984827;0.6679999999999999;0.010966670757638108
21:08.4;0.07422453628615815;-0.2313447116801541;-0.6398896595424678;0.6459999999999999;0.010987835819812237
21:08.4;0.06722260556318219;-0.2485493382426947;-0.6348964756695588;0.634;0.010607935472677433
21:08.4;0.058367988373807196;-0.26566577908727057;-0.6368335628430293;0.636;0.009874981378618374
21:08.4;0.048566855469625476;-0.2819855382207146;-0.6468346241039368;0.652;0.008858497771052245
21:08.5;0.03870316165168934;-0.2968981982916219;-0.6655177569542817;0.754;0.007647397302961835
21:08.5;0.029578497030277186;-0.30994726837329856;-0.692944541543808;0.754;0.006352759198873079
21:08.5;0.021865250722062836;-0.3208697462370467;-0.7286208439468694;0.754;0.0051119291214991895
21:08.5;0.016073412781729697;-0.3296132380167628;-0.7715269372814078;0.804;0.004087557145809613
21:08.5;0.012528771091305495;-0.33633015728257487;-0.8201757560181625;0.86;0.003456059513724412
21:08.5;0.011358502472482334;-0.34135265734022674;-0.8727069404242952;0.92;0.0033837073503782842
21:08.5;0.012481928787455044;-0.3451515424078926;-0.9270201400256067;0.9890000000000001;0.003993748280562605
21:08.5;0.015608587127656054;-0.348280915214981;-0.9809412430232601;1.06;0.005332566309751094
21:08.5;0.020249695107490976;-0.351310950673009;-1.0324079107808348;1.131;0.007344487560173851
21:08.5;0.02574999032736599;-0.35475348288589426;-1.079655930196304;1.195;0.009862547610323371
21:08.6;0.031343733152627395;-0.3589873318478064;-1.1213839072569296;1.2930000000000001;0.012617815239557687
21:08.6;0.03623175106166802;-0.36419139867900874;-1.1568704304755806;1.2930000000000001;0.015265243247048066
21:08.6;0.03966891909739834;-0.370293481028588;-1.1860180642001898;1.2930000000000001;0.017421587927087697
21:08.6;0.04104930034947146;-0.3769419589070581;-1.2093090719983113;1.2890000000000001;0.01871188558974555
21:08.6;0.039980660031788316;-0.38350605384627356;-1.227677746984535;1.276;0.018823768246060503
21:08.6;0.03634495574088537;-0.38910808163715954;-1.242321829893105;1.262;0.01756905943454237
21:08.6;0.030342092477963163;-0.39268846605563934;-1.2544832648342816;1.2570000000000001;0.014947155244668506
21:08.6;0.02251208759350278;-0.393101852116256;-1.2652291306870012;1.261;0.011196700011874196
21:08.6;0.01372707644603273;-0.3892392960050859;-1.2752606300845246;1.261;0.006813867481563196
21:08.6;0.005139513704904939;-0.38016550703391827;-1.284773803839807;1.2409999999999999;0.002510275639140774
21:08.7;-0.0019277144528806111;-0.3652534589107599;-1.2933921571690787;1.301;0.0009106830721941743
21:08.7;-0.006148876405941343;-0.3442965350489617;-1.3001857151234975;1.301;0.002752541059071269
21:08.7;-0.006392613107013925;-0.31758165632907276;-1.3037794119192723;1.301;0.002646902530297832
21:08.7;-0.0019040342706830521;-0.2859101400687887;-1.3025417565301651;1.36;0.0007090812048302056
21:08.7;0.0075649152921407285;-0.25055498368607343;-1.294836757614919;1.411;0.0024542688456920753
21:08.7;0.021697042641134135;-0.21315121369321463;-1.2793095037511129;1.4409999999999998;0.005916487871615744
21:08.7;0.03963352616552178;-0.17553260493817507;-1.2551563616454373;1.433;0.00873209279808161
21:08.7;0.060078621473570515;-0.1395436400564161;-1.2223204054110595;1.3730000000000002;0.010247432553101683
21:08.7;0.08146744920080899;-0.106859985566597;-1.1815642288800514;1.278;0.010286237893257902
21:08.7;0.10216418307188474;-0.07884444439284606;-1.1344015184193743;1.18;0.009137692999093436
21:08.8;0.12065402570807648;-0.056454477579398324;-1.0829042663214703;0.953;0.007376159082183492
21:08.8;0.13569895708938357;-0.040205850365562804;-1.029436061364995;0.953;0.005616491934137015
21:08.8;0.146439381562457;-0.030186206905731802;-0.9763819559197637;0.953;0.004316047100531394
21:08.8;0.15243679769460425;-0.026105107267442827;-0.9259338619578344;0.903;0.0036846417242960743
21:08.8;0.1536629708457606;-0.027365749022534774;-0.8799511606456308;0.865;0.0037002846444343976
21:08.8;0.1504468832198955;-0.03314671776925846;-0.8398839292087369;0.833;0.004188350292790662
21:08.8;0.14339257737709293;-0.0424860177586844;-0.8067403095213885;0.81;0.004914806847214475
21:08.8;0.13328084244539243;-0.05436261927425451;-0.7810853628014459;0.7859999999999999;0.00565935063314515
21:08.8;0.12096710350852412;-0.06777299354957163;-0.7630617819048002;0.769;0.006255811486539022
21:08.8;0.10728739777623061;-0.08180152424674117;-0.7524240657156687;0.76;0.006603478764613639
21:08.9;0.09298321616363427;-0.09568318178305052;-0.7485802253731756;0.759;0.006660065845783196
21:08.9;0.07865331102693889;-0.10885350463882278;-0.7506381524887287;0.759;0.006426730080407444
21:08.9;0.06473620371993842;-0.12097716890924033;-0.757456386150094;0.759;0.005932097442524676
21:08.9;0.05152146702360137;-0.1319477055913278;-0.767701027559925;0.7659999999999999;0.0052189385740587695
21:08.9;0.03918233240056232;-0.1418583151169457;-0.7799119374823572;0.777;0.004335015450838704
21:08.9;0.027819101981169134;-0.15095128481520825;-0.7925816442555472;0.7929999999999999;0.0033283112313769844
21:08.9;0.017502805674364245;-0.15955655429103918;-0.8042490701214384;0.8170000000000001;0.0022460162154979224
21:08.9;0.008310083611691478;-0.16802929790220117;-0.8136071012910837;0.845;0.0011360701178250523
21:08.9;0.00034272018949479185;-0.17669418132059939;-0.8196182874051307;0.873;4.963334866886809e-05
21:08.9;-0.0062710012555310425;-0.18580156666353945;-0.8216271994249698;0.899;0.0009573286741229386
21:09.0;-0.011391314530811568;-0.19549876527806068;-0.8194531933415063;0.894;0.0018249123672213678
21:09.0;-0.014892310213114362;-0.20581643644769315;-0.8134466309702792;0.894;0.002493280804315656
21:09.0;-0.016689293192888123;-0.2166668134196778;-0.8044960641006058;0.894;0.002909070619073233
21:09.0;-0.016760927744128427;-0.22785014279864071;-0.7939800006349457;0.865;0.0030321935680995104
21:09.0;-0.015162511853928275;-0.23906924567359944;-0.7836617948749868;0.8320000000000001;0.0028406880163381336
21:09.0;-0.012029862104955456;-0.24995431601910786;-0.7755326199882068;0.8029999999999999;0.002331961408082543
21:09.0;-0.007574681868065134;-0.2600979526776893;-0.7716170260335244;0.777;0.0015202084182638705
21:09.0;-0.0020729151137441498;-0.26909721543512666;-0.7737638613318663;0.768;0.00043161761829215497
21:09.0;0.004151837739713077;-0.2765984206751154;-0.7834481216452303;0.7709999999999999;0.0008997053686198384
21:09.0;0.010747270110518152;-0.28234083088545725;-0.8016069294619153;0.784;0.002432390593991641
21:09.1;0.017350888448445814;-0.2861955045465487;-0.8285268541330928;0.8690000000000001;0.004114254138682673
21:09.1;0.023605806514919624;-0.2881946814403007;-0.8637900780485323;0.8690000000000001;0.005876422542557096
21:09.1;0.029173086957766513;-0.2885460625615659;-0.9062769662760621;0.8690000000000001;0.007628839554239355
21:09.1;0.03374218749115041;-0.2876267817324287;-0.954222069473697;0.9329999999999999;0.009260874803105971
21:09.1;0.037042845303500695;-0.2859538144769011;-1.0053296342842775;1.011;0.010648997293483863
21:09.1;0.03886147081144323;-0.28412967547309287;-1.056956621824043;1.102;0.011670594855516758
21:09.1;0.03906250298433055;-0.2827649252704126;-1.1063564538139616;1.199;0.012220266558034057
21:09.1;0.03761184122034824;-0.28238392585677324;-1.150955780399786;1.2790000000000001;0.012224277613799406
21:09.1;0.03459777835548198;-0.2833268914124712;-1.1886225559888517;1.3319999999999999;0.01165145001083553
21:09.1;0.030245906245381652;-0.2856670302771897;-1.2178809574385898;1.358;0.01052280594759629
21:09.2;0.02492688215909051;-0.28916329963785214;-1.2380374768641542;1.331;0.00892369922553975
21:09.2;0.01915642487103603;-0.2932630327046215;-1.2492013662894195;1.331;0.007017852445458117
21:09.2;0.013583677082571822;-0.297155231329457;-1.2522047619526513;1.331;0.005054475317207809
21:09.2;0.008960028322604197;-0.2998644503620584;-1.2484420207720472;1.296;0.0033543064910405065
21:09.2;0.006079849627132362;-0.3003730800702482;-1.2396507251203621;1.238;0.0022638788631194604
21:09.2;0.005688762435242298;-0.29775977241299684;-1.2276589276667464;1.182;0.0020795125614845216
21:09.2;0.00836455830505241;-0.2913382912036107;-1.2141320174148038;1.151;0.002958737889012752
21:09.2;0.014389492534527995;-0.280777463563232;-1.200360615595223;1.147;0.004849751234401544
21:09.2;0.02364388533580677;-0.2661810355073183;-1.187127545246871;1.159;0.007471251170937885
21:09.2;0.03555299039805798;-0.24810594780827172;-1.1746757959152743;1.18;0.010361707572123229
21:09.3;0.04911059273825717;-0.22750422936360631;-1.1627763598170986;1.203;0.012991546263748356
21:09.3;0.06298452918046095;-0.2055941258736898;-1.150872000422484;1.203;0.014902928354277251
21:09.3;0.07568607424849452;-0.18369295760471016;-1.138257989896747;1.2009999999999998;0.01582519949971881
21:09.3;0.08577025758326781;-0.16305486550928697;-1.1242599052407576;1.2009999999999998;0.015723064625788225
21:09.3;0.09203541193527026;-0.1447418459575804;-1.108379285118583;1.192;0.014765136561465615
21:09.3;0.09369823959488538;-0.12953525649934444;-1.0903899414880227;1.171;0.013234308602183682
21:09.3;0.09052398247685742;-0.11788616786184697;-1.070375475565317;1.141;0.011422539068385014
21:09.3;0.08289060423715511;-0.10990456022828118;-1.04870487611095;1.094;0.009553759525641541
21:09.3;0.0717685605234734;-0.10538891559603196;-1.0259508159998556;1.034;0.0077598926387778535
21:09.3;0.058607234073951395;-0.10389432909821066;-1.0027642834139778;0.971;0.00610579087351798
21:09.4;0.04513503880087315;-0.10483028821836568;-0.9797288335690446;0.883;0.0046356057145633366
21:09.4;0.03310308213072303;-0.10757182548286773;-0.9572268109893899;0.883;0.003408645402661044
21:09.4;0.02402497884489673;-0.11156316457902649;-0.9353532900207546;0.883;0.0025070299195891067
21:09.4;0.018968537692730082;-0.11639502908992946;-0.9139037818770442;0.892;0.002017756521279393
21:09.4;0.01843299479117644;-0.12184460615805856;-0.8924403065756593;0.9179999999999999;0.002004386115047694
21:09.4;0.022319052110241346;-0.12787483857634116;-0.8704188289916164;0.934;0.0024842146684906164
21:09.4;0.029984269750087916;-0.1345957216596952;-0.8473470504825629;0.9279999999999999;0.0034196846088787457
21:09.4;0.04036833543808168;-0.1421980006832988;-0.8229358072969789;0.9059999999999999;0.004723895608586894
21:09.4;0.052164758618838555;-0.15087763503647914;-0.7972107951536288;0.88;0.006274443906178991
21:09.4;0.06400932245499653;-0.16077147851688786;-0.7705630379417419;0.847;0.007929766677848064
21:09.5;0.07465462289903829;-0.17191829161150293;-0.7437318889172551;0.738;0.009545423380486995
21:09.5;0.0831059194601592;-0.18424714742692186;-0.7177313648588698;0.738;0.010989923182122397
21:09.5;0.08870500250458371;-0.19758386881201345;-0.6937454525733175;0.738;0.012159052868341754
21:09.5;0.09116071248644973;-0.2116634369815625;-0.6730190860003592;0.7090000000000001;0.01298616555510478
21:09.5;0.09053272014922158;-0.22614322268624126;-0.6567569887139783;0.684;0.01344602298035603
21:09.5;0.0871797155659988;-0.24061901303484137;-0.646030152042271;0.6709999999999999;0.01355183723935111
21:09.5;0.08168587288016242;-0.25464664139065324;-0.6416904731816132;0.667;0.013347824822655462
21:09.5;0.07477940606988562;-0.26776968704395476;-0.6442995459488288;0.6659999999999999;0.012901233861151716
21:09.5;0.0672537210956252;-0.2795522890015502;-0.6540794581844205;0.672;0.012297303204101034
21:09.5;0.05989675914996932;-0.289615641341159;-0.6708931357916538;0.693;0.01163800893216719
21:09.6;0.053429592196110334;-0.29767577678523666;-0.6942600491846638;0.805;0.011041994583105891
21:09.6;0.04845334635349272;-0.3035782081672681;-0.7234052066074208;0.805;0.010640842125495766
21:09.6;0.04540503926184606;-0.30732323700959074;-0.7573268887398068;0.805;0.010567757310574785
21:09.6;0.04452499024749751;-0.3090766050581601;-0.7948659663301383;0.846;0.010938653574474702
21:09.6;0.04583828342403969;-0.30916330864509545;-0.8347723023635046;0.8909999999999999;0.011829988510045375
21:09.6;0.04915197636006907;-0.30804480577923926;-0.8757751081407652;0.9309999999999999;0.013260120555959765
21:09.6;0.05406986733621419;-0.3062808874274148;-0.9166620103081365;0.978;0.015180442592979564
21:09.6;0.06002617829306961;-0.30447908991542155;-0.956363544587502;1.033;0.017479185028941777
21:09.6;0.06633792398155404;-0.30323667922524766;-0.9940341569085606;1.089;0.019996082327721536
21:09.6;0.07227390271433995;-0.3030814045144478;-1.0291169312991344;1.126;0.02254267871239195
21:09.7;0.0771356714520477;-0.30441726661598656;-1.0613766542292467;1.169;0.024922641888021388
21:09.7;0.08034163054026079;-0.30748076623304543;-1.0908870958378918;1.169;0.02694873604709492
21:09.7;0.08150140567452613;-0.3123113247225803;-1.1179651966648632;1.169;0.028456475908224785
21:09.7;0.08046816841162054;-0.31873777960151883;-1.1430563807409793;1.159;0.029317390477118725
21:09.7;0.07736172934560186;-0.32638207235732875;-1.1665883995777246;1.147;0.029455752265707208
21:09.7;0.07256076934961843;-0.3346804124679368;-1.188821595629593;1.155;0.028870138016597793
21:09.7;0.06666612740740975;-0.3429204873912769;-1.209727577404261;1.18;0.027655800990432612
21:09.7;0.06044030597429545;-0.35029224984296115;-1.2289235548908806;1.228;0.026018487786860483
21:09.7;0.05473127416060112;-0.3559505539486855;-1.2456758764302955;1.285;0.02426779323070384
21:09.7;0.0503879161610585;-0.35908819162297595;-1.2589682624113834;1.318;0.022779401218063232
21:09.8;0.048169970189534124;-0.3590147053853052;-1.2676162996337585;1.321;0.02192181105819113
21:09.8;0.048654719909551;-0.35523138473693533;-1.2704067543757076;1.321;0.02195730829377421
21:09.8;0.05215110003757239;-0.3474912309459419;-1.266247252271842;1.321;0.022946995951226977
21:09.8;0.05864001341423965;-0.33583524055327957;-1.2543201373058261;1.35;0.024701806882397218
21:09.8;0.06775671120404264;-0.3205991579167272;-1.2342346374158453;1.3659999999999999;0.02681096374979262
21:09.8;0.07882070841006925;-0.30238683985433606;-1.2061618561425145;1.3559999999999999;0.028748077722158243
21:09.8;0.09090941663898994;-0.2820104504399173;-1.170925146170074;1.321;0.030019482824184138
21:09.8;0.10296499127834649;-0.26040445023137815;-1.1300149838896711;1.256;0.03029857415618594
21:09.8;0.11391881343089;-0.23852666199541642;-1.0855067656875381;1.172;0.029496121801148457
21:09.8;0.12281563217324562;-0.21726287143747722;-1.0398776331524868;1.0859999999999999;0.0277473428310271
21:09.9;0.12892051919239145;-0.19735081317722905;-0.9957395843840375;0.8690000000000001;0.025334173378302256
21:09.9;0.13179530384238516;-0.17933513589850594;-0.9555304080579876;0.8690000000000001;0.022584466407608597
21:09.9;0.13133553834153291;-0.16355771930929885;-0.9212240291873011;0.8690000000000001;0.019788759125064035
21:09.9;0.12776370118072528;-0.15017937509303975;-0.8941175663667196;0.8320000000000001;0.017155856487252267
21:09.9;0.1215793316245743;-0.13922220766198543;-0.8747215080120077;0.816;0.01480601117888931
21:09.9;0.11347292536128742;-0.13061898697429022;-0.862750629151072;0.821;0.012787447012481822
21:09.9;0.1042180097246613;-0.12425729013852872;-0.857203897099512;0.845;0.011100659719857449
21:09.9;0.09456228461377883;-0.12001070875674658;-0.8565189676046738;0.8759999999999999;0.009720194196232523
21:09.9;0.08513999336200201;-0.11775499672129378;-0.8587798441317916;0.91;0.008609834422265006
21:09.9;0.07642177598071381;-0.11737146291963672;-0.8619488034990358;0.9329999999999999;0.007731452907576806
21:10.0;0.06870672293357283;-0.11874214419971593;-0.8640914884175236;0.9329999999999999;0.0070495898297922585
21:10.0;0.062148554225564714;-0.12174161888913926;-0.8635686551138333;0.9329999999999999;0.006533817097320032
21:10.0;0.05679909088582452;-0.12622949733519578;-0.8591775941009154;0.9329999999999999;0.006160063374196235
21:10.0;0.05265102455628729;-0.13204648805012048;-0.8502359488783716;0.9059999999999999;0.005911165859107333
21:10.0;0.04966762885421279;-0.13901562094636094;-0.8366074560420121;0.873;0.005776419985031468
21:10.0;0.047795286587397796;-0.14694792663560297;-0.8186749667110378;0.841;0.005749896715911447
21:10.0;0.04696186240118163;-0.15564922288929126;-0.7972724922758613;0.81;0.0058277249817557525
21:10.0;0.04706817420750615;-0.16492417273473345;-0.7735920030125216;0.7809999999999999;0.006005146932690197
21:10.0;0.04798033983883518;-0.17457643645368304;-0.7490798855922856;0.758;0.006274470465560304
21:10.0;0.04952825275738575;-0.184407340825235;-0.7253338133696279;0.745;0.006624744547510762
21:10.1;0.05151161326422724;-0.194216888382414;-0.7040059436132183;0.718;0.007043174834024615
21:10.1;0.053711688503450566;-0.2038085151519447;-0.6867148057055108;0.718;0.0075173979496178335
21:10.1;0.05590584278999943;-0.21299474957226877;-0.6749663459703653;0.718;0.008037263674221607
21:10.1;0.05788307982286275;-0.22159991193939896;-0.6700821835908779;0.718;0.008595067371824737
21:10.1;0.05946072788631416;-0.2294600579910264;-0.6731296122488271;0.711;0.009184087584070527
21:10.1;0.06050286000037338;-0.23642461026285522;-0.684847470166598;0.708;0.009796308247907892
21:10.1;0.06093932812546028;-0.2423639850086324;-0.7055678746704273;0.708;0.010420883601846759
21:10.1;0.06078158596669773;-0.2471844762214823;-0.7351430809286277;0.7190000000000001;0.011044984086665877
21:10.1;0.06012967284477341;-0.25084875008052115;-0.7728945773846656;0.7340000000000001;0.01165791924514876
21:10.1;0.05916484236759183;-0.25339779592730766;-0.8176061936388287;0.76;0.012257748813872408
21:10.2;0.05812464102700122;-0.254967892667035;-0.8675818087454904;0.975;0.01285749059992421
21:10.2;0.057261994497489574;-0.25579554490006695;-0.9207728601431391;0.975;0.013486894400916117
21:10.2;0.056795360698012796;-0.256205159387914;-0.9749542415445772;0.975;0.014186816985739995
21:10.2;0.05685935780287147;-0.2565771048009317;-1.0279162785722957;1.081;0.01499607467331429
21:10.2;0.05746389747144601;-0.2572966939779048;-1.0776556338273477;1.181;0.015933430421070774
21:10.2;0.05846905513318737;-0.25868855403947605;-1.1225579086335356;1.2590000000000001;0.016978997440220953
21:10.2;0.059583937855584405;-0.26094660621095794;-1.1615506393677402;1.2990000000000002;0.018060052278900184
21:10.2;0.06039625837477245;-0.26407477545803565;-1.1941912900510019;1.296;0.019046310181954414
21:10.2;0.06043275297925786;-0.26785277461631324;-1.2206632358450318;1.272;0.019758974139155644
21:10.2;0.059242128378257285;-0.2718340557170726;-1.2416782889744014;1.248;0.01999602196538283
21:10.3;0.05648617618745448;-0.27537469092926153;-1.258310135432438;1.2690000000000001;0.019572842157479255
21:10.3;0.05202252303656786;-0.27768784265940943;-1.2717955179280414;1.2690000000000001;0.018372386275323553
21:10.3;0.04596333348404509;-0.27791855880261873;-1.2833359077873814;1.2690000000000001;0.016393414249123345
21:10.3;0.03869687079049434;-0.2752348633609544;-1.2939207156854533;1.287;0.013781197524542066
21:10.3;0.030861732857960983;-0.26893029755019987;-1.304184364253588;1.284;0.010824280280228908
21:10.3;0.02326706264714724;-0.2585283931917552;-1.314306131776021;1.274;0.007905809407815668
21:10.3;0.016760621777866736;-0.2438742326959703;-1.3239615548954378;1.2770000000000001;0.005411671375132888
21:10.3;0.012063352166858004;-0.2251974787620197;-1.3323353340863608;1.2990000000000002;0.0036194707900183204
21:10.3;0.00960687085267023;-0.20313401735979977;-1.338204130352451;1.335;0.0026114816347725285
21:10.3;0.009417582694670856;-0.17869540692567837;-1.3400894553119698;1.3769999999999998;0.002255208096765329
21:10.4;0.011082467737993044;-0.15317975361559175;-1.3364664159493673;1.416;0.002268798321447595
21:10.4;0.013808061635316662;-0.12803255972496763;-1.3259979117251763;1.416;0.0023442071453665045
21:10.4;0.016554597448216538;-0.10468671164825726;-1.3077534017392756;1.416;0.0022663972851043844
21:10.4;0.01821069054608928;-0.08441634466093831;-1.2813729113399444;1.3840000000000001;0.0019698288590031137
21:10.4;0.017777887796144354;-0.06822363241457764;-1.2471491464472915;1.327;0.0015126323819554285
21:10.4;0.014542327321145541;-0.056761495275400406;-1.2060166344827044;1.247;0.0009954994885382224
21:10.4;0.008210383770223166;-0.05029285696130576;-1.1594530472266045;1.162;0.0004787655918626292
21:10.4;-0.0010152910358274408;-0.04868923604847833;-1.1093129019166643;1.085;5.4837491009076236e-05
21:10.4;-0.01243558031032675;-0.051469020068325315;-1.0576237365181786;1.021;0.0006769290398789561
21:10.4;-0.024934743083575833;-0.057870848876290626;-1.0063758662058622;0.968;0.0014521950902125975
21:10.5;-0.037131109221067625;-0.06695330058022982;-0.9573311186167696;0.8540000000000001;0.002379973330485635
21:10.5;-0.047573893842663716;-0.07770770721451081;-0.9118713563992621;0.8540000000000001;0.003371059113815259
21:10.5;-0.054947454377096965;-0.08916701746709389;-0.8709062656285813;0.8540000000000001;0.004267005792079946
21:10.5;-0.058243940814756846;-0.1004953174002166;-0.8348518608660813;0.8340000000000001;0.004886591076817515
21:10.5;-0.05688069528622502;-0.11105087274921342;-0.8036731394564491;0.816;0.005076522622778758
21:10.5;-0.050754901497356855;-0.12042251959936282;-0.7769707529535324;0.799;0.004748870975579095
21:10.5;-0.040235178765594126;-0.1284402187215128;-0.7540916924339122;0.784;0.0038970064809079816
21:10.5;-0.02609399962186947;-0.13515999372818427;-0.7342497282179246;0.772;0.002589599539390245
21:10.5;-0.009391663048280378;-0.14082550170273603;-0.7166443664495356;0.7609999999999999;0.0009478235628138718
21:10.5;0.008670015641928586;-0.14581238288930115;-0.7005676735092973;0.75;0.0008856545986816301
21:10.6;0.026901501152836255;-0.15056475222711077;-0.6854895433703118;0.718;0.002776519086303884
21:10.6;0.044262827223253;-0.15553341285629707;-0.6711159663276988;0.718;0.004620196250273976
21:10.6;0.05996302722011573;-0.1611223072008444;-0.657420241414856;0.718;0.006351587621684821
21:10.6;0.07350884184482245;-0.16764633365761775;-0.6446487942062281;0.698;0.007944321567898677
21:10.6;0.08470265253574849;-0.1753023265995378;-0.633300493055122;0.6779999999999999;0.009403608005919554
21:10.6;0.093600013965048;-0.18415426457936507;-0.6240776649715299;0.6559999999999999;0.01075712794230619
21:10.6;0.10044152909077003;-0.19413204067989975;-0.6178119997513851;0.639;0.012046666147423769
21:10.6;0.10557430459364817;-0.20504175919815504;-0.6153749330632865;0.626;0.013321108030041157
21:10.6;0.10937686349965933;-0.21658600027308028;-0.6175856361864522;0.621;0.014630293315185392
21:10.6;0.1121979910843837;-0.22839410792776244;-0.625130436864111;0.626;0.01601919254473924
21:10.7;0.11431473828414393;-0.24006294842665998;-0.6385054696962584;0.7240000000000001;0.017522335201245694
21:10.7;0.115909481604979;-0.25120516367789736;-0.6579868142923941;0.7240000000000001;0.019158641747303095
21:10.7;0.11706289134024869;-0.2614961574234422;-0.6836207382735026;0.7240000000000001;0.020926653674526306
21:10.7;0.11775971620469576;-0.2707097074189486;-0.7152220654378982;0.765;0.02280034845555275
21:10.7;0.1179057111125334;-0.27873767210561246;-0.7523764542489295;0.804;0.024726674189323585
21:10.7;0.1173541971761196;-0.28559486526865924;-0.7944509075288294;0.847;0.026626622874967067
21:10.7;0.11593875553805048;-0.29141076469416793;-0.8406168028698621;0.8909999999999999;0.028400912362857814
21:10.7;0.1135057514716033;-0.2964084084592542;-0.8898864031531533;0.93;0.02993939077972197
21:10.7;0.10993911295996911;-0.30087120221891595;-0.9411634380469045;0.97;0.03113134593914085
21:10.7;0.10517206482035082;-0.3050998874414213;-0.9933101846294309;1.023;0.031873322442479625
21:10.8;0.09918638442581683;-0.30936295314893014;-1.0452324906164758;1.2;0.03207253335394781
21:10.8;0.09200644897410892;-0.3138441766358932;-1.0959733179443187;1.2;0.03164698383020379
21:10.8;0.08369866636223178;-0.31859172745550757;-1.1447880961122812;1.242;0.030526579027793797
21:10.8;0.07438408938622959;-0.323474818442052;-1.1911714964511075;1.242;0.028661229793988916
21:10.8;0.06426477878211642;-0.3281556168296635;-1.234824166340265;1.281;0.02604101930091427
21:10.8;0.05365741789779741;-0.3320849121336809;-1.2755707657275877;1.3119999999999998;0.022729164478724296
21:10.8;0.04302334907092118;-0.33452899589988905;-1.3132492944028162;1.327;0.018901016329466697
21:10.8;0.032982496166262705;-0.3346321503203751;-1.3475898016090506;1.337;0.014873353511963625
21:10.8;0.024299324670344593;-0.3315142406592188;-1.3780995675274077;1.341;0.011101380519006374
21:10.8;0.01783113085105;-0.3243960158637874;-1.403975738131107;1.34;0.008121083981134675
21:10.9;0.014432778920299367;-0.3127360446238928;-1.4240706888442727;1.422;0.00642775693878646
21:10.9;0.014823194900771507;-0.2963556972132907;-1.436931802289275;1.422;0.006312352690923243
21:10.9;0.019438393364334408;-0.2755265983407977;-1.4409234659440966;1.422;0.007717289831007767
21:10.9;0.02830828101068919;-0.2509988169384741;-1.4344245933764395;1.49;0.010192081674455806
21:10.9;0.040988564118168834;-0.2239558067110689;-1.4160852981613297;1.5390000000000001;0.01299913475660616
21:10.9;0.056565440447116776;-0.19589556702932842;-1.385111569805638;1.555;0.015348309153435075
21:10.9;0.07373968065551754;-0.16845642477262446;-1.3415253309139354;1.5390000000000001;0.016664324319030994
21:10.9;0.09098259572772865;-0.14322131560290843;-1.286336608503622;1.469;0.016761798342028525
21:10.9;0.10673650785293694;-0.12153773263475058;-1.2215764317131272;1.3559999999999999;0.015846916328767197
21:10.9;0.11961715178715494;-0.10438273220357763;-1.150167823898376;1.225;0.014360955333588037
21:11.0;0.12857589196152183;-0.0922897462590277;-1.0756489683870343;0.905;0.012763904989794116
21:11.0;0.13299622488528737;-0.08533974726738516;-1.001803126567255;0.905;0.01137032946093517
21:11.0;0.13272158613812327;-0.08320602424876669;-0.9322795481192782;0.905;0.010295382615273341
21:11.0;0.12802628752639225;-0.08523510191620219;-0.8702795825433569;0.831;0.009496781186780687
21:11.0;0.11954395058033268;-0.09054826107319967;-0.8183342962149394;0.775;0.0088580570090639
21:11.0;0.10816623488635559;-0.09815221978829057;-0.7781611630076553;0.731;0.008261547243202936
21:11.0;0.09492574850491244;-0.10704827236367896;-0.750584638435091;0.6990000000000001;0.007627168918985939
21:11.0;0.08087846152915235;-0.11632887786533015;-0.735517696634843;0.6829999999999999;0.00692011874391043
21:11.0;0.06699971969159674;-0.12525288744640034;-0.7320073181069381;0.687;0.006142938324696175
21:11.0;0.054104656638979176;-0.13329452755612559;-0.7383461773054152;0.711;0.005324845308624141
21:11.1;0.04279936417546895;-0.1401647020242157;-0.7522476303034211;0.8290000000000001;0.004512703539429666
21:11.1;0.03346411970700077;-0.1458059257370358;-0.771068918414372;0.8290000000000001;0.0037622510919923
21:11.1;0.026265207471903654;-0.15036499005768672;-0.7920525401187481;0.8290000000000001;0.0031281066872635467
21:11.1;0.021188369507953258;-0.15414960513414752;-0.8125533935391294;0.86;0.00265394466222871
21:11.1;0.018084855413245764;-0.15757562669671205;-0.8302340076073256;0.892;0.0023659447721995504
21:11.1;0.01671998559412975;-0.16111056490843242;-0.8432242362656466;0.912;0.0022714490515122064
21:11.1;0.016814922338674675;-0.1652181821915656;-0.850242602136673;0.924;0.0023620852476078525
21:11.1;0.018076433088241604;-0.17030856928538762;-0.8506719529267002;0.925;0.002618854393585863
21:11.1;0.02021539767373104;-0.17669783394387595;-0.8445815969237409;0.915;0.0030168598062732706
21:11.1;0.022958735796808554;-0.18458092402223403;-0.8326914313871203;0.893;0.003528733673247933
21:11.2;0.026059380191296628;-0.1940194577166657;-0.8162793326538375;0.8059999999999999;0.004127130192916188
21:11.2;0.029306235695831108;-0.20494293692633925;-0.7970430109236095;0.8059999999999999;0.004787124821132988
21:11.2;0.03253330072537855;-0.21715773152946427;-0.7769385996910843;0.8059999999999999;0.005488960714252989
21:11.2;0.03562630017481467;-0.23035827446133436;-0.758019125449037;0.778;0.00622092123853801
21:11.2;0.03852597587475004;-0.24414016674999803;-0.7422842053930636;0.758;0.0069817308868216355
21:11.2;0.04122699406459823;-0.25801958485674653;-0.7315422527592793;0.748;0.0077816869983647445
21:11.2;0.04376936146161773;-0.27146301041980575;-0.7272871706946371;0.7440000000000001;0.008641453523509467
21:11.2;0.04621848574469557;-0.28392771138498396;-0.7305959327014172;0.746;0.00958739773460824
21:11.2;0.048633952221008026;-0.29490970926752136;-0.7420549585161262;0.757;0.010643015784212196
21:11.2;0.051034396425297994;-0.3039932637817429;-0.7617230126237243;0.774;0.011817456690275167
21:11.3;0.05337091518303396;-0.3108944890917279;-0.7891368683386067;0.883;0.01309392978754561
21:11.3;0.0555191220158084;-0.31549159393948467;-0.8233592522794143;0.883;0.014421809410916107
21:11.3;0.057291286379717296;-0.3178353692857746;-0.8630583202421783;0.883;0.015715599116763387
21:11.3;0.05846266388385216;-0.31813611829292704;-0.9066066897514719;0.943;0.016862054841711764
21:11.3;0.05880465773315208;-0.3167267049635796;-0.9521990898819517;1.004;0.017734713267418812
21:11.3;0.05811803950160077;-0.3140048416524926;-0.9979937910858316;1.065;0.01821273379065011
21:11.3;0.056259415751607866;-0.31036133306539754;-1.0422739022165226;1.127;0.018198881192875153
21:11.3;0.05315637259446707;-0.3061048698119444;-1.0836114135933903;1.1909999999999998;0.017631901317389922
21:11.3;0.048812093118403836;-0.30139657927786556;-1.1210098395886778;1.25;0.016492070196406364
21:11.3;0.04330550376711856;-0.29620765509033414;-1.153999320017678;1.286;0.014802835946341837
21:11.4;0.036795135839090554;-0.2903110653003747;-1.182659946862192;1.273;0.01263321504401738
21:11.4;0.029531482231317647;-0.2833127885309401;-1.2075586543669614;1.273;0.010103216486199627
21:11.4;0.021873876570567236;-0.27471919011966683;-1.2296024890138397;1.273;0.007388894884633755
21:11.4;0.014299653400866115;-0.264029227547874;-1.2498280670251694;1.244;0.004718758914548601
21:11.4;0.007390584243233296;-0.2508367489426583;-1.2691568587409383;1.2109999999999999;0.002352801217271396
21:11.4;0.001783576241392403;-0.23492776427720452;-1.2881521132178944;1.186;0.0005397506507046224
21:11.4;-0.0019198036944132013;-0.21635931055777685;-1.3068190003809281;1.187;0.0005428100153326237
21:11.4;-0.0032748395825451747;-0.19551033430178966;-1.324489941605667;1.216;0.0008480245280493398
21:11.4;-0.0021184505113727;-0.1730967166509467;-1.3398273734480095;1.263;0.0004913104477851914
21:11.4;0.0013394524129261847;-0.15014019559479663;-1.3509577208041184;1.327;0.0002716852268722035
21:11.5;0.006490224842565444;-0.12788205534173255;-1.355725881794554;1.4680000000000002;0.0011252298310955701
21:11.5;0.012381118001522445;-0.10764650085882065;-1.3520304067241045;1.4680000000000002;0.0018019645335939083
21:11.5;0.017841322667859805;-0.0906800922397427;-1.33817433005223;1.4680000000000002;0.002164969066958866
21:11.5;0.021655613499575666;-0.0780015918162244;-1.3131625979946266;1.4580000000000002;0.0022181579183949544
21:11.5;0.02276107594408481;-0.07028424531213852;-1.2768973214513082;1.4140000000000001;0.0020427101632493204
21:11.5;0.02044130209753093;-0.06777898438317785;-1.230247692383612;1.338;0.0017044967311305298
21:11.5;0.014483711109609472;-0.07028480146931966;-1.1749897865219971;1.235;0.0011961216956915583
21:11.5;0.005262584410350576;-0.07717226071519447;-1.1136273979070817;1.126;0.0004522725240477824
21:11.5;-0.00627734253306634;-0.0874597549890478;-1.0491212239568797;1.023;0.0005759831208318833
21:11.5;-0.018740560392968772;-0.09993333830181919;-0.9845648002130436;0.935;0.0018438996151867693
21:11.6;-0.030485855951957196;-0.11329412812609455;-0.9228497295027017;0.759;0.003187401583512461
21:11.6;-0.039879074546065554;-0.12631207494284963;-0.8663663186876447;0.759;0.004364067916913482
21:11.6;-0.04554203095704235;-0.13796183235632242;-0.8167887910875419;0.759;0.005131934648030204
21:11.6;-0.046548919089162026;-0.1475203740882977;-0.77498153147746;0.742;0.005321731495260087
21:11.6;-0.04254190554589265;-0.15461707710531014;-0.741030851711215;0.7440000000000001;0.004874282405145008
21:11.6;-0.03375914072049852;-0.15923651525490948;-0.7143781855660661;0.759;0.0038402741869826757
21:11.6;-0.020980895762875013;-0.16167811506978358;-0.6940194315097824;0.773;0.0023542191801441074
21:11.6;-0.005407722721618525;-0.16248059792947173;-0.6787319205320423;0.772;0.0005963678163953885
21:11.6;0.011507783861112973;-0.1623254022489956;-0.6672890814911406;0.764;0.0012464997705716244
21:11.6;0.02824920069690997;-0.16193750777533933;-0.6586281359915538;0.7509999999999999;0.0030129636677835355
21:11.7;0.04341733151879593;-0.16200017259354055;-0.6519499964223336;0.6729999999999999;0.004585565404212624
21:11.7;0.0558798250843316;-0.16309278381602507;-0.6467500702078173;0.6729999999999999;0.005894219002992714
21:11.7;0.06487167603008905;-0.16565270954867786;-0.6427976464596455;0.6729999999999999;0.006907612082101287
21:11.7;0.070038882947476;-0.16995743228923782;-0.6400893147110237;0.6559999999999999;0.007619385541100108
21:11.7;0.07142779586265248;-0.1761228388835711;-0.6387954631045847;0.65;0.00803608920295337
21:11.7;0.06942997789548362;-0.18411386464117246;-0.6392097262828758;0.655;0.00817103170750654
21:11.7;0.06469633518882113;-0.19376364277831018;-0.6417072434895731;0.6679999999999999;0.008044312110385308
21:11.7;0.05803580664276203;-0.20479895119373526;-0.6467143282688705;0.687;0.007686634598290936
21:11.7;0.050313218477819506;-0.216872504701464;-0.6546865054517684;0.701;0.00714364696802314
21:11.7;0.04235804315495514;-0.2296035112613816;-0.6660876227728153;0.71;0.006478072102201554
21:11.8;0.03489168971976572;-0.24262564095554515;-0.6813631237653862;0.75;0.005768160321828713
21:11.8;0.02847698321498326;-0.25563629846919506;-0.7009043272419432;0.75;0.005102408683218034
21:11.8;0.02349033659086592;-0.2684353560222582;-0.7250051281982052;0.75;0.0045716190642981925
21:11.8;0.020114591855646343;-0.28094159154295045;-0.7538176698344159;0.777;0.004259842836262398
21:11.8;0.01834873291084398;-0.293182716157015;-0.7873185772277673;0.813;0.004235404970870825
21:11.8;0.018030172197432574;-0.30526275006148623;-0.8252981662416774;0.861;0.004542391547072127
21:11.8;0.01886593563102791;-0.31731361917995093;-0.8673793487323025;0.9129999999999999;0.005192495618694457
21:11.8;0.020470070907393546;-0.3294389106762555;-0.9130642958048103;0.973;0.006157374954896897
21:11.8;0.022405495292333898;-0.34165893993613183;-0.9617998317447792;1.041;0.007362614039496391
21:11.8;0.024229058905816534;-0.3538663730123487;-1.0130480784110092;1.11;0.008685721453103992
21:11.9;0.025538343141660518;-0.3657995156760672;-1.066345302905726;1.236;0.00996170563674096
21:11.9;0.026017292020057658;-0.3770360255194682;-1.1213275300534937;1.236;0.010999613491534804
21:11.9;0.02547623955217201;-0.3870051312605236;-1.1777008335632897;1.236;0.011611465326627223
21:11.9;0.023881914575772767;-0.39501533766725455;-1.2351475159516287;1.26;0.011652038974166827
21:11.9;0.021374138060060978;-0.4002972067938567;-1.2931849996153215;1.288;0.01106450089579265
21:11.9;0.018266323597246295;-0.40206196292387564;-1.3510139894476902;1.325;0.009922108728368195
21:11.9;0.015026981853602307;-0.39957445977385814;-1.4073950035219254;1.374;0.008450559964170623
21:11.9;0.012241271130251915;-0.3922367536567288;-1.4605837482128876;1.43;0.007012958468488483
21:11.9;0.010554348324155777;-0.3796763257845686;-1.5083447989379928;1.484;0.006044293869474656
21:11.9;0.010598810730982828;-0.3618275900143154;-1.5480533081190084;1.5219999999999998;0.005936694872169116
21:12.0;0.012908309510937726;-0.33898904452896805;-1.5768854191746084;1.675;0.006900096595511034
21:12.0;0.0178243339356274;-0.3118406389779969;-1.5920833840369155;1.675;0.008849359358480437
21:12.0;0.025412936930988377;-0.2814181716619443;-1.5912604960395116;1.675;0.011380157615748817
21:12.0;0.03541345861716911;-0.2490497315099088;-1.5727003662425671;1.7;0.013870764859423169
21:12.0;0.047236852488256195;-0.21625630744675003;-1.53561325106862;1.6869999999999998;0.015686699820668365
21:12.0;0.06002133595244912;-0.1846187676259154;-1.4803215213541046;1.64;0.016403539109755033
21:12.0;0.07274099915175257;-0.15562514521470136;-1.408346085795366;1.5519999999999998;0.015942940411836106
21:12.0;0.08434867525074123;-0.13052357209789897;-1.3223685095986373;1.43;0.01455860340567489
21:12.0;0.09392274151333052;-0.11020660581162815;-1.2260590230852213;1.288;0.012690822373606315
21:12.0;0.10078606622096337;-0.09514515027946693;-1.1237821846144258;1.1440000000000001;0.010776290590080208
21:12.1;0.10457504916500425;-0.08537996691669658;-1.020213508209493;0.789;0.009109092855219594
21:12.1;0.10525269480023043;-0.08056678555893229;-0.9199249932592609;0.789;0.00780084554064486
21:12.1;0.1030751260474672;-0.08005975872210835;-0.8270170788895004;0.789;0.006824685297667219
21:12.1;0.09852818257529686;-0.08301378679643882;-0.7448593577129957;0.706;0.006092351827552856
21:12.1;0.09224785193773105;-0.0884901832969202;-0.6759509138352331;0.644;0.005517807133058147
21:12.1;0.08493329501343;-0.09555513888496504;-0.6218715217084916;0.6;0.005046992856437989
21:12.1;0.07726082429654547;-0.10336228875767321;-0.5832944896473331;0.5710000000000001;0.004658105584445418
21:12.1;0.06980908964094752;-0.11121268457962867;-0.5600462589898664;0.5539999999999999;0.004348006648433225
21:12.1;0.06300578679420708;-0.11859005955255228;-0.5512041861688566;0.55;0.0041185205149216
21:12.1;0.05710348349969837;-0.1251741260492512;-0.555224613132751;0.562;0.00396867815341481
21:12.2;0.052187015234799725;-0.13083682806291463;-0.5700931650212641;0.6409999999999999;0.003892586746685191
21:12.2;0.04820788518028192;-0.13562572764511;-0.5934860322934339;0.6409999999999999;0.0038803478876256415
21:12.2;0.045034313885583564;-0.13973711483512483;-0.62292611237589;0.6409999999999999;0.0039200522794232
21:12.2;0.04250294589889254;-0.1434809939172007;-0.6559205122035121;0.6729999999999999;0.004000042643230437
21:12.2;0.040461030791486864;-0.14724077952001846;-0.690078368057605;0.7040000000000001;0.004111151341384092
21:12.2;0.03879252023735665;-0.15143107334583297;-0.7232179638777824;0.745;0.004248466528084619
21:12.2;0.03742523918683831;-0.15645679728507425;-0.753470870189952;0.7929999999999999;0.004411898243660425
21:12.2;0.03632043876828095;-0.16267661975923284;-0.7793828610152046;0.836;0.004604972884277525
21:12.2;0.03545116584063131;-0.17037318810402785;-0.8000033913371403;0.868;0.0048319630004510184
21:12.2;0.03477943208707546;-0.179732100903854;-0.8149502870815181;0.892;0.005094238269282261
21:12.3;0.034241729055765384;-0.19083068401562886;-0.824435574347024;0.897;0.0053871692090024775
21:12.3;0.03374786767982409;-0.20363575498641126;-0.8292422132683469;0.897;0.005698778469827326
21:12.3;0.03319176802222001;-0.21800727629605446;-0.8306479240964749;0.897;0.006010607371015898
21:12.3;0.03246882221326177;-0.2337054467570299;-0.830298469130488;0.863;0.00630042152457789
21:12.3;0.03149458176498557;-0.2504026816457089;-0.8300383852625243;0.84;0.006545954735708134
21:12.3;0.03022083234516208;-0.26770356638782855;-0.8317146524616632;0.8290000000000001;0.006728758339869466
21:12.3;0.028644933732543915;-0.28517273956929856;-0.8369767380440051;0.8240000000000001;0.006837057267040832
21:12.3;0.026808201256540876;-0.3023672950674947;-0.8470992790748184;0.828;0.006866521783297519
21:12.3;0.024781581706417307;-0.31887003689146814;-0.8628501404314924;0.848;0.006818331436482789
21:12.3;0.022641417164992565;-0.3343208741082924;-0.8844205879509618;0.879;0.006694620205655781
21:12.4;0.020442062227275834;-0.3484432744040264;-0.911426509565035;1.013;0.0064919990629131365
21:12.4;0.01819366820797919;-0.3610610436642754;-0.9429760156168473;1.013;0.0061944328618645135
21:12.4;0.01585243350616036;-0.37209998182979137;-0.9777828468787981;1.013;0.005767638115776851
21:12.4;0.013327592097768418;-0.38157162709589115;-1.0143021779853214;1.077;0.005158163741338738
21:12.4;0.010504936262144684;-0.3895412950816283;-1.0508786192024206;1.14;0.004300307203449523
21:12.4;0.007281839059590092;-0.39608582235911366;-1.0859049051734062;1.197;0.003132002992796869
21:12.4;0.0036054468638270437;-0.4012468365627861;-1.1179819990405642;1.247;0.0016173556565068422
21:12.4;-0.0004947529108742357;-0.4049857442694837;-1.146059847589893;1.281;0.00022963357724698172
21:12.4;-0.004886831080278321;-0.40714805053165465;-1.1695352849671883;1.2990000000000002;0.002326981958053241
21:12.4;-0.009332123864776118;-0.40744618232054625;-1.188288831299382;1.3019999999999998;0.004518276065369868
21:12.5;-0.013495927529988294;-0.4054705034654111;-1.2026514743790373;1.285;0.0065811500358835566
21:12.5;-0.016969909015055983;-0.40073448385298405;-1.2133044858255833;1.285;0.008250989470560762
21:12.5;-0.019304349265915444;-0.3927502966742126;-1.2211271726585762;1.285;0.00925832844472754
21:12.5;-0.020051739032024913;-0.3811217901411858;-1.2270139403250777;1.248;0.009377030320749425
21:12.5;-0.018824494024363692;-0.3656398460228033;-1.2316829544277874;1.21;0.008477655418970984
21:12.5;-0.015366593941404414;-0.3463674507803417;-1.2355012534174479;1.1909999999999998;0.006575940559050818
21:12.5;-0.009632295481935704;-0.32370162539938446;-1.238357287079402;1.187;0.0038611852707760978
21:12.5;-0.0018566557032654784;-0.2983968525619852;-1.2396130992741679;1.197;0.0006867707196761145
21:12.5;0.0074042770889345445;-0.2715353499167726;-1.2381582312522768;1.227;0.0024893455647053446
21:12.5;0.017287461737760974;-0.2444376735587313;-1.2325680262421461;1.2670000000000001;0.005208471248849136
21:12.6;0.02670742424460199;-0.2185217875058896;-1.2213457494207725;1.331;0.007127961985422689
21:12.6;0.03450701112341298;-0.1951354241575658;-1.2032059223656808;1.331;0.008101835509666463
21:12.6;0.03964259336676391;-0.17539758338457287;-1.1773424323432011;1.331;0.008186315149744917
21:12.6;0.041359338573516244;-0.16008058782553078;-1.1436264213189618;1.2890000000000001;0.007571752952272323
21:12.6;0.03932324490631098;-0.1495459954913453;-1.1026951633839046;1.21;0.006484546454917312
21:12.6;0.03369325116778905;-0.14373230293781297;-1.0559163118572954;1.1079999999999999;0.005113600578845898
21:12.6;0.025124735840615732;-0.1421882021243303;-1.0052362196448696;1.0;0.0035911471038646008
21:12.6;0.014701711323891108;-0.1441446222895582;-0.9529430408967153;0.9079999999999999;0.0020194508062076908
21:12.6;0.0038051854421485465;-0.14861592914528998;-0.9013895377662172;0.831;0.0005097458521775428
21:12.6;-0.0060637755162946255;-0.15451800712502195;-0.8527231404510365;0.769;0.0007989696126744585
21:12.7;-0.013479333473442611;-0.16079077426202126;-0.8086640987165283;0.727;0.0017526601283012573
21:12.7;-0.017273821057795832;-0.16651247845087774;-0.7703617188277587;0.727;0.002215796616929211
21:12.7;-0.016680924837707018;-0.1709913498441715;-0.7383454541183758;0.727;0.00210597820138964
21:12.7;-0.011421416982022765;-0.17382121170485246;-0.7125705776886103;0.741;0.0014146553509751336
21:12.7;-0.001725011767584131;-0.1748949822505367;-0.6925397558068741;0.75;0.00020893640662699697
21:12.7;0.011709286470623073;-0.17437973487071806;-0.6774688115010236;0.746;0.0013832980054903177
21:12.7;0.02780537821171697;-0.17266373053441764;-0.6664614988364425;0.741;0.0031996685472528595
21:12.7;0.045240063943912764;-0.17028810049471926;-0.6586634908811332;0.731;0.005074241147978789
21:12.7;0.06259185977985064;-0.16787440087875893;-0.6533763896871406;0.715;0.006865398778507007
21:12.7;0.07848885984909001;-0.16605618935466604;-0.6501241159927872;0.695;0.008473432306025775
21:12.8;0.09173901237725014;-0.16542030654263148;-0.6486740971325573;0.684;0.009843950874022175
21:12.8;0.1014311311268213;-0.16646133878972666;-0.6490232305743598;0.684;0.010958343095054442
21:12.8;0.10699952889297762;-0.16954970837356895;-0.6513619708057906;0.684;0.01181683881671905
21:12.8;0.10824954277893829;-0.17491158613416366;-0.6560279628764732;0.6970000000000001;0.01242129854397772
21:12.8;0.10534574219607873;-0.1826190978664597;-0.6634552834521653;0.705;0.012763648548596785
21:12.8;0.09876807474312392;-0.19259086227137587;-0.6741201146476838;0.711;0.012822997330342307
21:12.8;0.08924351753344505;-0.20460416487105013;-0.6884810637375329;0.7190000000000001;0.012571385647255762
21:12.8;0.0776627906220197;-0.21832076518675203;-0.7069132050701522;0.722;0.011985996068979755
21:12.8;0.06499207674946975;-0.23332753397975875;-0.7296390609853082;0.731;0.011064568488817692
21:12.8;0.05218669535082124;-0.24918963316673376;-0.7566659979076242;0.7490000000000001;0.009839974795996756
21:12.9;0.04010948040739315;-0.26550846631800956;-0.7877442703891682;0.851;0.008389009054077504
21:12.9;0.029456734472444596;-0.28197167998171446;-0.822357147237325;0.851;0.006830469605127224
21:12.9;0.0206998885775771;-0.298381618123991;-0.8597450396284035;0.851;0.005310186219806907
21:12.9;0.014053599281004412;-0.3146544115517455;-0.8989616025949434;0.92;0.003975232489379332
21:12.9;0.00947594179517018;-0.3307915358600988;-0.9389650529898539;1.003;0.002943243554849428
21:12.9;0.0066992921192570816;-0.3468321710336779;-0.9787466534852712;1.091;0.002274147241243421
21:12.9;0.005286704396690483;-0.36279562862953096;-1.0174816086168912;1.17;0.0019515228522143377
21:12.9;0.004706124911867095;-0.3786224495655222;-1.054668505014154;1.227;0.0018792553193762707
21:12.9;0.004412232292816473;-0.39412338891791476;-1.0902164581746479;1.246;0.0018958471118533829
21:12.9;0.003924885640201124;-0.40894636250381916;-1.1244473514050906;1.234;0.0018048141306168416
21:13.0;0.0028947341660949992;-0.42257015513489965;-1.1580011476030516;1.2209999999999999;0.0014164997353928361
21:13.0;0.001149309630644178;-0.4343280491490553;-1.19165897702694;1.2209999999999999;0.0005948492414527653
21:13.0;-0.001284382993462224;-0.44345616270414606;-1.2261210259427242;1.2209999999999999;0.0006983587533148049
21:13.0;-0.004182764716544437;-0.4491574443629414;-1.261785184526799;1.242;0.002370540948887107
21:13.0;-0.0071539365466134035;-0.4506757136054511;-1.2985679414225475;1.287;0.004186719987826972
21:13.0;-0.009687726345997615;-0.4473774081927131;-1.3357971168033755;1.349;0.005789438081724267
21:13.0;-0.011221029062893682;-0.43883634298769797;-1.3721905502675507;1.4080000000000001;0.006756934338631022
21:13.0;-0.011212717006726306;-0.4249120206586069;-1.4059186215005008;1.444;0.006698384324796698
21:13.0;-0.009224900262248375;-0.4058085082692347;-1.4347375306076595;1.4669999999999999;0.005371001660139943
21:13.0;-0.00500480888413921;-0.3820991563647053;-1.456178877140528;1.499;0.002784699288192755
21:13.1;0.0014468724590844986;-0.3547045778027672;-1.4677840164444358;1.569;0.0007532847885755234
21:13.1;0.009840058934183297;-0.3248220808729959;-1.4673675291445836;1.569;0.00469010049234519
21:13.1;0.019604158548664884;-0.29382122134771743;-1.4532813313828772;1.569;0.008371071677314691
21:13.1;0.02994379421841014;-0.2631262951084948;-1.4246431487254938;1.5619999999999998;0.01122476284764724
21:13.1;0.039936910156599635;-0.23409702463414991;-1.3814980648402309;1.52;0.012915779915959045
21:13.1;0.048663910638554235;-0.20791174712264426;-1.3248907136777504;1.4409999999999998;0.013404977517546419
21:13.1;0.05534574646475567;-0.1854636714714458;-1.2568331210630586;1.339;0.012900921102214705
21:13.1;0.05946244015747768;-0.1672874182232946;-1.180164982718137;1.2229999999999999;0.011739476487915405
21:13.1;0.06082765295865264;-0.15352997339473126;-1.0983198291677514;1.104;0.010257063840926783
21:13.1;0.05960586849004445;-0.143971291518102;-1.0150245744187028;0.995;0.008710467762804786
21:13.2;0.056271241637308636;-0.13809006492437015;-0.9339684640910759;0.764;0.00725740140017847
21:13.2;0.051519854156516116;-0.13516122113882142;-0.858485716828647;0.764;0.005978053614321776
21:13.2;0.04615772278669665;-0.13436616358255674;-0.7913015920014008;0.764;0.004907681063758845
21:13.2;0.04098856542341659;-0.13489780839965793;-0.7343766832143009;0.711;0.004060565233786907
21:13.2;0.03671683155382631;-0.1360487911017183;-0.6888490437234389;0.669;0.003440994227231028
21:13.2;0.033872504696315295;-0.13727746674518299;-0.6550492901915883;0.64;0.003045934418272294
21:13.2;0.03276123011922387;-0.13824974398263656;-0.6325663252013052;0.623;0.002865039437613585
21:13.2;0.033442837492313617;-0.13885664510318874;-0.6203531472780496;0.621;0.002880771265767078
21:13.2;0.03573936945685574;-0.13920870988727552;-0.6168671340496702;0.631;0.003069056805443548
21:13.2;0.03927054567974582;-0.13960888391509008;-0.6202378922880503;0.652;0.0034004648214392766
21:13.3;0.04351109780293533;-0.14050622490342718;-0.628451913666514;0.7070000000000001;0.0038420911092356554
21:13.3;0.04786101515055115;-0.1424347607104675;-0.6395375920915779;0.7070000000000001;0.004359773965694228
21:13.3;0.05171788162418858;-0.14594446761521768;-0.651729706212538;0.7070000000000001;0.0049192158713498345
21:13.3;0.054542265510335856;-0.15153234469050206;-0.6635955606350833;0.7140000000000001;0.005484562480733445
21:13.3;0.05591160410089601;-0.159580230295281;-0.674115954552902;0.72;0.006014723199251922
21:13.3;0.05556096649874989;-0.17030417127881742;-0.6827243165732504;0.7240000000000001;0.006460117965016278
21:13.3;0.05340876814721995;-0.1837190443476207;-0.6893109037854127;0.73;0.006763661856933816
21:13.3;0.04956453601753505;-0.1996212239444211;-0.6941983821437092;0.74;0.0068684913601589756
21:13.3;0.04431654177432708;-0.21759114109068756;-0.6980934510521855;0.7490000000000001;0.006731636189846867
21:13.3;0.03809929294530874;-0.23701707201089395;-0.7020168871933946;0.757;0.006339340861871173
21:13.4;0.03144355655794923;-0.2571406598967616;-0.7072123530180248;0.775;0.005718106698825287
21:13.4;0.024915078000644988;-0.27712055881185443;-0.7150343201534934;0.775;0.004936940404766476
21:13.4;0.019051748512509473;-0.2961039326395463;-0.7268180037513402;0.775;0.0041001967025099785
21:13.4;0.014309015705305383;-0.3132945278748283;-0.743737811179199;0.787;0.0033341292461044818
21:13.4;0.011019036154410218;-0.32801339883823294;-0.7666639662705614;0.802;0.002771023723757193
21:13.4;0.009365245279149666;-0.33975376045954314;-0.7960297615186198;0.818;0.0025328690292693444
21:13.4;0.009372993386338199;-0.34822823634587435;-0.8317248779895308;0.8390000000000001;0.002714700893565547
21:13.4;0.01091612369903266;-0.3534010706909678;-0.8730330818434869;0.8640000000000001;0.0033679606601848076
21:13.4;0.01373781038356757;-0.35549597390336773;-0.9186342888010727;0.8959999999999999;0.004486367605745262
21:13.4;0.01748252598872965;-0.3549724309108776;-0.9666899264975324;0.9470000000000001;0.005999098603260664
21:13.5;0.021734462635358373;-0.3524688858522492;-1.0150215304272667;1.208;0.007775797595741502
21:13.5;0.026056265805629118;-0.34871994565103787;-1.0613659720541149;1.208;0.00964393165730626
21:13.5;0.030022226642640468;-0.3444629491005742;-1.1036539147428466;1.208;0.011413486323423785
21:13.5;0.03324289434796324;-0.34035052312261777;-1.1402463145979127;1.2790000000000001;0.012901016450450305
21:13.5;0.03538184205965794;-0.33687945696215765;-1.1700905825347787;1.3159999999999998;0.01394679610596348
21:13.5;0.0361679538994043;-0.3343397465812154;-1.1927874508491336;1.3119999999999998;0.014423644531451722
21:13.5;0.035407481640003506;-0.3327857515917562;-1.208567536983532;1.274;0.01424067865865359
21:13.5;0.032999596948955365;-0.3320314920978915;-1.2181819392210966;1.2309999999999999;0.013347504284590025
21:13.5;0.02895735248104561;-0.3316711117399481;-1.2227281499421712;1.207;0.011743469111989901
21:13.5;0.02343281640402877;-0.3311233365847053;-1.2234490772351705;1.205;0.009492927786746076
21:13.6;0.016740836559870065;-0.3296961376596771;-1.2215453288777085;1.2229999999999999;0.006742184040525416
21:13.6;0.0093712343926182;-0.3266651217325794;-1.218028801013276;1.2229999999999999;0.003728697273262773
21:13.6;0.0019762263337350532;-0.32135696256164065;-1.2136284011477898;1.2229999999999999;0.000770743954815682
21:13.6;-0.004679002754173513;-0.3132289673676543;-1.2087464941624009;1.218;0.0017715378960561836
21:13.6;-0.009807214337261859;-0.30193860053852695;-1.2034602368172724;1.228;0.0035636582588065495
21:13.6;-0.012721962785784675;-0.28739995036406346;-1.1975611026568602;1.236;0.00437863244824192
21:13.6;-0.012967330624245179;-0.2698233034137883;-1.190624557889456;1.236;0.004165861960831875
21:13.6;-0.01042221904314146;-0.24972934561576332;-1.182100140265624;1.2329999999999999;0.003076692157330547
21:13.6;-0.005350982051450029;-0.2279271099295451;-1.1714114297471445;1.226;0.0014286930604288644
21:13.6;0.001617458019113623;-0.20544853238366784;-1.1580553473451078;1.216;0.00038482685982669585
21:13.7;0.009586725077007266;-0.18344105358802965;-1.141690551946843;1.16;0.0020077758042631433
21:13.7;0.017551866276609242;-0.16303247188134676;-1.1222068341332414;1.16;0.003211221951787965
21:13.7;0.024583364916683222;-0.14519533998616227;-1.0997712392879635;1.16;0.003925512493585755
21:13.7;0.02999166125349916;-0.1306394315688537;-1.0748476193319028;1.135;0.004211353554592872
21:13.7;0.033440799946061216;-0.11974729436540602;-1.0481826875265898;1.101;0.004197390252283471
21:13.7;0.03499696927175676;-0.1125549534550982;-1.0207501814689754;1.0490000000000002;0.004020818918907934
21:13.7;0.035105942572211224;-0.10877660521504044;-0.9936511619381897;0.985;0.0037944609146039403
21:13.7;0.03450052146828587;-0.1078706329363215;-0.9679801717910576;0.927;0.0036024283160944596
21:13.7;0.03405221826472189;-0.10913798950808679;-0.944678212313554;0.8909999999999999;0.003510793265772793
21:13.7;0.034596261839979575;-0.1118368035460035;-0.9243996017365638;0.87;0.0035766271662736717
21:13.8;0.036767656190811605;-0.11529442065436803;-0.9074179050545798;0.863;0.00384664034040534
21:13.8;0.04088208126142401;-0.11900025434794251;-0.8935873837906099;0.863;0.004347283024324801
21:13.8;0.04687947258599427;-0.12266677888489635;-0.8823652831436404;0.863;0.005074089118394522
21:13.8;0.05433159703451217;-0.12625071575742328;-0.8728907327746156;0.877;0.0059875093231568565
21:13.8;0.06250695541545623;-0.12993284509217698;-0.864109159336183;0.895;0.007018041023771833
21:13.8;0.07048180451613717;-0.13406228824772998;-0.8549255870284199;0.91;0.008078150829643334
21:13.8;0.07727892572714448;-0.13907751783409925;-0.8443653701343928;0.922;0.009075037339281798
21:13.8;0.08201004314114316;-0.14541985729937304;-0.83171849407599;0.919;0.00991898224888475
21:13.8;0.0839981988476367;-0.15345486640835365;-0.8166453788189595;0.904;0.010526503713626054
21:13.8;0.08286183397905564;-0.1634135820640366;-0.7992278510362174;0.877;0.010822143810138646
21:13.9;0.07855060336868362;-0.17536041446897654;-0.7799583534253135;0.772;0.010743666095874535
21:13.9;0.07133362405455872;-0.18918739781920083;-0.7596747652848092;0.772;0.010252132081078204
21:13.9;0.061751408804327876;-0.2046271767265681;-0.7394631583640915;0.772;0.00934386862772477
21:13.9;0.050546283141109594;-0.22127575494209176;-0.7205535694060171;0.75;0.008059151701773752
21:13.9;0.038580840136254554;-0.23862201276363837;-0.7042213037187421;0.7340000000000001;0.006483228734752063
21:13.9;0.02674876460834447;-0.25608590498599376;-0.69169415361514;0.72;0.004738092219547502
21:13.9;0.015883460492476815;-0.27306566196597715;-0.6840654667997141;0.7120000000000001;0.002966947659537139
21:13.9;0.006673448221244383;-0.28899037690718965;-0.6822182367218614;0.711;0.0013157003831264238
21:13.9;-0.0004052740737337866;-0.3033722242141342;-0.6867687526655819;0.72;8.443746074757602e-05
21:13.9;-0.00513100427793995;-0.3158518037924296;-0.6980391467568389;0.7340000000000001;0.0011312680382857547
21:14.0;-0.00754659489809287;-0.32623004906814235;-0.7160655317735167;0.8540000000000001;0.0017629003674926099
21:14.0;-0.007938204757334168;-0.3344813403615384;-0.740637843046439;0.8540000000000001;0.0019665278007722957
21:14.0;-0.006789209550105374;-0.34074517616819466;-0.7713515491571171;0.8540000000000001;0.0017844372720798233
21:14.0;-0.0047190079719957876;-0.34529730024405975;-0.8076471292326343;0.8540000000000001;0.001316029266696722
21:14.0;-0.0024137725185532266;-0.34850425369148585;-0.8488298764768798;0.9009999999999999;0.0007140441720381297
21:14.0;-0.0005521185417186718;-0.3507669179342248;-0.8940825158600966;0.948;0.00017315241820379891
21:14.0;0.0002717265550800387;-0.3524591934595106;-0.9424863074410614;0.998;9.026429103354355e-05
21:14.0;-0.00037849409014224507;-0.3538685511786824;-0.9930560140475471;1.0590000000000002;0.00013300709758335734
21:14.0;-0.0027199594494855817;-0.355145560967497;-1.0447840682729344;1.119;0.0010092421070398412
21:14.0;-0.006712549303520378;-0.3562687671590804;-1.0966847681982275;1.162;0.0026226905484293427
21:14.1;-0.012051553399532159;-0.35702964697190254;-1.1478282979851202;1.262;0.004938831817461131
21:14.1;-0.018193202915019344;-0.35704062788940866;-1.1973540231597393;1.262;0.00777766760543783
21:14.1;-0.024407518040135058;-0.35576742646282644;-1.2444539230197609;1.262;0.010806091045173006
21:14.1;-0.029849934882946353;-0.352585368828824;-1.28832618663295;1.2990000000000002;0.01355918258692779
21:14.1;-0.03364613731452916;-0.346857668073571;-1.3281145583702976;1.34;0.015499655671961146
21:14.1;-0.03498757101630809;-0.3380302985025883;-1.3628572731968214;1.368;0.016118320908787676
21:14.1;-0.03323347992447256;-0.3257320836057857;-1.391464590260113;1.389;0.015062897317262767
21:14.1;-0.02800995175107762;-0.3098626806353015;-1.4127359597796942;1.413;0.012261472663111396
21:14.1;-0.019289417176025465;-0.29064974371738383;-1.425423381398384;1.453;0.00799158509873953
21:14.1;-0.007428403055419009;-0.268659980890206;-1.4283419012119187;1.492;0.0028505628187688657
21:14.2;0.006855848780928139;-0.2447555081059335;-1.4205171566726913;1.4780000000000002;0.0023836373800489386
21:14.2;0.022572032744957168;-0.2200003474024825;-1.4013474562491488;1.4780000000000002;0.006958888336072489
21:14.2;0.03858265849753623;-0.1955406369309322;-1.3707515199739668;1.4780000000000002;0.010341604161045119
21:14.2;0.053740687482561354;-0.17248887447457986;-1.329274256460471;1.429;0.012321934623862841
21:14.2;0.06701257154588819;-0.15182883794196128;-1.2781283729865036;1.3519999999999999;0.013004241549232127
21:14.2;0.07757774979118374;-0.13434239581761906;-1.219158976680674;1.264;0.012706051409426284
21:14.2;0.08489697408660614;-0.12055793968035516;-1.1547325755902755;1.172;0.01181869285455092
21:14.2;0.0887423883065903;-0.11072463272758362;-1.0875662801429056;1.081;0.010686391850056305
21:14.2;0.08918802970496442;-0.10481604078313243;-1.0205211923951902;1.002;0.009540175163814946
21:14.2;0.08656626784567316;-0.1025614692490838;-0.9563846200842262;0.9390000000000001;0.008491130415447249
21:14.3;0.08139973400922745;-0.10349800910203018;-0.8976623493415538;0.7929999999999999;0.007562545340410467
21:14.3;0.07432098588866627;-0.10703305418593842;-0.8464008260321375;0.7929999999999999;0.006732951076634888
21:14.3;0.06599454673060287;-0.1125066377672075;-0.804059932213421;0.7929999999999999;0.005970003935329674
21:14.3;0.05705437059375765;-0.11924596735341482;-0.7714493889959032;0.762;0.005248558705429047
21:14.3;0.04806252900457271;-0.12660971434592722;-0.7487235380044323;0.7390000000000001;0.0045561197960864545
21:14.3;0.03948744631788174;-0.13402355107575858;-0.7354173098879887;0.727;0.0038920106244780127
21:14.3;0.03169687757840799;-0.14100931832753946;-0.7305100209134884;0.721;0.003265054789898444
21:14.3;0.02496049708928808;-0.1472090872403923;-0.7325126562020954;0.725;0.002691553289398538
21:14.3;0.019457201990976655;-0.15240368655435968;-0.7395787888835319;0.738;0.0021931094538636363
21:14.3;0.015282749119764849;-0.15652372397324;-0.749639668618165;0.755;0.0017932226502683129
21:14.4;0.012454276621637535;-0.15965036108864758;-0.7605616350282611;0.825;0.0015122473330449796
21:14.4;0.010910359635980414;-0.16200377594924892;-0.7703175338089842;0.825;0.001361551229840637
21:14.4;0.010508678454410508;-0.16391928864375344;-0.7771553946802406;0.825;0.001338708529245533
21:14.4;0.01102570357041288;-0.16581319244443;-0.7797454232337055;0.845;0.0014255361251521057
21:14.4;0.01216223929605707;-0.16814127893007255;-0.7772927730465433;0.847;0.0015895438765122203
21:14.4;0.013557235409870482;-0.17135321557853786;-0.7696098647589308;0.836;0.0017878621152449408
21:14.4;0.014811822670157265;-0.1758460521353933;-0.7571434290204346;0.8190000000000001;0.0019720561852021304
21:14.4;0.015524593512733203;-0.18192045542160565;-0.7409527742763105;0.802;0.0020926292946242876
21:14.4;0.015336147651248777;-0.1897439995759645;-0.7226391606196012;0.782;0.002102838039587942
21:14.4;0.013976738963544214;-0.19932669807219722;-0.7042286815623974;0.759;0.0019619369005817932
21:14.5;0.011307803450483593;-0.21051352149683103;-0.6880130463302317;0.685;0.0016377775771100733
21:14.5;0.00734847249657732;-0.22299514975217263;-0.6763585280839928;0.685;0.0011083309485318618
21:14.5;0.00228203029474156;-0.236333074929688;-0.671502312779595;0.685;0.00036215411472959746
21:14.5;-0.0035587235609496086;-0.24999385183710016;-0.6753580865125983;0.682;0.0006008384070645494
21:14.5;-0.009726871252053768;-0.2633910941428072;-0.6893453400079858;0.696;0.0017660829504629128
21:14.5;-0.015716518661696034;-0.27593604532862714;-0.714249462713994;0.718;0.003097524218595389
21:14.5;-0.02103395675170344;-0.28709433676472085;-0.7501194655638369;0.738;0.004529768817644053
21:14.5;-0.025276859742404997;-0.29644218967384883;-0.7962137459644887;0.769;0.005966131235289979
21:14.5;-0.028209484414559453;-0.3037136137302493;-0.8510081116626371;0.816;0.007291100887030992
21:14.5;-0.02981912460382027;-0.30883011484712536;-0.912283052443137;0.8809999999999999;0.00840125447485862
21:14.6;-0.030339090756800448;-0.3119052376392761;-0.977302271814984;1.166;0.009248134496477548
21:14.6;-0.03022868517444272;-0.3132199432123587;-1.043070061850808;1.166;0.00987602417854457
21:14.6;-0.030110756652374678;-0.31317175239643485;-1.1066191571860775;1.166;0.010435239852273813
21:14.6;-0.030675904964774344;-0.31220601620037153;-1.1652710989405635;1.26;0.011160036795326405
21:14.6;-0.032565169928008404;-0.3107382232664188;-1.2168407220732513;1.33;0.012313507012250301
21:14.6;-0.03624554211366768;-0.30907571678282303;-1.259783740529829;1.3780000000000001;0.014112874633297173
21:14.6;-0.04189857192772445;-0.30734941660953646;-1.2932843456448142;1.3980000000000001;0.01665427128042221
21:14.6;-0.049345740676910846;-0.30546877549630097;-1.317270747254438;1.402;0.019855989916569755
21:14.6;-0.05802919567738211;-0.3031123513156954;-1.3323513860217144;1.3980000000000001;0.0234352160983687
21:14.6;-0.06705504788744834;-0.2997609264281581;-1.3396768974553472;1.393;0.026928153073115507
21:14.7;-0.07529462815376435;-0.2947711788966909;-1.3407434826128724;1.3090000000000002;0.02975738101270022
21:14.7;-0.08152919518992531;-0.28747866803971917;-1.3371628810176108;1.3090000000000002;0.03134029582540414
21:14.7;-0.08461563469310428;-0.27731369859534616;-1.3304332951683882;1.3090000000000002;0.031218716542387656
21:14.7;-0.08364896208775366;-0.26391396383329324;-1.3217461525358791;1.29;0.029179038773664925
21:14.7;-0.07810298667337545;-0.24721989069275005;-1.31185179158923;1.2830000000000001;0.025330037019884753
21:14.7;-0.06793431032663191;-0.22753819815393103;-1.3009940469881245;1.2790000000000001;0.020110311364904536
21:14.7;-0.053632944958997474;-0.20555862949866313;-1.288917132019171;1.2770000000000001;0.014209943603150909
21:14.7;-0.03620359790788342;-0.18231414199810236;-1.274942743121239;1.2790000000000001;0.008415167639621118
21:14.7;-0.017070813459061505;-0.15908673257070544;-1.2581066478588667;1.2790000000000001;0.0034166904667412173
21:14.7;0.0020852603051794583;-0.1372731033352636;-1.2373354205485363;1.278;0.0003541874538821357
21:14.8;0.0195427475038981;-0.118230819982104;-1.211639416732405;1.251;0.002799559587757729
21:14.8;0.03376980774203557;-0.10312732657043891;-1.1802987692057405;1.251;0.00411049668030153
21:14.8;0.04363371763390942;-0.09281344846736903;-1.143022678499206;1.251;0.004629008446182292
21:14.8;0.04855017672647405;-0.08773762464205889;-1.100063272253323;1.207;0.004685914419500033
21:14.8;0.04855263053932166;-0.08790707630301056;-1.052263694444295;1.14;0.00449118750648189
21:14.8;0.044278123131187286;-0.09289447486042361;-1.0010239594382835;1.05;0.004117404738866633
21:14.8;0.036875142677701825;-0.10188686628386567;-0.9481821659671276;0.953;0.003562408323609965
21:14.8;0.0278461306537861;-0.11377288822011193;-0.8958269773955682;0.8640000000000001;0.002838100541452555
21:14.8;0.018846229347580415;-0.1272612899611249;-0.8460713092459757;0.795;0.002029213584965782
21:14.8;0.011466539674227175;-0.1410200614239303;-0.8008229747974329;0.742;0.0012949404635730181
21:14.9;0.007031583257289934;-0.15382215909098468;-0.7615862757712208;0.69;0.0008237418590338208
21:14.9;0.006436999672046736;-0.16467961255822375;-0.7293227456619354;0.69;0.0007731131883244203
21:14.9;0.010046301387049348;-0.17294448340154991;-0.7043911045234309;0.69;0.0012238460175438314
21:14.9;0.01765702511932798;-0.17835883972198416;-0.6865734704136607;0.7;0.0021622165707120087
21:14.9;0.028538331657134968;-0.18104791134759463;-0.6751777347616624;0.7190000000000001;0.0034885119253273648
21:14.9;0.04153329329946746;-0.18146383721140655;-0.6691917455978225;0.727;0.005043558174357774
21:14.9;0.05520978629967518;-0.18029567846647448;-0.6674588041464623;0.738;0.006643942257094441
21:14.9;0.06803676155759653;-0.17836398936044934;-0.6688457782698277;0.747;0.00811664966732404
21:14.9;0.07855976794087462;-0.17651648095924125;-0.6723821169315212;0.75;0.00932398587276038
21:14.9;0.08555111590617388;-0.17553684437610997;-0.6773567319821383;0.7490000000000001;0.010172118643387563
21:15.0;0.0881163678990898;-0.17607375792876906;-0.6833676378936235;0.74;0.01060243525576945
21:15.0;0.08575028564443778;-0.17859269125698268;-0.6903255932355853;0.74;0.01057190451628947
21:15.0;0.07834848863931416;-0.18334969910948185;-0.6984173026451612;0.74;0.010032884552952957
21:15.0;0.06618770653656189;-0.1903849693025271;-0.7080359299629305;0.7340000000000001;0.008922063048488898
21:15.0;0.049884260203781366;-0.19953460028161144;-0.7196879750184514;0.73;0.007163512079411584
21:15.0;0.030334608644523323;-0.21045955879105893;-0.7338876690813633;0.728;0.004685291785957669
21:15.0;0.008640102094633562;-0.2226895244858752;-0.7510529804633052;0.735;0.0014450711680517364
21:15.0;-0.013981332299585005;-0.235677877418351;-0.7714191455406532;0.763;0.0025418960675831744
21:15.0;-0.036293499764573675;-0.24886336530904224;-0.7949841824277554;0.802;0.007180394513502504
21:15.0;-0.057145793037414856;-0.26173294463711344;-0.8214955310343868;0.84;0.012287056644942862
21:15.1;-0.07557447413015406;-0.2738786138397421;-0.850478785302824;0.958;0.0176034073933486
21:15.1;-0.09088815319941268;-0.285039633905306;-0.8812991308077737;0.958;0.022831575030338967
21:15.1;-0.10272136737893676;-0.29512149452368874;-0.9132373127602674;0.958;0.027685048002931163
21:15.1;-0.11104441809902599;-0.3041860853338547;-0.945563943434386;1.0070000000000001;0.03193941663894889
21:15.1;-0.1161280248294341;-0.3124136982111098;-0.9776084055910325;1.057;0.03546761897789227
21:15.1;-0.11847053807569605;-0.3200433764733647;-1.0088251280856608;1.101;0.03825032202455803
21:15.1;-0.11869975340477175;-0.32730169962584144;-1.0388526636679234;1.133;0.04036008153542201
21:15.1;-0.11746363041497693;-0.33433186214655675;-1.067551809064364;1.153;0.041924717742776195
21:15.1;-0.11532644092017282;-0.34113474912117525;-1.095009190732516;1.163;0.04307969443740328
21:15.1;-0.11268737233953648;-0.3475318546616036;-1.121500856156999;1.17;0.043920722893300124
21:15.2;-0.10973506778589161;-0.3531573289529869;-1.1474200772226693;1.213;0.04446682328111513
21:15.2;-0.10644323081964961;-0.3574819594971636;-1.1731798265949918;1.213;0.044641292914592456
21:15.2;-0.1026021343354256;-0.35986507905523224;-1.1991022589897062;1.213;0.04427436299646664
21:15.2;-0.09787462270285098;-0.35962605326912606;-1.225308557746477;1.2429999999999999;0.04312873443744857
21:15.2;-0.09186495568595152;-0.3561281633094341;-1.2516242189770257;1.276;0.0409477598836179
21:15.2;-0.08419035633916054;-0.34886951391133764;-1.277513124061271;1.301;0.037522411176805597
21:15.2;-0.07454671144624501;-0.33757312462142186;-1.3020476943539834;1.306;0.03276598636654622
21:15.2;-0.06276433262173432;-0.3222629772634314;-1.3239190132900736;1.2919999999999998;0.02677840771487816
21:15.2;-0.048854897285637744;-0.3033091450159742;-1.3414949272695842;1.305;0.019878455785510455
21:15.2;-0.03304941519942489;-0.2814267649061134;-1.3529400501799302;1.358;0.01258368187950543
21:15.3;-0.015819263352852483;-0.2576210694934725;-1.3564066991592107;1.456;0.005527866688875414
21:15.3;0.0021314063263479233;-0.23308431272515756;-1.3502830598501419;1.456;0.000670817084656629
21:15.3;0.019907427701963434;-0.20906701514491038;-1.3334558755275716;1.456;0.0055498253374401995
21:15.3;0.03649686727036343;-0.18675151954151964;-1.3055330337876863;1.4509999999999998;0.00889831135062658
21:15.3;0.05087396469084122;-0.16714374056279466;-1.2669826749677822;1.409;0.010773489126119251
21:15.3;0.062121900247654065;-0.1509861447442564;-1.2191633416645078;1.325;0.011435198916018019
21:15.3;0.069555845114713;-0.1386956557171427;-1.164234699374902;1.2109999999999999;0.011231481055702073
21:15.3;0.07282169301806546;-0.13033616156045968;-1.1049564201679747;1.094;0.010487472811413837
21:15.3;0.07195131151312403;-0.1256346161479106;-1.0444047627136266;0.993;0.00944097560410511
21:15.3;0.06736344299663748;-0.12404118706163057;-0.9856527021991118;0.92;0.008235957688432787
21:15.4;0.05980655441634183;-0.12482285123736983;-0.9314632426330464;0.804;0.006953582354751282
21:15.4;0.05025158741534234;-0.12717198144126582;-0.884039253242421;0.804;0.0056495358964186344
21:15.4;0.039758604424966384;-0.1303099086624505;-0.844861219982844;0.804;0.00437717538297596
21:15.4;0.029347677833300015;-0.1335702503154701;-0.8146255991104369;0.792;0.0031933133468589484
21:15.4;0.019894067995616223;-0.13645480517071132;-0.7932740198180146;0.787;0.002153454315189028
21:15.4;0.012054180721885929;-0.1386612811321692;-0.7800896467092538;0.792;0.0013038793905040208
21:15.4;0.006223296014327643;-0.14008536717119444;-0.7738363638854665;0.799;0.000674624898587678
21:15.4;0.002524483473444909;-0.14080155580470227;-0.7729208387027094;0.8079999999999999;0.00027473564013533733
21:15.4;0.0008256432026483175;-0.1410288724406388;-0.7755606497496629;0.813;9.030591747181546e-05
21:15.4;0.0007798089904711998;-0.14108862028074837;-0.7799444027846579;0.82;8.581117922099102e-05
21:15.5;0.001883684534210794;-0.14136065805580997;-0.7843734751747771;0.8270000000000001;0.00020886209464849874
21:15.5;0.003548497908438782;-0.14224257467119533;-0.7873789748701184;0.8270000000000001;0.00039742755235628257
21:15.5;0.005174582689572502;-0.14411334835218004;-0.7878107002814528;0.8270000000000001;0.0005874912671182104
21:15.5;0.006219950004807278;-0.14730138070950183;-0.7848972962938029;0.815;0.0007191285726894512
21:15.5;0.006255756909926579;-0.1520570675357595;-0.7782789461121926;0.802;0.0007403238781137227
21:15.5;0.005004830584246775;-0.15853137704724482;-0.7680161034744201;0.7929999999999999;0.0006093613984878673
21:15.5;0.0023607664326342976;-0.16676265822736216;-0.7545791017876692;0.79;0.00029706850030566386
21:15.5;-0.0016135015323285218;-0.1766731545404186;-0.7388223216098629;0.785;0.00021061046828860363
21:15.5;-0.0067058612857337115;-0.18807468872215516;-0.7219428603408053;0.7759999999999999;0.0009105163380795687
21:15.5;-0.012588917052819799;-0.20068129494749926;-0.7054197030106634;0.765;0.0017821442451552544
21:15.6;-0.01886069615992299;-0.21412661024176713;-0.6909282840711511;0.72;0.0027903670321510806
21:15.6;-0.025085249068745773;-0.2279847335038088;-0.6802291090916489;0.72;0.0038902668874206433
21:15.6;-0.030828117923830903;-0.2417936284447397;-0.6750363026062476;0.701;0.0050317492825441386
21:15.6;-0.03568499858450232;-0.2550807600471218;-0.6768772821541629;0.693;0.006161313745809967
21:15.6;-0.03930550410184201;-0.2673918493665461;-0.6869560588914831;0.6970000000000001;0.007219888554040936
21:15.6;-0.04141585660380965;-0.27832344810537346;-0.7060330359606026;0.7140000000000001;0.008138445641094809
21:15.6;-0.041843480066400644;-0.28755773793548134;-0.7343346468176661;0.7440000000000001;0.008835820302710323
21:15.6;-0.040543191916701506;-0.2948951653593537;-0.7715047436417741;0.7829999999999999;0.009224103990909626
21:15.6;-0.037620211672882;-0.3002788936972843;-0.8166062480194917;0.8270000000000001;0.009224837836525472
21:15.6;-0.03334129584031921;-0.30380536873809594;-0.8681779928445461;0.87;0.008794004676246553
21:15.7;-0.02812447934885633;-0.3057172092325087;-0.9243471120234175;1.061;0.007947663416837197
21:15.7;-0.02250274462009228;-0.30637727144625687;-0.9829858282233771;1.061;0.006777028190413367
21:15.7;-0.017065845521259386;-0.30622546686460006;-1.0418853373498251;1.061;0.005444889139088753
21:15.7;-0.012390010740821206;-0.30572177852666227;-1.0989188759508817;1.1540000000000001;0.0041625905460226246
21:15.7;-0.008964124998173673;-0.30527982790844693;-1.1521859333260547;1.242;0.003153033469302846
21:15.7;-0.007119709983459597;-0.30519720533603545;-1.2001409584327551;1.311;0.002607804998481969
21:15.7;-0.006974309018373752;-0.30559222173444056;-1.2416976654482488;1.348;0.002646423514286417
21:15.7;-0.008398725643247623;-0.3063593515090053;-1.2762864922629704;1.36;0.00328392106129496
21:15.7;-0.011014481290615732;-0.3071551724879632;-1.303846926083741;1.364;0.004411116117722654
21:15.7;-0.014221104685934637;-0.3074228862848895;-1.3247522839626087;1.368;0.005791675301518286
21:15.8;-0.017247259261101936;-0.306457185673708;-1.3396796227654455;1.341;0.007080938986432818
21:15.8;-0.019218907806303368;-0.30350255430888323;-1.3494471987745427;1.341;0.007871308791124994
21:15.8;-0.019242462413375756;-0.29786884079898507;-1.354847031872999;1.341;0.007765617341674351
21:15.8;-0.016505709442778602;-0.28904377931325526;-1.3564998155144077;1.319;0.006471687852729788
21:15.8;-0.010396943708266793;-0.2767858672572678;-1.3547536166779204;1.3259999999999998;0.003898611170956088
21:15.8;-0.0006318447481566008;-0.2611870068681422;-1.3496405130216476;1.3419999999999999;0.00022273068607199948
21:15.8;0.012635615792405889;-0.2426971494555305;-1.3408974654388457;1.36;0.00411203362472409
21:15.8;0.028748802437577117;-0.2221050571447179;-1.3280463433381;1.3730000000000002;0.008479913768146975
21:15.8;0.04655708200385527;-0.20047429871313413;-1.310514776198318;1.3769999999999998;0.012231687520762384
21:15.8;0.06451083078054544;-0.17904132672127038;-1.2877702675480835;1.357;0.014873881459442498
21:15.9;0.08083748097682826;-0.15908959004142373;-1.2594397347127184;1.253;0.016196900916159277
21:15.9;0.09377155588798075;-0.14181828554175685;-1.2253984646629563;1.253;0.016295987569358256
21:15.9;0.10179369819492802;-0.1282253290666269;-1.1858303883941783;1.253;0.015478087250623596
21:15.9;0.10383308509996038;-0.11901847316347007;-1.14126812874053;1.2109999999999999;0.014103854592835618
21:15.9;0.09940548231166356;-0.11455789410915487;-1.0926105747197021;1.159;0.012442302557632392
21:15.9;0.08867772829024122;-0.11482698573163014;-1.0411050600101484;1.097;0.0106011524706463
21:15.9;0.07245795496375156;-0.11943015551528721;-0.988283962542179;1.023;0.008552278168349029
21:15.9;0.05211553135446462;-0.12762148590227634;-0.9358556151365693;0.9440000000000001;0.006224433298227095
21:15.9;0.02944031643476048;-0.13836925839322956;-0.8855585868571274;0.867;0.003607442234299908
21:15.9;0.006455333825789697;-0.15045758083065836;-0.8389955429483444;0.81;0.0008148777023016804
21:16.0;-0.014799391738127641;-0.16261979694974996;-0.7974684060715809;0.725;0.0019192465420601202
21:16.0;-0.0324879625112635;-0.17368868266474075;-0.7618411968973663;0.725;0.004298910962431055
21:16.0;-0.04517419754982025;-0.1827376287436931;-0.7324587928731897;0.725;0.006046466189136028
21:16.0;-0.05196382962563491;-0.18918508980515356;-0.7091412554146137;0.7240000000000001;0.006971412929166428
21:16.0;-0.052579193682265976;-0.1928460110332562;-0.6912540151150245;0.728;0.007009099879548186
21:16.0;-0.04736477910964108;-0.19392816200140747;-0.6778371298340992;0.74;0.006226181147346221
21:16.0;-0.03722682323891485;-0.19297976651534784;-0.6677695694012393;0.7440000000000001;0.004797272383838877
21:16.0;-0.023514147697857545;-0.19080015211089982;-0.6599421654658228;0.7390000000000001;0.0029608324771475615
21:16.0;-0.00785486127030355;-0.18832943446951475;-0.6534129514481836;0.732;0.0009665948120400351
21:16.0;0.008029428358984956;-0.1865344177808171;-0.6475235541735612;0.721;0.0009698379503870217
21:16.1;0.022507230812640368;-0.18630536491296915;-0.6419646905225992;0.68;0.0026918977991953644
21:16.1;0.034195423242672954;-0.18837337823528286;-0.6367900952474517;0.68;0.004101888108495569
21:16.1;0.0420745198639526;-0.19325258805604684;-0.6323881528619362;0.68;0.005141954303057836
21:16.1;0.04555223998409556;-0.2012076181585562;-0.6294239648545936;0.6709999999999999;0.005768958730897581
21:16.1;0.04447625654220542;-0.21224581759976127;-0.6287606890041302;0.664;0.0059354376719856486
21:16.1;0.0391038602459294;-0.2261332780938113;-0.6313648907558391;0.6629999999999999;0.00558296028301632
21:16.1;0.030039161921071568;-0.24243186910928474;-0.638201362230988;0.665;0.004647669619512661
21:16.1;0.018148468870930884;-0.26055235999417814;-0.6501258495712876;0.6679999999999999;0.0030742022520957877
21:16.1;0.004462914744940623;-0.2798174630510488;-0.6677866079104999;0.6779999999999999;0.000833932905446366
21:16.1;-0.009924580475698249;-0.2995287290222809;-0.6915477197670175;0.703;0.0020557618152870698
21:16.2;-0.023961907051824077;-0.3190319908379751;-0.7214463854464894;0.845;0.005515179795684237
21:16.2;-0.03673209879140817;-0.3377749972976145;-0.7571874256356794;0.845;0.009394564143947754
21:16.2;-0.04752843836213528;-0.35534804606701925;-0.7981639367515789;0.845;0.013480300638644286
21:16.2;-0.05590020412344898;-0.37149980471596994;-0.8434897586214436;0.893;0.017516680049340046
21:16.2;-0.06166542633393986;-0.38612835257772166;-0.8920431338501323;0.946;0.021240233427506073
21:16.2;-0.06489309147642938;-0.3992540342926719;-0.9425334852302462;1.011;0.024419938490020845
21:16.2;-0.06585938608260797;-0.41098051053272644;-0.9935999591129954;1.093;0.026893694694576854
21:16.2;-0.06498444868306494;-0.4214477904680212;-1.0439369617476089;1.185;0.028590878150564648
21:16.2;-0.06275976580650341;-0.43078126290522095;-1.092427232975979;1.263;0.029534568997634632
21:16.2;-0.05967870121971386;-0.43904347639597247;-1.1382512031784895;1.308;0.02982393949568835
21:16.3;-0.05618036842007556;-0.4461971826234923;-1.1809388072838862;1.307;0.029603209659533055
21:16.3;-0.05261088181923235;-0.45208582975806666;-1.2203426914711435;1.307;0.029025404468363946
21:16.3;-0.04920027260354542;-0.4564319755781751;-1.2565362989717601;1.307;0.028217504934505467
21:16.3;-0.04605109810540446;-0.45885027844320186;-1.2896631462640662;1.31;0.027251303445076314
21:16.3;-0.04313507368892627;-0.45887316720961707;-1.3197737650681296;1.321;0.026122978816092584
21:16.3;-0.0402949898484022;-0.4559908313188855;-1.3466848242179863;1.347;0.02474418346702889
21:16.3;-0.03725092184450302;-0.44970803805463533;-1.3698867133796593;1.38;0.022948395618552997
21:16.3;-0.033613792898744936;-0.4396162090014331;-1.3885154881721846;1.3980000000000001;0.020518326923003795
21:16.3;-0.028914846536550198;-0.4254706938635323;-1.4013961465238025;1.406;0.017240563727073457
21:16.3;-0.022660923877740324;-0.40725515389930805;-1.4071591775258192;1.443;0.012986359718205758
21:16.4;-0.01441730426577406;-0.385214760987399;-1.4044265820617965;1.546;0.007799845950935326
21:16.4;-0.003905015871044907;-0.3598508448496944;-1.3920472985074244;1.546;0.0019561372433658016
21:16.4;0.00891235695911556;-0.3318847065308148;-1.369337524104214;1.546;0.004050329193334348
21:16.4;0.02377882660190685;-0.30220340157183145;-1.3362691760534773;1.501;0.009602486802571551
21:16.4;0.04015065294902048;-0.27179334458451576;-1.2935615511724003;1.4180000000000001;0.014116223594570182
