Time;AccX;AccY;AccZ;Acc-old;Acc-trns
30:31.7;0.02605962047242176;-0.09016241197818749;-0.9661338543188251;0.973;0.00227002640084222
30:31.7;0.019159485827775123;-0.11581880164490894;-0.9198377842678211;0.937;0.0020411464322456245
30:31.7;0.011895362422088015;-0.14098472323168335;-0.8754500262917837;0.878;0.001468186054529797
30:31.7;0.004070698962725388;-0.16509910781832265;-0.8350341409024254;0.8170000000000001;0.0005612003654315446
30:31.7;-0.004393321519920985;-0.18760514823576513;-0.8004241820688579;0.753;0.0006597174029842845
30:31.7;-0.013438307154206564;-0.20797813933089915;-0.7730947973260378;0.753;0.00216070263956656
30:31.7;-0.02287269677146982;-0.22575278982417485;-0.7540670611978174;0.7440000000000001;0.0038936819061808218
30:31.7;-0.03239175094714088;-0.24054448887757768;-0.7438641804447543;0.7509999999999999;0.005795934679107574
30:31.7;-0.04160654734211662;-0.2520655817855949;-0.7425182772052072;0.77;0.007787218765821791
30:31.8;-0.050078089344833626;-0.2601418218475112;-0.7496191637212151;0.7979999999999999;0.009765592739012051
30:31.8;-0.05735460145480638;-0.2647321092607456;-0.7643918661491282;0.826;0.011606223869542314
30:31.8;-0.06301032420396313;-0.26594916838782184;-0.7857890860252768;0.85;0.013167894650937737
30:31.8;-0.06668236654259112;-0.2640739672599815;-0.8125868601384417;0.871;0.014308904653711792
30:31.8;-0.06809970689641343;-0.2595549657430725;-0.8434764938162055;0.89;0.014908967529627096
30:31.8;-0.06709889495165805;-0.25298586786500066;-0.8771505539837482;0.965;0.014889693959695941
30:31.8;-0.06362704126427353;-0.24506245050068728;-0.9123802110372664;0.965;0.014226378447208594
30:31.8;-0.05774124920285004;-0.236526941957411;-0.9480765432194456;0.965;0.012948223700003496
30:31.8;-0.04961649321157777;-0.22811059532107378;-0.9833300239800963;1.005;0.011129376218748266
30:31.8;-0.039566641995282564;-0.22047969509458867;-1.0174329582810744;1.057;0.008875720035490928
30:31.9;-0.02807076439458234;-0.21418424221972351;-1.0498950528439301;1.105;0.00631230019499845
30:31.9;-0.015787280292752986;-0.20960808172144588;-1.0804542426621726;1.14;0.003575376014045378
30:31.9;-0.0035369493791423665;-0.20692340014378321;-1.1090734942987148;1.158;0.0008117060379908017
30:31.9;0.007757305169322216;-0.20605773805706612;-1.1359111456329798;1.171;0.0018157003019998352
30:31.9;0.017173366613958397;-0.2066844101418503;-1.1612581147623928;1.179;0.004121847529575132
30:31.9;0.023921937583224383;-0.2082448667551156;-1.1854445587935587;1.198;0.005905435158173542
30:31.9;0.027482734935571795;-0.21000461010881655;-1.2087262508173175;1.198;0.00697616480746512
30:31.9;0.027714878412079248;-0.2111370919653963;-1.23116543041985;1.198;0.007204335441385077
30:31.9;0.02491579277312019;-0.21082684121084008;-1.252523520818892;1.213;0.006579403205922827
30:31.9;0.019813639570305422;-0.20838189463495413;-1.2721849834802712;1.217;0.005252602134652601
30:32.0;0.0134881328759634;-0.2033406394170028;-1.289132133808283;1.218;0.003535684092891358
30:32.0;0.0072242358730222524;-0.19555182222310477;-1.301989152253847;1.249;0.0018393363361125393
30:32.0;0.0023191269046374243;-0.18520813919350598;-1.3091476833346785;1.317;0.0005623066558569591
30:32.0;-0.00011823284193293316;-0.172824716470589;-1.3089719243311706;1.399;2.6746952930613485e-05
30:32.0;0.0006734073361939855;-0.1591660254135622;-1.3000569368822024;1.4569999999999999;0.00013934474264048325
30:32.0;0.0050273687381364295;-0.14513434864766456;-1.2814899134111206;1.3659999999999999;0.0009350312818558722
30:32.0;0.012857863974912025;-0.13164164238074458;-1.2530581428999572;1.3659999999999999;0.002120964219386541
30:32.0;0.02373338483854524;-0.11949217825106168;-1.2153651276462412;1.3659999999999999;0.003446719414883312
30:32.0;0.03697415610380496;-0.10929868661549019;-1.1698387945995476;1.26;0.0047275837724399
30:32.1;0.05174427067426353;-0.10144100053697216;-1.118627498442867;1.138;0.005871665212206457
30:32.1;0.06712779518277465;-0.09606404871037377;-1.0643923400977844;1.025;0.006863806156294403
30:32.1;0.08218727055345854;-0.0931065436311837;-1.0100279407865003;0.935;0.0077289082263540644
30:32.1;0.0960068495753602;-0.09234911578940767;-0.9583630698086049;0.8690000000000001;0.008496988496491602
30:32.1;0.10772712901872714;-0.09346909921763503;-0.9118928152915643;0.83;0.009181992572408915
30:32.1;0.11658209945358851;-0.09609067873790796;-0.8725791471482799;0.8109999999999999;0.009775026941588291
30:32.1;0.12194647921954203;-0.09982399972443626;-0.8417367450047046;0.83;0.010246617377501356
30:32.1;0.12339273632794694;-0.1042928000868736;-0.8200017343237729;0.83;0.010552580984226267
30:32.1;0.12074544371691483;-0.10915447001356353;-0.807366054999106;0.83;0.010641007836868279
30:32.1;0.11411535740396804;-0.11411776653798611;-0.8032532150892723;0.836;0.010460437057060915
30:32.2;0.10390089705596599;-0.1189616207318606;-0.8066131311697995;0.831;0.009969915037674613
30:32.2;0.09075480163690737;-0.12355434912760954;-0.8160211969145291;0.8220000000000001;0.009150168448497593
30:32.2;0.07552196524023783;-0.1278685061557013;-0.8297757952017412;0.826;0.008013046009057084
30:32.2;0.059158775174167184;-0.13198553449898506;-0.8459968557104877;0.838;0.006605630216235915
30:32.2;0.04264464340348144;-0.13608634054476065;-0.8627329821211418;0.857;0.00500674444083127
30:32.2;0.026894539242599245;-0.14042660941390722;-0.8780841002287761;0.888;0.003316268086849165
30:32.2;0.012680396240694497;-0.14529812053556423;-0.8903406207620554;0.966;0.0016403971624105607
30:32.2;0.0005705346805035883;-0.1509802196880153;-0.8981293700706585;0.966;7.73643712259673e-05
30:32.2;-0.009103028796337266;-0.15768866503305057;-0.9005452006715935;0.966;0.0012926826180695487
30:32.2;-0.016243240672122846;-0.16553060180731902;-0.8972444929440921;0.975;0.002412469184406204
30:32.3;-0.02095440845150929;-0.17447350313057128;-0.8884849061377771;0.963;0.003248291086653838
30:32.3;-0.023485746375196587;-0.18433316188654705;-0.875105405079931;0.935;0.0037885079724009167
30:32.3;-0.024165713143188824;-0.1947821572676132;-0.8584465449433007;0.8959999999999999;0.004040750584411406
30:32.3;-0.0233413918203284;-0.2053767848854952;-0.8402173396707359;0.855;0.004027817084290041
30:32.3;-0.02133434194495709;-0.21559862423157378;-0.8223233237151547;0.823;0.0037824034002331597
30:32.3;-0.018418348792336284;-0.2249067011799277;-0.8066767682579877;0.794;0.0033415859665065564
30:32.3;-0.01481694512720656;-0.2327956485131069;-0.7950120450379112;0.772;0.0027422512253419623
30:32.3;-0.010713091065703305;-0.23885288577786906;-0.7887279285892683;0.772;0.0020182386027639133
30:32.3;-0.006262948725041927;-0.24280536473879177;-0.7887751802893824;0.772;0.0011994727082879322
30:32.3;-0.0016086756767621268;-0.244547539703093;-0.7956013526462661;0.8009999999999999;0.000312987725486508
30:32.4;0.0031123359310630317;-0.24414711959384172;-0.8091555731359601;0.8320000000000001;0.0006148513079217344
30:32.4;0.0077629723674499445;-0.24183000614939185;-0.8289461652734881;0.872;0.001556196929301543
30:32.4;0.012206067095261241;-0.23794872111265755;-0.8541355593220232;0.91;0.0024807667400257544
30:32.4;0.016305613625157624;-0.23294055545663114;-0.8836521599467011;0.938;0.0033563218267463222
30:32.4;0.019926224223414106;-0.22728232544892188;-0.9162996231497145;0.9570000000000001;0.004149809735149892
30:32.4;0.022929237261313365;-0.22144696154692803;-0.9508507239004846;0.972;0.004828049070119201
30:32.4;0.025167491107638922;-0.21586454819076817;-0.9861222430238322;1.058;0.0053573744478092175
30:32.4;0.02648367413111998;-0.21088939480971852;-1.0210317799485624;1.058;0.005702591151073842
30:32.4;0.026716735863512555;-0.2067752973888231;-1.0546351046061841;1.058;0.005826185044741519
30:32.4;0.025717965967596235;-0.20366087604779023;-1.08614300453138;1.099;0.005688938439384625
30:32.5;0.02337547333775078;-0.2015647138933788;-1.1149241799153586;1.139;0.0052531554746589855
30:32.5;0.019643246164892176;-0.20038771281111156;-1.1405046492625632;1.17;0.004489328728447838
30:32.5;0.014568842403563596;-0.19991921841303611;-1.1625677574126716;1.192;0.0033860850689799624
30:32.5;0.008313715048645094;-0.19984462768354902;-1.1809510326299066;1.208;0.0019620926148934694
30:32.5;0.0011622676893978873;-0.19975565780349397;-1.1956344135181263;1.2229999999999999;0.0002775898999721214
30:32.5;-0.006482852379203984;-0.19916815474707103;-1.2067166111212153;1.2329999999999999;0.0015580856338437941
30:32.5;-0.01412253441215449;-0.1975521592833609;-1.2143791370857773;1.212;0.003388041490204327
30:32.5;-0.021202688269346955;-0.1943748054372731;-1.2188411242613313;1.212;0.005023171418694258
30:32.5;-0.027172256499385518;-0.18915346997011606;-1.2203128397216647;1.212;0.006272074367247866
30:32.5;-0.03154878842411462;-0.18151643610182389;-1.2189584096393644;1.22;0.006980516042472022
30:32.6;-0.03398266428781439;-0.17126733344532755;-1.2148754473274856;1.232;0.00707072124803199
30:32.6;-0.03431252881480629;-0.15844512575724468;-1.2080926551325357;1.234;0.00656798048907716
30:32.6;-0.03260312509573705;-0.14336618901227433;-1.198580379692921;1.22;0.005602387384766062
30:32.6;-0.02915674333148222;-0.12663394739538114;-1.1862666566906086;1.195;0.004379973491260226
30:32.6;-0.02449330157159751;-0.10910660613792227;-1.1710535146095813;1.168;0.0031295011713137447
30:32.6;-0.019297635608058934;-0.09182208966636941;-1.152833489443145;1.143;0.0020427624106538517
30:32.6;-0.014334578253643234;-0.07588830603406581;-1.131510856049257;1.105;0.001230887903155432
30:32.6;-0.010338622339627674;-0.06235619345963439;-1.1070336453045406;1.105;0.0007136792784890526
30:32.6;-0.007896998431376154;-0.05209999331183075;-1.0794401838108278;1.105;0.0004441179235241821
30:32.6;-0.00735171301305658;-0.04572663331867243;-1.048916958081589;1.0859999999999999;0.0003526134542617996
30:32.7;-0.00873973183399535;-0.043524179366526805;-1.015855616022575;1.062;0.00038642096828198986
30:32.7;-0.011779713619468182;-0.045448852574970944;-0.980892161480079;1.032;0.0005251446187907249
30:32.7;-0.015907026176067113;-0.05114702461323716;-0.9449134992546556;0.992;0.0007687788443343794
30:32.7;-0.020353299562734205;-0.06000834263111282;-0.9090222641724434;0.937;0.0011102504991580512
30:32.7;-0.02425940922177694;-0.07124459816874729;-0.874457968627665;0.879;0.0015113710581580746
30:32.7;-0.026803934014510894;-0.08398672048352668;-0.842481183258231;0.8270000000000001;0.0018965721682212538
30:32.7;-0.027325838593014677;-0.09738964033267464;-0.8142371380628469;0.742;0.0021668915087046468
30:32.7;-0.025422168662963752;-0.1107305112338859;-0.7906241245661737;0.742;0.0022256146055802104
30:32.7;-0.021008355673618688;-0.12348205671555142;-0.7721963438797527;0.742;0.0020031969808129396
30:32.7;-0.014336044313852034;-0.13534606183585515;-0.7591237804115709;0.74;0.0014729484738917847
30:32.8;-0.0059678006214533875;-0.14624356609816583;-0.7512143878745954;0.755;0.0006556241934694446
30:32.8;0.0032882794996304194;-0.1562702613512719;-0.7479879167665714;0.774;0.0003843612929149339
30:32.8;0.012475328490251196;-0.1656311756477821;-0.7487829294421174;0.794;0.0015472126563846104
30:32.8;0.02060143397116994;-0.1745687442198589;-0.752876007411934;0.813;0.002707618019694338
30:32.8;0.02675407147866703;-0.1832961971128195;-0.7595921737568764;0.8320000000000001;0.0037249789179959426
30:32.8;0.030201110088117284;-0.19194560799099947;-0.7683881313694652;0.84;0.004454323282356485
30:32.8;0.030468168969087047;-0.2005371967517341;-0.7788949705564611;0.823;0.004759049201049958
30:32.8;0.027386587395906693;-0.20897259375224136;-0.790915267039874;0.823;0.004526444615251099
30:32.8;0.021110483501474233;-0.21705003634503367;-0.8043803828743671;0.823;0.0036856960200525746
30:32.8;0.012103489038775206;-0.2244973194249271;-0.8192824218857737;0.8240000000000001;0.0022261548889548444
30:32.9;0.0010959655269465296;-0.23101962018039182;-0.8355979550075501;0.8340000000000001;0.00021156466165776425
30:32.9;-0.010984708146152189;-0.23635890503130116;-0.8532195145641429;0.8540000000000001;0.0022152424848908138
30:32.9;-0.023103786889359827;-0.24035683909791877;-0.8719086829382067;0.88;0.004841842482232093
30:32.9;-0.03421863096718374;-0.2430081870305733;-0.8912807600625623;0.912;0.007411362693659799
30:32.9;-0.043378552800952035;-0.2444908409096905;-0.9108251165859108;0.9390000000000001;0.009659900460115748
30:32.9;-0.04981741060984284;-0.2451624347266738;-0.9299590208132651;0.9670000000000001;0.011357922146040474
30:32.9;-0.05303121086344472;-0.24552118040393725;-0.9481068402089299;1.038;0.012344621734014028
30:32.9;-0.052832074800896585;-0.24613829105255383;-0.9647897122689603;1.038;0.012546122142164154
30:32.9;-0.049371094851985015;-0.24757708457144026;-0.9797045628620039;1.038;0.011975077518080312
30:32.9;-0.04312583347192317;-0.2503149392465952;-0.9927732509364947;1.044;0.010717027337486938
30:33.0;-0.03485160178714436;-0.2546789402290424;-1.0041546685778644;1.043;0.008912845717971967
30:33.0;-0.025499214924407446;-0.26079978269608517;-1.0142248787526535;1.044;0.006744787853530287
30:33.0;-0.016106621056927284;-0.2685848689260042;-1.0235352011704064;1.054;0.004427807861069704
30:33.0;-0.007677045690993033;-0.27771000329746054;-1.032757749000053;1.0659999999999998;0.0022018316555507825
30:33.0;-0.0010604763955732333;-0.2876289778200791;-1.0426255093024466;1.0759999999999998;0.0003180255339986912
30:33.0;0.0031436322915410443;-0.2976015186163393;-1.053870951703629;1.079;0.0009859486990057874
30:33.0;0.004648634309431632;-0.3067409687565718;-1.0671649126967262;1.135;0.0015216988264981255
30:33.0;0.003502855728076321;-0.31408137361954136;-1.0830555023879156;1.135;0.0011915578856881456
30:33.0;7.542854699692642e-05;-0.3186598404582386;-1.1019039107557047;1.135;2.64854161189847e-05
30:33.0;-0.0049868888616000345;-0.31960833985840226;-1.1238139301433636;1.163;0.0017911922599311934
30:33.1;-0.010827281309026169;-0.316250397388344;-1.1485573486507408;1.172;0.003932811990433341
30:33.1;-0.01647036467726651;-0.3081969847227607;-1.17550387142552;1.162;0.005966994868884182
30:33.1;-0.02093725997696039;-0.29542971338686497;-1.2035698951231248;1.159;0.007444668002914233
30:33.1;-0.023377186774745894;-0.27835326231850777;-1.2312077266934967;1.181;0.008011611747108441
30:33.1;-0.023196328477420224;-0.2577985743887639;-1.256461537649469;1.2309999999999999;0.007513615384244191
30:33.1;-0.020154316224082622;-0.23496448259410288;-1.277109180689409;1.3;0.006047812444043053
30:33.1;-0.01439959721449632;-0.21129710750121433;-1.2908872425069928;1.4040000000000001;0.0039276447984357985
30:33.1;-0.006432326217988703;-0.18832422670824606;-1.295767148847881;1.4040000000000001;0.001569644200537714
30:33.1;0.0029905227740953085;-0.16747972588223647;-1.290227560810016;1.4040000000000001;0.0006462129697124889
30:33.1;0.012978516325377974;-0.1499549374984797;-1.2734682788819318;1.383;0.002478414546291712
30:33.2;0.022635314146267786;-0.1365956969053484;-1.2455319801539442;1.335;0.0038510435278105936
30:33.2;0.03117495732250825;-0.12784599818111023;-1.2073241040501173;1.27;0.004811903146347053
30:33.2;0.03801240981863521;-0.123734829471159;-1.1605369436973416;1.2;0.005458537986858929
30:33.2;0.04281503581435791;-0.12390448544180517;-1.1074937865475372;1.122;0.005875226830078787
30:33.2;0.045509915035253146;-0.1276771009216264;-1.0509351428875517;1.046;0.00610653643259781
30:33.2;0.04625243792299866;-0.134151504875371;-0.9937712875753467;0.98;0.006166186023952432
30:33.2;0.04536862804669963;-0.14231774167156713;-0.9388256756221468;0.825;0.006061772713687059
30:33.2;0.04328598734360628;-0.1511731664850716;-0.8885971239202434;0.825;0.0058146950245129125
30:33.2;0.040466319545086844;-0.15982351196099887;-0.8450727767749624;0.825;0.0054654822449861085
30:33.2;0.03734976917735824;-0.16755701888506136;-0.8096154586814304;0.795;0.005066748400692057
30:33.3;0.0343138207564249;-0.17388813752756418;-0.7829261153212186;0.7759999999999999;0.0046715372251065436
30:33.3;0.0316468978723713;-0.1785737514271372;-0.7650647103772852;0.768;0.004323614232783575
30:33.3;0.029534736363733785;-0.18160665688113894;-0.7555127440340734;0.7659999999999999;0.004052347280929359
30:33.3;0.028057927374032905;-0.1831906306100715;-0.7532667454302544;0.7659999999999999;0.0038717529631899475
30:33.3;0.027199670523678058;-0.18370127267993924;-0.7569549896042502;0.775;0.0037822119678200643
30:33.3;0.02686303917306814;-0.1836369251602556;-0.7649705230579433;0.789;0.0037736347132557462
30:33.3;0.02689619311187163;-0.1835636575322552;-0.7756138362471034;0.8390000000000001;0.0038293323854785653
30:33.3;0.02712191920418531;-0.18405791721080847;-0.7872362893738791;0.8390000000000001;0.003929886673602461
30:33.3;0.027366140864474572;-0.18565076595721333;-0.7983716330134332;0.8390000000000001;0.004056163018453578
30:33.3;0.027480486139816757;-0.1887780167710136;-0.8078436514469491;0.855;0.0041908599408755935
30:33.4;0.027356599512369795;-0.19373994198726663;-0.8148446047320732;0.868;0.0043187301868572725
30:33.4;0.026932697535051526;-0.20067305278852315;-0.818984345508058;0.878;0.00442633736609029
30:33.4;0.026194139461898386;-0.20953561114806418;-0.8203091322086673;0.887;0.004502352821522668
30:33.4;0.025169388062164098;-0.22010789940036732;-0.8192863114334553;0.884;0.004538830709960291
30:33.4;0.02392229389259289;-0.23200777973743586;-0.8167507647087114;0.868;0.004533096029447049
30:33.4;0.02254272377492235;-0.24472204633178415;-0.8138123709913153;0.847;0.004489559921330033
30:33.4;0.021139185941047255;-0.2576534700014997;-0.81173060218177;0.8240000000000001;0.004421159405891874
30:33.4;0.019836378811528062;-0.27017940764787196;-0.8117713038493062;0.8240000000000001;0.004350591764845637
30:33.4;0.01877695122948056;-0.2817112693585447;-0.8150673465544287;0.8240000000000001;0.0043114444355543645
30:33.4;0.018123546191863436;-0.29174258408826664;-0.822504046620743;0.8390000000000001;0.00434891628470392
30:33.5;0.018056984033157777;-0.2998800121561774;-0.8346422476180644;0.8640000000000001;0.004519528170190085
30:33.5;0.018767869518957987;-0.3058585532714081;-0.8516825121742622;0.889;0.004888924553408431
30:33.5;0.02044010358206302;-0.3095435438855801;-0.873467163279416;0.914;0.00552651592322357
30:33.5;0.023226215894316355;-0.3109212608717299;-0.8995133158524532;0.941;0.00649585729661278
30:33.5;0.027217297113711132;-0.31008054763211906;-0.9290693117227061;0.971;0.007840930992159488
30:33.5;0.0324145396905845;-0.3071890455098891;-0.9611882074336526;1.0070000000000001;0.00957092729447517
30:33.5;0.03871244854220873;-0.3024683741705925;-0.994812091192413;1.101;0.011648544634891815
30:33.5;0.04590094045982856;-0.2961729959658773;-1.0288566227782252;1.101;0.013986913847483308
30:33.5;0.05368455762400496;-0.2885769054826831;-1.0622796129311023;1.101;0.01645696696710935
30:33.5;0.06171036867151174;-0.2799697691914631;-1.0941214978258635;1.122;0.01890317833752418
30:33.6;0.06959750422676111;-0.2706603398524437;-1.1235207445159647;1.148;0.021164079509380554
30:33.6;0.07696495753994793;-0.2609819013756563;-1.1497191085678573;1.172;0.02309378798699792
30:33.6;0.0834550881657895;-0.25129339847273835;-1.1720707557014494;1.2;0.024580331181971705
30:33.6;0.08875099384074175;-0.24197110802678307;-1.1900613609486501;1.227;0.025556777555757058
30:33.6;0.09258828032886089;-0.23338919002420844;-1.2033356212878192;1.2570000000000001;0.026003004288509452
30:33.6;0.09476257578562829;-0.22589143491317337;-1.2117255434928516;1.272;0.025938262684110973
30:33.6;0.09513213193606433;-0.21975856432950566;-1.2152684043932813;1.24;0.025406523683371547
30:33.6;0.09361427769552062;-0.21517622944000742;-1.2142053490840357;1.24;0.024458427160767605
30:33.6;0.09017847692847848;-0.21221029351294635;-1.2089589810016494;1.24;0.023135607506158326
30:33.6;0.08484266166133433;-0.2107960780962498;-1.2000944753274148;1.23;0.021463090044172253
30:33.7;0.07767783472545525;-0.21074436324670207;-1.1882688534776409;1.207;0.01945215816731679
30:33.7;0.06882061070722814;-0.21176182354463352;-1.1741711615945538;1.177;0.017111875033292687
30:33.7;0.05848884984226825;-0.2134816636705831;-1.1584581230432878;1.149;0.014464852152213872
30:33.7;0.046993236730723136;-0.21550093284289548;-1.1416944125133182;1.1320000000000001;0.011562037904006355
30:33.7;0.0347380273254106;-0.2174205550941058;-1.124309131865976;1.129;0.008491638369934716
30:33.7;0.022207533645634547;-0.21888174834799853;-1.1065771220389913;1.127;0.005378876401221316
30:33.7;0.009940059397424882;-0.21959170498742875;-1.0886264606652243;1.0959999999999999;0.0023762044046363924
30:33.7;-0.0015043263267697042;-0.21933507579206482;-1.0704669141914045;1.0959999999999999;0.0003532021949722118
30:33.7;-0.011574402483513394;-0.21797399774844903;-1.052031777156665;1.0959999999999999;0.002654190728672156
30:33.7;-0.019752622773774684;-0.2154429502939786;-1.0332248128220944;1.085;0.004396953621399124
30:33.8;-0.02557602280862335;-0.21174352156941892;-1.0139617995984551;1.0659999999999998;0.005491168060701784
30:33.8;-0.028658210339999577;-0.20694130555548673;-0.9941952228565866;1.036;0.005896141840188639
30:33.8;-0.028715571322802707;-0.20116538871812878;-0.9739146547705447;0.9940000000000001;0.005625895008195999
30:33.8;-0.025596483603306543;-0.19460967439896862;-0.9531235782180908;0.95;0.004747816725889584
30:33.8;-0.01930831290356792;-0.18753373809390206;-0.931802650035768;0.912;0.003374020212281252
30:33.8;-0.010033898799470493;-0.18025951422812048;-0.9098763703320045;0.8809999999999999;0.0016456985986119854
30:33.8;0.001871705435541725;-0.17316022862188277;-0.8872018022202491;0.87;0.00028754648788011127
30:33.8;0.01590814949258988;-0.16664069987459462;-0.8635927398735431;0.87;0.0022893369984306033
30:33.8;0.031472905555149595;-0.16111197952514286;-0.8388816636043641;0.87;0.004253685470940713
30:33.8;0.047906658589101266;-0.1569645107849949;-0.8130093097652411;0.8640000000000001;0.0061135415771315866
30:33.9;0.06453190532740723;-0.15454190793240047;-0.7861230074098812;0.856;0.00783991338324491
30:33.9;0.08068242494417856;-0.15411606025809646;-0.7586621516657605;0.8420000000000001;0.009433552254788431
30:33.9;0.09572235209528157;-0.1558654510851554;-0.7314107219969781;0.816;0.01091250724018753
30:33.9;0.10905431978956513;-0.15985976616035913;-0.7055009642472525;0.777;0.01229927914167387
30:33.9;0.12012046412276906;-0.16605305089084704;-0.6823594620964805;0.731;0.013610593991463795
30:33.9;0.12840448231696183;-0.174285514677419;-0.6635970756785371;0.691;0.014850666354873742
30:33.9;0.1334441289472583;-0.1842919530397143;-0.6508557068673951;0.645;0.016006285568925253
30:33.9;0.13486031651756816;-0.19571392706638108;-0.6456343145898558;0.645;0.01704089931346081
30:33.9;0.1324018311899527;-0.20811429984590876;-0.6491206843663035;0.645;0.01788633506651778
30:33.9;0.1259980842863358;-0.22099623548501446;-0.6620515973517697;0.6679999999999999;0.018434894459848417
30:34.0;0.1158094838935347;-0.23383147952799094;-0.6846145041847123;0.6990000000000001;0.018539294339835477
30:34.0;0.10226284284182248;-0.2461009062156486;-0.7163954129231697;0.736;0.018029507808076845
30:34.0;0.08605694101572067;-0.2573444211727258;-0.7563738269672503;0.775;0.01675086177155434
30:34.0;0.0681261730634667;-0.2672124232165096;-0.8029641819242884;0.8140000000000001;0.014617288272397682
30:34.0;0.04955986808961361;-0.27551024976328864;-0.8541028735679327;0.856;0.011662135558389948
30:34.0;0.03148693792574104;-0.2822283967941634;-0.9073812329642041;0.91;0.008063450595530843
30:34.0;0.01494573428312327;-0.28755216049150323;-0.9602243591835105;1.119;0.004126735279482447
30:34.0;0.0007650893847582912;-0.29184532877062697;-1.0101042130372504;1.119;0.0002255439101600038
30:34.0;-0.01051814261762103;-0.2956055967435685;-1.0547551588058384;1.119;0.0032794677599126197
30:34.0;-0.01868892308531135;-0.2993939422159168;-1.0923555695717322;1.173;0.006112112127573897
30:34.1;-0.023829511066882764;-0.30374488834379637;-1.1216595793948236;1.212;0.008118675428330209
30:34.1;-0.026251348777905855;-0.3090698958856966;-1.1420813313949039;1.239;0.00926627874802969
30:34.1;-0.0264007952746449;-0.31557088619761836;-1.1537317633493214;1.25;0.009612111238751513
30:34.1;-0.024757806904604527;-0.32318091539539967;-1.1574001288235523;1.245;0.009260648589323805
30:34.1;-0.021745153804497864;-0.3315432518969174;-1.1544736566430642;1.2329999999999999;0.008323130500315272
30:34.1;-0.017662372480928425;-0.3400326870988428;-1.1467960835255935;1.212;0.006887409541295391
30:34.1;-0.012653647645697222;-0.34781691921134966;-1.1364742422419358;1.127;0.005001796726219388
30:34.1;-0.006711536336605039;-0.35394956322534354;-1.1256526890061667;1.127;0.0026740390166132243
30:34.1;0.00028997490381948624;-0.3574794030405786;-1.1162877858758773;1.127;0.0001157144538536489
30:34.1;0.008544880393509445;-0.35755866402861;-1.1099538942932934;1.117;0.0033912377131620278
30:34.2;0.018258190018282987;-0.3535384209572057;-1.1077015390100182;1.12;0.007150182051574709
30:34.2;0.02958902477206937;-0.3450440115486529;-1.1099735493179064;1.124;0.011332292495078788
30:34.2;0.042595075055686195;-0.3320224650794698;-1.1165803149903306;1.1159999999999999;0.015791261468794466
30:34.2;0.0571787315118128;-0.3147530155178615;-1.1267354010273232;1.123;0.020278057759162537
30:34.2;0.07304239159097904;-0.29381722527450393;-1.1391516906671304;1.161;0.02444746295782681
30:34.2;0.08967169865659826;-0.270035234055699;-1.152192914066154;1.208;0.027899796212565792
30:34.2;0.10636706015980497;-0.24438219696730207;-1.1640646020435554;1.263;0.030258946525146893
30:34.2;0.1223259227636153;-0.21790174759989006;-1.1730161187964383;1.263;0.031266782590025646
30:34.2;0.1367515357724984;-0.1916329468708563;-1.1775201948686473;1.263;0.03085821173052505
30:34.2;0.14895327216832158;-0.1665609696539716;-1.176403832560386;1.245;0.029186345505533798
30:34.3;0.15841620629165726;-0.14358928018354253;-1.1689204040879595;1.216;0.026589279339249774
30:34.3;0.16483409023102058;-0.12352176826515758;-1.1547677229525604;1.182;0.023511761731893666
30:34.3;0.1681067327810704;-0.10704389917021451;-1.134065695277698;1.147;0.020407285547633554
30:34.3;0.16830687832837246;-0.09469790723282996;-1.1073098945332456;1.1179999999999999;0.017648647424575212
30:34.3;0.16562870229327628;-0.08685289009409483;-1.0753149110194693;1.091;0.015468761436859121
30:34.3;0.16033554579901999;-0.08367490392524386;-1.039155024799231;1.067;0.013941367606988919
30:34.3;0.15272367839984619;-0.08510391429275403;-1.0001033547534102;0.973;0.012998726178312738
30:34.3;0.14311105239776542;-0.09084309020871542;-0.9595695177994602;0.973;0.012475027684596043
30:34.3;0.13184840175424006;-0.10036321343134272;-0.919039431170231;0.973;0.01216139999569009
30:34.3;0.11934105476695273;-0.11292392785972226;-0.8800190831668107;0.9209999999999999;0.011859542553648525
30:34.4;0.10606758254958426;-0.12761437314867566;-0.8439744499879581;0.867;0.011423825522814861
30:34.4;0.09258380457866544;-0.1434150533110186;-0.812256470944021;0.818;0.010785069349179506
30:34.4;0.07950456674042367;-0.1592785393103324;-0.7860103900490979;0.778;0.00995354138255672
30:34.4;0.06746109691796101;-0.17422089494705972;-0.7660816337051286;0.7490000000000001;0.009003859084002112
30:34.4;0.05703881672024274;-0.1874115136899215;-0.7529358087690249;0.735;0.00804868124141845
30:34.4;0.0487071883536156;-0.19824739729737373;-0.7466095682962305;0.73;0.007209316733462249
30:34.4;0.0427566643407194;-0.20639928397229812;-0.7467047422891906;0.775;0.0065896282109807166
30:34.4;0.03925670709289111;-0.21182255074994497;-0.75242948043936;0.775;0.006256794110129203
30:34.4;0.0380442588067722;-0.21473433966691133;-0.7626789952019111;0.775;0.00623063648963074
30:34.4;0.03874640877127583;-0.21556488462655662;-0.776142755975958;0.8079999999999999;0.006482627695940033
30:34.5;0.04083546551192916;-0.21489243070418507;-0.791427536057496;0.8440000000000001;0.006944960590533347
30:34.5;0.04370841689907858;-0.21337027407318016;-0.8071877331116721;0.873;0.00752789486613523
30:34.5;0.04677627942795012;-0.21165440038064307;-0.8222503872727118;0.8959999999999999;0.008140612153224504
30:34.5;0.049545479572662934;-0.210340063917918;-0.8357184812257684;0.912;0.00870935602880392
30:34.5;0.05167591615349046;-0.20991397429492617;-0.847037897633167;0.917;0.009188240998498267
30:34.5;0.05300748452525962;-0.21072604008923604;-0.8560191897010875;0.912;0.009561783406649992
30:34.5;0.05355516081344096;-0.2129816151587601;-0.862812659209576;0.885;0.00984146953443012
30:34.5;0.0534795701564811;-0.21675142869286787;-0.867843894017493;0.885;0.01005984962482423
30:34.5;0.0530435145611665;-0.22199237848009004;-0.8717250185100218;0.885;0.010264785220019572
30:34.5;0.05256404647297635;-0.22857143631165236;-0.8751596715162758;0.884;0.010514728046318115
30:34.6;0.05236558489610415;-0.2362881425087159;-0.8788558600738833;0.884;0.010874405909144068
30:34.6;0.052735996026203956;-0.24489436833989778;-0.8834554997363961;0.89;0.01140960553315395
30:34.6;0.0538870490509354;-0.2541103782272965;-0.8894865606227866;0.903;0.01217996933206553
30:34.6;0.055922430303267615;-0.2636359312281997;-0.8973415415337969;0.9229999999999999;0.013229651706781734
30:34.6;0.05881809094191515;-0.27315636660910153;-0.9072821689112044;0.945;0.01457688164038106
30:34.6;0.06241932321525221;-0.28234565448041343;-0.9194654408278082;0.97;0.016204497715076052
30:34.6;0.06645635035065305;-0.29086971981178905;-0.9339817272232618;1.034;0.018053997550466126
30:34.6;0.07057614236376375;-0.29839260824192;-0.950891353168964;1.034;0.020025200601810723
30:34.6;0.07438452071803371;-0.3045854960951483;-0.9702434605629676;1.034;0.021982268711494304
30:34.6;0.07749203095664335;-0.3091371162945828;-0.992065232148046;1.045;0.023765580361215715
30:34.7;0.0795592467405227;-0.3117653129615784;-1.016321469100328;1.0490000000000002;0.025208648133988622
30:34.7;0.0803383730588432;-0.3122302068589066;-1.0428562886225168;1.055;0.02615907684714376
30:34.7;0.07970725076180243;-0.3103479758456887;-1.0713346412724907;1.073;0.026501587809256075
30:34.7;0.0776917971305348;-0.3060028801132207;-1.101202121459942;1.113;0.026179884183252553
30:34.7;0.0744735716070986;-0.2991557810849479;-1.1316774313893088;1.161;0.02521286724581099
30:34.7;0.07037768251816898;-0.2898482239104456;-1.1617826749957016;1.202;0.0236990261989624
30:34.7;0.06583424003939112;-0.27820058517880847;-1.1904056469197122;1.263;0.02180242715715213
30:34.7;0.061312032127923355;-0.26440455039294614;-1.2163790125805984;1.263;0.01971893947204479
30:34.7;0.05723769521146042;-0.24871691462675077;-1.2385568089984298;1.263;0.0176320736196458
30:34.7;0.053923455366728414;-0.23146526234949796;-1.2558738337847164;1.28;0.01567507213767334
30:34.8;0.051520492255424225;-0.21306846975382113;-1.2673865489175584;1.29;0.013912599528030145
30:34.8;0.050001425174103845;-0.194062446658624;-1.2723035304545747;1.291;0.012345668685137154
30:34.8;0.04916667912279861;-0.17511462612440934;-1.2700133789133758;1.281;0.010934567072937313
30:34.8;0.04866811597400405;-0.15701197588346355;-1.2601143867401454;1.268;0.009629135168670781
30:34.8;0.048047475705784784;-0.14061456748493675;-1.2424479945019524;1.2670000000000001;0.008394196098030021
30:34.8;0.04679288484953502;-0.1267767483842916;-1.2171350499417986;1.262;0.007220349142890921
30:34.8;0.044416980508531045;-0.11624713741324304;-1.1846088598525002;1.176;0.006116546409194725
30:34.8;0.040551166501980374;-0.10956557228070085;-1.1456370555266213;1.176;0.005090078915482568
30:34.8;0.035037664893431845;-0.10697881127486916;-1.1013278363314891;1.176;0.004128093626803451
30:34.8;0.02799561002539979;-0.10839410653305766;-1.0531163803203594;1.1159999999999999;0.003195743932699676
30:34.9;0.01984351708997831;-0.11338099947477119;-1.0027199899522596;1.038;0.0022559974457683134
30:34.9;0.011271212767742653;-0.12122241213788205;-0.9520491316698401;0.958;0.001300807196412637
30:34.9;0.003163581055512655;-0.13100830200957403;-0.903074698162038;0.887;0.0003742841693194976
30:34.9;-0.0035137177848880855;-0.141756644389802;-0.8576688699957563;0.83;0.0004271987253958188
30:34.9;-0.0078493878782434;-0.15253960381732778;-0.8174454939998294;0.7829999999999999;0.0009787622454234084
30:34.9;-0.009119689201871983;-0.1625926464310656;-0.7836251984569985;0.748;0.0011619550575077545
30:34.9;-0.006894188106166943;-0.1713911173817492;-0.7569450865512033;0.731;0.0008944082845635942
30:34.9;-0.0010938447607147165;-0.17868750038072972;-0.7376252616055231;0.731;0.00014417356792702641
30:34.9;0.008004035043538254;-0.1845090856253461;-0.7253949700925736;0.731;0.0010712757593385825
30:34.9;0.019805998468411246;-0.18911969580218954;-0.7195713903963364;0.7490000000000001;0.0026953017270106468
30:35.0;0.03347665562506636;-0.19295217651541413;-0.7191767882569557;0.765;0.004645445918389835
30:35.0;0.04803600318231781;-0.1965219191370346;-0.7230756302967785;0.777;0.006825926166050631
30:35.0;0.06246573902934547;-0.20033514733602148;-0.7301120174777511;0.794;0.009136682409302696
30:35.0;0.07580868940597646;-0.20480686829751785;-0.7392299454544454;0.81;0.011477387822675666
30:35.0;0.08724898956415891;-0.21020098791790118;-0.7495635336110873;0.816;0.013746863134250826
30:35.0;0.0961662538365922;-0.21660009241589664;-0.7604897356812201;0.815;0.015840711803785164
30:35.0;0.10216187922656901;-0.22390641966439875;-0.7716421998600086;0.82;0.017651084295061303
30:35.0;0.10506013014919792;-0.2318690191161737;-0.7828919237645277;0.82;0.019071395484631413
30:35.0;0.10489081747901963;-0.24012644731072666;-0.7943059356026572;0.82;0.020006230747446823
30:35.0;0.10186219246879534;-0.24825383913868676;-0.8060971053289127;0.8420000000000001;0.02038432592534778
30:35.1;0.09633094776395099;-0.2558085742457438;-0.8185757510097735;0.872;0.020171574824825084
30:35.1;0.08877293743230888;-0.26237374341534;-0.8321073995453412;0.898;0.01938118585622297
30:35.1;0.07975510440565535;-0.26759915333274714;-0.8470731975430631;0.9109999999999999;0.018078573666868634
30:35.1;0.06990605012046511;-0.2712383855518181;-0.8638250586983318;0.9079999999999999;0.016379163309442665
30:35.1;0.05988079693235044;-0.27317996488388085;-0.8826306978336148;0.904;0.014438279493568476
30:35.1;0.05031631148745984;-0.2734703161748459;-0.9036128935286528;0.9059999999999999;0.012433729328686659
30:35.1;0.041778176888158304;-0.2723251285936456;-0.9266960226710936;0.968;0.010543249908479074
30:35.1;0.03470455957035087;-0.2701248118497254;-0.9515735033837661;0.968;0.0089205853990658
30:35.1;0.029359205658194817;-0.2673901905903006;-0.9777023320539308;0.968;0.00767531879579333
30:35.1;0.025805906877592544;-0.26473626913148;-1.0043259069467012;1.003;0.006861313064243519
30:35.2;0.023911392159101454;-0.26280417109979826;-1.0305288540136075;1.051;0.006475857329913242
30:35.2;0.02337716578616586;-0.2621751640711603;-1.055327352933144;1.101;0.00646800876806999
30:35.2;0.023796512422978856;-0.2632763655960681;-1.077788097181989;1.143;0.0067524063466194275
30:35.2;0.024728588101040477;-0.2662929558171864;-1.0971562687371044;1.1840000000000002;0.007224827591279771
30:35.2;0.025777176083459554;-0.2711039489725995;-1.1129668562795647;1.215;0.007777739859461103
30:35.2;0.026660446452023603;-0.2772571932414496;-1.125114620598627;1.2209999999999999;0.008316622875687945
30:35.2;0.027261023710592833;-0.28399417507269875;-1.1338643331703837;1.182;0.0087783458515428
30:35.2;0.027650997925854206;-0.29032536202991666;-1.1397959039576329;1.182;0.009150037581627628
30:35.2;0.028091708840366818;-0.29514462804113717;-1.143695930483426;1.182;0.009482516722574216
30:35.2;0.029010842898837638;-0.29736522307935587;-1.1464175088548467;1.172;0.009889932644774866
30:35.3;0.03095812547908405;-0.29606203344576937;-1.1487291556999395;1.155;0.01052870646221626
30:35.3;0.03453699099304751;-0.2906052773165221;-1.151170659669818;1.1340000000000001;0.011553876102116716
30:35.3;0.040308432525028734;-0.28076470784635665;-1.1539364217116646;1.113;0.01305931228773697
30:35.3;0.04867141072898305;-0.26676112761982024;-1.1568106654371548;1.115;0.015019613701228994
30:35.3;0.059741741973610624;-0.24925115407681536;-1.1591758735293631;1.1440000000000001;0.017260938016340786
30:35.3;0.07326751194720098;-0.2292455772019173;-1.1601035865859886;1.1840000000000002;0.01948539342363453
30:35.3;0.08861896157054289;-0.20797346984770226;-1.1585175779545454;1.251;0.02135193418047717
30:35.3;0.1048663470993909;-0.18671530792690888;-1.1533983964487775;1.251;0.0225837162533161
30:35.3;0.12092203734111538;-0.16663927219211497;-1.1439840043443013;1.251;0.023051689858695355
30:35.3;0.13570323928102143;-0.14867404213751814;-1.1299226083101364;1.237;0.022796809080182705
30:35.4;0.14828112064992088;-0.1334345475703406;-1.1113496408407542;1.198;0.021988968670803192
30:35.4;0.15799690241873002;-0.12120026455471164;-1.088880454642501;1.143;0.020851261873186536
30:35.4;0.16452856349221423;-0.11193984350353643;-1.0635267412943865;1.084;0.01958729280638826
30:35.4;0.16789463127385906;-0.1053738349815906;-1.036557510029137;1.031;0.018338465713106756
30:35.4;0.1683941487840963;-0.10106206724984185;-1.00933313466591;0.983;0.017177094508620577
30:35.4;0.16649881299428795;-0.09849726815281652;-0.983141314843448;0.95;0.01612320121866518
30:35.4;0.1627261179705283;-0.09718715228991502;-0.9590582411464356;0.907;0.015167398677598106
30:35.4;0.1575257083909792;-0.09671369700453546;-0.9378508575702513;0.907;0.014288058057528271
30:35.4;0.15120366762723159;-0.09676633838047059;-0.919929049178982;0.907;0.013459873133070822
30:35.4;0.14389603113882132;-0.09715084720108175;-0.9053485430566268;0.909;0.012656429807229048
30:35.5;0.1355903656405494;-0.09777765620537189;-0.8938562258219142;0.9159999999999999;0.01185048497569442
30:35.5;0.1261852030797706;-0.09863568333164321;-0.8849629631185565;0.922;0.01101457092842413
30:35.5;0.115570744713041;-0.09976085431979112;-0.8780270860669738;0.917;0.010123157294341677
30:35.5;0.1037109529231766;-0.10120938383584935;-0.8723336583802327;0.9079999999999999;0.00915646912456767
30:35.5;0.09070778380237961;-0.10304267141094725;-0.8671593890228648;0.897;0.008105141409695775
30:35.5;0.07683260633175411;-0.10532528866112631;-0.8618192211835672;0.88;0.006974200034226433
30:35.5;0.06251764500656129;-0.10813261050390846;-0.8556964360682571;0.84;0.005784675758766582
30:35.5;0.04831209846572147;-0.11156146833261961;-0.8482632857913254;0.84;0.004571942858822207
30:35.5;0.03481963938894561;-0.11573637135660814;-0.8391028723184832;0.84;0.003381499586759863
30:35.5;0.022636530612425983;-0.12080585598892732;-0.8279417296324725;0.838;0.002264110530975601
30:35.6;0.01230033568364883;-0.1269274853553362;-0.8146955979713826;0.8370000000000001;0.0012719440541685595
30:35.6;0.004249752505119474;-0.13424349027160293;-0.7995231357523587;0.838;0.00045612923544159
30:35.6;-0.0012054149686961191;-0.14285085174545192;-0.7828775493732859;0.84;0.00013480725122204737
30:35.6;-0.0039031969473999895;-0.1527708490485984;-0.7655433615632716;0.833;0.00045648945804521544
30:35.6;-0.0038361353341791267;-0.1639245696657908;-0.7486439078243305;0.818;0.00047077486466614953
30:35.6;-0.0011454055155807467;-0.1761217785869487;-0.7336062598452141;0.795;0.00014799101921111275
30:35.6;0.0038971561608017956;-0.18906903459805668;-0.722076079122328;0.74;0.0005320484387643355
30:35.6;0.010916825955400491;-0.2023973030621153;-0.715785856621079;0.74;0.0015815547125290167
30:35.6;0.019468207755318646;-0.21570175401552674;-0.7163919301947643;0.74;0.0030083636600950945
30:35.6;0.02906579796260663;-0.22858416939056914;-0.7253003011598674;0.728;0.004818881626879497
30:35.7;0.039209794233105416;-0.2406933353223867;-0.7434976495241482;0.731;0.007016785945768887
30:35.7;0.049406316029569;-0.25176251743068206;-0.771401759519623;0.745;0.009595203053411244
30:35.7;0.05918063986336664;-0.2616403892560626;-0.808749394534981;0.7659999999999999;0.012522712544611186
30:35.7;0.06808249680725348;-0.2703078925120798;-0.8545434435365977;0.804;0.015726364859286537
30:35.7;0.07568619259076635;-0.2778737889974038;-0.9070799653296644;0.865;0.019076988430324734
30:35.7;0.08159246383877976;-0.2845452767097272;-0.9640694916960666;0.946;0.022382560564566955
30:35.7;0.08543951068669135;-0.29057464241425673;-1.02285292858832;1.222;0.025393914760418506
30:35.7;0.0869258358470026;-0.2961884944705993;-1.0806843192814806;1.222;0.02782376582628688
30:35.7;0.08584031064753239;-0.3015122718716906;-1.1350205142589909;1.222;0.02937649548565795
30:35.7;0.08209135543074778;-0.306505734564097;-1.1837544257531853;1.291;0.02978500288869573
30:35.8;0.07572971446895686;-0.31092284608927234;-1.225362219164116;1.337;0.0288524993344294
30:35.8;0.06696429503471968;-0.31430519372211596;-1.2589665747655525;1.359;0.02649775367724652
30:35.8;0.05617316536028432;-0.31601475063857143;-1.2843231801598065;1.365;0.02279872566397197
30:35.8;0.04390985379221854;-0.3153076547997091;-1.3017344888744753;1.3559999999999999;0.01802266112287151
30:35.8;0.030898922478476944;-0.3114432382742382;-1.3119010049212902;1.3319999999999999;0.012624765088928286
30:35.8;0.01800801101966216;-0.30381258401783406;-1.3157319188396346;1.304;0.007198448746741252
30:35.8;0.006183083096260865;-0.2920635262942827;-1.3141463470917871;1.261;0.002373155192280803
30:35.8;-0.003654620947566153;-0.27619966152411746;-1.307900534878646;1.261;0.0013202014292838158
30:35.8;-0.010732637112527537;-0.25663791348991083;-1.2974732616312368;1.261;0.00357376242105191
30:35.8;-0.014545879427433914;-0.23421480100672104;-1.2830306731158474;1.261;0.0043711062069081525
30:35.9;-0.014949598892591254;-0.2101337011611078;-1.2644757469263985;1.272;0.003972242504679073
30:35.9;-0.012213673797789863;-0.1858508754255282;-1.2415715338717392;1.288;0.0028182704989346426
30:35.9;-0.007023561958331054;-0.16291069840670114;-1.2141135090131472;1.301;0.001389204926628462
30:35.9;-0.00041188861597661185;-0.14275501167044136;-1.18211499492888;1.304;6.950737366724702e-05
30:35.9;0.006385613252513768;-0.1265402866478155;-1.145962537373251;1.288;0.0009259805105779328
30:35.9;0.012135402481921808;-0.11499584021399481;-1.106498297442776;1.247;0.001544141394494762
30:35.9;0.015835354835330228;-0.10834714312000768;-1.0649984659144045;0.997;0.0018272343293307377
30:35.9;0.016917532806467666;-0.10631294078544562;-1.0230469168696392;0.997;0.001840003757210949
30:35.9;0.015378187950552553;-0.10816890804883897;-0.9823425882128279;0.997;0.0016340697215630738
30:35.9;0.011805839855947034;-0.11286177915624736;-0.9444941636455149;0.917;0.0012584705550262912
30:36.0;0.007298882124335409;-0.11915765220027749;-0.9108348472992585;0.857;0.0007921691498739504
30:36.0;0.0032839038164486876;-0.12580767140064547;-0.8822680591593421;0.812;0.0003645004838049032
30:36.0;0.0012650190021869234;-0.13170933527724044;-0.8591562674413914;0.795;0.00014314815988482218
30:36.0;0.002550695600883439;-0.13603926064154523;-0.8412730671186328;0.799;0.00029191733227779235
30:36.0;0.00801350879523685;-0.13833843153495473;-0.8278348837191492;0.8140000000000001;0.0009177180809333648
30:36.0;0.01793621976619423;-0.13854052771382536;-0.8176153863896947;0.841;0.0020316870378053672
30:36.0;0.03197989353946408;-0.13694362350383918;-0.809129416565401;0.878;0.0035435357553608273
30:36.0;0.04927320048085601;-0.1341350702017955;-0.800857674229901;0.878;0.005293079960041133
30:36.0;0.06858016550048615;-0.13088787957215003;-0.7914738539711511;0.878;0.007104516603762448
30:36.0;0.08848762368050356;-0.12804901621436443;-0.7800380279338545;0.875;0.008838418349491263
30:36.1;0.10757294317880865;-0.12643412251326014;-0.7661317478743751;0.8590000000000001;0.010420074147004101
30:36.1;0.12453804174350393;-0.1267370835255718;-0.7499229151011357;0.83;0.011836474472618205
30:36.1;0.13830534610513465;-0.12946139955938327;-0.732157810395093;0.7909999999999999;0.013109434716132948
30:36.1;0.1480739625466135;-0.1348791936608577;-0.7140858558899411;0.755;0.014261791744838699
30:36.1;0.15334006391561117;-0.1430193389616277;-0.697330393973894;0.722;0.015292870156840815
30:36.1;0.15389140547909586;-0.15368130038523922;-0.6837237867830627;0.695;0.016170225711031435
30:36.1;0.14978788740358415;-0.16646891749689663;-0.6751262430328973;0.6859999999999999;0.01683429141589286
30:36.1;0.1413380241699936;-0.18083757319580482;-0.6732459176152547;0.6859999999999999;0.01720764408470335
30:36.1;0.12907633907000537;-0.19614762727439575;-0.6794741966100809;0.6859999999999999;0.017202939699671703
30:36.1;0.11374084572207138;-0.21171909331574681;-0.6947457148597467;0.693;0.016730247098713347
30:36.2;0.09624530600762353;-0.22688767807447727;-0.7194297800400489;0.7090000000000001;0.01571009746263786
30:36.2;0.07763993952697947;-0.2410643914829496;-0.7532602781906422;0.7390000000000001;0.014098188682084336
30:36.2;0.059056399887906744;-0.2537967761374317;-0.7953132209411199;0.7809999999999999;0.011920412158876145
30:36.2;0.041635834413813744;-0.26482399336469215;-0.8440416388952023;0.833;0.009306544855888617
30:36.2;0.026441648729971384;-0.2741147194083507;-0.897375433657235;0.892;0.006504217634800393
30:36.2;0.014362049674421437;-0.2818761194262071;-0.9528899982547566;0.963;0.0038576025221218986
30:36.2;0.006012200768204278;-0.28852451187853695;-1.0080393480207916;1.2109999999999999;0.0017486128860222702
30:36.2;0.0016516350292194652;-0.29461564263961854;-1.0604291001609654;1.2109999999999999;0.0005160021655442171
30:36.2;0.001136980788993995;-0.30074310729733433;-1.10807763326626;1.2109999999999999;0.000378895107896672
30:36.2;0.003928194289152257;-0.3074206441268191;-1.1496097287428022;1.273;0.0013882779267208195
30:36.3;0.009156651883817167;-0.3149648562457371;-1.184355417700471;1.31;0.0034157089094422307
30:36.3;0.015749607518744144;-0.32339439257424313;-1.2123539967042216;1.319;0.006174924748967484
30:36.3;0.02259222083715287;-0.3323622635104415;-1.2342682157762377;1.301;0.009267875221536796
30:36.3;0.02869921522420428;-0.3411360817574734;-1.2512149623573365;1.27;0.01224981718080474
30:36.3;0.033366889937824294;-0.3486354885436237;-1.264531206301666;1.247;0.014710142276175007
30:36.3;0.03628254019370218;-0.3535299262683321;-1.2755091514986139;1.239;0.01636090966119266
30:36.3;0.037577083529357166;-0.35439313997896305;-1.2851415532188382;1.251;0.01711430797363523
30:36.3;0.03781328899332578;-0.3498988257426276;-1.2939156916273316;1.251;0.01711957261924342
30:36.3;0.037906258416758924;-0.33902610785601067;-1.301687002214534;1.251;0.016728254652588946
30:36.3;0.03897697922878529;-0.32123646902803327;-1.3076544853062508;1.265;0.01637291582276198
30:36.4;0.04214877242411017;-0.296592447053005;-1.3104495656752237;1.314;0.016381939919048426
30:36.4;0.04831521396023488;-0.26580319125736146;-1.308335181556502;1.3769999999999998;0.01680208269330079
30:36.4;0.05792959855325854;-0.2301924113639551;-1.2994909912422332;1.423;0.01732865256605621
30:36.4;0.07087197733876573;-0.19159120413304337;-1.282338315810458;1.444;0.017412163469776976
30:36.4;0.08643149587017604;-0.152165872724792;-1.2558441226362176;1.4409999999999998;0.016516766456751424
30:36.4;0.10340915277745549;-0.11419955196307861;-1.2197428908569763;1.4069999999999998;0.014404284004019857
30:36.4;0.12031463835370813;-0.07985453763555532;-1.1746307410425316;1.145;0.011285464316276037
30:36.4;0.13560905130760903;-0.05094912658690689;-1.121921769310652;1.145;0.00775154006485022
30:36.4;0.14793719870539423;-0.028785469891312473;-1.063701246588666;1.145;0.004529709828995662
30:36.4;0.1563034282668358;-0.014055593716513942;-1.0025277454410302;1.033;0.0022024907829268823
30:36.5;0.16016879586733257;-0.006831846052598373;-0.9412142255511977;0.9279999999999999;0.0010299223070037386
30:36.5;0.15946857964336278;-0.006629371151391698;-0.8825968404080494;0.84;0.000933060551665883
30:36.5;0.15455986161748667;-0.012520318476466424;-0.8293065276502748;0.774;0.0016048231484623132
30:36.5;0.1461156680277251;-0.023278155342406355;-0.7835702882189034;0.728;0.0026651601430901593
30:36.5;0.13498950664218165;-0.037531138480524896;-0.747065571607077;0.6970000000000001;0.003784865676882417
30:36.5;0.12207863002136947;-0.0539065848188375;-0.7208385109072968;0.6859999999999999;0.004743724364962559
30:36.5;0.10821203905370377;-0.07115197669262001;-0.7052850828450937;0.716;0.005430342834332875
30:36.5;0.09407978112567625;-0.08822377310934322;-0.7001850214348261;0.716;0.0058115869764103385
30:36.5;0.08020683671106615;-0.1043394748960054;-0.7047712920505792;0.716;0.0058980471567916136
30:36.5;0.06696361196146033;-0.11899413149275036;-0.7178168112353993;0.732;0.00571976307733396
30:36.6;0.05459982191388599;-0.13194861794245702;-0.7377263644012523;0.7490000000000001;0.0053148544562003274
30:36.6;0.043288271994202494;-0.14320000677439096;-0.7626298809828765;0.765;0.004727451759387975
30:36.6;0.033166207807555366;-0.1529424183559164;-0.7904785582600805;0.7859999999999999;0.004009718319887767
30:36.6;0.024363380225858246;-0.16152258798338204;-0.8191484056014013;0.8170000000000001;0.003223542480277786
30:36.6;0.0170093585941971;-0.1693912843324617;-0.8465571088866619;0.8540000000000001;0.0024391317476511495
30:36.6;0.011218979176221638;-0.17705058833968843;-0.870797952783874;0.894;0.0017296893664876455
30:36.6;0.007062553800548665;-0.18499763452950155;-0.8902877939932378;0.995;0.0011632106335823418
30:36.6;0.0045333177807547285;-0.19366721465018583;-0.9039146947779185;0.995;0.0007935964509129112
30:36.6;0.003525810196652556;-0.20337779591739444;-0.911159267083524;0.995;0.000653366348416783
30:36.6;0.0038349488936680293;-0.21428712369765512;-0.9121625657593188;1.001;0.0007495971064888796
30:36.7;0.005178500546334991;-0.22636365382213178;-0.9077252813502004;0.986;0.0010640576370510423
30:36.7;0.007238161654594178;-0.23937778805424242;-0.8992368655751354;0.9570000000000001;0.0015580673650367944
30:36.7;0.009708748292894373;-0.2529135059258898;-0.8885417532428233;0.9159999999999999;0.00218179078995885
30:36.7;0.012342933391649602;-0.26639903558066064;-0.8777570793753657;0.879;0.002886193036084304
30:36.7;0.014981076346214418;-0.2791547687728674;-0.8690646410528213;0.861;0.003634462138448917
30:36.7;0.017560439823673384;-0.29045539560688377;-0.8645051032758682;0.86;0.004409429456189346
30:36.7;0.020103652253781516;-0.29960046855419936;-0.8657999128352979;0.907;0.005214767970083698
30:36.7;0.022691304901832174;-0.3059851931380192;-0.8742152147169086;0.907;0.006069853975045692
30:36.7;0.025426558336372976;-0.30916335427383884;-0.8904679318420333;0.907;0.006999932849514522
30:36.7;0.02839959162858965;-0.30889731099748063;-0.9146673860149007;0.93;0.008023972225755155
30:36.8;0.0316577057920854;-0.30519360414132796;-0.9462899072818299;0.956;0.009142796951425291
30:36.8;0.03518554941364737;-0.2983233311705169;-0.9841907432194966;0.9840000000000001;0.010330725753870758
30:36.8;0.038900901833021063;-0.28882305004226216;-1.0266604157702264;1.014;0.01153501960811873
30:36.8;0.04267252940413908;-0.27746771881133;-1.0715330331350192;1.062;0.012687218341594447
30:36.8;0.04636122066704029;-0.26520728420419615;-1.1163521434894277;1.177;0.013725921824471014
30:36.8;0.04986878199893938;-0.25306605752759925;-1.1585892854756723;1.2770000000000001;0.014621508070040846
30:36.8;0.053163899197050515;-0.24201579652619987;-1.1958893546913671;1.331;0.01538691446085199
30:36.8;0.056261890684956954;-0.2328442937723186;-1.22629728991247;1.331;0.016064813583883755
30:36.8;0.05916865669627388;-0.2260490556788726;-1.2484195701089305;1.331;0.0166976354351982
30:36.8;0.06182464289487618;-0.22178504517716993;-1.261494637353572;1.307;0.01729733847444485
30:36.9;0.06407989991101656;-0.21988054229150633;-1.2653744882960691;1.284;0.017829029286470358
30:36.9;0.06570962970499217;-0.21991142557681054;-1.2604404041458654;1.264;0.018213739882910997
30:36.9;0.06645976774911645;-0.22130450788114472;-1.2474848289865323;1.237;0.018347814996094988
30:36.9;0.06610114883793365;-0.22343570151489311;-1.2275904196850442;1.227;0.01813072061986394
30:36.9;0.06447277233453844;-0.22570201131182768;-1.2020277021840748;1.239;0.017491467649741854
30:36.9;0.06150648723334226;-0.22756598319464397;-1.1721768685995952;1.242;0.01640670672102968
30:36.9;0.057235190572064984;-0.22857998025316104;-1.1394640665747446;1.114;0.014907401833198951
30:36.9;0.051789489968979883;-0.22839540959781862;-1.105299527662836;1.114;0.013074015318132405
30:36.9;0.04538849280083131;-0.2267615714614368;-1.071015912837695;1.114;0.011023287717250106
30:36.9;0.03833021244798533;-0.22352188401164058;-1.0378133527780138;1.063;0.008891612543928049
30:37.0;0.030983215662949815;-0.21861372119946895;-1.0067120792391122;1.016;0.006818819373465083
30:37.0;0.023775667724940774;-0.21207151502590735;-0.9785083676174046;0.971;0.004933778015578483
30:37.0;0.017176010673117584;-0.20402765527140648;-0.9537361504300903;0.937;0.003342255020595059
30:37.0;0.011662687428269534;-0.1947056384326465;-0.9326453565660882;0.922;0.0021178426833385012
30:37.0;0.007685956025866744;-0.1844038488904653;-0.9152080319884996;0.9229999999999999;0.001297142532190653
30:37.0;0.00562842626686616;-0.17347309368519773;-0.9011553304600606;0.935;0.0008798705075350774
30:37.0;0.005769785383142022;-0.16229369149856035;-0.8900379593017942;0.9109999999999999;0.0008334313394776841
30:37.0;0.008257440237122823;-0.15125791337053512;-0.8812958382373463;0.9109999999999999;0.0011007413045224781
30:37.0;0.013082877002117662;-0.14076155560905101;-0.8743234407877467;0.9109999999999999;0.001610124425304912
30:37.0;0.02006468296049631;-0.13120468035091012;-0.8685225365115925;0.889;0.0022864553320371237
30:37.1;0.028841586560058047;-0.12299698862661711;-0.8633389411585692;0.8690000000000001;0.0030626329872651525
30:37.1;0.0388809152410999;-0.11656008272949751;-0.8582847032833596;0.857;0.0038897142587727444
30:37.1;0.049507974096007566;-0.11231847296171167;-0.8529524903143507;0.857;0.004742978837346518
30:37.1;0.05995804249099265;-0.11067406932243443;-0.847030793442087;0.858;0.005620727405909465
30:37.1;0.06944536484904071;-0.11196543854469694;-0.8403246581763995;0.857;0.006533928186778735
30:37.1;0.07723658943461337;-0.11642124051337815;-0.8327805519207317;0.8590000000000001;0.007488345696672973
30:37.1;0.08271411542112343;-0.12412139587277676;-0.8245101425214193;0.853;0.008464908791564349
30:37.1;0.08541979351517594;-0.13497509603565486;-0.8158070445932081;0.853;0.009405883895760863
30:37.1;0.0850787515186147;-0.14871495694697257;-0.8071513042039109;0.853;0.01021246804928674
30:37.2;0.0816097991818494;-0.16490151323687074;-0.7991966624936563;0.85;0.010755252525774694
30:37.2;0.07512819164549968;-0.1829360771997668;-0.7927353396525679;0.8340000000000001;0.010895082335776416
30:37.2;0.06594145095347562;-0.20208550523298024;-0.7886366450849347;0.812;0.010509223220553155
30:37.2;0.05453552200385095;-0.22152293671870282;-0.7877613111667573;0.7979999999999999;0.009516841195423306
30:37.2;0.04154898610346318;-0.24038508171029785;-0.7908614829656211;0.7929999999999999;0.007898931853394348
30:37.2;0.027735159494737423;-0.25784170925279865;-0.7984827785552795;0.7909999999999999;0.0057101746676326585
30:37.2;0.013912948540033446;-0.27316845479943735;-0.8108874567935189;0.799;0.0030818415593980067
30:37.2;0.0009078891419138223;-0.28581237301990403;-0.8280155157481714;0.904;0.00021485839279267383
30:37.2;-0.010512106571173246;-0.2954409732175332;-0.8494907764502625;0.904;0.002638269447419848
30:37.2;-0.019696978661599387;-0.3019676644161644;-0.8746640286800713;0.904;0.005202371004954822
30:37.2;-0.026161033026232395;-0.30554959338139603;-0.9026783626212752;0.9520000000000001;0.0072155531761165966
30:37.3;-0.02961167109676299;-0.3065585709353321;-0.9325483675815684;0.997;0.008465405110111696
30:37.3;-0.0299612964057739;-0.3055302471630261;-0.963250528414887;1.043;0.008817674608949503
30:37.3;-0.02732421025496203;-0.30309916790639585;-0.9938168586231482;1.077;0.008230736952744431
30:37.3;-0.022000416090109925;-0.2999284819691119;-1.02341648381556;1.101;0.006753066272673679
30:37.3;-0.014449421469989626;-0.2966432467710813;-1.0514101698653504;1.112;0.004506683907711715
30:37.3;-0.005257041966869701;-0.2937744906460388;-1.0773701396566566;1.12;0.0016638740958026764
30:37.3;0.004903831056772573;-0.2917173691383187;-1.1010669611840385;1.158;0.001575112286896139
30:37.3;0.015318492722241539;-0.290703284780087;-1.1224312250380204;1.158;0.004998339066614758
30:37.3;0.025279926102005475;-0.29078503946716333;-1.1414980302011626;1.158;0.008391179769025254
30:37.4;0.03413972634255855;-0.29183513425350877;-1.1583416440495613;1.17;0.011540756594905811
30:37.4;0.04135936154062632;-0.2935582365634161;-1.1730097486003195;1.19;0.014241958555119184
30:37.4;0.04656072884303572;-0.2955196186015391;-1.185467266579618;1.21;0.016311565868316405
30:37.4;0.049570903372470096;-0.29719261959029186;-1.1955551442385548;1.224;0.017613045865439048
30:37.4;0.05045193091182945;-0.2980281625179088;-1.202963563342611;1.2229999999999999;0.01808787594186694
30:37.4;0.04950500768152592;-0.2975441639753735;-1.2072183087721364;1.205;0.017782236502780862
30:37.4;0.04723775490475906;-0.29542043659748746;-1.2076860156983735;1.189;0.01685325614848455
30:37.4;0.04428610221165374;-0.2915720969122531;-1.2036135213214476;1.2429999999999999;0.015541769948478928
30:37.4;0.041296697009073194;-0.28617558164683;-1.194215519016649;1.2429999999999999;0.014113365932922879
30:37.4;0.03879896579394037;-0.27963973165062916;-1.1788073549855282;1.2429999999999999;0.012789744332633655
30:37.5;0.03710737621772657;-0.27253303853344996;-1.1569602549347957;1.26;0.011700322852174695
30:37.5;0.03628261398745056;-0.265483667176573;-1.1286488845211364;1.251;0.010871644259542054
30:37.5;0.03615879067923976;-0.25906997893621325;-1.0943612347544365;1.216;0.010251600834081248
30:37.5;0.036425821097861445;-0.2537236408091105;-1.055142399363704;1.158;0.009751723073586053
30:37.5;0.036741242225138034;-0.2496665917126467;-1.012552574658397;1.079;0.009288206251193375
30:37.5;0.03683539455819993;-0.24689251358149686;-0.9685378966466661;0.9890000000000001;0.008808254728601035
30:37.5;0.036575502859285125;-0.24519116968426694;-0.9252332063897724;0.9109999999999999;0.008297482445916864
30:37.5;0.03597029697659656;-0.24420655412102077;-0.8847313835807085;0.81;0.007771641738108297
30:37.5;0.03512140373773416;-0.2435153877714095;-0.848862136171047;0.81;0.007259980215985975
30:37.5;0.03414871300954123;-0.24270917928452398;-0.8190214216586712;0.81;0.0067882183497122465
30:37.6;0.03312197338892965;-0.241463790889968;-0.7960768949562396;0.807;0.006366829763167319
30:37.6;0.03201985972183571;-0.23958638985733546;-0.7803502232981808;0.805;0.0059864743696495925
30:37.6;0.030723389059370748;-0.2370366189785073;-0.7716592604298139;0.8079999999999999;0.0056196612423212835
30:37.6;0.02904128846180863;-0.23392363248281375;-0.7693989026229221;0.818;0.005226868119322211
30:37.6;0.026758948795718163;-0.2304840312380998;-0.7726420415586794;0.825;0.004765277819165197
30:37.6;0.02369786867048772;-0.22704803456770917;-0.7802450478582502;0.8290000000000001;0.004198151007318451
30:37.6;0.01976962468070273;-0.2240014774976366;-0.7909459944573192;0.831;0.0035026451246956605
30:37.6;0.01500856596552791;-0.22174946270455975;-0.8034493344129835;0.85;0.002673993023853609
30:37.6;0.009573638750654808;-0.22068465362977546;-0.8164959128805108;0.85;0.0017250559462515958
30:37.6;0.003721807697039102;-0.2211602100976188;-0.8289199789491808;0.85;0.0006822971085814261
30:37.7;-0.00223559761032743;-0.22346558880174647;-0.8396966617870858;0.86;0.0004194949330626818
30:37.7;-0.00798260833499842;-0.22780385913875567;-0.8479854772808522;0.875;0.001542035289916206
30:37.7;-0.013246034351893365;-0.23427104045754515;-0.8531753662188287;0.8909999999999999;0.0026475415887000564
30:37.7;-0.01783141330518029;-0.24283952942581144;-0.8549326675026582;0.9109999999999999;0.003702005512407442
30:37.7;-0.021638857627573428;-0.25334816005434263;-0.8532472546295156;0.932;0.0046776420356950035
30:37.7;-0.02465592190854556;-0.26550127152132913;-0.8484662221313953;0.941;0.0055542114407749555
30:37.7;-0.026932709329677163;-0.2788792880835607;-0.8413005256752973;0.932;0.006318987050957488
30:37.7;-0.028550216790797653;-0.29296343930732754;-0.8327910133506535;0.8809999999999999;0.006965605363632572
30:37.7;-0.029593097318524154;-0.3071744304903568;-0.8242299604718802;0.8809999999999999;0.007492450476304315
30:37.7;-0.030132795561569066;-0.3209186817363284;-0.8170487860182001;0.8809999999999999;0.007901006401838778
30:37.8;-0.03022117289900708;-0.33363309222066645;-0.8126897430887372;0.877;0.008194174622384007
30:37.8;-0.029892239955881233;-0.3448239023441775;-0.8124742007931928;0.872;0.008374625623666884
30:37.8;-0.02916926628857536;-0.35409967065940245;-0.8174734698616603;0.86;0.008443542526461826
30:37.8;-0.028074273735689277;-0.3611971092523904;-0.828389542574735;0.85;0.008400157013339581
30:37.8;-0.026636995786360328;-0.3659959372749892;-0.8454597368382093;0.856;0.008242414231228125
30:37.8;-0.02490077547931409;-0.3685193141946653;-0.8684041644244443;0.872;0.007968838478990329
30:37.8;-0.022922898407697418;-0.3689187708878377;-0.8964345469273968;0.902;0.0075808668327276155
30:37.8;-0.02076735751994443;-0.3674451075892096;-0.9283348799417116;1.0659999999999998;0.007083997139409031
30:37.8;-0.018490531907602567;-0.36440949607726125;-0.9626053825345314;1.0659999999999998;0.006486155792334784
30:37.8;-0.016123825871061703;-0.36014175004030097;-0.997637248479416;1.0659999999999998;0.00579314269248148
30:37.9;-0.01365859684167436;-0.3549530272584174;-1.0318790448044715;1.125;0.005002715016383635
30:37.9;-0.011036460125014372;-0.34910697498346116;-1.0639732264242348;1.176;0.004099387986081075
30:37.9;-0.008145301972903854;-0.34279965719081457;-1.0928577816626532;1.205;0.0030514848463638077
30:37.9;-0.0048210384773393795;-0.33614759019278645;-1.11782714454904;1.21;0.0018115288352503504
30:37.9;-0.0008567592717153343;-0.32918437788749594;-1.1385429459901482;1.205;0.0003211052798409458
30:37.9;0.0039785149336434445;-0.3218680443986746;-1.1549921391477236;1.197;0.0014790330623366589
30:37.9;0.009911547166800493;-0.31410177886567053;-1.1674020070661038;1.197;0.003634396316308531
30:37.9;0.017130472711962445;-0.30576876470107744;-1.1761300358182711;1.165;0.006160526175208733
30:37.9;0.025748806683618168;-0.2967765709299786;-1.1815506804504183;1.165;0.009028987958377857
30:37.9;0.035772153695587734;-0.287101063664018;-1.183962609049825;1.165;0.012159560463247747
30:38.0;0.04707279850503833;-0.2768180102133933;-1.1835373332504124;1.186;0.015422199701516462
30:38.0;0.05937815335961633;-0.26611375207188953;-1.1803200647347505;1.2229999999999999;0.018650642407034665
30:38.0;0.07227666489307391;-0.25527266615838834;-1.1742776451642634;1.239;0.02166572428191517
30:38.0;0.08524017384080942;-0.24464565576987568;-1.1653729566706894;1.237;0.024302266038199807
30:38.0;0.09765897131355562;-0.2346084200369489;-1.153637893095482;1.222;0.026431709519806557
30:38.0;0.10888621397908269;-0.225519613250682;-1.1392209184849835;1.2;0.027974682518320245
30:38.0;0.11828967641719793;-0.21768641472598593;-1.1223963659277594;1.17;0.028901768781137604
30:38.0;0.12530912586418727;-0.2113399942766054;-1.103535116707125;1.077;0.029224732831821393
30:38.0;0.12951562352681792;-0.2066199540078098;-1.0830489593900656;1.077;0.028982944865399454
30:38.0;0.13066485363610977;-0.20356657168096906;-1.061331414301188;1.077;0.028230350355595322
30:38.1;0.12873433428007247;-0.20212014216117358;-1.038717123269041;1.053;0.027027213825080467
30:38.1;0.12393689996836836;-0.20212654621743645;-1.0154684601087833;1.034;0.02543843696751962
30:38.1;0.11670662984281695;-0.20334872754652358;-0.991785225487855;1.021;0.02353719045758704
30:38.1;0.10765591906381344;-0.205485296230151;-0.9678297444643682;1.006;0.02141004740700855
30:38.1;0.09750622368680156;-0.2081978097046387;-0.9437597888859245;0.991;0.019158873175261895
30:38.1;0.08700125350666388;-0.21114602212394368;-0.9197604441857102;0.98;0.01689597047712467
30:38.1;0.07681728380663662;-0.21402712266171747;-0.8960646879323941;0.958;0.014732183605691979
30:38.1;0.06748773064839489;-0.21661318083974387;-0.8729538816686645;0.868;0.012761478847446054
30:38.1;0.05935635904645298;-0.21878099897520598;-0.850737027277217;0.868;0.011047708066859941
30:38.1;0.05256591639791771;-0.22052920657681882;-0.8297194393722916;0.868;0.009618373115529587
30:38.2;0.04708026954035292;-0.22197878901034115;-0.8101754418527571;0.8440000000000001;0.008466998698704343
30:38.2;0.04273146886328389;-0.22335587720589675;-0.7923309524400708;0.8190000000000001;0.007562263889658497
30:38.2;0.03927835646299323;-0.2249587951613114;-0.7763531268057315;0.795;0.006859865347368428
30:38.2;0.036461098691772414;-0.22711405745422403;-0.7623452295542688;0.779;0.006312849770684237
30:38.2;0.03403949953379622;-0.2301279616382529;-0.7503495406853243;0.769;0.005877818588384855
30:38.2;0.03181149533731876;-0.23424160048227607;-0.7403618401630278;0.77;0.005516862209668768
30:38.2;0.029616509790687688;-0.23959722037069886;-0.7323577341905952;0.774;0.005196834959358011
30:38.2;0.027332420449457585;-0.2462218151015829;-0.7263265985913572;0.7859999999999999;0.004888060470126111
30:38.2;0.024874056256736117;-0.254028663950691;-0.7223055937895094;0.7859999999999999;0.004564049169258993
30:38.2;0.022196598670310597;-0.2628314162326205;-0.72040545779763;0.7859999999999999;0.0042028191201042755
30:38.3;0.019302256784810397;-0.27236368133534544;-0.7208214011687409;0.7859999999999999;0.0037895265734322575
30:38.3;0.016246042433343603;-0.28230112369262866;-0.7238252536495626;0.7879999999999999;0.0033196624139723773
30:38.3;0.013136064352556483;-0.2922868812885678;-0.7297383836899409;0.787;0.0028018300002360694
30:38.3;0.01012449595250681;-0.3019604782166398;-0.7388887902938447;0.7829999999999999;0.0022589290655551575
30:38.3;0.007387882477551062;-0.31098780357060724;-0.7515600734384648;0.7859999999999999;0.0017267403417742257
30:38.3;0.005099645353320696;-0.31908859124559386;-0.7679438634902039;0.805;0.0012496279369634995
30:38.3;0.0034014045789631073;-0.3260582181612354;-0.7881086018303993;0.8290000000000001;0.0008740565075171175
30:38.3;0.0023808361178209877;-0.3317812881062219;-0.8119934149507076;0.9309999999999999;0.000641407299998105
30:38.3;0.002061511919818063;-0.33623502461820093;-0.8394243947733813;0.9309999999999999;0.0005818491271247833
30:38.3;0.0024060075711350975;-0.339481408232644;-0.8701373222949007;0.9309999999999999;0.0007107236736082726
30:38.4;0.003330380877604851;-0.34164862781222555;-0.903789209923311;0.9640000000000001;0.001028349490283841
30:38.4;0.004727052609206639;-0.342904621066099;-0.93995413243558;0.9890000000000001;0.001523598144668459
30:38.4;0.006492289519866975;-0.34342749706206505;-0.978111304677819;1.024;0.0021808270320611395
30:38.4;0.008552659057369814;-0.34337811981807326;-1.0176347536369736;1.06;0.002988585660269782
30:38.4;0.010883473855955972;-0.342878414435465;-1.0577902116694493;1.0979999999999999;0.0039473644694724445
30:38.4;0.013513222013522407;-0.3419965785701342;-1.0977423561914514;1.14;0.005073189617504507
30:38.4;0.016511942479683822;-0.3407393810183409;-1.1365736799369959;1.181;0.006394669329769298
30:38.4;0.01996756160538838;-0.33905170843685967;-1.1733135249195363;1.254;0.007943374657061493
30:38.4;0.023959258250536162;-0.3368230268206451;-1.2069717271717886;1.254;0.009740297907809406
30:38.4;0.028537942074201718;-0.33389971538776264;-1.2365687583422167;1.254;0.011783029660699605
30:38.5;0.03372130762842474;-0.3301023230274194;-1.2611589887708459;1.284;0.01403856856204015
30:38.5;0.039506319264124685;-0.3252481450903132;-1.2798533137609445;1.3230000000000002;0.01644529221294148
30:38.5;0.04589454935667295;-0.31918132374963776;-1.2918497638390132;1.3459999999999999;0.01892389769549038
30:38.5;0.05291593944269276;-0.3118111437728215;-1.2964730219531984;1.34;0.021391519121439863
30:38.5;0.060631513395738315;-0.3031518509839857;-1.2932177236184104;1.3219999999999998;0.02377006016049964
30:38.5;0.06910406033186355;-0.29335028844205824;-1.2817929806794344;1.324;0.025984117678835763
30:38.5;0.0783457688350346;-0.28268915259341143;-1.2621694889284332;1.337;0.027953897495457302
30:38.5;0.08826810512417431;-0.2715622052717553;-1.2346277398199659;1.255;0.029594374202883914
30:38.5;0.09865720783031294;-0.2604271241916093;-1.19980034274375;1.255;0.03082648570276317
30:38.5;0.10918060757101056;-0.2497491896790217;-1.1587007236130862;1.255;0.03159518282521043
30:38.6;0.11941690210256478;-0.23995071261564666;-1.1127301808941892;1.203;0.031884360610770254
30:38.6;0.1288988884008057;-0.23137419277825877;-1.063650334935855;1.141;0.03172217596638805
30:38.6;0.13716287081063017;-0.2242587251586122;-1.0135072768195972;1.069;0.03117545398422951
30:38.6;0.1437948200859638;-0.2187269714405413;-0.9645043783746319;0.992;0.0303354041185562
30:38.6;0.14846356647316084;-0.21478235601123577;-0.9188353280637743;0.914;0.02929922791481109
30:38.6;0.15093673957543682;-0.21231788303397137;-0.8784992505716411;0.848;0.028152886866326114
30:38.6;0.15108262394996325;-0.21113673620203982;-0.8451252188046885;0.804;0.026958727205587507
30:38.6;0.14886536057512717;-0.21098124589023765;-0.8198340848895297;0.807;0.025749184351631427
30:38.6;0.1443404544429097;-0.21156421185083035;-0.803158579116416;0.807;0.024526273983376284
30:38.6;0.1376536754795294;-0.21259766265117241;-0.7950283687289846;0.807;0.023266385688110153
30:38.7;0.12904184908369912;-0.2138174038854374;-0.7948125426660756;0.83;0.021929985356102383
30:38.7;0.11883080688624986;-0.21500387266522802;-0.8014046973103053;0.851;0.02047515566709755
30:38.7;0.10742445769973806;-0.21600001997990737;-0.8133341960199948;0.866;0.01887235049188185
30:38.7;0.09527991679209495;-0.21672626416562157;-0.828887696345129;0.873;0.017116249452827508
30:38.7;0.08286766077984128;-0.21719175103007599;-0.8462283279281798;0.882;0.015230563292268275
30:38.7;0.07062216164935908;-0.2175002957216254;-0.8635063751073208;0.894;0.013263752414656948
30:38.7;0.05889463034537051;-0.21784827514379895;-0.8789618365027891;0.9059999999999999;0.011277162664775473
30:38.7;0.04792179196597354;-0.21851085187687694;-0.8910223700220796;0.943;0.00933027978923844
30:38.7;0.03782049228497573;-0.21981416177343932;-0.8983982885914847;0.943;0.007468816033077385
30:38.7;0.028608526094127746;-0.22209525137120095;-0.9001710991545593;0.943;0.005719523147664194
30:38.8;0.02024323530005822;-0.22565548891991621;-0.895868781516682;0.955;0.004092326048765169
30:38.8;0.012666397475591592;-0.23071412714106682;-0.885521537869976;0.958;0.002587774500177468
30:38.8;0.005845789793334526;-0.23736845694668127;-0.8696915638278513;0.95;0.0012067893215894515
30:38.8;-0.00019354409047010296;-0.24556743340924844;-0.8494676605490142;0.9309999999999999;4.037360561976923e-05
30:38.8;-0.0053537087566112185;-0.25510509020427136;-0.8264148009099372;0.904;0.0011286829192720378
30:38.8;-0.009467780977177829;-0.2656369210758345;-0.8024729435717085;0.868;0.002018213184323
30:38.8;-0.012323419633425212;-0.2767179976947327;-0.779806540571564;0.833;0.0026592276461369093
30:38.8;-0.013702039086611323;-0.2878576669977989;-0.7606146985114535;0.753;0.0030000446400998237
30:38.8;-0.01342567773897305;-0.29858181931788386;-0.746922789293102;0.753;0.0029941619620780643
30:38.8;-0.011402529323229913;-0.30849030951509093;-0.7403864738667699;0.753;0.002604361100934099
30:38.9;-0.007663405328728663;-0.31729817867565335;-0.7421387264549891;0.759;0.001804573063623185
30:38.9;-0.0023836719105527903;-0.32485565053006477;-0.752697308762258;0.773;0.0005828506259873321
30:38.9;0.004113549560495726;-0.3311472768108382;-0.7719364978662318;0.8;0.001051524745389825
30:38.9;0.011376751991726367;-0.3362720391527365;-0.7991208049338177;0.838;0.003057183350816074
30:38.9;0.018869649548876603;-0.34040763896983517;-0.8329950509140533;0.887;0.005350637795159735
30:38.9;0.026034991441394095;-0.3437657948056926;-0.8719198763986524;0.9420000000000001;0.007803630164945499
30:38.9;0.032367119548932254;-0.34654869743779526;-0.9140363495037271;0.9940000000000001;0.010252547495719036
30:38.9;0.03747714677822061;-0.34891703097148535;-0.9574396742111408;1.1159999999999999;0.01251987830981864
30:38.9;0.04113648674202739;-0.3509755467951172;-1.0003386044913274;1.1159999999999999;0.01444278966561255
30:38.9;0.043291948394035364;-0.35277449565978614;-1.0411759207091513;1.1159999999999999;0.015901146079542215
30:39.0;0.04405336254559649;-0.35431996586524883;-1.0786947073043038;1.155;0.016837330491177603
30:39.0;0.04365895759413729;-0.3555867700875029;-1.111954119128862;1.183;0.01726258478073738
30:39.0;0.04242607463770686;-0.356530401212847;-1.1403105876959934;1.196;0.01724854937728974
30:39.0;0.04069758688853829;-0.357096207720913;-1.163378987888232;1.206;0.016907333247243524
30:39.0;0.038795979144051924;-0.35722544209401375;-1.1809835881086301;1.219;0.016367146205283453
30:39.0;0.036994306585483486;-0.3568595531669532;-1.1931075254028283;1.239;0.015751133185177582
30:39.0;0.03550509860263124;-0.3559431714325231;-1.1998487198246282;1.248;0.01516344503016723
30:39.0;0.03447832419705886;-0.3544223852852402;-1.2013873642307338;1.227;0.014680821321225616
30:39.0;0.03399659292878245;-0.3522345969046039;-1.19796759807442;1.227;0.014345393889459237
30:39.0;0.03406435254487031;-0.3492941039397568;-1.189894862783362;1.227;0.014157937250347238
30:39.1;0.03459880474593061;-0.34548541239390745;-1.177548641309807;1.25;0.014075689117019261
30:39.1;0.03543248881630296;-0.3406735913063565;-1.1614052610458705;1.255;0.01401922211233548
30:39.1;0.03633248045672591;-0.3347309965595493;-1.1420580336752217;1.235;0.01388926142302165
30:39.1;0.03703472817238722;-0.3275722825810725;-1.120217981802321;1.187;0.013589980952492583
30:39.1;0.037285248652225954;-0.3191876513455255;-1.096684122610096;1.13;0.01305162781505265
30:39.1;0.0368749430051177;-0.30966521378790884;-1.0722868533717043;1.087;0.012244322527220044
30:39.1;0.035656701938830436;-0.299195290944326;-1.0478220391866133;1.065;0.011178497999191173
30:39.1;0.03354290870491514;-0.2880528923711455;-1.0239972550404979;1.038;0.009893996513735202
30:39.1;0.030492032555258907;-0.276561284254307;-1.0014036658096428;1.038;0.008444752678426379
30:39.1;0.026497110175233988;-0.2650477716690475;-0.9805136054301641;1.038;0.006886147058402667
30:39.2;0.021585043629047857;-0.25380511138386125;-0.961692624196377;1.018;0.005268531489319117
30:39.2;0.015828394505695766;-0.2430659082522681;-0.9452099467295958;0.99;0.003636546954032219
30:39.2;0.009365218689108524;-0.23299120885193786;-0.9312342175451431;0.956;0.002031965749388397
30:39.2;0.0024187541377356354;-0.22367336337660254;-0.919810561248008;0.9209999999999999;0.0004976275148903043
30:39.2;-0.00469267688622044;-0.2151522473639226;-0.9108261390180846;0.898;0.0009196064831632147
30:39.2;-0.01156415168777495;-0.2074400102139085;-0.903979755777896;0.882;0.002168527877569997
30:39.2;-0.01773549090208013;-0.2005466288993082;-0.8987734372167735;0.88;0.003196750991244014
30:39.3;-0.02274285852774055;-0.1945004975602426;-0.8945390862713708;0.9279999999999999;0.003956991232497096
30:39.3;-0.026180488203318714;-0.1893628396877078;-0.8905019752724549;0.9279999999999999;0.0044147629140548735
30:39.3;-0.027758761218939172;-0.18523653266575876;-0.8858693522114378;0.9279999999999999;0.0045550841151975425
30:39.3;-0.02734723364539921;-0.18226789378321903;-0.8799251997832165;0.935;0.00438600711268633
30:39.3;-0.024996244725983295;-0.18063813072529483;-0.872114614309224;0.924;0.0039378372474957605
30:39.3;-0.020933523145609825;-0.18054255960876694;-0.8621074037910615;0.909;0.0032582416960037866
30:39.3;-0.015533676401999284;-0.18215957104927755;-0.8498351383704921;0.8859999999999999;0.0024047001619177475
30:39.3;-0.009263627435513478;-0.1856151330854466;-0.8354999911751954;0.863;0.0014366167013585185
30:39.3;-0.002615701137577429;-0.19095040873096447;-0.8195581220593771;0.846;0.00040934404067544415
30:39.3;0.003954637052705606;-0.1980998469118078;-0.8026831465125868;0.835;0.000628832407630927
30:39.4;0.010072125889945193;-0.20688549095300449;-0.785715372949937;0.794;0.0016372553945920114
30:39.4;0.015460534219385804;-0.21702913444417438;-0.7696022932711364;0.794;0.002582313037218756
30:39.4;0.01994049967463206;-0.22817792274202814;-0.7553368720636112;0.794;0.0034367690163741057
30:39.4;0.0234149242937668;-0.23993656831926025;-0.7438989355335028;0.784;0.004179296067447413
30:39.4;0.025850042401855955;-0.25190274868043705;-0.7361997189192795;0.7809999999999999;0.004793909305651051
30:39.4;0.027256909768299798;-0.2637050707573986;-0.7330263421719021;0.772;0.005268835980760298
30:39.4;0.0276752481882141;-0.27504088175383967;-0.734985851526672;0.7659999999999999;0.005594583432667186
30:39.4;0.0271607850161458;-0.2857079191364591;-0.7424541526586343;0.773;0.0057614823638146
30:39.4;0.025777505175997358;-0.29562299902676753;-0.7555391719361579;0.789;0.005757528376037266
30:39.4;0.02359578422855078;-0.3048225494012326;-0.7740678913952581;0.8059999999999999;0.005567504288939722
30:39.4;0.020695804560350427;-0.3134433574315899;-0.7976027194538069;0.885;0.005174018903991426
30:39.4;0.017173853417033882;-0.32168668954120844;-0.8254841716389513;0.885;0.004560469897884987
30:39.4;0.013147481904068201;-0.3297728234162531;-0.8568885479684113;0.885;0.003715196449076427
30:39.5;0.008754569380339396;-0.33789446682867136;-0.8908901764002763;0.9390000000000001;0.002635360541350637
30:39.5;0.004142508092009121;-0.34617669735803475;-0.926527458643017;0.9990000000000001;0.0013286772237565772
30:39.5;-0.0005520372960275153;-0.3546484633092453;-0.9628759267510203;1.055;0.0001885110581539169
30:39.5;-0.0052263594012725;-0.3632270894397981;-0.9991233350273966;1.103;0.0018966910920814681
30:39.5;-0.009827490550579533;-0.371714165706305;-1.0346325213030922;1.139;0.0037795306556874285
30:39.5;-0.014351093118292104;-0.37979979081652626;-1.0689769469156396;1.169;0.005826503921845299
30:39.5;-0.01881917337148709;-0.3870724483765255;-1.1019397384119165;1.185;0.008026951663164127
30:39.6;-0.0232389235793133;-0.39303366973884835;-1.133474575026496;1.218;0.01035279339352465
30:39.6;-0.02755177069409161;-0.39711962896786024;-1.1636327026269293;1.218;0.012731711455409057
30:39.6;-0.031587402756282204;-0.39873444975872413;-1.1924644490954397;1.218;0.015019072633237027
30:39.6;-0.035038883014448685;-0.39730035257473334;-1.2199082255451745;1.242;0.016982294313500203
30:39.6;-0.037470779120915;-0.39232597596749713;-1.2456851709016161;1.264;0.01831251871912601
30:39.6;-0.03836560601577935;-0.383485427785675;-1.2692195518464493;1.2690000000000001;0.018673584099548435
30:39.6;-0.03720608117139092;-0.3706907104512782;-1.2896031365462814;1.272;0.017786140254285043
30:39.6;-0.033579438950799845;-0.35413751687564504;-1.3056191179622154;1.306;0.015526081951484407
30:39.6;-0.027277404414060017;-0.33431194995477814;-1.3158361303275994;1.369;0.011999323179198221
30:39.6;-0.0183601619382925;-0.31195585471045;-1.3187695215257698;1.421;0.00755333157400638
30:39.7;-0.007161596799339262;-0.28799533342555383;-1.3130862847493017;1.396;0.002708248942318392
30:39.7;0.005764985577407334;-0.26344507150956087;-1.2978142480283497;1.396;0.0019710645228095684
30:39.7;0.019737351430693058;-0.2393106304796847;-1.2725161546033181;1.396;0.006010549377907649
30:39.7;0.0340388095152733;-0.21650992585485646;-1.2374007822322333;1.329;0.009119322194705855
30:39.7;0.04799548655612121;-0.19582061665466985;-1.193355961285753;1.247;0.011215762892653754
30:39.7;0.06102952062542061;-0.17784745227421536;-1.1419016657728864;1.169;0.012394137597937123
30:39.7;0.07268605053043936;-0.1630029415818019;-1.0850765589054137;1.099;0.012856030525518647
30:39.7;0.08263316159638562;-0.1514995553328381;-1.025281368514976;1.028;0.012835381839250143
30:39.7;0.09063916609890174;-0.14335428948917117;-0.965102059917305;0.96;0.012540066408927472
30:39.7;0.09653872365489084;-0.13840617677014322;-0.907129418305302;0.904;0.012120660205656542
30:39.7;0.10020267370268453;-0.13634570152410622;-0.8537866131626797;0.7809999999999999;0.011664606745390054
30:39.8;0.10152286867404363;-0.13675282377377507;-0.8071769761688566;0.7809999999999999;0.011206473003350073
30:39.8;0.10041535756485134;-0.13913873319305634;-0.7689673406668814;0.7809999999999999;0.010743754575492714
30:39.8;0.09683914687166821;-0.14298703073894795;-0.7403166610993069;0.755;0.010250973856715665
30:39.8;0.09082551390641613;-0.14779235023254542;-0.7218440420128077;0.735;0.009689540795094397
30:39.8;0.08251112387428845;-0.15309615743318541;-0.7136208138136657;0.72;0.009014555180122917
30:39.8;0.0721656370989594;-0.15851926032494854;-0.7151766779555679;0.71;0.00818136617368186
30:39.8;0.06020367184870394;-0.16378935601332836;-0.7255207306102412;0.7120000000000001;0.00715415724433649
30:39.8;0.04717307118875663;-0.16876103431508063;-0.743184901091566;0.723;0.005916477373430835
30:39.8;0.03371512708195847;-0.173425210976982;-0.7662993326239231;0.742;0.004480592832640057
30:39.9;0.020498154937129625;-0.177904776731;-0.7927067849502671;0.862;0.002890779431155984
30:39.9;0.008135690482440063;-0.1824340736966145;-0.8201133770979183;0.862;0.0012172345461456961
30:39.9;-0.0028889723375742403;-0.18732247002069027;-0.8462588197069592;0.862;0.00045796940655944054
30:39.9;-0.012269570144763093;-0.19290557684788237;-0.869084904482336;0.91;0.002057009689851286
30:39.9;-0.019884591237526658;-0.19948938246380735;-0.8868911458544121;0.95;0.0035180886023267934
30:39.9;-0.02576921212403646;-0.20729286508656833;-0.8984741078800985;0.987;0.004799445460427191
30:39.9;-0.03006183988455536;-0.21639541965029893;-0.9032409117033422;1.0090000000000001;0.005875802934445302
30:39.9;-0.03293846420402232;-0.2266973113328902;-0.9012779988357711;1.005;0.006729898042653282
30:39.9;-0.03454964990814908;-0.23790257648351967;-0.8933551754086994;0.978;0.007342888848440997
30:39.9;-0.034974479067014834;-0.249532241570673;-0.8808534018812822;0.943;0.007687436800474173
30:40.0;-0.034201731872759364;-0.2609706270798898;-0.8656194611298216;0.86;0.0077262141047867074
30:40.0;-0.03214128495600088;-0.2715385907619342;-0.8497682557922249;0.86;0.007416436768328166
30:40.0;-0.028660514285073876;-0.2805779179516303;-0.8354671358613811;0.86;0.0067184151768147305
30:40.0;-0.023635704438775326;-0.28752891729648744;-0.8247356439645726;0.841;0.00560486096812297
30:40.0;-0.017008351233270564;-0.2919910505319988;-0.8192790560584129;0.828;0.004068774388372113
30:40.0;-0.008837185323620489;-0.2937647710740726;-0.8203613954006014;0.83;0.0021297022551720712
30:40.0;0.0006632830633894914;-0.29287462100067224;-0.828721937646488;0.8370000000000001;0.00016098650909108318
30:40.0;0.01110601560761209;-0.28957221735796596;-0.8445407078197442;0.856;0.002716037482158216
30:40.0;0.021941931308827448;-0.2843175607103489;-0.8674560844513949;0.889;0.005411604299609378
30:40.0;0.03249853478127374;-0.2777388219622168;-0.8966323312198762;0.932;0.008093097357858785
30:40.1;0.042041500703712084;-0.2705738159282437;-0.9308678187654794;1.032;0.010588927947866993
30:40.1;0.04984787915457658;-0.2636002679104999;-0.9687252735327283;1.032;0.012728967074383325
30:40.1;0.055277144343241054;-0.25756490612892674;-1.008658703348041;1.032;0.01436073037141802
30:40.1;0.05782979246623684;-0.2531201243771746;-1.0491184918885657;1.079;0.015356875061137091
30:40.1;0.05718907744580044;-0.25077152650016415;-1.0886344872969087;1.131;0.01561253419944155
30:40.1;0.053244116441081624;-0.25083503330560714;-1.125887588473653;1.178;0.015036780114665822
30:40.1;0.04609274612947832;-0.25340200939661167;-1.1597743710703177;1.218;0.013546158261213552
30:40.1;0.0360256563957888;-0.25831432694893763;-1.1894584936135102;1.249;0.011069033162211665
30:40.1;0.023499521404269988;-0.26515612537306904;-1.2143981466844902;1.2790000000000001;0.007566965909755376
30:40.1;0.009109372499785565;-0.2732721743390001;-1.234340088164215;1.305;0.0030726897232729753
30:40.2;-0.006434920205333172;-0.2818202226124582;-1.249274876745412;1.2570000000000001;0.002265548301712006
30:40.2;-0.022331726203377218;-0.2898548550689018;-1.259356610085024;1.2570000000000001;0.008151764033559761
30:40.2;-0.03771785731406376;-0.2964288396841716;-1.2648040884876672;1.2570000000000001;0.014141345338768551
30:40.2;-0.05171255216351851;-0.30069491383556546;-1.265809673205471;1.25;0.019682962469128817
30:40.2;-0.06348014393142788;-0.30199757466949295;-1.2624790553979572;1.2670000000000001;0.024202795976725214
30:40.2;-0.07231215629077237;-0.2999496982607878;-1.2548145671932853;1.285;0.02721693983297331
30:40.2;-0.07772092699871459;-0.294486212530495;-1.2427439170635182;1.3030000000000002;0.02844360143274586
30:40.2;-0.07952728746864342;-0.28588324356185185;-1.2261857664274016;1.3130000000000002;0.027877969659197328
30:40.2;-0.07791883810905677;-0.2747337535431579;-1.2051336741218708;1.3090000000000002;0.02579821806605458
30:40.2;-0.07345534922818457;-0.26187817534767477;-1.1797339017079849;1.286;0.022693777573344343
30:40.3;-0.0670059222745021;-0.24829659571711424;-1.1503340457815865;1.14;0.019138501386734497
30:40.3;-0.05962126087018967;-0.2349783599096655;-1.1174916089678373;1.14;0.01565572900529431
30:40.3;-0.05236848076308326;-0.22279433581660835;-1.0819493009231793;1.14;0.012623536235807527
30:40.3;-0.046167382932736194;-0.21239723360821264;-1.044590548888752;1.0759999999999998;0.010243071510942578
30:40.3;-0.04165783092380364;-0.20416363987192424;-1.006379641136415;1.013;0.008559273330244855
30:40.3;-0.039113866916323584;-0.19817946891133317;-0.9682846401779744;0.955;0.007505721687571337
30:40.3;-0.03841419325249573;-0.19426590263181193;-0.9311890393058986;0.91;0.006949061457831151
30:40.3;-0.0390744844750774;-0.19204039616475013;-0.8958084367604219;0.872;0.006722038545298099
30:40.3;-0.04033906328678236;-0.19100266430289764;-0.8626301028533492;0.847;0.006646451561195333
30:40.3;-0.04131978609351028;-0.19063111269132277;-0.8318880613215728;0.836;0.006552646494210707
30:40.4;-0.041159889671540106;-0.19047379656418886;-0.8035790322451918;0.8170000000000001;0.006299963546456915
30:40.4;-0.039192177660237075;-0.19022000935156277;-0.777517563351292;0.8170000000000001;0.005796499488986901
30:40.4;-0.03505966696000663;-0.18974286179167493;-0.7534225988145323;0.8170000000000001;0.005012009384666112
30:40.4;-0.028775033268166987;-0.18910810820279164;-0.7310220728217561;0.805;0.003977923939912694
30:40.4;-0.020709157318411303;-0.18854935840603396;-0.7101572130487614;0.785;0.0027729496806446602
30:40.4;-0.01151429689601389;-0.18841528452841821;-0.6908667755544419;0.7609999999999999;0.0014988144159580026
30:40.4;-0.002000980814065154;-0.18909985664808823;-0.6734352156613062;0.737;0.00025481790872769364
30:40.4;0.007003739313882414;-0.19096962776338366;-0.6583960979176365;0.7140000000000001;0.0008806057617932421
30:40.4;0.014787400020691802;-0.19430173050362612;-0.6464895944227597;0.691;0.0018575051604517825
30:40.4;0.02084713194856585;-0.19924378857754704;-0.6385789570970961;0.6659999999999999;0.002652440860994027
30:40.5;0.024931420693962477;-0.20580261770750458;-0.6355360990921811;0.633;0.003260904991177468
30:40.5;0.027026120675991874;-0.21386067738488926;-0.638112467096911;0.633;0.003688178055035801
30:40.5;0.02730056493784521;-0.22320945689155958;-0.6468168479761094;0.633;0.003941536462781542
30:40.5;0.026039882603288544;-0.2335852804062802;-0.6618219400674354;0.654;0.004025553975653288
30:40.5;0.023585062525300102;-0.24469877192978795;-0.6829149733016112;0.687;0.003941263366741916
30:40.5;0.020291348375353093;-0.25625668584752986;-0.7094986260286252;0.725;0.0036892464758817045
30:40.5;0.01650651514956821;-0.2679776411100419;-0.7406407092296533;0.774;0.003276133073084537
30:40.5;0.012562518100620871;-0.27960367512348006;-0.7751650861102741;0.826;0.002722787697340101
30:40.5;0.008767944922842002;-0.29090989593498523;-0.8117719036347854;0.88;0.0020705719381144422
30:40.5;0.005390167286693265;-0.30171431453500436;-0.849172377044264;0.9309999999999999;0.0013810010784570715
30:40.6;0.0026256791088054895;-0.31188871588631784;-0.8862212641276931;1.0390000000000001;0.0007257440389692191
30:40.6;0.0005678980194867118;-0.3213686899944575;-0.922027147344284;1.0390000000000001;0.0001682742349685713
30:40.6;-0.0008139800090380193;-0.3301575258888699;-0.9560190698535123;1.0390000000000001;0.0002569221192305234
30:40.6;-0.0016750753249861242;-0.33831847670512705;-0.9879560461191483;1.057;0.0005598835160709748
30:40.6;-0.002271061383825484;-0.3459543979082774;-1.0178835718214336;1.074;0.0007997345040608052
30:40.6;-0.0029143892291065977;-0.35317850440179016;-1.0460548831610714;1.093;0.001076703903340199
30:40.6;-0.003919085190399047;-0.3600815173817346;-1.0728360545038866;1.113;0.0015139756642130388
30:40.6;-0.005545116654445646;-0.3667001063737744;-1.0986090691260566;1.135;0.0022339060420447435
30:40.6;-0.007952975049225947;-0.3729909411603564;-1.1236827669842038;1.153;0.003333278680966637
30:40.6;-0.011176262408883173;-0.37881387776972353;-1.148219219518082;1.171;0.004861242465570993
30:40.7;-0.015115493106262588;-0.38392663555747547;-1.1721813789698656;1.236;0.006802450349897309
30:40.7;-0.019550531916632988;-0.38799173611235005;-1.1953044943789408;1.236;0.009066916285513473
30:40.7;-0.024163627857591203;-0.3905950428810139;-1.2170889612126103;1.236;0.01148712082955957
30:40.7;-0.028563648091454195;-0.39127521070100507;-1.2368117596840555;1.265;0.013822914244840102
30:40.7;-0.032306079508327354;-0.3895646394604689;-1.2535588344873059;1.298;0.01577642179184844
30:40.7;-0.03490910904081725;-0.38504257847036844;-1.2662828185984008;1.3219999999999998;0.01702073209450097
30:40.7;-0.03587159931435796;-0.3773970304714593;-1.2738852025380025;1.329;0.01724564775669816
30:40.7;-0.03470345131428055;-0.36648475323452706;-1.2753169901432309;1.3330000000000002;0.016219845955142812
30:40.7;-0.03097730341344682;-0.3523735144956446;-1.2696919653936334;1.348;0.0138594258404298
30:40.7;-0.02439791529716614;-0.3353531078847149;-1.2564065329559595;1.375;0.01027981362013067
30:40.8;-0.014869102198123745;-0.31591059915155434;-1.2352544116157775;1.306;0.00580236917501455
30:40.8;-0.0025339583069591684;-0.29467713535435325;-1.2065177642650562;1.306;0.0009009063018091949
30:40.8;0.012222558195593699;-0.2723642256048374;-1.1710157564772554;1.306;0.0038982969302031583
30:40.8;0.028804257428630756;-0.2497083298080365;-1.1300946687626026;1.22;0.00812839012617379
30:40.8;0.04645811674322896;-0.22743127831946483;-1.085547297385447;1.124;0.011469924093941989
30:40.8;0.06434089782986609;-0.206212699835611;-1.0394606575032326;1.025;0.0137914707135558
30:40.8;0.08158238323369976;-0.18666890608180092;-0.9940122626840201;0.943;0.01513770761549627
30:40.8;0.09733243160000803;-0.16933579647575528;-0.9512531790574505;0.889;0.01567842631434393
30:40.8;0.1107908932949716;-0.15465471543218107;-0.9129188255756409;0.855;0.015642256140779697
30:40.8;0.12123067922181563;-0.14295964816372422;-0.8802976010284447;0.843;0.015256521570186003
30:40.9;0.12802709928664333;-0.13446434544386504;-0.8541702375135032;0.8590000000000001;0.01470460906180733
30:40.9;0.13069960814462864;-0.12925059742147185;-0.8348152504869378;0.8590000000000001;0.014102536059622903
30:40.9;0.12896023823121325;-0.1272621656235995;-0.8220623750035627;0.8590000000000001;0.013491489743176037
30:40.9;0.1227559723718683;-0.12830925355803857;-0.8153701958750018;0.8590000000000001;0.012842673509864988
30:40.9;0.11229419064019497;-0.1320856261463704;-0.8139069923025305;0.85;0.012072233533533105
30:40.9;0.09804519960803207;-0.13819766500562086;-0.8166216279761754;0.838;0.01106491082448372
30:40.9;0.08071889054282734;-0.14620300209131723;-0.8223002816061389;0.83;0.009704248595543757
30:40.9;0.06121541195251805;-0.15565467867719834;-0.8296129578645879;0.825;0.007904938262827838
30:40.9;0.04055371699107321;-0.16614501187349853;-0.8371595036297805;0.8220000000000001;0.005640611454268343
30:40.9;0.019785507386139024;-0.17734279753006635;-0.84352731890952;0.8270000000000001;0.0029597831909110093
30:41.0;-9.543880172814388e-05;-0.18901811568170465;-0.8473715839363465;0.894;1.528629735713014e-05
30:41.0;-0.01823679403911548;-0.20104990445604687;-0.8475216512435482;0.894;0.0031074429644364476
30:41.0;-0.033992183034280636;-0.2134132353600407;-0.843105113853317;0.894;0.0061162063582640095
30:41.0;-0.046959275124502264;-0.22614722539243218;-0.8336722529494848;0.9159999999999999;0.008853357374499242
30:41.0;-0.05699169588845602;-0.2393096235199236;-0.8193030773164693;0.9259999999999999;0.011174197162775497
30:41.0;-0.06418864420545062;-0.2529272526390263;-0.8006804110662459;0.9259999999999999;0.01299909245634304
30:41.0;-0.06886404192708404;-0.2669515760248821;-0.7791106703461873;0.907;0.014322675457417408
30:41.0;-0.07149546031741003;-0.28122701541071843;-0.7564743862162139;0.865;0.015210018144954594
30:41.0;-0.07265568154047883;-0.2954774483369177;-0.735096421946775;0.8109999999999999;0.015781134808218255
30:41.0;-0.07293427259615119;-0.3093138514511083;-0.7175401351307107;0.7609999999999999;0.016187404626664206
30:41.1;-0.07285993741938739;-0.32226304975605174;-0.7063463131483704;0.7040000000000001;0.01658505779574661
30:41.1;-0.07283524414241986;-0.33381292587355527;-0.703752428422663;0.7040000000000001;0.017110576258134565
30:41.1;-0.07309322181968064;-0.3434643548233326;-0.7114356257348577;0.7040000000000001;0.01786053181859607
30:41.1;-0.07368139990984907;-0.3507796945915976;-0.730318400910082;0.727;0.01887576480943048
30:41.1;-0.07447506511473016;-0.3554231883948687;-0.7604609529148252;0.7709999999999999;0.020129526974992852
30:41.1;-0.07521810880764444;-0.35719336024598075;-0.8010484295226933;0.83;0.021522095813912245
30:41.1;-0.07558557906565566;-0.3560471426238548;-0.8504698182544449;0.907;0.02288786879511145
30:41.1;-0.07525730127838702;-0.3521134914630682;-0.9064755686746051;0.986;0.024020796813915495
30:41.1;-0.07398914641219183;-0.3456937319621006;-0.9663923054955944;1.057;0.02471798051371681
30:41.1;-0.07166906533961862;-0.3372463436010988;-1.0273682308638972;1.117;0.024831623939379148
30:41.2;-0.0683481955333975;-0.3273553244445031;-1.0866225209526534;1.2690000000000001;0.02431225063080933
30:41.2;-0.06424280674490847;-0.31668500410079276;-1.1416705504877864;1.2690000000000001;0.023226983114403337
30:41.2;-0.059709469292836166;-0.30592867530794815;-1.1904938094959525;1.2690000000000001;0.021746558562958842
30:41.2;-0.055199657640494657;-0.29575854655077566;-1.231632254323671;1.2990000000000002;0.020107345541547833
30:41.2;-0.05119999054943573;-0.2867795695793946;-1.2642006761986646;1.318;0.018562399173777288
30:41.2;-0.04816547719781745;-0.2794863889284647;-1.2878487855964995;1.33;0.01733649915032579
30:41.2;-0.04645707117027272;-0.274224938917704;-1.3026845857827398;1.329;0.016595794539102194
30:41.2;-0.04629561065728772;-0.2711642548387709;-1.3091737537400736;1.3230000000000002;0.016434993883834213
30:41.2;-0.04773831045029025;-0.27028556277129484;-1.3080251863027799;1.317;0.016877417724659154
30:41.2;-0.05067594262889074;-0.27139362467689193;-1.3000731063456616;1.314;0.017880071521076256
30:41.3;-0.05484554978439356;-0.274149412920413;-1.286166225677812;1.235;0.0193386349518088
30:41.3;-0.05985588463458842;-0.27811577561759543;-1.2670767390303965;1.235;0.02109285640813871
30:41.3;-0.06522550801870668;-0.28280518744507627;-1.243446509600979;1.235;0.022936753608756622
30:41.3;-0.07043353788712146;-0.2877235548952708;-1.215785843839594;1.239;0.024638371734492914
30:41.3;-0.074981425837888;-0.2924103438968161;-1.184525977374898;1.254;0.025971140141066246
30:41.3;-0.07846022642220372;-0.2964764645815955;-1.1501083300010995;1.249;0.026753372051210776
30:41.3;-0.08061182240359671;-0.2996374367055503;-1.1130827692222978;1.2229999999999999;0.02688575720859347
30:41.3;-0.08136958520773165;-0.3017349793318619;-1.0741861470132221;1.187;0.02637347210990009
30:41.3;-0.08086768440024945;-0.30273919215010486;-1.0343790816176859;1.138;0.02532347984651958
30:41.3;-0.07941548819520361;-0.3027265567033183;-0.9948295104555703;1.083;0.023916872634432006
30:41.4;-0.07743951182124152;-0.30183553417539183;-0.9568429119767516;0.937;0.02236524279602909
30:41.4;-0.07540124943818251;-0.3002100430970685;-0.9217524186649221;0.937;0.02086498347695055
30:41.4;-0.07370674772903997;-0.29794659005519436;-0.8907944451615736;0.937;0.01956244654475735
30:41.4;-0.07262715848804806;-0.2950589651048568;-0.8649944638418321;0.895;0.018536220866059
30:41.4;-0.07224419516271434;-0.29146790848406406;-0.8450715974831122;0.8640000000000001;0.01779455809073917
30:41.4;-0.07242661707786519;-0.2870177010392099;-0.8313589785889224;0.838;0.017282058603946
30:41.4;-0.07284016527921927;-0.281517619609042;-0.8237407967133478;0.818;0.016891455743511846
30:41.4;-0.07299209150841378;-0.2748007461442413;-0.8216167396438527;0.8079999999999999;0.01648021960991386
30:41.4;-0.0723083254046109;-0.2667866922317077;-0.8239096370081817;0.8170000000000001;0.015893957555995833
30:41.4;-0.07023415133197708;-0.2575323064117308;-0.8291309199435176;0.845;0.014996957734300013
30:41.5;-0.06633948871244177;-0.24725730691701633;-0.8355102925395054;0.9229999999999999;0.013704811262674215
30:41.5;-0.06040490493297889;-0.23633986929158077;-0.8411793515575141;0.9229999999999999;0.012008749888437125
30:41.5;-0.05247029556911064;-0.22528736596110227;-0.844380018987506;0.9229999999999999;0.009981327274318521
30:41.5;-0.04283931423198188;-0.21469215897938176;-0.8436622065340894;0.937;0.007759384767266814
30:41.5;-0.032041054186469076;-0.20517893583912555;-0.8380448508836719;0.938;0.005509432054568272
30:41.5;-0.020757732127183494;-0.19734679994254534;-0.8271257358560161;0.9179999999999999;0.0033882974251589594
30:41.5;-0.009735236245345266;-0.1917120702960249;-0.8111294659630441;0.882;0.0015138614519743748
30:41.5;0.0003033719418389793;-0.1886615341521521;-0.7908869257201987;0.8440000000000001;4.526610946617284e-05
30:41.5;0.008726300263586286;-0.18842464511729268;-0.7677487933270534;0.8029999999999999;0.0012623709767316275
30:41.5;0.015037201991919134;-0.19106712323144334;-0.743445660187372;0.758;0.0021360048229885488
30:41.6;0.01889680094465574;-0.19650176894164792;-0.7199139940201037;0.69;0.002673224103214607
30:41.6;0.020128588007950473;-0.204508662884045;-0.6991115641543135;0.69;0.0028778722134189857
30:41.6;0.01871625620945603;-0.21475722415109558;-0.682847213596878;0.69;0.0027446710726237366
30:41.6;0.014798312917853057;-0.2268262834746591;-0.6726430517301442;0.679;0.0022578248248364126
30:41.6;0.008661952762496525;-0.2402236207368398;-0.6696340847850397;0.6759999999999999;0.0013933783905744849
30:41.6;0.0007352943806323099;-0.25440968576528067;-0.6745020153408243;0.684;0.00012617640231271944
30:41.6;-0.008425666543461068;-0.26882908714557335;-0.6874411052597158;0.701;0.0015570982683912864
30:41.6;-0.018161328889297234;-0.2829495003150218;-0.7081581027908761;0.7290000000000001;0.003639039614439757
30:41.6;-0.027749806099956874;-0.29630413858741206;-0.7359094995873292;0.765;0.006050929311818109
30:41.6;-0.03646701743841841;-0.3085323060816011;-0.7695778931709629;0.809;0.008658715568648064
30:41.7;-0.04366032763023155;-0.3194119988077602;-0.8077850571471462;0.966;0.011265073559676896
30:41.7;-0.04882373395087489;-0.32887795165642175;-0.849028960806963;0.966;0.013632900147384837
30:41.7;-0.051659390243362746;-0.33701878774912586;-0.8918188053391897;0.966;0.01552673045492457
30:41.7;-0.052112962260914095;-0.3440500360532445;-0.9347827518840912;1.011;0.0167601560764767
30:41.7;-0.05037715627756646;-0.3502655233627011;-0.9767419849609522;1.052;0.017234984472207344
30:41.7;-0.04686389323618516;-0.35597503028108785;-1.016760450329368;1.103;0.016961979945044406
30:41.7;-0.04214905836239391;-0.36143871474636047;-1.0541772560041853;1.1440000000000001;0.016059654133723036
30:41.7;-0.0368963147155974;-0.3668085464501165;-1.088618924070649;1.176;0.014733241770682382
30:41.7;-0.031769292724653196;-0.3720852166897368;-1.11998406749161;1.205;0.013239201931299958
30:41.7;-0.027343854230772055;-0.3770970032155541;-1.1483946914423993;1.219;0.011841425514973353
30:41.8;-0.024032896353608554;-0.3815045595336046;-1.1741135005974748;1.222;0.01076504694559561
30:41.8;-0.02203439216824507;-0.384831431677039;-1.1974341146872305;1.222;0.010153674528108577
30:41.8;-0.021309203231920194;-0.3865155954579972;-1.218559514127249;1.222;0.010036469708109558
30:41.8;-0.02159040575071592;-0.3859758864451378;-1.2374900058158944;1.234;0.010312469512655239
30:41.8;-0.02242214649884792;-0.3826888825929233;-1.2539425403378177;1.255;0.010759712516500682
30:41.8;-0.023223627914461108;-0.3762715480252034;-1.2673185414825126;1.28;0.011074324209754929
30:41.8;-0.023372916321772984;-0.3665591925520206;-1.2767302026244256;1.296;0.010938459211666246
30:41.8;-0.022304690632626707;-0.3536609112012783;-1.281088147489153;1.311;0.010105604063698875
30:41.8;-0.01961092235798914;-0.3379744134001359;-1.2792465166297278;1.358;0.008478833094398152
30:41.8;-0.015122490647933752;-0.32015253528135923;-1.2701914739135844;1.411;0.0061496367469599245
30:41.9;-0.008943917232896526;-0.30102778435921607;-1.2532445939578767;1.349;0.003374195124747583
30:41.9;-0.0014269645725279085;-0.2815117842163017;-1.2282421052497066;1.349;0.0004933938724466062
30:41.9;0.006903351137542668;-0.2624922119024549;-1.1956542180711331;1.349;0.002166616204817666
30:41.9;0.01543990282204144;-0.24474737991749862;-1.1566204941416964;1.271;0.0043707251510004454
30:41.9;0.023577124178567565;-0.2288872646111354;-1.1128875054600529;1.171;0.006005701274506388
30:41.9;0.03077519674220336;-0.21532054527620137;-1.066648266542674;1.061;0.007068179024068095
30:41.9;0.03659886471963125;-0.20424721529691206;-1.0203048266327392;0.961;0.007626999171037202
30:41.9;0.04072892539900335;-0.19567743596542317;-0.9761969055916315;0.892;0.0077800274158369796
30:41.9;0.042950245779489166;-0.18947189004850273;-0.9363485852707415;0.846;0.007619877673762147
30:41.9;0.04312563909223009;-0.18539131036116238;-0.902279314917783;0.8220000000000001;0.007213830260740878
30:42.0;0.04116854103787784;-0.18314140882244614;-0.8749082772167532;0.877;0.006596514970214129
30:42.0;0.037027339808661894;-0.18240581638958897;-0.8545564482134426;0.877;0.0057716760855678045
30:42.0;0.030688667116576956;-0.1828680301847036;-0.8410251455044387;0.877;0.004719813019940764
30:42.0;0.022199007846852574;-0.18422745234651655;-0.833715302322295;0.892;0.0034096176760443873
30:42.0;0.011698417679810951;-0.18621387641707615;-0.8317538958928378;0.892;0.0018118990947311876
30:42.0;-0.000543092179138832;-0.18860269965828716;-0.8341045255298922;0.8859999999999999;8.543620146720826e-05
30:42.0;-0.01409899299462145;-0.1912313698661458;-0.8396494102203215;0.8690000000000001;0.0022638373354829508
30:42.0;-0.0283834979083071;-0.19401557562283567;-0.8472405594068568;0.852;0.004665618782413489
30:42.0;-0.04268321883397024;-0.19696194814770698;-0.855729216238885;0.848;0.007194089793210633
30:42.0;-0.05622463908328089;-0.20017349139443316;-0.8639908770714602;0.857;0.00972394283818366
30:42.1;-0.06826697917990618;-0.20384427643534297;-0.8709637099071333;0.9259999999999999;0.012120185514662863
30:42.1;-0.07819999939004142;-0.20824084982100094;-0.8757089241801701;0.9259999999999999;0.014260424467117191
30:42.1;-0.08562235326330345;-0.2136697028504566;-0.8774870220727076;0.9259999999999999;0.01605353975876574
30:42.1;-0.09038136477777821;-0.22043279610759747;-0.8758348729830082;0.9490000000000001;0.017449273023332976
30:42.1;-0.0925671240598623;-0.22877591556149834;-0.8706294527200441;0.9520000000000001;0.018437431846363487
30:42.1;-0.09246536339847208;-0.23883734803138668;-0.862126839142484;0.9440000000000001;0.01903936617689831
30:42.1;-0.09048133749205897;-0.250606127134468;-0.8509650637330083;0.924;0.019295783923316163
30:42.1;-0.0870523679738702;-0.2638983442983335;-0.8381220131470005;0.892;0.019254156704984274
30:42.1;-0.08256903600914033;-0.2783568309646932;-0.8248278906175255;0.855;0.01895755983673064
30:42.1;-0.07732126820129606;-0.2934760016907249;-0.8124424910001332;0.8270000000000001;0.018435893527284145
30:42.2;-0.07147641409366358;-0.3086504193150585;-0.8023163849803033;0.835;0.017700082435573514
30:42.2;-0.06508670610000829;-0.3232401623620254;-0.795658630829476;0.835;0.016739573465897013
30:42.2;-0.058117549843857357;-0.3366390608610202;-0.793430092696908;0.835;0.015523172065053834
30:42.2;-0.05048663281926013;-0.3483310603113459;-0.7962728268014158;0.855;0.014003303572958176
30:42.2;-0.04210510363848313;-0.3579280728469679;-0.8044770222482046;0.872;0.012123950287111756
30:42.2;-0.032914310264792364;-0.36519066080569135;-0.8179810257039773;0.889;0.009832130878316771
30:42.2;-0.02291417901373767;-0.3700345980166818;-0.8363974544324924;0.909;0.0070918466525547365
30:42.2;-0.012181957323139649;-0.37252551565279646;-0.8590585215083909;0.9309999999999999;0.003898484828712801
30:42.2;-0.0008818571952868264;-0.3728636011832311;-0.8850755721819571;0.95;0.00029102386693839933
30:42.2;0.010733566929040641;-0.37135972350281293;-0.9134106262316809;0.9670000000000001;0.0036408679521730838
30:42.3;0.022330068492798196;-0.36840369053898486;-0.9429594923593262;1.065;0.00775723706781788
30:42.3;0.03350588476033643;-0.364426252359243;-0.9726423543667855;1.065;0.011876375561951216
30:42.3;0.043811615258028666;-0.3598583070963049;-1.0014893346752463;1.065;0.015789454509226152
30:42.3;0.05277438399836652;-0.3550908931999822;-1.0287069588547801;1.109;0.019277663039395765
30:42.3;0.05992762686958001;-0.350437746301192;-1.0537209107051888;1.1440000000000001;0.02212909010935801
30:42.3;0.06484852841471309;-0.34610162000977207;-1.076197029603325;1.163;0.024154360643818235
30:42.3;0.0672012558083181;-0.34214769431645353;-1.096038586495065;1.17;0.02520094639388181
30:42.3;0.06677951811676051;-0.33849014321646387;-1.1133542157552312;1.168;0.025166490995700886
30:42.3;0.06354100486604025;-0.33489908310887856;-1.1283952312264252;1.1740000000000002;0.02401205222698787
30:42.3;0.05762827476532787;-0.33103307851558333;-1.1414686934203302;1.183;0.021775644400230835
30:42.4;0.04937202531387281;-0.3264957097158297;-1.1528380869114454;1.15;0.018583466875810892
30:42.4;0.039273485258644755;-0.3209061694671033;-1.1626273338512327;1.15;0.014652712871553925
30:42.4;0.027965996954678878;-0.313970350348514;-1.1707475955054218;1.15;0.010279742075942419
30:42.4;0.0161592963253048;-0.3055419908283339;-1.1768669059276322;1.176;0.0058105962502787425
30:42.4;0.004569780697497059;-0.2956670743361585;-1.1804358964652089;1.217;0.0015949267076395715
30:42.4;-0.006159501204402621;-0.2846049871448516;-1.1807691070558244;1.246;0.0020699174818080883
30:42.4;-0.015539936847086848;-0.272819616083301;-1.1771657544760243;1.263;0.00499071146720282
30:42.4;-0.023303820825663832;-0.2609364292145372;-1.1690429780647458;1.261;0.00710873500406735
30:42.4;-0.029438228777250774;-0.24966820386840932;-1.1560525836969369;1.247;0.008496743376803688
30:42.4;-0.034171611450575075;-0.2397197715734917;-1.1381577455334222;1.228;0.00932334538424933
30:42.5;-0.03790774326434869;-0.23168773273353893;-1.1156557474953956;1.102;0.009798535657583568
30:42.5;-0.04111717243255702;-0.22597292378172068;-1.089147034726271;1.102;0.010119665548752207
30:42.5;-0.044212693975564515;-0.2227211056555964;-1.0594667186219062;1.102;0.010432674816321048
30:42.5;-0.04744113194586537;-0.22180152660212973;-1.0275993082483375;1.044;0.010812929637863818
30:42.5;-0.05081498283583381;-0.22282605864583102;-0.9945871424665633;0.993;0.011261613088203386
30:42.5;-0.054094183520453795;-0.22520579523742118;-0.961435153046111;0.95;0.011712514171593372
30:42.5;-0.056818777283562535;-0.2282368253388217;-0.9290198262959531;0.915;0.012047656705337667
30:42.5;-0.058386175941265196;-0.23120145505151024;-0.8980177133249009;0.893;0.012122313123218322
30:42.5;-0.05815972149856619;-0.2334674917471294;-0.8688684778594402;0.879;0.011797847475016438
30:42.5;-0.05558887363041274;-0.23456877393587053;-0.8417809817851817;0.873;0.010976330661550314
30:42.6;-0.05031740969286756;-0.23425476544668236;-0.8167822669922855;0.8690000000000001;0.009627488546270838
30:42.6;-0.042258489534005024;-0.23250471868647218;-0.7937998995448211;0.8690000000000001;0.007799320741001605
30:42.6;-0.03162545995030618;-0.2295106002498402;-0.7727592327574344;0.8690000000000001;0.005608978843367683
30:42.6;-0.018917448886057064;-0.22563778819603816;-0.7536717639753072;0.8440000000000001;0.0032170413863970466
30:42.6;-0.004863542788375331;-0.22137146163669694;-0.7366920990597305;0.805;0.0007931592359443812
30:42.6;0.009665789733486045;-0.2172546699458482;-0.7221295794281714;0.762;0.0015164273146628874
30:42.6;0.023762637368798516;-0.2138251962741054;-0.7104138606723831;0.725;0.003609648772572821
30:42.6;0.03657815183987081;-0.211559823096951;-0.702027051899099;0.698;0.005432613407621908
30:42.6;0.04739323599597051;-0.21083327210030245;-0.6974234401890704;0.687;0.006968704545697359
30:42.6;0.05565704134224811;-0.21189522678096923;-0.6969589069467821;0.691;0.008219557964493073
30:42.7;0.060999465438116504;-0.21486423368958843;-0.7008461730033625;0.755;0.009185712831744988
30:42.7;0.06323000790405227;-0.21973362662748577;-0.7091399124242255;0.755;0.009852619003941456
30:42.7;0.06233313732081982;-0.22638342330366557;-0.721742125894471;0.755;0.010184639556379643
30:42.7;0.05846441106056681;-0.23459421375170805;-0.7384128946272281;0.772;0.010127637478515363
30:42.7;0.05194690544211539;-0.24406302548836478;-0.7587784041495398;0.79;0.009620034587522565
30:42.7;0.04326423101201564;-0.2544236951096615;-0.7823376290887714;0.809;0.008611538830561902
30:42.7;0.03304367357419098;-0.2652737542287478;-0.8084729684363845;0.8370000000000001;0.007086766290042585
30:42.7;0.022022260662612043;-0.2762077468887811;-0.8364698587864555;0.871;0.005088011102145865
30:42.7;0.010991491319614164;-0.28685478673895054;-0.8655489866380017;0.907;0.0027290429760951367
30:42.7;0.0007230750074145263;-0.29691605049543335;-0.894912358710873;0.9470000000000001;0.000192131039060987
30:42.8;-0.008113921393475068;-0.30619601032483135;-0.9238007036177839;1.04;0.00229513698953644
30:42.8;-0.015028683541581843;-0.31462056084555945;-0.9515533558389723;1.04;0.004499260985824562
30:42.8;-0.019761671746080775;-0.32223668527374416;-0.9776554280941337;1.04;0.006225646804042771
30:42.8;-0.022305751462940702;-0.3291920403444783;-1.001759433196252;1.061;0.007355795135003221
30:42.8;-0.022893637905100274;-0.3356973991353638;-1.0236809877959052;1.074;0.007867331018762346
30:42.8;-0.021954960716079795;-0.3419779516944124;-1.0433786823679922;1.0859999999999999;0.007833804522329398
30:42.8;-0.02004890768150823;-0.3482201359780268;-1.0609291294415357;1.103;0.0074068060158876715
30:42.8;-0.01778072645520195;-0.35451992709830615;-1.0765046363778057;1.128;0.006785878143894507
30:42.8;-0.015713194165272785;-0.36083787779059934;-1.0903570713912327;1.153;0.006182232607804726
30:42.8;-0.014286694346995582;-0.3669669494421895;-1.1028063805768542;1.172;0.005781732243076016
30:42.9;-0.013761633607108205;-0.3725206623087811;-1.1142268381148246;1.194;0.005712075936445926
30:42.9;-0.014191803563250205;-0.3769480257823949;-1.1250219169494187;1.194;0.00601838612369735
30:42.9;-0.015427865334697413;-0.37957679401704736;-1.1355812352247934;1.194;0.006650031464831998
30:42.9;-0.017143126865459345;-0.3796821344735187;-1.146218832719564;1.198;0.007460668462625611
30:42.9;-0.018873714721953302;-0.37657688762413594;-1.1570980632794812;1.2009999999999998;0.008223964268737331
30:42.9;-0.020069192336032996;-0.3697178536366926;-1.1681527640096148;1.197;0.008667621918358848
30:42.9;-0.020154557954935072;-0.3588150828223081;-1.1790182254185668;1.177;0.008526376113039365
30:42.9;-0.018608469983043142;-0.3439214138455496;-1.1889910366432286;1.156;0.007609365838767483
30:42.9;-0.015058218284492648;-0.3254767201909058;-1.1970425510740916;1.168;0.005866824647536927
30:42.9;-0.009374780187703775;-0.304289804409016;-1.2019098853569292;1.222;0.0034286282701528363
30:43.0;-0.0017342936416668636;-0.28145574113211824;-1.2022732128342652;1.3359999999999999;0.0005868618990462395
30:43.0;0.0073824627345224865;-0.2582234823071388;-1.1969966949413424;1.3359999999999999;0.0022818650061506387
30:43.0;0.01725295039929452;-0.23584501340070874;-1.185376646672028;1.3359999999999999;0.0048233240306907324
30:43.0;0.027015264337886872;-0.2154410709213517;-1.1673296500906534;1.327;0.006794089087994394
30:43.0;0.03578530229497369;-0.1979031639833264;-1.143472148351053;1.268;0.008098097824891006
30:43.0;0.042768736035156955;-0.18383485823770473;-1.115072265096695;1.166;0.008767126922500243
30:43.0;0.04734839416657333;-0.17353174179354422;-1.0838807637190764;1.0590000000000002;0.008905651354106167
30:43.0;0.04913334139155657;-0.16700031473459795;-1.0518735078974624;0.9790000000000001;0.00863092031356388
30:43.0;0.0479694474538478;-0.1640098988178618;-1.020959007901012;0.922;0.008032358468070431
30:43.0;0.04392236141815479;-0.16416212096277277;-0.9927110735841655;0.884;0.007157832020477111
30:43.1;0.03724699850908697;-0.1669593386809269;-0.9681757949278657;0.9059999999999999;0.006020827965217928
30:43.1;0.028354705133793286;-0.17185947801270993;-0.9477801084091306;0.9059999999999999;0.004618555995495339
30:43.1;0.01778251955962025;-0.1783143715998882;-0.9313443052705621;0.9059999999999999;0.0029531799137690004
30:43.1;0.006161641751199874;-0.18579521927034898;-0.9181820068134157;0.938;0.0010511380487023215
30:43.1;-0.005820802896554492;-0.19381083216095488;-0.9072623524843478;0.965;0.0010235140994050462
30:43.1;-0.017469212505014604;-0.20192363228733284;-0.8974052134959306;0.982;0.0031655491865306674
30:43.1;-0.028131881556294175;-0.2097661447442346;-0.8874771721508007;0.983;0.005237106040594043
30:43.1;-0.03724925388445425;-0.2170575435713453;-0.8765575757855306;0.97;0.007087170965401514
30:43.1;-0.04438927536841629;-0.22361702737818245;-0.8640528601386769;0.9440000000000001;0.008576759604020824
30:43.1;-0.049265125832345436;-0.22936978769583885;-0.8497501405393044;0.914;0.009602118340249044
30:43.2;-0.05173545622357839;-0.23434222402145446;-0.8338137222664876;0.845;0.010108992367078792
30:43.2;-0.051790986046982894;-0.23864517672539962;-0.8167391867320075;0.845;0.010094626022009473
30:43.2;-0.04953327215367158;-0.24244666556906241;-0.7992861434545795;0.845;0.009598768505336216
30:43.2;-0.04515113307908015;-0.2459379893215878;-0.78240706097013;0.8290000000000001;0.00868814444735888
30:43.2;-0.038898172656947706;-0.24929822306750837;-0.7671773204568507;0.813;0.007439506683440842
30:43.2;-0.031073207288061573;-0.25266244980869096;-0.7547220384966559;0.7979999999999999;0.005925347386149604
30:43.2;-0.022005056805243912;-0.2560988515453653;-0.7461348516938556;0.7809999999999999;0.004204820405551033
30:43.2;-0.012042803525145628;-0.2595986737392924;-0.7423885578184449;0.767;0.002320926247522053
30:43.2;-0.0015510753957174443;-0.263081138478201;-0.744242338081551;0.758;0.0003036945468002351
30:43.2;0.009093067068943892;-0.26641306273354376;-0.7521544009192677;0.754;0.0018221029473602978
30:43.3;0.019508019640210036;-0.2694399825540657;-0.7662116601971846;0.8;0.004027392738080935
30:43.3;0.029325279077854347;-0.2720221191176138;-0.786087163490256;0.8;0.006270715216978786
30:43.3;0.038214745990732005;-0.27406649247000003;-0.8110315855024923;0.8;0.008494243117801097
30:43.3;0.045910190057509716;-0.27554800645451266;-0.8399028416492315;0.8390000000000001;0.01062515843292659
30:43.3;0.05222895402004528;-0.2765167271706655;-0.8712397483157917;0.897;0.012582600771001654
30:43.3;0.057082666296585274;-0.27709292921915235;-0.9033834475882477;0.961;0.014288999568643832
30:43.3;0.06047488727313984;-0.2774537799263136;-0.9346386098328788;1.024;0.0156822882097766
30:43.3;0.06248198154401778;-0.277815617791193;-0.963452105968676;1.0759999999999998;0.016724054770272143
30:43.3;0.06321888280861916;-0.2784144167747723;-0.9885788864324797;1.107;0.017400024813786868
30:43.3;0.0627986447768371;-0.2794854979734042;-1.0092056532329303;1.121;0.01771288178582485
30:43.4;0.06129874634648679;-0.2812427766340328;-1.0250115626455933;1.0859999999999999;0.017671024705378062
30:43.4;0.05874517283394354;-0.2838574398399403;-1.0361602565812082;1.0859999999999999;0.01727823583994264
30:43.4;0.0551182456222626;-0.2874354480593314;-1.0432343301760272;1.0859999999999999;0.01652789642298939
30:43.4;0.0503770007070056;-0.2919933934831482;-1.047133225881599;1.073;0.015403069424865799
30:43.4;0.04449540566318765;-0.29743366446233643;-1.0489548435604517;1.067;0.013882321084680353
30:43.4;0.03750227471885932;-0.30352165483437155;-1.0498761713552855;1.064;0.011950480596044411
30:43.4;0.029515627810575748;-0.30986892920381537;-1.0510447738810127;1.069;0.009612830260488448
30:43.4;0.020763795771338255;-0.315927391300134;-1.0534894694133583;1.081;0.006910734825426309
30:43.4;0.011591098782604486;-0.3210017000329211;-1.0580525005066561;1.1059999999999999;0.0039367619764164715
30:43.4;0.0024504641910213475;-0.3242887588593466;-1.065338073155849;1.135;0.0008465794130942826
30:43.5;-0.006116979661584484;-0.32494893289894616;-1.075667118146845;1.103;0.0021381099993684305
30:43.5;-0.013520299303811146;-0.322202617081701;-1.0890307364990965;1.103;0.00474411826401165
30:43.5;-0.01917794357238403;-0.3154363567862613;-1.1050459933719703;1.103;0.0066848880527476855
30:43.5;-0.022593107667312075;-0.30430221529528123;-1.1229293274413341;1.121;0.007720288154116681
30:43.5;-0.023436525062423694;-0.28879753769439676;-1.141505975876904;1.1420000000000001;0.007726181295645288
30:43.5;-0.021624756512043083;-0.2693119645814851;-1.1592691092478404;1.16;0.006751357999732158
30:43.5;-0.017375880333597698;-0.2466272013682152;-1.1744950201736712;1.187;0.0050331395443903035
30:43.5;-0.011222624357020174;-0.22186048812875236;-1.185412123425507;1.23;0.0029515065761139755
30:43.5;-0.003971804983231354;-0.19635544453589845;-1.1904101301258438;1.285;0.0009283836389316549
30:43.5;0.0033867984847432823;-0.17153669969019888;-1.1882612952613314;1.3359999999999999;0.0006903325608476113
30:43.6;0.00980794506029989;-0.14875166559446146;-1.1783129474394733;1.264;0.0017190975110233453
30:43.6;0.014334129865883422;-0.12912474655555306;-1.1606099919536976;1.264;0.002148162456338482
30:43.6;0.016229654411491472;-0.1134478933725597;-1.1359216177649036;1.264;0.002091481718229568
30:43.6;0.015081962471032762;-0.10212391090220262;-1.1056650221601663;1.157;0.0017029773221535946
30:43.6;0.010855269432731424;-0.09516537965546625;-1.071730431453853;1.05;0.0011071466604155615
30:43.6;0.003891562217743743;-0.09224022482297155;-1.0362259015002655;0.965;0.0003719621718172182
30:43.6;-0.005138759490891511;-0.09274987364850439;-1.001182172905506;0.895;0.00047718273990524594
30:43.6;-0.015327644875938422;-0.09592501440820658;-0.9682718517709338;0.846;0.0014236545146873256
30:43.6;-0.025645826741579093;-0.10092473676598565;-0.9385932557553719;0.82;0.002429359340502299
30:43.6;-0.03506563454273392;-0.10692751178712544;-0.9125542062705123;0.82;0.0034216047043223578
30:43.7;-0.04267264953244375;-0.11320648052403859;-0.8898721224896954;0.885;0.004298812463407106
30:43.7;-0.0477543839701869;-0.11918500122045876;-0.8696844680244704;0.885;0.004949901607455526
30:43.7;-0.049860586084273587;-0.12447057584613556;-0.8507413441885436;0.885;0.00527985039505337
30:43.7;-0.04883446629380197;-0.12886724408642722;-0.8316403891235249;0.893;0.005233648599084092
30:43.7;-0.044816423225453025;-0.1323690169235314;-0.8110674186418922;0.892;0.004811500020239928
30:43.7;-0.03822240566793071;-0.13513884563592882;-0.788014886104767;0.8809999999999999;0.004070358333831187
30:43.7;-0.029699543751832917;-0.1374778754931987;-0.7619556986032235;0.857;0.0031110881117869305
30:43.7;-0.020063142415905556;-0.13978854501442745;-0.7329541728299428;0.823;0.0020556414310120216
30:43.7;-0.010220819529585439;-0.14253341380593743;-0.7017025855872506;0.778;0.0010222461504263698
30:43.7;-0.0010904309576038613;-0.14619045337381026;-0.6694802838117778;0.7290000000000001;0.00010672225109616509
30:43.8;0.006481494795945748;-0.15120569361711203;-0.6380417892817432;0.606;0.0006253057837196735
30:43.8;0.011794005765989466;-0.15794559368154867;-0.6094521464732995;0.606;0.0011352943102727851
30:43.8;0.014351833545512553;-0.16665346087410815;-0.5858983870338653;0.606;0.0014013416437882202
30:43.8;0.013905969927274926;-0.17741579083378436;-0.5695039760339056;0.578;0.001405045271717184
30:43.8;0.010472056556849758;-0.19014501128580638;-0.5621578116142374;0.555;0.0011193738694053844
30:43.8;0.0043253557758015536;-0.2045840480185217;-0.5653587004843936;0.547;0.0005002852320855347
