Time;AccX;AccY;AccZ;Acc-old;Acc-trns
31:59.7;0.012052230588324312;-0.30227867435455286;-1.0385687910788224;1.0759999999999998;0.0037836434932365425
31:59.7;-0.0021823212346280905;-0.3060351622016305;-1.0741581945304892;1.172;0.0007173948463703322
31:59.7;-0.01589878632760037;-0.3086012145626271;-1.1089257222520932;1.172;0.005440816275571866
31:59.7;-0.028556321675469867;-0.308964023054073;-1.1416492520640469;1.219;0.01007262981896731
31:59.7;-0.03959537639202584;-0.3063244844548702;-1.1711375449421264;1.229;0.014204766234735999
31:59.7;-0.04847013166018658;-0.3001842753222596;-1.1962686172095525;1.224;0.017405674103938742
31:59.8;-0.054710399315096095;-0.290399730962634;-1.216012217316336;1.228;0.019319862561545924
31:59.8;-0.05799851944488876;-0.27719319580804064;-1.229452172492821;1.248;0.01976565048668335
31:59.8;-0.058234867555894736;-0.2611219599164894;-1.2358241107124084;1.27;0.01879243915772028
31:59.8;-0.05556780105519714;-0.24301163427925596;-1.2345755208014175;1.286;0.016671241345736876
31:59.8;-0.05037879451435619;-0.22386223275870415;-1.225441870693447;1.3;0.013820422421660443
31:59.8;-0.04322977394732986;-0.20473688937922957;-1.2085214377298115;1.2590000000000001;0.010696296275694418
31:59.8;-0.0347890992748396;-0.18664821755300537;-1.1843277334479596;1.2590000000000001;0.007690222949246002
31:59.8;-0.025754664821510745;-0.1704604829966482;-1.1538025176796407;1.207;0.005065369128521653
31:59.8;-0.016788887896266983;-0.15682101520810957;-1.1182804968272482;1.143;0.002944265302708635
31:59.8;-0.008473423629070052;-0.14612472495141682;-1.079405996531221;1.08;0.0013364953517171784
31:59.9;-0.0012846171613383054;-0.1385090698162125;-1.0390120822218372;1.025;0.00018487259188566292
31:59.9;0.004414635190109266;-0.13387493668378972;-0.9989806933815718;0.978;0.0005904065871659729
31:59.9;0.008374341999209334;-0.13192796774801374;-0.9611038455713444;0.94;0.0010618370638738996
31:59.9;0.010455809439791417;-0.13223324732944272;-0.9269613622793509;0.912;0.0012816220035463944
31:59.9;0.010632897230162048;-0.13427528174683745;-0.8978237013331944;0.893;0.0012818545658610356
31:59.9;0.008995408151947201;-0.1375159984890196;-0.8745821103898126;0.857;0.0010818690324168154
31:59.9;0.005750885560495772;-0.1414458312953513;-0.8577046279788211;0.857;0.0006976902137216035
31:59.9;0.001220425002350185;-0.14562573592407033;-0.8472158532712936;0.8390000000000001;0.0001505716824589971
31:59.9;-0.00417501864173034;-0.14972014372623738;-0.8426991705375456;0.825;0.0005267580978955886
31:59.9;-0.009939792329634484;-0.1535216080965581;-0.8433215395653199;0.82;0.0012868858175482715
32:00.0;-0.015540143493407372;-0.156966933879754;-0.8478839306677977;0.825;0.0020682336708197097
32:00.0;-0.020449540192907376;-0.16014259982075285;-0.8549031118642773;0.846;0.0027996730711569726
32:00.0;-0.024196727693699897;-0.16327559575190584;-0.8627290704352324;0.878;0.003408414045753697
32:00.0;-0.02640822929989248;-0.16670578384110726;-0.8696958462423547;0.915;0.0038287529639148073
32:00.0;-0.026837715429438698;-0.17083870737330908;-0.8742939344718387;0.946;0.0040085682818217
32:00.0;-0.025378550800489577;-0.17608319239978934;-0.8753431350873753;0.9640000000000001;0.003911677593202976
32:00.0;-0.022060985694953676;-0.18278373895574976;-0.8721396829724379;0.9640000000000001;0.003516806856869661
32:00.0;-0.017039395520700752;-0.1911603833345168;-0.8645530856163924;0.9570000000000001;0.0028160719181156255
32:00.0;-0.010575660822873341;-0.20126678921167876;-0.8530556432337739;0.9309999999999999;0.0018157539291158754
32:00.0;-0.0030222536680408847;-0.21297196487725115;-0.8386782905143038;0.892;0.0005398197283954982
32:00.1;0.005195080331711075;-0.2259655033599812;-0.8228977263646617;0.851;0.0009660069994548995
32:00.1;0.013598106405801233;-0.23978341842029657;-0.807470322701925;0.813;0.002632838087894854
32:00.1;0.021684349029204915;-0.25385119089707353;-0.794236156183906;0.7929999999999999;0.0043719506177800896
32:00.1;0.028964829624125107;-0.267539949870748;-0.7849196523551962;0.78;0.006082537882626329
32:00.1;0.03500919598955033;-0.28022970211493364;-0.7809513833267239;0.7759999999999999;0.007661614576502648
32:00.1;0.039492064522122824;-0.2913717783884345;-0.7833300675554765;0.802;0.00901367966087474
32:00.1;0.04223200086743795;-0.30054258871146783;-0.7925366707738787;0.802;0.010059283476570714
32:00.1;0.04321440423323818;-0.30748225294465703;-0.8085054377231198;0.83;0.010743147283439681
32:00.1;0.042591988230694704;-0.3121143530558269;-0.8306513964839218;0.871;0.011042323192459026
32:00.1;0.04066125846782564;-0.31454599714985126;-0.8579497320460742;0.914;0.010973036446440284
32:00.2;0.03781871124099381;-0.31504927617263084;-0.889056971232193;0.961;0.010592898306828212
32:00.2;0.03450467605590323;-0.3140266765686838;-0.9224577443557516;1.0070000000000001;0.009995188263618745
32:00.2;0.031144917737682177;-0.3119653153613791;-0.9566171596786324;1.048;0.009294620590435653
32:00.2;0.02809982532751399;-0.3093867223289405;-0.9901189780638943;1.08;0.008607810088658017
32:00.2;0.025628129480822624;-0.30679842592490086;-1.021773448368908;1.105;0.008033867218702148
32:00.2;0.023867592706926156;-0.3046514556892858;-1.0506847716188517;1.133;0.007639840882785556
32:00.2;0.02283108278666262;-0.30330614207175094;-1.0762746549416005;1.133;0.007452994952571277
32:00.2;0.02241437288360556;-0.30300797523549067;-1.0982642627621788;1.1340000000000001;0.007459118452829874
32:00.2;0.022411785487390132;-0.3038746847189914;-1.116623190134054;1.137;0.007604621819892077
32:00.2;0.022536788889372644;-0.30589418521110395;-1.1315002777470224;1.15;0.007800418846050408
32:00.3;0.022446799578043124;-0.3089313921548758;-1.1431531765151075;1.167;0.007927219757992144
32:00.3;0.021774264542408828;-0.31274199657461255;-1.1518891372370128;1.1909999999999998;0.007844050520764369
32:00.3;0.020167258568970996;-0.3169934032322624;-1.158020747599598;1.213;0.007403096857289733
32:00.3;0.017339408442689986;-0.32129417246443076;-1.161831817509553;1.219;0.0064726241770362535
32:00.3;0.01312135608024512;-0.32523054914930893;-1.1635448833260487;1.198;0.004965388047044947
32:00.3;0.007499916327014331;-0.3284047231122468;-1.1632856843745023;1.163;0.002865181882614567
32:00.3;0.0006330953056440543;-0.3304697195786122;-1.1610499816910849;1.163;0.00024291351656132175
32:00.3;-0.007161862882959887;-0.33115967652833256;-1.1566873256968826;1.169;0.0027433386904207185
32:00.3;-0.015442828292322595;-0.33031599605080664;-1.1499169436969165;1.1840000000000002;0.005865741519303995
32:00.3;-0.023693847657246553;-0.3279072024260642;-1.1403818546948181;1.198;0.008860063737485609
32:00.4;-0.03138842243101443;-0.3240368362015938;-1.127734896384975;1.214;0.011470197380217009
32:00.4;-0.038059082059894896;-0.31893366310476706;-1.1117400980044334;1.218;0.013494659796584044
32:00.4;-0.04336255926117737;-0.3129227247604662;-1.09236657681741;1.202;0.014822464303244024
32:00.4;-0.04712473037222819;-0.30638161871515335;-1.0698514270058626;1.165;0.015446676635715938
32:00.4;-0.04934940787992548;-0.2996901925878728;-1.0447144823218109;1.114;0.015450839888174646
32:00.4;-0.050183789236824185;-0.2931820005050342;-1.0177205899780006;1.018;0.014973706473254604
32:00.4;-0.04984827434709833;-0.28710410503605294;-0.9898006124532741;1.018;0.01416567418844969
32:00.4;-0.048551009851068354;-0.28159029642271494;-0.9619535738443061;0.98;0.01315134179699783
32:00.4;-0.04641063379828347;-0.2766514233205922;-0.9351514817462372;0.953;0.012006940944334066
32:00.4;-0.04340595265957947;-0.27218459239917964;-0.9102581266281303;0.925;0.01075418231380933
32:00.5;-0.039365275521592025;-0.2680008065811333;-0.8879653233586585;0.897;0.009367968088888881
32:00.5;-0.03400170217857391;-0.2638682051894764;-0.8687491895743022;0.884;0.007794390039432654
32:00.5;-0.02699029038947302;-0.2595654213460091;-0.852849957690281;0.888;0.0059748502625813545
32:00.5;-0.018069824944042846;-0.2549373015518821;-0.8402767708781912;0.889;0.003870879817797967
32:00.5;-0.007142278406962767;-0.24994365071219632;-0.8308339230166275;0.885;0.001483177417700611
32:00.5;0.005657253327294427;-0.24469129019648952;-0.824160573707334;0.8690000000000001;0.0011408695063446638
32:00.5;0.019937391619852952;-0.2394419818102595;-0.8197754200181765;0.8690000000000001;0.0039134837096763886
32:00.5;0.0350766271094439;-0.23459360706953383;-0.8171204346438568;0.861;0.006723881800940394
32:00.5;0.050290269551663866;-0.2306370200534584;-0.81560054996284;0.8490000000000001;0.009459985951923043
32:00.5;0.06472425453975299;-0.22809515082322332;-0.8146181046618812;0.841;0.012026442178857922
32:00.6;0.07755783231190073;-0.2274547552646678;-0.8136031410983626;0.836;0.01435268983532043
32:00.6;0.08809474125462938;-0.22910326773917705;-0.8120432222006;0.8390000000000001;0.016389300335494874
32:00.6;0.09582598216846278;-0.23328142696649554;-0.8095172373924093;0.852;0.01809628982819855
32:00.6;0.10045687918760285;-0.24005743783956057;-0.8057348843304212;0.8640000000000001;0.019430635975100335
32:00.6;0.1019022043177277;-0.2493233124685723;-0.8005778865843771;0.865;0.02033995823315547
32:00.6;0.10026056753569446;-0.2608108114704632;-0.7941341526342599;0.865;0.020765845704710423
32:00.6;0.09578044862645549;-0.27412227600026023;-0.7867156358298458;0.865;0.020655655310600134
32:00.6;0.08882670837813197;-0.2887694599444522;-0.7788541709594553;0.855;0.01997795265370702
32:00.6;0.07985154877924601;-0.3042131412537113;-0.771273653931793;0.8420000000000001;0.01873569513767432
32:00.6;0.06937007119760079;-0.3198987129399552;-0.7648405601109578;0.8270000000000001;0.016972880123094662
32:00.7;0.05793876507547422;-0.33528547993717145;-0.7604990845824118;0.8190000000000001;0.014773475488427204
32:00.7;0.04613509681579877;-0.3498688587113228;-0.7592009864558764;0.8220000000000001;0.012254440524483943
32:00.7;0.03453650422530722;-0.36319605092162344;-0.7618407576587597;0.835;0.009556166264017112
32:00.7;0.02369672633476221;-0.37487682851256293;-0.7692032682615433;0.853;0.006833104633400845
32:00.7;0.014117290050541489;-0.38459158872656707;-0.7819253285099678;0.871;0.004245378348361667
32:00.7;0.006213521036980624;-0.392099178112688;-0.8004672708257522;0.91;0.0019501916130477102
32:00.7;0.0002779822506687134;-0.3972464007752144;-0.8250877388030216;0.91;9.111233383212753e-05
32:00.7;-0.003552070442779295;-0.3999791521904199;-0.8558158107587011;0.938;0.001215903842711113
32:00.7;-0.005315562165266628;-0.4003530832038275;-0.8924196490178344;0.973;0.0018991597738179113
32:00.7;-0.005230969956034514;-0.3985400047433375;-0.9343768012299177;1.008;0.0019479427755404494
32:00.8;-0.0036791286901314123;-0.3948239340971336;-0.9808538276544041;1.038;0.0014247961791531878
32:00.8;-0.001165205891302686;-0.38957957045989244;-1.0307024738871942;1.073;0.0004678775042347781
32:00.8;0.001737653845808344;-0.38322974786307;-1.0824787068343766;1.121;0.0007208449188730354
32:00.8;0.004457596094746153;-0.3761864221657988;-1.1344889811014096;1.178;0.0019024099673867053
32:00.8;0.006497287968808341;-0.36878655747265593;-1.184863665626864;1.2309999999999999;0.0028390665960759238
32:00.8;0.007499514011249871;-0.36123615066850745;-1.2316516044319918;1.314;0.0033366619094249484
32:00.8;0.007294796405212284;-0.3535743874357183;-1.2729241303705305;1.314;0.003283193598989315
32:00.8;0.005925718954287711;-0.3456681887769553;-1.3068746647077443;1.35;0.002676913898978485
32:00.8;0.0036470439517057255;-0.3372433456008762;-1.3319051576324783;1.381;0.0016381651661519692
32:00.8;0.0009012106008831046;-0.3279494571777661;-1.3466997764087967;1.391;0.00039801917581630666
32:00.9;-0.0017323902703309942;-0.31744472812044344;-1.3502911455738744;1.386;0.0007425766258517396
32:00.9;-0.0036133107807060074;-0.3054802280482325;-1.3421240895701716;1.391;0.0014814298611908062
32:00.9;-0.004131856414877885;-0.29196575634416144;-1.322119311855004;1.4069999999999998;0.001594952624208937
32:00.9;-0.002799587964447903;-0.27700718567346644;-1.2907329212422591;1.4040000000000001;0.0010009711029778548
32:00.9;0.0006798887513050179;-0.2609106018795214;-1.2489968592131415;1.3630000000000002;0.00022155978181456488
32:00.9;0.006372638786551591;-0.24415163329086345;-1.1985185230997177;1.22;0.0018647631863877023
32:00.9;0.014112629842850067;-0.22731519433775368;-1.1414246796570242;1.22;0.003661707716680671
32:00.9;0.023531725639768318;-0.21102000789125686;-1.0802506378966896;1.125;0.005364162708428476
32:00.9;0.034111396439052706;-0.19584455455731853;-1.0177851339825952;1.022;0.00679934538412931
32:00.9;0.04524522744724904;-0.18226556691027296;-0.9568824179334401;0.9309999999999999;0.007891071550538779
32:01.0;0.056302101034069595;-0.17061516436368232;-0.9002576199962066;0.857;0.008647867695433367
32:01.0;0.06668114530161592;-0.16106100370605253;-0.8502897669773953;0.799;0.009131884381700171
32:01.0;0.07585213337083778;-0.15361146040361612;-0.8088583411364405;0.762;0.009424620823643306
32:01.0;0.08337882781950909;-0.14814363821971824;-0.7772322975644173;0.746;0.009600406685639544
32:01.0;0.0889266292888932;-0.14444778639479738;-0.7560202058233433;0.745;0.009711272141710846
32:01.0;0.09225885623067735;-0.14227865041295723;-0.7451799324789693;0.7509999999999999;0.009781578714579232
32:01.0;0.09322791671154719;-0.1414033311636798;-0.7440778127332941;0.764;0.009808982842338932
32:01.0;0.09176876964649515;-0.14163741624397047;-0.7515822054086241;0.779;0.009768983902575997
32:01.0;0.08790114944060823;-0.14286577510864337;-0.7661753754405082;0.7959999999999999;0.009621680815724246
32:01.0;0.08174191047572515;-0.14504887648848985;-0.7860704036860355;0.812;0.009320100555741962
32:01.1;0.07352055665242517;-0.14821765165303374;-0.8093250703650062;0.831;0.008819251108647787
32:01.1;0.06358511011766903;-0.1524597869880885;-0.8339503214063455;0.852;0.00808445814217571
32:01.1;0.05238723550237983;-0.15789951451192133;-0.8580145862418171;0.879;0.007097427203211515
32:01.1;0.040444478405959994;-0.16467301204021523;-0.8797454953080543;0.9079999999999999;0.005859205359682163
32:01.1;0.028287769542813933;-0.17290235186081782;-0.8976280267319882;0.935;0.0043903183214050265
32:01.1;0.01640804784173576;-0.1826710978297994;-0.9104945233674472;0.973;0.0027290034854456245
32:01.1;0.005214971112598222;-0.19400322535531825;-0.91759868917205;0.973;0.0009283540615897613
32:01.1;-0.004985023359999329;-0.20684529221804143;-0.9186639561224089;0.973;0.0009472606914525715
32:01.1;-0.013991354106348398;-0.22105202024829718;-0.9138984265848222;0.97;0.002826520673378431
32:01.1;-0.021698273101777174;-0.23637750612604352;-0.9039734007420377;0.9590000000000001;0.004636464822307999
32:01.2;-0.028077511230383212;-0.2524755313575276;-0.8899668136829676;0.937;0.006308872010737626
32:01.2;-0.0331601660769304;-0.2689116145535852;-0.8732756005689937;0.909;0.007787132838849307
32:01.2;-0.037020715718023324;-0.2851873483851972;-0.8555042277263558;0.887;0.009032276542591047
32:01.2;-0.03976422522974512;-0.30077509071131714;-0.8383406341876473;0.87;0.010026628136567597
32:01.2;-0.041517167586464974;-0.31515906963668494;-0.8234329277018978;0.86;0.010774217950013888
32:01.2;-0.04242219059301097;-0.32787794263759595;-0.8122787092942427;0.8640000000000001;0.011298228717285266
32:01.2;-0.04263616039047243;-0.33856319564006115;-0.8061349402512501;0.8640000000000001;0.01163658584477695
32:01.2;-0.04232827709329285;-0.3469674446591023;-0.805951725235032;0.867;0.011836637527761283
32:01.2;-0.041673249259302124;-0.3529782617920232;-0.8123297695143422;0.8740000000000001;0.011949168709932616
32:01.2;-0.040836081563827537;-0.35661650178361776;-0.8254996300515517;0.887;0.012021602979704251
32:01.3;-0.039949762249181134;-0.3580210622867563;-0.8453208322856305;0.9079999999999999;0.012090502407262857
32:01.3;-0.03909271316377606;-0.357423890388682;-0.8712988201328746;0.9309999999999999;0.012174370558234497
32:01.3;-0.038276019373260535;-0.35512032199679683;-0.9026171396926064;0.953;0.01226890680502722
32:01.3;-0.03744818765466448;-0.351439911004042;-0.9381827445135109;0.9790000000000001;0.012347223958699985
32:01.3;-0.03651795068802871;-0.34672129396147566;-0.9766846899219925;1.0170000000000001;0.012366343125051174
32:01.3;-0.035387989934970235;-0.3412921019833938;-1.0166681362002663;1.11;0.012278953242871007
32:01.3;-0.03398887472630995;-0.3354525064880812;-1.0566220529536496;1.11;0.012047238232012246
32:01.3;-0.032303780486916074;-0.329459281558176;-1.0950721370473597;1.155;0.011654612179108794
32:01.3;-0.0303786447276961;-0.323507079604597;-1.1306688175766095;1.198;0.011111881444106278
32:01.3;-0.0283172046658592;-0.31770613679951226;-1.1622644965014837;1.2309999999999999;0.010456370306567054
32:01.4;-0.02626403111269498;-0.3120607259953648;-1.1889757303132076;1.251;0.009744812527440052
32:01.4;-0.02437970360712362;-0.3064579251126944;-1.210223830582743;1.271;0.009042009909966347
32:01.4;-0.02281157941885663;-0.3006783956881221;-1.22574741422705;1.295;0.00840733912704017
32:01.4;-0.02166504946493954;-0.2944368658973487;-1.2355831446431835;1.3019999999999998;0.007881771614418477
32:01.4;-0.020985228617194547;-0.28744885102632967;-1.2400137496946806;1.2819999999999998;0.007479985960257666
32:01.4;-0.020761574972812755;-0.2795072443745268;-1.2394872259693148;1.237;0.007192757522671928
32:01.4;-0.02095946113131691;-0.27054815854311337;-1.2345196861358492;1.237;0.007000397721505521
32:01.4;-0.021565979424640343;-0.26069264000147435;-1.2256016596485215;1.227;0.00689044542123615
32:01.4;-0.02262722622924946;-0.2502600131036526;-1.2131267580902234;1.2109999999999999;0.006869560680043132
32:01.4;-0.024259313483491078;-0.23975183673752698;-1.1973534046243437;1.195;0.006964064791158193
32:01.5;-0.02662837405919256;-0.22980644806221903;-1.1784022588319314;1.179;0.007211081858390572
32:01.5;-0.02990666884614645;-0.22112813213492194;-1.1562874422509406;1.1640000000000001;0.007646766843063813
32:01.5;-0.03421895435346835;-0.21440069339650325;-1.1309765235874636;1.1520000000000001;0.008297485652230705
32:01.5;-0.03959411173239808;-0.2101988515823175;-1.1024706683111514;1.145;0.009175462972174699
32:01.5;-0.04593269646495571;-0.20891079122435352;-1.070892387591187;1.135;0.010276107683810464
32:01.5;-0.05299514436000977;-0.21068166966830645;-1.0365651508913702;1.0759999999999998;0.01157335926533515
32:01.5;-0.06041008283721241;-0.21538294638909297;-1.0000696198825583;1.0759999999999998;0.01301220747837961
32:01.5;-0.06769822107764975;-0.22260895696031435;-0.9622657403975694;1.035;0.014501566396655353
32:01.5;-0.07430622210587093;-0.2317012703896973;-0.9242738757800353;0.987;0.01591308103638969
32:01.5;-0.07964705154623669;-0.241800935622351;-0.887410629912701;0.9359999999999999;0.017090403125781584
32:01.6;-0.08314570376831576;-0.2519262095862179;-0.8530809158132816;0.8859999999999999;0.017869129350369443
32:01.6;-0.08428964686388574;-0.2610689093618393;-0.8226375163539459;0.8390000000000001;0.018102472684012084
32:01.6;-0.08268188399926091;-0.2682986128843659;-0.797227609621246;0.7979999999999999;0.01768524668896115
32:01.6;-0.07809200493417148;-0.2728625349252211;-0.7776499540845089;0.772;0.016570462613429496
32:01.6;-0.07049823070607085;-0.27426953333276505;-0.7642471230724771;0.7609999999999999;0.014777113115444877
32:01.6;-0.06011302475661319;-0.27234789876486815;-0.7568536078150586;0.78;0.012390946895023978
32:01.6;-0.047387432134500695;-0.26726894332618684;-0.7548110897270729;0.78;0.009559825045420363
32:01.6;-0.03299318773396908;-0.2595331059513368;-0.7570485843505644;0.8;0.006482474156555972
32:01.6;-0.017783237372581983;-0.24992083311395738;-0.762213678266762;0.8240000000000001;0.003387583614718874
32:01.6;-0.002730676943090924;-0.23941476060240152;-0.7688348804962467;0.846;0.0005026368486773113
32:01.7;0.011152675173742474;-0.2291024066602371;-0.7754919808224134;0.858;0.0019814632228512923
32:01.7;0.022912368908770755;-0.22006977675519784;-0.7809707351659781;0.8590000000000001;0.00393790428759043
32:01.7;0.031751277853352126;-0.2132964495034154;-0.7843822941350843;0.853;0.005312177971437101
32:01.7;0.03711898916983821;-0.20956276605191188;-0.7852360433641271;0.843;0.006108161188350885
32:01.7;0.03877459592822794;-0.20937942853364513;-0.7834637221085887;0.828;0.0063606307187100445
32:01.7;0.036809094969010143;-0.2129480814598439;-0.7794001413567516;0.805;0.0061092704523827476
32:01.7;0.03162215299065381;-0.22015734492975222;-0.7737306541709726;0.805;0.005386596169323786
32:01.7;0.023860250760359445;-0.23061275098031028;-0.7674173602936935;0.8;0.004222697193194704
32:01.7;0.014330739153170999;-0.2436940697317091;-0.7616142420934051;0.8;0.0026597977150669963
32:01.7;0.003905731146844902;-0.25863128199636287;-0.7575774724383718;0.8009999999999999;0.0007652625304719652
32:01.8;-0.0065732802011460294;-0.2745893995478659;-0.7565742138014792;0.807;0.0013655809449604572
32:01.8;-0.016380135102807922;-0.2907519076154143;-0.7597923523610518;0.818;0.0036185532679753286
32:01.8;-0.024968482425994327;-0.3063937667103069;-0.7682535411661522;0.826;0.005877283544916598
32:01.8;-0.03200873289403343;-0.3209371699090907;-0.782732263933815;0.8340000000000001;0.008040845854445828
32:01.8;-0.037394993601334636;-0.33398560806659455;-0.8036851664659476;0.843;0.010037537221286844
32:01.8;-0.041225376604119277;-0.3453341868336163;-0.8311973466275425;0.89;0.01183336754585543
32:01.8;-0.04376332623854358;-0.3549565880728794;-0.8649532736784994;0.89;0.013436254183704633
32:01.8;-0.04538852083526961;-0.3629713926419917;-0.9042386628918929;0.9359999999999999;0.014897092002061222
32:01.8;-0.04654418749111154;-0.369592731588971;-0.9479781622350668;0.9940000000000001;0.01630749327609558
32:01.8;-0.047685155693100285;-0.37507214756056556;-0.9948112434714232;1.063;0.017792570902746364
32:01.9;-0.049228980871676827;-0.37963915749404703;-1.043201444304633;1.1340000000000001;0.01949665136451089
32:01.9;-0.051511435647346754;-0.38344694363694254;-1.0915640329356762;1.198;0.0215604664179937
32:01.9;-0.05474737168632392;-0.3865281463508516;-1.1383905166442103;1.252;0.024089937187626396
32:01.9;-0.05899785912677151;-0.38876548057099153;-1.182347884018857;1.291;0.027118722491310983
32:01.9;-0.06414445597042841;-0.38988273133728507;-1.2223352788134978;1.3119999999999998;0.03056915770399234
32:01.9;-0.06987221326749292;-0.3894617240173272;-1.2574897795544426;1.3230000000000002;0.03421950682046794
32:01.9;-0.0756656806537005;-0.38698823918314923;-1.287144528991326;1.3230000000000002;0.03768981666749271
32:01.9;-0.08082615613949964;-0.381924582845932;-1.3107540252669605;1.324;0.04046231609620749
32:01.9;-0.0845205050899316;-0.3738003701966249;-1.3278100646285962;1.32;0.04195056043054506
32:01.9;-0.08586825491430342;-0.3623075199910363;-1.337775783597476;1.328;0.04161916044705611
32:02.0;-0.08406253463133775;-0.3473820707082702;-1.3400633874803936;1.354;0.03913228627757919
32:02.0;-0.07850448901872856;-0.3292562782359101;-1.3340720548603495;1.3880000000000001;0.034483222383682864
32:02.0;-0.06891872857854069;-0.30846923444440144;-1.3192860977356728;1.413;0.028047108757703252
32:02.0;-0.055417912261511576;-0.28583090839825837;-1.2954137350552424;1.4140000000000001;0.020519550729446327
32:02.0;-0.03849799040757137;-0.2623426316211944;-1.2625311729391995;1.3880000000000001;0.01275114078222325
32:02.0;-0.018965479135246134;-0.2390864126579968;-1.2211927060058718;1.26;0.005537362004601816
32:02.0;0.0021818925481946333;-0.21710369606658378;-1.1724792317999084;1.26;0.0005553998203696545
32:02.0;0.023887010621943323;-0.1972869333091207;-1.1179780540068565;1.171;0.005268577867386482
32:02.0;0.045146055232960405;-0.18030130354386575;-1.0597011411265331;1.078;0.008625853485733014
32:02.0;0.06508581926429848;-0.16654288314487647;-0.9999537521593385;0.992;0.010839078684954298
32:02.1;0.08300448029337604;-0.15613179824651857;-0.94117035105947;0.922;0.012197227771444826
32:02.1;0.09838201662634746;-0.14893615876088825;-0.8857409047805221;0.866;0.012978442298780144
32:02.1;0.11086878544961536;-0.1446205305902891;-0.835850043691667;0.8220000000000001;0.0134019381700552
32:02.1;0.12026119338113582;-0.14271004160560813;-0.793343839094278;0.787;0.013615747700940997
32:02.1;0.12647320644530466;-0.14266019410015549;-0.7596300510893598;0.758;0.013705771182449719
32:02.1;0.12951211421330047;-0.14392399869532604;-0.7356116163037121;0.727;0.013711727965011586
32:02.1;0.12946501567937163;-0.14601053188990168;-0.7216512344854624;0.727;0.013641557884210518
32:02.1;0.12649775952948875;-0.148530753711001;-0.7175658105338436;0.7290000000000001;0.013482205929822915
32:02.1;0.12086256046600159;-0.15122756820397634;-0.7226496968514621;0.736;0.013208411296007071
32:02.1;0.11290701467450488;-0.153988425385468;-0.7357241001062835;0.748;0.012791573927285417
32:02.2;0.1030765945766164;-0.1568403084506717;-0.7552091518521159;0.764;0.01220913775700678
32:02.2;0.09190492496932191;-0.1599288290564786;-0.7792160959023139;0.784;0.011453110671116963
32:02.2;0.07999016895018195;-0.16348519950286003;-0.8056583143043196;0.812;0.010535761940482752
32:02.2;0.0679591840964763;-0.1677859458031088;-0.832380256025973;0.847;0.0094912957608892
32:02.2;0.056422737115282104;-0.17310983360341367;-0.8573020872141319;0.887;0.008373552938589194
32:02.2;0.04592648141520362;-0.17969567513408571;-0.8785739785107318;0.96;0.007250686618298659
32:02.2;0.0369047974431653;-0.18770452369292123;-0.8947269302806226;0.96;0.006197950088460302
32:02.2;0.029646404104387743;-0.1971899771073253;-0.9048004977634553;0.985;0.005289439955888914
32:02.2;0.024278871603962845;-0.20808015580916936;-0.908427989801275;0.995;0.0045893340423606935
32:02.2;0.02077399771572743;-0.22017389590633898;-0.9058665390494623;0.988;0.004143335725647318
32:02.3;0.018971310924542854;-0.2331517661799837;-0.897966604765377;0.963;0.003971881081005414
32:02.3;0.01861479729792906;-0.24660052687670492;-0.886081589133319;0.93;0.004067485604029126
32:02.3;0.019396937930410363;-0.26004840913156935;-0.8719262465378135;0.894;0.0043981205429221406
32:02.3;0.021003172022029937;-0.2730077447312643;-0.857401419194311;0.865;0.004916364281579344
32:02.3;0.023149665245555895;-0.2850205826681874;-0.8444084087055007;0.848;0.005571517363043208
32:02.3;0.025608801524689924;-0.2957023640443787;-0.8346767904909641;0.8420000000000001;0.006320659400364643
32:02.3;0.02821999050117789;-0.3047785080243517;-0.8296251610427395;0.8420000000000001;0.007135478746798981
32:02.3;0.03088665230524593;-0.312108838287627;-0.8302672544349883;0.858;0.0080037739827517
32:02.3;0.0335621681347894;-0.31769613619681303;-0.8371678820896479;0.88;0.0089263620979081
32:02.3;0.03622843242570399;-0.32167768796885055;-0.8504453621333533;0.9009999999999999;0.009910986820358562
32:02.4;0.038871666292778315;-0.3243007915515734;-0.8698112859533421;0.922;0.01096493861804265
32:02.4;0.04146135014345766;-0.32588468402861603;-0.8946363788552611;0.95;0.012087985886491213
32:02.4;0.043937685871096734;-0.32677334497973975;-0.9240323784765335;0.982;0.013266946953782782
32:02.4;0.04620963377519067;-0.3272853898697815;-0.9569420566644562;1.013;0.01447254095177547
32:02.4;0.04816110646317072;-0.32766735662515206;-0.992231437302647;1.045;0.015658228138334906
32:02.4;0.049660902551535525;-0.3280554308327898;-1.0287792958501032;1.133;0.016760387508759394
32:02.4;0.050573269490964724;-0.32844914800098596;-1.0655573239390383;1.133;0.01769970341596937
32:02.4;0.050767970316550455;-0.32869918300044576;-1.101690976742183;1.172;0.018384347391201147
32:02.4;0.05012973737194048;-0.32851045277926955;-1.1364921696054207;1.203;0.018715915251227056
32:02.4;0.048568032618846624;-0.3274623646353334;-1.1694613487712366;1.236;0.018599350465868098
32:02.5;0.04602900960727652;-0.32504932124092256;-1.2002606024519566;1.265;0.01795793705155486
32:02.5;0.04250955003908518;-0.32074314344244764;-1.2286595483589886;1.275;0.01675233886365657
32:02.5;0.03806713354684145;-0.31407271285874583;-1.254457757341007;1.27;0.014998106148527014
32:02.5;0.03281437138658895;-0.3047082236354841;-1.2773944030679956;1.268;0.012772422417529036
32:02.5;0.02689041265626774;-0.29253420651246514;-1.297064031311986;1.274;0.010203179785070057
32:02.5;0.020413181430484387;-0.2776987298696351;-1.3128607163494945;1.306;0.007442232652566077
32:02.5;0.013428798361005584;-0.26063212728410384;-1.3239679823198507;1.306;0.0046338565384951985
32:02.5;0.005879149764095366;-0.24203302879876012;-1.3294016194610097;1.329;0.0018916699394951307
32:02.5;-0.002397346957389999;-0.22282114366224748;-1.3281030321755087;1.349;0.00070944553426888
32:02.5;-0.011628447175100049;-0.20405783178403528;-1.31907359569779;1.358;0.0031299977049138966
32:02.6;-0.022041095343329667;-0.18684050772111058;-1.3015332491860199;1.369;0.005359934458029201
32:02.6;-0.03377752214309985;-0.1721840764459009;-1.2750795961253305;1.37;0.007415801032122699
32:02.6;-0.0468107562421318;-0.16090707216277145;-1.2398196109550936;1.344;0.009338546625412978
32:02.6;-0.0608779137203909;-0.15353973004119542;-1.1964461629305077;1.29;0.011183395776491526
32:02.6;-0.07544831499851593;-0.15026753832162998;-1.1462377144260705;1.215;0.012995392791157202
32:02.6;-0.08973727648534205;-0.1509185277796995;-1.0909736101522867;1.048;0.014775074862479816
32:02.6;-0.10276600303344649;-0.15499502852586758;-1.032778524854883;1.048;0.016450323112782075
32:02.6;-0.11345754991287574;-0.16174187003420995;-0.9739281979110733;0.972;0.017872396920426276
32:02.6;-0.12075396244626357;-0.17023778901642744;-0.9166501073994456;0.899;0.01884347320967787
32:02.6;-0.12373998383358989;-0.1794970962983538;-0.8629403535208261;0.836;0.019166740400310217
32:02.7;-0.12175844402608874;-0.18857089634723964;-0.8144107586152383;0.785;0.018698951585706967
32:02.7;-0.11450110794705858;-0.1966386818986702;-0.7721821466276582;0.757;0.0173859489342396
32:02.7;-0.10206083297963596;-0.20308204975146998;-0.7368389042402984;0.746;0.015272255982330443
32:02.7;-0.08493728481021794;-0.20753301116529463;-0.7084508439601266;0.7440000000000001;0.012488068815067982
32:02.7;-0.06399611779713947;-0.20989124904903456;-0.686655086626678;0.7440000000000001;0.009223305688758003
32:02.7;-0.04038825513156666;-0.21030948398704438;-0.6707786466172623;0.733;0.005697616024361113
32:02.7;-0.015442161125218712;-0.20915302480980996;-0.6599760703432412;0.733;0.002131574020500175
32:02.7;0.009453233909962899;-0.20694458213955255;-0.6533575237340025;0.726;0.0012781604105979235
32:02.7;0.03295832592253278;-0.20430504237230196;-0.6500892985271495;0.7140000000000001;0.0043774102094717125
32:02.7;0.053875167461283936;-0.20189652241752454;-0.6494576148890495;0.7;0.00706428618462581
32:02.8;0.07121791768588102;-0.2003701485899729;-0.6508955334655541;0.687;0.009288243299916813
32:02.8;0.08426036493629317;-0.20031946301881914;-0.6539803000769051;0.677;0.011038527636980664
32:02.8;0.09256252558820073;-0.20223986091019167;-0.6584134257963342;0.6709999999999999;0.012325388915274642
32:02.8;0.09597995632449813;-0.20649434779569545;-0.6639976705982092;0.679;0.013159981305347922
32:02.8;0.09465803268070998;-0.2132866606268846;-0.670623509483416;0.6970000000000001;0.013539416330953463
32:02.8;0.08901061507874557;-0.22264404185097114;-0.6782721547929059;0.74;0.013441782625190376
32:02.8;0.0796811359621449;-0.2344124268675028;-0.6870333219735499;0.74;0.012832579085679318
32:02.8;0.06748533126875467;-0.2482662227189075;-0.697127388708716;0.77;0.011679901125515826
32:02.8;0.053337412141230896;-0.2637340450289028;-0.7089182935646218;0.795;0.00997227668630713
32:02.8;0.03816511026696416;-0.28024025306809636;-0.7229053414502818;0.81;0.007731761904312799
32:02.9;0.02282438415790007;-0.29715859706753234;-0.7396856657982018;0.8140000000000001;0.005016889901944847
32:02.9;0.008028831412872642;-0.3138701470148747;-0.759884965842624;0.815;0.0019149180896121689
32:02.9;-0.0056927397197552585;-0.3298159526993656;-0.784063796542841;0.823;0.0014721239789318896
32:02.9;-0.01800521311089193;-0.34453653704806936;-0.8126164106878129;0.8440000000000001;0.0050410283397275026
32:02.9;-0.028747777229387622;-0.35769418434270883;-0.8456833613320375;0.872;0.008696088199872137
32:02.9;-0.03789930047512878;-0.36907827185945047;-0.883095676634228;0.958;0.01235257305655027
32:02.9;-0.045542659152856636;-0.3785963439413875;-0.9243590598085684;0.958;0.015938061657025226
32:02.9;-0.051837080746181104;-0.3862532470843714;-0.9686769931139106;1.0170000000000001;0.01939508397246236
32:02.9;-0.057000654861741266;-0.3921195241157766;-1.0150084036724198;1.087;0.022686523534621365
32:02.9;-0.06129959580207112;-0.3962906936185243;-1.0621558074341437;1.16;0.025802376763710742
32:03.0;-0.06503654011817965;-0.39884099714392873;-1.108874403178065;1.226;0.02876335762336176
32:03.0;-0.06852795120563022;-0.39977822035558763;-1.1539823368774547;1.275;0.03161447976515802
32:03.0;-0.07206291753442304;-0.39900942263102496;-1.1964470835831877;1.308;0.03440237995413352
32:03.0;-0.07584288450228692;-0.39632842322031153;-1.2354273029688976;1.3230000000000002;0.03713532733951207
32:03.0;-0.07991194332779006;-0.3914333376557599;-1.2702610574230355;1.331;0.03973401827116403
32:03.0;-0.0840962270696227;-0.3839772287137582;-1.3004053214740052;1.331;0.04199143533051567
32:03.0;-0.08797518254665876;-0.37364708129633656;-1.325344482767592;1.331;0.0435662867191404
32:03.0;-0.09090533087051221;-0.36025632534737295;-1.3444947534477991;1.32;0.044031155079770984
32:03.0;-0.09210713911602808;-0.3438294041199018;-1.3571355174453554;1.327;0.04297931844318658
32:03.0;-0.09080676910162544;-0.32465855902444;-1.3623962226692847;1.3619999999999999;0.04016506844374253
32:03.1;-0.08640175906456189;-0.30332049948674933;-1.3593169545816524;1.4;0.03562419675237654
32:03.1;-0.07860540652219883;-0.2806484729844686;-1.3469821536186115;1.43;0.029715082705054498
32:03.1;-0.06752867503756792;-0.2576621413057153;-1.3247047474783764;1.443;0.023049310217116942
32:03.1;-0.0536791389409391;-0.23546444309007844;-1.2922205407745382;1.431;0.016333058426135454
32:03.1;-0.037882496710876734;-0.21512035596769374;-1.2498460859075173;1.386;0.010185365930210473
32:03.1;-0.02115212447535949;-0.19753567094723318;-1.1985604344296428;1.207;0.005007943984712133
32:03.1;-0.004540968618730641;-0.1833547702232941;-1.1399933594922564;1.207;0.0009491678848119598
32:03.1;0.010992414894263877;-0.1728946349460779;-1.0763305928942837;1.104;0.0020455981084718886
32:03.1;0.024683354434279006;-0.1661257185161831;-1.01016111090044;1.01;0.004142206032382262
32:03.2;0.036019637934630276;-0.16269980234872172;-0.9442892294380877;0.929;0.005533901242889503
32:03.2;0.044761429013636694;-0.16201573275645792;-0.8815312668614246;0.857;0.006392913866968635
32:03.2;0.0509273841845075;-0.16330936581442768;-0.8245180751355669;0.8;0.006857449891379875
32:03.2;0.05475238340141733;-0.16575336985944325;-0.77552284108328;0.757;0.007038173831695479
32:03.2;0.05662335997064172;-0.1685539682520115;-0.7363268768402544;0.7240000000000001;0.007027571468489137
32:03.2;0.05700159857484845;-0.17103397042170582;-0.7081289509208136;0.708;0.006903697654616727
32:03.2;0.05634241673490316;-0.1726941871458653;-0.6914978871054109;0.6940000000000001;0.006728279876617555
32:03.2;0.055025583710380625;-0.17324900673942262;-0.6863640493363283;0.6940000000000001;0.006543196146853873
32:03.2;0.053309961980337515;-0.1726361508780144;-0.6920435012281223;0.695;0.006369033186360737
32:03.2;0.05132136158750326;-0.1710038882743648;-0.7072892290787413;0.71;0.00620727805324799
32:03.2;0.04907382839179952;-0.16868046367405323;-0.7303659904300898;0.728;0.006045820767159311
32:03.3;0.046515028516526356;-0.1661306600516276;-0.7591478019481651;0.755;0.005866369594089835
32:03.3;0.04358036804634412;-0.16390375268787105;-0.7912387707700821;0.795;0.005651807356490663
32:03.3;0.040240650375987196;-0.1625762963309577;-0.8241176373848534;0.8420000000000001;0.00539152254612755
32:03.3;0.03653349484759302;-0.16269333669941022;-0.8553029006802442;0.885;0.005083711900018541
32:03.3;0.03257520402496532;-0.1647131050193483;-0.882529776088612;0.9279999999999999;0.004735269114383278
32:03.3;0.02855374588702162;-0.16896158183007837;-0.9039250042059425;0.997;0.004360973593145814
32:03.3;0.02470549105651484;-0.17560228069320827;-0.9181613594386238;0.997;0.003983296680205521
32:03.3;0.021280242263698183;-0.1846232811359423;-0.9245714541424165;1.0070000000000001;0.003632482355805953
32:03.3;0.018500658306095756;-0.19584077827149832;-0.9232037251064561;1.006;0.003344936338876209
32:03.3;0.01652278510539076;-0.20891735695258865;-0.9148122950319698;0.99;0.003157837445108394
32:03.4;0.015404639828425874;-0.22339201852903945;-0.9007810160403417;0.956;0.003099833917256261
32:03.4;0.015089308163130867;-0.23871739928152721;-0.8829884004936701;0.91;0.0031805952123114653
32:03.4;0.015406959113308737;-0.25429959016991976;-0.863627248284508;0.872;0.0033836772124439117
32:03.4;0.016096704460746528;-0.2695378044826243;-0.8450002348544826;0.847;0.003666177489849403
32:03.4;0.01684459198288284;-0.28386291136097497;-0.8293161983335328;0.831;0.003965420949164305
32:03.4;0.017329211943768956;-0.2967740914221541;-0.8185091315109071;0.83;0.004209478796730646
32:03.4;0.017264002506378405;-0.3078715996252162;-0.8140952028228482;0.83;0.0043269942111533255
32:03.4;0.01642704974825185;-0.3168821017723722;-0.8170760837374199;0.8420000000000001;0.004253238936150525
32:03.4;0.014673987647509228;-0.3236731816088009;-0.8278911551403351;0.858;0.003932132183568814
32:03.5;0.011935329295323408;-0.32825547610809047;-0.8464170458997938;0.884;0.003316124189430832
32:03.5;0.008204093547314365;-0.3307724916978552;-0.8720103180331709;0.917;0.002366364341204827
32:03.5;0.003520962320108583;-0.3314788120875567;-0.9035872800052192;0.955;0.0010545987685969963
32:03.5;-0.0020383237752185017;-0.3307079905009958;-0.9397331727897759;0.9990000000000001;0.0006334646965679543
32:03.5;-0.008373126202409107;-0.32883209840405647;-0.9788314031007334;1.045;0.0026950680467730794
32:03.5;-0.015368186326239026;-0.3262155469951645;-1.019202303257203;1.093;0.005109609008879914
32:03.5;-0.02290525300491318;-0.32316674874445983;-1.0592394264567238;1.172;0.007840719181573285
32:03.5;-0.030873029512131965;-0.31989269989326663;-1.0975288429290266;1.172;0.010839257153465454
32:03.5;-0.03916907989397238;-0.3164630163007953;-1.132935919923369;1.205;0.014043381027680877
32:03.5;-0.04768821772954301;-0.31279012207093504;-1.1646495382801696;1.2329999999999999;0.017372382384983977
32:03.6;-0.05629655453311092;-0.30863104616710196;-1.192183312896786;1.253;0.020714023545966177
32:03.6;-0.0647964265601064;-0.303614115600253;-1.2153390602712801;1.265;0.023909498709012444
32:03.6;-0.07289390366425423;-0.29729008095239867;-1.2341388258787012;1.264;0.026744571444142023
32:03.6;-0.08018533047155786;-0.2892022688658619;-1.2487339302328506;1.254;0.028957864498932322
32:03.6;-0.08617707162640532;-0.2789671136415281;-1.2593041510639145;1.255;0.03027438825214347
32:03.6;-0.09034185675566803;-0.2663557430683141;-1.2659640472854443;1.264;0.030462984508317335
32:03.6;-0.09220218439643398;-0.2513662933834386;-1.268693278138355;1.2670000000000001;0.029403896826553186
32:03.6;-0.09142277523109987;-0.23427440055661133;-1.267303122841661;1.2670000000000001;0.027143118390137545
32:03.6;-0.08789131139568288;-0.2156489765802717;-1.2614450394170629;1.262;0.02390901470670182
32:03.6;-0.08176878559660326;-0.19632398988818178;-1.250661747563519;1.263;0.020077090944733395
32:03.7;-0.07349644151202664;-0.17732423063777253;-1.234476492960633;1.266;0.016088561722818154
32:03.7;-0.06375354025647673;-0.15975292423892035;-1.2125098404357368;1.262;0.012349187787961458
32:03.7;-0.05336863392548443;-0.14465830620625875;-1.184606021436658;1.252;0.009145414583337393
32:03.7;-0.0431969138943303;-0.132900807258708;-1.1509457158523047;1.2309999999999999;0.006607469701395108
32:03.7;-0.03398517835002931;-0.12504168915142821;-1.1121215888137648;1.1909999999999998;0.004726031986443024
32:03.7;-0.026250131793896996;-0.12127028957061387;-1.069157066348951;1.137;0.003403512997605483
32:03.7;-0.02019311820477767;-0.12138186721228744;-1.0234581584341023;0.9940000000000001;0.002508576177800823
32:03.7;-0.01566666736743629;-0.1248099753032788;-0.976703819972047;0.9940000000000001;0.0019098040332649758
32:03.7;-0.012199156597249218;-0.13070683103261418;-0.9306966260838544;0.9229999999999999;0.0014840079625068356
32:03.7;-0.009075639327382867;-0.13805756656272042;-0.8872000628567802;0.863;0.0011116267945316329
32:03.8;-0.005464621089262144;-0.14581224495450992;-0.8477816659645341;0.8109999999999999;0.0006755197807335451
32:03.8;-0.0005714490685326281;-0.15301959053176548;-0.8136765196309927;0.778;7.115023655360972e-05
32:03.8;0.0062085211954585945;-0.15894601042430342;-0.7856868363658459;0.758;0.0007753312282415872
32:03.8;0.015165735404527777;-0.16316374310843407;-0.7641320351779769;0.752;0.0018908433116788456
32:03.8;0.026204995841252778;-0.16559430691769983;-0.748856724874782;0.753;0.0032495874671513787
32:03.8;0.03884049661859545;-0.16649926504232737;-0.7392942258858478;0.765;0.004780952283648532
32:03.8;0.05225794870825616;-0.16642015492031578;-0.7345733613938601;0.7809999999999999;0.006388419920730387
32:03.8;0.06542955449773452;-0.16608073821713581;-0.7336486184533191;0.7809999999999999;0.007972257796007479
32:03.8;0.07725587856511956;-0.16627242103849646;-0.7354314478878353;0.7879999999999999;0.009447000820153149
32:03.8;0.08670705303429149;-0.16774370293105473;-0.7389047736993403;0.792;0.010747046401202325
32:03.9;0.09294279373519997;-0.17110850865834218;-0.7432108287852776;0.7929999999999999;0.011819506874158317
32:03.9;0.09539771233059828;-0.17678181839073442;-0.7477095122878519;0.797;0.012609807676409944
32:03.9;0.09382332976781478;-0.1849465564434805;-0.7520084812883802;0.797;0.013049078089348307
32:03.9;0.08828501434718475;-0.1955518470036973;-0.7559677903511751;0.7959999999999999;0.013051252922501463
32:03.9;0.07912055599377021;-0.20833875105423028;-0.7596825541093257;0.795;0.01252251440275252
32:03.9;0.06687355644811092;-0.2228864186791196;-0.7634479932199397;0.8;0.011379350755207528
32:03.9;0.052217279063194275;-0.23866995631033597;-0.7677121922450058;0.807;0.009567763446846492
32:03.9;0.035883160463572525;-0.2551205821785868;-0.7730222738356356;0.807;0.0070766577515854485
32:03.9;0.01860354508700813;-0.2716789230004881;-0.7799697015172357;0.816;0.003942115918397198
32:03.9;0.00107144342455941;-0.28783538180195495;-0.7891403549236005;0.8290000000000001;0.00024337035451474755
32:04.0;-0.016086012446833223;-0.3031564635378522;-0.8010742655105135;0.85;0.003906501656894765
32:04.0;-0.032326129902213604;-0.31729880430645896;-0.8162378428390302;0.879;0.0083721861345917
32:04.0;-0.047205735249919285;-0.3300124886978595;-0.8350081732485105;0.909;0.01300815993928904
32:04.0;-0.06039474824856819;-0.34113466730132985;-0.8576652701988582;0.941;0.017670256584898666
32:04.0;-0.0716874506295261;-0.35057517988687076;-0.8843852272958794;0.973;0.022226228826778723
32:04.0;-0.08100823746045437;-0.35829746287440223;-0.915226264943137;1.0;0.026564484398289564
32:04.0;-0.08840794093289925;-0.3642988970486767;-0.9501012982873963;1.0290000000000001;0.030599832108959286
32:04.0;-0.09404809119621312;-0.3685936139019279;-0.9887351880202521;1.0290000000000001;0.034275025184109825
32:04.0;-0.0981724635467518;-0.37119851667710213;-1.0306125013070102;1.045;0.03755703748225211
32:04.0;-0.10106723791646081;-0.3721220362435123;-1.0749310509120447;1.081;0.0404274542186736
32:04.1;-0.10301326248866259;-0.3713551567120539;-1.12058249680329;1.1420000000000001;0.04286733011067818
32:04.1;-0.10423585389980013;-0.3688640479329222;-1.1661776816471017;1.2109999999999999;0.04483820126135424
32:04.1;-0.10485826140521999;-0.3645834932057154;-1.2101209386865601;1.28;0.046262428830409354
32:04.1;-0.1048643171139073;-0.3584122680316069;-1.2507212150029645;1.339;0.04700792878451433
32:04.1;-0.10407538255115809;-0.35021585910463465;-1.286316201701456;1.38;0.04688474566040311
32:04.1;-0.10214798157288538;-0.33984509898132825;-1.3153826450652195;1.405;0.045662838873157564
32:04.1;-0.09860060929030304;-0.32717702794974773;-1.3366122840604375;1.3719999999999999;0.04311891754156613
32:04.1;-0.09287734723115432;-0.31217480625340444;-1.348947650185799;1.3719999999999999;0.03911134483753275
32:04.1;-0.08444879459713381;-0.29495131793680707;-1.3515905621670241;1.351;0.03366580058021529
32:04.1;-0.0729380416495311;-0.2758157899472683;-1.3440082585785917;1.3530000000000002;0.027038037186147803
32:04.2;-0.05824475072367167;-0.25528874258613055;-1.3259601252981328;1.37;0.019716004979291765
32:04.2;-0.04063117785186127;-0.23408116242115604;-1.297553745984635;1.3769999999999998;0.012341025039082507
32:04.2;-0.020739375716535863;-0.21304086646238696;-1.259319491220093;1.357;0.0055640948459309515
32:04.2;0.0004702344858428633;-0.19307320491749783;-1.2122764145088871;1.31;0.00011006218682882938
32:04.2;0.021843407236793063;-0.17504815475597713;-1.1579569706034487;1.2409999999999999;0.004427620005712977
32:04.2;0.042186983665362755;-0.1597097919210762;-1.0983663275523736;1.155;0.0074004346682696774
32:04.2;0.06041738503250163;-0.14760345088720808;-1.0358699944363994;0.97;0.00923769648175269
32:04.2;0.07567339545979469;-0.13903101010796737;-0.9730264423718492;0.97;0.010237161195465232
32:04.2;0.0873777369166742;-0.13403851806380332;-0.912399602444653;0.894;0.010686008056474877
32:04.2;0.09524616007949209;-0.13243449501457458;-0.856385477889892;0.8290000000000001;0.010802341178779937
32:04.3;0.09925340896927531;-0.1338325137259588;-0.8070705512487389;0.785;0.010720587062856555
32:04.3;0.09957157775981308;-0.1377087578548176;-0.7661266780707632;0.757;0.010505035765154788
32:04.3;0.09649908711222836;-0.14346427294017325;-0.7347434299070744;0.738;0.010171913958045141
32:04.3;0.09039824289315336;-0.15048247097378345;-0.7135955073040928;0.725;0.009707290130942391
32:04.3;0.08165547351050786;-0.15817546381628853;-0.702838155253568;0.718;0.00907778198482154
32:04.3;0.07067050159205056;-0.1660175254693487;-0.7021218481288011;0.718;0.008237673930453077
32:04.3;0.057870187131163806;-0.17356811979006198;-0.7106196795227634;0.722;0.007137762217428122
32:04.3;0.04373330505701303;-0.18048827279163274;-0.7270651218845394;0.722;0.005738978529705796
32:04.3;0.0288085883229894;-0.18655305123800695;-0.7498026962624613;0.738;0.004029687164728644
32:04.3;0.01371179686490871;-0.1916615385794101;-0.7768582562400111;0.768;0.0020416022071106216
32:04.4;-0.0009034674201150871;-0.19584429580031437;-0.8060368090595305;0.81;0.00014261929913679901
32:04.4;-0.01439619501374153;-0.19926578754068028;-0.8350523986130687;0.862;0.002395489043681153
32:04.4;-0.02619772468930147;-0.20221647620810657;-0.8616873311757314;0.9179999999999999;0.004564884776514203
32:04.4;-0.03586729722780234;-0.20508895617952083;-0.8839691347865418;0.966;0.006502465065601609
32:04.4;-0.043131944549028474;-0.2083360226860377;-0.9003454667917151;0.997;0.008090448343348123
32:04.4;-0.04790278350930415;-0.2124144512477829;-0.9098325015785541;1.015;0.009257767222637419
32:04.4;-0.05026461938259647;-0.21772315276272838;-0.9121135815609708;0.993;0.009981962531449493
32:04.4;-0.05044275109273679;-0.22454571272685203;-0.9075724247078205;0.993;0.010279803755831032
32:04.4;-0.04875806031479508;-0.23300564153608272;-0.8972560796024982;0.9540000000000001;0.010193639397518285
32:04.4;-0.04558362024756111;-0.2430404741111725;-0.8827729158802241;0.912;0.009779945120684004
32:04.5;-0.04131132157024606;-0.2543991905133911;-0.8661389800463574;0.885;0.00910274543987319
32:04.5;-0.03633005770242107;-0.2666648741122386;-0.8495923566717234;0.871;0.00823080849586083
32:04.5;-0.031012570752130354;-0.2793000412678538;-0.8353972036367789;0.858;0.007236053766238063
32:04.5;-0.025706523478861116;-0.29170716752680637;-0.8256552921881808;0.848;0.0061914050396463804
32:04.5;-0.020725629413973677;-0.30329425861158693;-0.8221370247208147;0.841;0.00516792407537582
32:04.5;-0.01633855625603861;-0.31353594318411276;-0.8261405080780857;0.84;0.0042320903417936715
32:04.5;-0.012756476127570625;-0.32202314728152914;-0.8383865566982729;0.8640000000000001;0.003443991863866912
32:04.5;-0.01012301936376285;-0.32849677162435514;-0.8589571380196573;0.8640000000000001;0.002856358183357624
32:04.5;-0.00851115056803255;-0.3328622340435139;-0.8872837654399832;0.894;0.002513710924429985
32:04.5;-0.007929423349121022;-0.33518337604049797;-0.9221914199749297;0.941;0.002451010397025732
32:04.6;-0.008336161965112075;-0.3356568495586838;-0.9620011698359653;1.002;0.002691765721147024
32:04.6;-0.009656588033732674;-0.33457121702440634;-1.0046872529952373;1.077;0.0032459600646476063
32:04.6;-0.011796782586596477;-0.33225795536873465;-1.0480725267485365;1.155;0.004107998729555733
32:04.6;-0.014650057121906122;-0.3290433238196306;-1.0900348938848614;1.217;0.0052545170096917285
32:04.6;-0.01809478766776197;-0.32520908103815865;-1.128691583846199;1.255;0.006641886382327167
32:04.6;-0.0219865664307294;-0.3209662529847863;-1.1625311370640323;1.263;0.008203919275378646
32:04.6;-0.026149828076604504;-0.3164420379178418;-1.1904753770585186;1.234;0.009851070516381758
32:04.6;-0.030373314477252545;-0.3116782790534053;-1.2118728577188087;1.234;0.011472439672989918
32:04.6;-0.03441061860939839;-0.3066408189092877;-1.2264440538740444;1.234;0.012941070053864358
32:04.6;-0.03798494432653001;-0.30124007586002444;-1.2342073500133708;1.255;0.01412252560858427
32:04.7;-0.04079851664512255;-0.29536206505839624;-1.235409635088704;1.273;0.014887098887303378
32:04.7;-0.042550718806502;-0.2889049806065195;-1.230472010897041;1.268;0.01512633343169649
32:04.7;-0.04297090253998747;-0.281811903788681;-1.2199494940021676;1.252;0.014773236846739753
32:04.7;-0.04186680343937948;-0.2740913071120981;-1.2044988493352076;1.2409999999999999;0.013822018021868018
32:04.7;-0.03917768040268247;-0.26582512147329734;-1.1848493183000925;1.228;0.01233950854646956
32:04.7;-0.035011866840187714;-0.25717062647614525;-1.1617725273650077;1.203;0.010460627404548445
32:04.7;-0.029651319288658613;-0.24836004477520626;-1.1360491429028898;1.129;0.008366096490607227
32:04.7;-0.02352041898456799;-0.23969489642560268;-1.1084337414848118;1.129;0.006249043941720142
32:04.7;-0.017131427329724506;-0.2315291490154274;-1.0796251594947774;1.085;0.004282251997683799
32:04.7;-0.011023102107838871;-0.2242375231445511;-1.0502510608768358;1.053;0.002596003340279398
32:04.8;-0.005702174763535867;-0.2181699800042522;-1.0208712217044902;1.036;0.0012700080587956539
32:04.8;-0.0015901239889626012;-0.21359781892219992;-0.9919990645809511;1.025;0.00033692952201912516
32:04.8;0.0010234480359862005;-0.21065941203448094;-0.9641364257345002;1.011;0.0002078668121410655
32:04.8;0.0020174721695747867;-0.20931498551833197;-0.9378107845945095;0.996;0.00039602545092895037
32:04.8;0.0014619294272890735;-0.20932153700084907;-0.9135997017563978;0.976;0.0002795736730497287
32:04.8;-0.0003773906837204028;-0.2102395668149246;-0.8921272536545454;0.95;7.078356546512116e-05
32:04.8;-0.0030554262264339813;-0.21147909594370579;-0.8740227527929723;0.879;0.0005647574722185991
32:04.8;-0.005989509302300165;-0.21238189034881838;-0.8598433156098283;0.879;0.001093775132316878
32:04.8;-0.00852865485812941;-0.21232436456193282;-0.8499751809468327;0.8490000000000001;0.0015391700964577139
32:04.8;-0.010047934295789355;-0.21081978932932516;-0.8445355938077308;0.8270000000000001;0.0017889826125489785
32:04.9;-0.010055709979300543;-0.20760185537667947;-0.8432955537373655;0.8190000000000001;0.0017604503464335652
32:04.9;-0.008290253097889125;-0.20267824224160122;-0.8456403687952905;0.8270000000000001;0.001420890549329473
32:04.9;-0.004777941867861862;-0.1963475234979812;-0.8505814872182224;0.847;0.0007979620099015562
32:04.9;0.00016598828080605438;-0.18917632409215365;-0.8568253889069379;0.866;2.6905219281958952e-05
32:04.9;0.005995116773777727;-0.1819384180814931;-0.8628940658865571;0.884;0.0009411948527428204
32:04.9;0.012031298900879343;-0.17552371206780668;-0.8672820882023271;0.9129999999999999;0.0018315074453456551
32:04.9;0.0175790691187124;-0.1708309604167095;-0.8686298995336904;0.9470000000000001;0.002608538377687235
32:04.9;0.022027074568985953;-0.1686615646608511;-0.8658899505264026;0.9470000000000001;0.0032168858191425724
32:04.9;0.024915576905465524;-0.16963177984601507;-0.8584610994554002;0.935;0.003628263221861855
32:04.9;0.025961316606495696;-0.17411619492740743;-0.8462709093502129;0.91;0.003825386258404811
32:05.0;0.025044489939933523;-0.1822271451495748;-0.8297960662917201;0.8809999999999999;0.0037870115901064137
32:05.0;0.022172632156595134;-0.19382587029394466;-0.8100231971922921;0.852;0.0034811797697553585
32:05.0;0.017439541385905033;-0.20855511864632434;-0.7883608097625414;0.821;0.0028673515340415547
32:05.0;0.010994085439031909;-0.22588166998429768;-0.7665168451427108;0.7909999999999999;0.0019035390960347655
32:05.0;0.003026789893596595;-0.2451410214407265;-0.7463567719685877;0.7659999999999999;0.0005537895345508652
32:05.0;-0.0062256967657522205;-0.26558214634355726;-0.7297560647003147;0.75;0.001206603423062579
32:05.0;-0.016465290779741293;-0.2864133448874765;-0.7184593599743901;0.7559999999999999;0.0033881674129210893
32:05.0;-0.027317780162463598;-0.30684896719790095;-0.7139562062002299;0.7559999999999999;0.005984689798523621
32:05.0;-0.03833004906357306;-0.3261542113038862;-0.7173795126637579;0.7659999999999999;0.008968324942957717
32:05.0;-0.04898626550447473;-0.3436857862943476;-0.729428786524933;0.7809999999999999;0.012280577836260563
32:05.1;-0.05874363243344935;-0.358929057861419;-0.750318556419697;0.81;0.015820314180850777
32:05.1;-0.06708155259171734;-0.37153204094957615;-0.7797536094353675;0.846;0.019433757213911478
32:05.1;-0.07355393869468212;-0.38133233595886273;-0.8169344853125531;0.885;0.02291378304017819
32:05.1;-0.07783496206329221;-0.3883693678629321;-0.8605969193710278;0.9259999999999999;0.02601473901772747
32:05.1;-0.07975222137263652;-0.39287476032943053;-0.9090876012073434;0.973;0.02848410986212323
32:05.1;-0.07930529493489286;-0.39523822424053356;-0.9604763407322517;1.03;0.03010563523965471
32:05.1;-0.07667043320189833;-0.39595227699021185;-1.0127001642664917;1.16;0.030743382064964533
32:05.1;-0.07219277659286856;-0.39554362871477355;-1.0637254563354173;1.16;0.030375098258864093
32:05.1;-0.0663655581751588;-0.3945007558800769;-1.111704369786588;1.22;0.029105824332999707
32:05.1;-0.05979290796092082;-0.3932061412730743;-1.155102386499876;1.27;0.027157541302818847
32:05.2;-0.05313189639885055;-0.3918795025223683;-1.1927844541103267;1.3030000000000002;0.024835324300843942
32:05.2;-0.047012480916075454;-0.39053690187765744;-1.2240545528210274;1.319;0.02247377457909408
32:05.2;-0.041941368993662444;-0.3889703973876578;-1.2486454634489363;1.32;0.020370340862685483
32:05.2;-0.03820472819048193;-0.38675350215152915;-1.2666598436524539;1.3219999999999998;0.01871592825788225
32:05.2;-0.03579095227479364;-0.38327810565186654;-1.278471338292804;1.319;0.01753792712513852
32:05.2;-0.0343565198336069;-0.3778259152298302;-1.284600635078271;1.306;0.016675122792457454
32:05.2;-0.03325440817394074;-0.3696699310095357;-1.2855851307748554;1.2790000000000001;0.015803896989598505
32:05.2;-0.031631588127129226;-0.3581920830244731;-1.2818637621184026;1.2790000000000001;0.014523752852559578
32:05.2;-0.028580402374323483;-0.3429979065648027;-1.2736990500448564;1.285;0.012486094947479485
32:05.2;-0.023310397091508225;-0.32400946565044014;-1.2611524931256208;1.295;0.009525219062960237
32:05.3;-0.015302240285936929;-0.301520100479678;-1.244117243191725;1.295;0.005740273639788044
32:05.3;-0.004410916921259724;-0.2761981249009547;-1.2223988565818618;1.281;0.0014892326146970659
32:05.3;0.009102099950112479;-0.24903492529737037;-1.19582547512608;1.258;0.0027106263715770142
32:05.3;0.02460939271429049;-0.2212458929598515;-1.1643645108567728;1.232;0.006339646967269434
32:05.3;0.04121372887697688;-0.19414324078816939;-1.128223704724611;1.195;0.00902733179452778
32:05.3;0.05787148570226042;-0.16900244794083227;-1.0879191462101214;1.1420000000000001;0.01064030916737859
32:05.3;0.07351485776322672;-0.14694105324642068;-1.0442999340692007;1.081;0.011280894049645957
32:05.3;0.08715305210283034;-0.1288246239043662;-0.9985275689572793;1.02;0.011210927499867768
32:05.3;0.097944547139321;-0.11521037376691581;-0.9520163296093442;0.9620000000000001;0.010742769212936662
32:05.3;0.10524159116082395;-0.10633184013023898;-0.9063463998369276;0.9129999999999999;0.010142498432482416
32:05.4;0.10861235489905814;-0.10211933235565931;-0.8631628397293225;0.87;0.009573702591890637
32:05.4;0.10784717632350845;-0.10224507255789535;-0.8240710397564218;0.831;0.009086901455725624
32:05.4;0.10295520206353637;-0.10618175643333325;-0.7905350801817621;0.795;0.008642101186738768
32:05.4;0.09415643959714677;-0.11326688366829478;-0.7637819966336052;0.767;0.008145587195002857
32:05.4;0.0818708047184347;-0.122768903582509;-0.7447138185999336;0.743;0.0074852592900509305
32:05.4;0.06670126500190476;-0.13395274398519738;-0.7338301362102332;0.722;0.0065566383241710356
32:05.4;0.04940563033203882;-0.14614178887648088;-0.7311660917723916;0.7040000000000001;0.005279185301554385
32:05.4;0.030852354412615274;-0.1587722414205166;-0.7362537819542061;0.7;0.0036065372831675267
32:05.4;0.011958910601724717;-0.17143510377218318;-0.7481181631777071;0.7140000000000001;0.0015337747112853222
32:05.4;-0.0063841002507414165;-0.18390077801257254;-0.7653192367333456;0.7490000000000001;0.0008985161643261469
32:05.5;-0.023394400339756143;-0.19612155247976792;-0.7860481749908199;0.7979999999999999;0.0036065038794743424
32:05.5;-0.03847137928627046;-0.20820877568913607;-0.8082760208813841;0.856;0.006474354603460428
32:05.5;-0.051245803062024524;-0.22038521099440567;-0.8299419973583484;0.9079999999999999;0.009373213138706375
32:05.5;-0.06159294937620283;-0.232918711344341;-0.8491579291867039;0.9470000000000001;0.0121821473625799
32:05.5;-0.06960314483482553;-0.246048919388168;-0.864399558374818;0.97;0.014803515435003673
32:05.5;-0.07551401706729376;-0.2599211575424136;-0.8746568316940951;0.98;0.017167493784581954
32:05.5;-0.07962003885182659;-0.2745397717072548;-0.87952267683545;0.975;0.019225369471230644
32:05.5;-0.08218275919840763;-0.28974837582954244;-0.8792104646167914;0.958;0.020936041809072548
32:05.5;-0.08336567487115716;-0.30523865164038777;-0.8745018643082848;0.9359999999999999;0.022252947143805386
32:05.5;-0.08321007425610691;-0.32058383891494835;-0.8666373901241053;0.922;0.023118250060556258
32:05.6;-0.08165478308152206;-0.3352890539105379;-0.8571692490905765;0.909;0.02346754110041934
32:05.6;-0.07858877614892228;-0.3488490351593596;-0.8477981875097563;0.9009999999999999;0.02324291187206439
32:05.6;-0.07391712319108551;-0.3608044925235853;-0.84021355151648;0.895;0.02240818464223734
32:05.6;-0.06762081885667048;-0.37078971186933546;-0.8359513339003468;0.892;0.02095989468386013
32:05.6;-0.059797598370445675;-0.378565832737178;-0.8362804941711949;0.895;0.018931155531102965
32:05.6;-0.05067861764429026;-0.38403664164800083;-0.8421236603485549;0.905;0.01638978636883845
32:05.6;-0.040621375574537356;-0.38724684597100734;-0.8540137623252333;0.9470000000000001;0.013434063121238952
32:05.6;-0.03008287759590936;-0.3883655441247723;-0.8720823160499993;0.9470000000000001;0.010188671237215256
32:05.6;-0.01957956378043081;-0.3876588399537125;-0.8960699088579174;0.966;0.006801341741384615
32:05.6;-0.009640628466537208;-0.3854553306676571;-0.9253498151879009;0.9840000000000001;0.003438629185211231
32:05.7;-0.0007594636173176558;-0.3821076722729992;-0.9589618098824536;1.012;0.00027828772046195333
32:05.7;0.006652723209072808;-0.37795333370845907;-0.9956587921676012;1.044;0.0025035033000205043
32:05.7;0.012305685227178046;-0.37327764063040436;-1.0339699835073746;1.078;0.004749476132099175
32:05.7;0.016054868220624578;-0.36828200572168995;-1.0722829420248834;1.12;0.006340107799627251
32:05.7;0.017907168396279663;-0.363060241321823;-1.108944156594678;1.166;0.007209668335944696
32:05.7;0.018007273016220286;-0.35758605070209326;-1.142374443344027;1.21;0.007355919987642554
32:05.7;0.01661022134978749;-0.35171466001555457;-1.1711904154266253;1.285;0.006842162751532453
32:05.7;0.01405044965037991;-0.3452010151447172;-1.1943171233451164;1.285;0.005792712123163841
32:05.7;0.010717396227976572;-0.33773578932237536;-1.2110726930930515;1.31;0.004383657183892314
32:05.7;0.0070406715331403896;-0.3289972108735863;-1.2212086964893274;1.318;0.0028287605602056935
32:05.8;0.00347594799349355;-0.3187112425683437;-1.2248994160620594;1.294;0.001356972608263153
32:05.8;0.00047526445086369017;-0.3067091332150822;-1.2226825824428913;1.263;0.0001782279308196906
32:05.8;-0.0015677075843400178;-0.2929745156893164;-1.2153610933205503;1.2429999999999999;0.0005582133694449912
32:05.8;-0.0023886286721971203;-0.27767869634614983;-1.2038806295004298;1.2229999999999999;0.000798499465057956
32:05.8;-0.001916702224503328;-0.2612033544369727;-1.189200599258021;1.192;0.0005953721508690829
32:05.8;-0.0003095857641730272;-0.24414297114486905;-1.1721750540492069;1.159;8.859672781828913e-05
32:05.8;0.0020525441162732687;-0.22727474461296643;-1.1534587284744733;1.102;0.00053807862303383
32:05.8;0.004613421171105385;-0.21149046182856132;-1.133452496597346;1.102;0.0011059034509150998
32:05.8;0.006719785850215659;-0.1976990512744119;-1.1122998655524319;1.0959999999999999;0.0014776851295118425
32:05.8;0.0077226257840298925;-0.18671770339418367;-1.0899381113374529;1.105;0.0015716372957019886
32:05.9;0.007088843052396936;-0.17916865751683836;-1.066194902329831;1.114;0.0013541725387419396
32:05.9;0.004507830164918409;-0.1753950947395379;-1.0409090575899709;1.114;0.0008229960983636715
32:05.9;-2.8058910667730246e-05;-0.1754079931436757;-1.014047230123139;1.097;4.990894266163664e-06
32:05.9;-0.006191598854440291;-0.1788742490369201;-0.9857885747958861;1.057;0.001091778191956227
32:05.9;-0.01335322797708284;-0.1851526767537543;-0.956556991061217;1.006;0.0023649780203645623
32:05.9;-0.020680443084497593;-0.1933776860307863;-0.926993676074584;0.958;0.0037071739947589556
32:05.9;-0.027289869239857996;-0.20257991908694897;-0.8978780623523573;0.8859999999999999;0.004963810675656646
32:05.9;-0.032421271683007444;-0.21182161577590275;-0.8700191304853037;0.8859999999999999;0.005974879132569768
32:05.9;-0.03559132288529224;-0.220318851716052;-0.8441464919949009;0.857;0.006619323552535557
32:05.9;-0.03668689095287109;-0.22752797067373348;-0.8208262183204045;0.838;0.0068516776431486615
32:06.0;-0.03597460127501686;-0.23318537982282636;-0.8004134773401275;0.823;0.006714469408307859
32:06.0;-0.03402647515645075;-0.2373002059558127;-0.783042794437309;0.812;0.006322670870734479
32:06.0;-0.031582246978532874;-0.24010627941775936;-0.7686505775950891;0.8059999999999999;0.005828750980209643
32:06.0;-0.029383708990390073;-0.24198604226765444;-0.7570204712055021;0.7979999999999999;0.005382754275847718
32:06.0;-0.02802155741474036;-0.2433835982101963;-0.7478399003863047;0.789;0.005100258750988207
32:06.0;-0.02782949097103233;-0.24472467819804455;-0.7407572477567063;0.7809999999999999;0.005044974068224936
32:06.0;-0.028846374173815498;-0.2463574241402865;-0.7354327222900638;0.777;0.0052263662003098794
32:06.0;-0.03084844479139891;-0.24852093936776806;-0.7315800814816362;0.777;0.005608647338795325
32:06.0;-0.03343514701704087;-0.25134085067597406;-0.7289990631901984;0.7859999999999999;0.0061262298635439685
32:06.0;-0.03614191724794686;-0.25484545562616184;-0.7275986989076997;0.797;0.0067016230268979815
32:06.1;-0.03855231622523394;-0.25899302573688254;-0.7274102944570793;0.8009999999999999;0.007263032507913129
32:06.1;-0.0403844008400035;-0.26369983331307506;-0.7285878302057601;0.789;0.0077589939278737245
32:06.1;-0.041531559730001645;-0.2688606239898572;-0.7313946107757818;0.7809999999999999;0.008166899281253389
32:06.1;-0.04205052287875731;-0.2743587356155772;-0.7361780771304179;0.7829999999999999;0.008493233683780002
32:06.1;-0.04210690094453966;-0.2800683309592318;-0.7433374490420418;0.797;0.008766036908024803
32:06.1;-0.041902809804189575;-0.2858535230507913;-0.7532884432532895;0.815;0.009022938545885735
32:06.1;-0.041614258445285386;-0.29156930000372916;-0.7664255390438929;0.831;0.009299378449624654
32:06.1;-0.041356415974334294;-0.29706795757664367;-0.78307873972221;0.831;0.009620643868433367
32:06.1;-0.0411790936452342;-0.3022121661291851;-0.8034627664451759;0.8390000000000001;0.009998951987621612
32:06.1;-0.04108345957484244;-0.3068929808859385;-0.8276224731654017;0.8590000000000001;0.01043485066628177
32:06.2;-0.04104885817784629;-0.3110489521361022;-0.8553847036844091;0.88;0.010921726671071379
32:06.2;-0.04106116279078175;-0.3146806559002934;-0.8863294748950278;0.9059999999999999;0.011452399319921144
32:06.2;-0.04113601903074837;-0.31785450096550777;-0.9197917507884821;0.9440000000000001;0.012026524382249926
32:06.2;-0.04133101774465151;-0.320692150729264;-0.9549005739671677;1.002;0.012656761142974905
32:06.2;-0.04174243553457745;-0.3233461516791437;-0.9906549865627323;1.062;0.013371123854145057
32:06.2;-0.04248629842406849;-0.325965788874227;-1.0260263166814378;1.111;0.014209520318303975
32:06.2;-0.043668565728330944;-0.32865873346813984;-1.0600673681047157;1.177;0.015214145705700195
32:06.2;-0.045351704412229694;-0.3314541742267773;-1.0920049476294047;1.177;0.01641503118824315
32:06.2;-0.04752387837324894;-0.3342725854327924;-1.1212954352645481;1.1909999999999998;0.017812820450389077
32:06.2;-0.050074498654139675;-0.3369067153256622;-1.1476341493342013;1.2;0.019361087163064027
32:06.3;-0.05277808987319585;-0.3390181341603928;-1.1709232585542586;1.214;0.020951013193050816
32:06.3;-0.055288359614398826;-0.3401533261849111;-1.1912115581616285;1.229;0.022402543304450597
32:06.3;-0.05714596502004029;-0.33978181240511574;-1.2086199430356173;1.242;0.023467966288752053
32:06.3;-0.057805162420161885;-0.3373554330388255;-1.2232634064768952;1.249;0.023854719748535362
32:06.3;-0.056683995847242305;-0.3323827734885232;-1.235178457385343;1.251;0.02327173021087235
32:06.3;-0.05323853422990881;-0.32450726985185635;-1.2442652979715232;1.25;0.02149628985902695
32:06.3;-0.047054024130343534;-0.3135748819303578;-1.2502552005764724;1.272;0.01844746555058925
32:06.3;-0.037936780647102424;-0.29967918529419446;-1.2527118984097365;1.272;0.01424191059915256
32:06.3;-0.02598464746402894;-0.28317597525221566;-1.251070252859963;1.284;0.009205660023454808
32:06.3;-0.011615168162153529;-0.26466313610309605;-1.2447084224963247;1.288;0.0038263666656435298
32:06.4;0.004460599387053162;-0.2449261152640349;-1.2330435404916953;1.2790000000000001;0.0013471213745110818
32:06.4;0.021317571155068698;-0.22485671925952358;-1.215636254428269;1.265;0.0058270297431116886
32:06.4;0.03793446956488682;-0.20535969037930146;-1.1922879493589413;1.249;0.009288174608303187
32:06.4;0.053324598100485905;-0.1872632058136466;-1.1631166599178584;1.222;0.011614574959878656
32:06.4;0.06665133813189711;-0.17124630583996528;-1.1286013994726642;1.185;0.012881625500533482
32:06.4;0.07730575409348939;-0.1577910506548103;-1.0895883219247173;1.139;0.013290968501030785
32:06.4;0.08493533142067856;-0.14716199236401173;-1.0472569970869887;1.031;0.013089929737387231
32:06.4;0.08942703652046079;-0.13941150680167125;-1.0030528021499787;1.031;0.012505217676597678
32:06.4;0.09085936049199415;-0.1344067327460619;-0.9585985472425204;0.981;0.011706510696870327
32:06.4;0.08944175809783458;-0.13187163945726674;-0.9155973502868002;0.929;0.010799316263661724
32:06.5;0.08545662915346418;-0.13143629930668488;-0.8757310181111776;0.8809999999999999;0.009836301072044027
32:06.5;0.07921381972903872;-0.13268607277346448;-0.8405546987948602;0.838;0.008834709546226737
32:06.5;0.07102288869619124;-0.13520620018754503;-0.8113919473629326;0.8;0.007791581776164197
32:06.5;0.0611833368160876;-0.13861991802188306;-0.7892380655323605;0.772;0.006693708874858592
32:06.5;0.049988113005711404;-0.14261873475748701;-0.7746807940267787;0.7509999999999999;0.005522886411637427
32:06.5;0.03773269717377373;-0.1469830124789963;-0.7678473463179327;0.738;0.004258531676341797
32:06.5;0.024721999671926818;-0.15159155841437016;-0.7683856726712402;0.753;0.0028796378440932497
32:06.5;0.011270385205917138;-0.1564203763377734;-0.7754852147630837;0.753;0.0013671167627093987
32:06.5;-0.00230548995237071;-0.16153162733700377;-0.7879385244410579;0.7829999999999999;0.0002934358264417937
32:06.5;-0.01569885968649834;-0.1670539628104131;-0.8042411305989777;0.821;0.002109167983349572
32:06.6;-0.028627552078287617;-0.17315556825136014;-0.8227227336102767;0.862;0.00407825308425512
32:06.6;-0.0408478581348817;-0.18001217482507556;-0.8416971514578944;0.897;0.006189093239414374
32:06.6;-0.05216273138313062;-0.18777373461654853;-0.8596133524962956;0.927;0.00841973302502193
32:06.6;-0.06242010079548941;-0.19653414086276855;-0.8751887053845128;0.95;0.010736535749545806
32:06.6;-0.07150054910735126;-0.20630744496953976;-0.8875086047731221;0.9570000000000001;0.013091724275058805
32:06.6;-0.07929760385252055;-0.2170125429967579;-0.8960821526674373;0.958;0.015420296630675723
32:06.6;-0.0856962216433381;-0.22846772328543727;-0.9008505107092838;0.941;0.01763759058435644
32:06.6;-0.0905562819262616;-0.24039622025909163;-0.9021521542899084;0.941;0.019639300187759588
32:06.6;-0.09370898799109019;-0.2524430028400592;-0.9006553916991803;0.941;0.02130606455232276
32:06.6;-0.09497281722648791;-0.26420218257453854;-0.8972702187491038;0.9390000000000001;0.022514327295821448
32:06.7;-0.09418965417600463;-0.2752536950670132;-0.893049143700076;0.9309999999999999;0.023153237063725764
32:06.7;-0.09127341044570977;-0.28520587567970196;-0.8890842867885782;0.922;0.023144386944206456
32:06.7;-0.08625780586681142;-0.2937379454463761;-0.8864086101929156;0.9159999999999999;0.022459103971559438
32:06.7;-0.07932902929050743;-0.30063546130932667;-0.8859108305683693;0.9209999999999999;0.02112819310153759
32:06.7;-0.07083196605142117;-0.3058125103425863;-0.888272993594553;0.94;0.01924114899592755
32:06.7;-0.061244688090227165;-0.30931540729363;-0.8939350622969572;0.955;0.016934639348214996
32:06.7;-0.05112347691911712;-0.3113042387163469;-0.9030837321457661;0.951;0.014372537015080334
32:06.7;-0.04102803240399254;-0.31201350607086153;-0.9156575349583235;0.951;0.011721607019784336
32:06.7;-0.03144183627560064;-0.3117014405945787;-0.9313608498258257;0.9590000000000001;0.009127770027689754
32:06.7;-0.022703616997464527;-0.31060306485939315;-0.9496846383244688;0.977;0.006696998500095575
32:06.8;-0.01496324403760295;-0.3088995547206287;-0.9699366158294633;1.0;0.004483182267306637
32:06.8;-0.008171716159794253;-0.3067086839964538;-0.9912846151436171;1.028;0.002484492623847425
32:06.8;-0.0021085719336810835;-0.3040934990576512;-1.0128146107795941;1.0659999999999998;0.0006494197844255959
32:06.8;0.003560466754167618;-0.3010813101410519;-1.0336010340292916;1.0979999999999999;0.001108009967361464
32:06.8;0.009211871004652641;-0.2976833387417857;-1.052782657660321;1.123;0.002886962203486979
32:06.8;0.015195801236496014;-0.29390687808356525;-1.0696342374875663;1.13;0.00477714748606641
32:06.8;0.0217816645468895;-0.2897559396376432;-1.0836244366668677;1.1420000000000001;0.006839151160672922
32:06.8;0.02912241919214331;-0.285222578220791;-1.094454010330305;1.1420000000000001;0.009090941584156676
32:06.8;0.03723963855002031;-0.28027707924076606;-1.102072047658248;1.161;0.011502785662971244
32:06.8;0.04602977118308769;-0.27486586172307687;-1.1066700378116223;1.17;0.014001603396514227
32:06.9;0.05528813851109089;-0.2689200714804732;-1.1086532321093718;1.166;0.016483556211648577
32:06.9;0.06474220575580018;-0.262372023185381;-1.1085878248829864;1.149;0.018831075321624827
32:06.9;0.0740840725085193;-0.25517659572286105;-1.107124033354399;1.129;0.02092965000315561
32:06.9;0.08299534496034339;-0.24733703583597014;-1.104900573011124;1.114;0.02268120296520569
32:06.9;0.09116250458122797;-0.2389325821859915;-1.1024427136219983;1.097;0.024013068317217084
32:06.9;0.09828531139415787;-0.23013906915104781;-1.1000703297962535;1.08;0.02488280989308201
32:06.9;0.10408443599108637;-0.2212308966375366;-1.09783267659568;1.065;0.025279456119471938
32:06.9;0.10831549326876101;-0.21255875509585911;-1.095483991652668;1.065;0.025221773151964787
32:06.9;0.1107928659561635;-0.20450763830467533;-1.0925095888165108;1.08;0.024754068451572128
32:06.9;0.11142047164333409;-0.19744496629423086;-1.0882055107234578;1.109;0.023939880574624036
32:07.0;0.11022191554923617;-0.19166773517694966;-1.0818049669178444;1.1440000000000001;0.022854195417689894
32:07.0;0.10736067248170231;-0.18735651966409222;-1.0726322407926383;1.175;0.021575699272752123
32:07.0;0.10314261858939297;-0.18454494277081435;-1.060253054311538;1.182;0.020181332312797465
32:07.0;0.09799826347473797;-0.18311235684053578;-1.0445849987773144;1.153;0.018744757106208283
32:07.0;0.09244730871717853;-0.1828033447807869;-1.0259372233907404;1.0979999999999999;0.017338007953533466
32:07.0;0.08704978381576729;-0.1832718235589339;-1.0049657146036433;1.032;0.016032994502010605
32:07.0;0.08234614519466803;-0.18414148712114475;-0.9825544202467814;0.924;0.01489880834902398
32:07.0;0.0787885941657554;-0.1850698386705217;-0.9596551898701746;0.924;0.01399310890306983
32:07.0;0.07667102832375143;-0.1858028309982986;-0.9371311961465747;0.897;0.013350084368836794
32:07.0;0.07607154729264345;-0.18621161982335732;-0.9156416691392391;0.888;0.012970436034009644
32:07.1;0.07682365806645708;-0.18630870953926149;-0.8955855846628762;0.895;0.012818441778260053
32:07.1;0.07852855453924909;-0.18624404263998406;-0.8771028927806114;0.899;0.01282804683431417
32:07.1;0.08061110421363528;-0.18628208602332533;-0.8601207179048814;0.895;0.012915920747529445
32:07.1;0.08240940194567703;-0.18676165281859372;-0.8444268289845555;0.883;0.01299650249029732
32:07.1;0.0832782458929613;-0.18804357568021474;-0.829752769959352;0.8690000000000001;0.012993877873904873
32:07.1;0.08268419407737539;-0.19045600440598856;-0.8158536417536728;0.86;0.012847819398973148
32:07.1;0.08027349886533514;-0.1942484628792407;-0.8025770161772613;0.857;0.012514586434577146
32:07.1;0.07590300262826591;-0.19956136258565452;-0.7899162605387635;0.857;0.011965103809486732
32:07.1;0.06963464768935294;-0.2064107675886461;-0.7780429652693552;0.846;0.011183076914963343
32:07.1;0.06170150601818307;-0.2146846739262615;-0.7673117869299879;0.816;0.01016409407042807
32:07.2;0.05245643996164857;-0.22414835262926486;-0.7582331286547307;0.7809999999999999;0.008915323780924994
32:07.2;0.042316155650137445;-0.23445883607909696;-0.7514167648609242;0.763;0.0074551037368805395
32:07.2;0.03171263952760921;-0.24518934391988564;-0.7474991028908822;0.764;0.00581225498104459
32:07.2;0.021059235545254684;-0.25586316713692786;-0.7470710892100144;0.778;0.004025430228717067
32:07.2;0.010732473590268419;-0.2659944022705084;-0.7506195066214472;0.7929999999999999;0.0021428519769558785
32:07.2;0.001066286614779431;-0.2751315159155365;-0.7584855606324264;0.8009999999999999;0.00022251619042810595
32:07.2;-0.007646968966529889;-0.28289975067474027;-0.7708378735791602;0.828;0.001667573316192694
32:07.2;-0.015154575896792434;-0.28903849282040844;-0.7876554213783914;0.828;0.0034501322094168296
32:07.2;-0.021245536208873136;-0.2934289010450635;-0.8087183025312447;0.852;0.0050415938452549516
32:07.2;-0.025760071506021505;-0.2961073128035513;-0.8336076721915502;0.875;0.006358547213068104
32:07.3;-0.02860704023442217;-0.29726264969218696;-0.8617180106782771;0.902;0.0073278815658187
32:07.3;-0.02978485746798266;-0.2972189379476445;-0.8922840480853551;0.9390000000000001;0.007899054914385115
32:07.3;-0.02939710536308104;-0.2964048585851027;-0.9244223477958402;0.972;0.008054903152980722
32:07.3;-0.02765387264023371;-0.29531178156366383;-0.9571852413723541;1.001;0.007816867053805788
32:07.3;-0.024854487658726363;-0.29444177224656165;-0.9896233492826415;1.035;0.007242260995518812
32:07.3;-0.021353635127006554;-0.29424799905710824;-1.0208528689509677;1.065;0.006414288498016518
32:07.3;-0.017517414011368276;-0.29507160616668443;-1.0501237950359261;1.13;0.005427975945739763
32:07.3;-0.013677408790531469;-0.2970819705957738;-1.0768826063954358;1.13;0.0043757095391674045
32:07.3;-0.010089987901361546;-0.3002307352010034;-1.1008190550675285;1.171;0.003334738117945786
32:07.3;-0.006905958513107018;-0.30423062520731875;-1.121886580362042;1.198;0.0023570882782606934
32:07.4;-0.0041534062488157745;-0.30856599567158693;-1.1402895901917214;1.212;0.0014613950642084201
32:07.4;-0.0017346581616311135;-0.31253651262678395;-1.1564338137368766;1.2229999999999999;0.0006269536678957174
32:07.4;0.0005630330528175908;-0.3153314226119449;-1.1708383131554638;1.22;0.0002078729916269286
32:07.4;0.003043615978153244;-0.3161281077095179;-1.1840132147756268;1.199;0.001139225025659849
32:07.4;0.006064132296537987;-0.3142026345095801;-1.1963169361788624;1.159;0.002279422026458161
32:07.4;0.00998046626835048;-0.3090336330295281;-1.2078194564721134;1.137;0.0037252772479283353
32:07.4;0.015079150032620593;-0.30037981188041196;-1.2182082502626317;1.199;0.005517840464425839
32:07.4;0.021506742094185273;-0.2883183649450045;-1.226770173529031;1.199;0.007606942649008497
32:07.4;0.029216425932179785;-0.2732412080055573;-1.2324629241109057;1.2590000000000001;0.009838913610925442
32:07.4;0.03795108350441533;-0.2558120102453836;-1.234065318562821;1.308;0.011980729350432217
32:07.5;0.0472722667705744;-0.23689071978196893;-1.2303768291418338;1.344;0.013778204269117147
32:07.5;0.056630117039044435;-0.21743772313623322;-1.2204242331477744;1.341;0.015027722731011686
32:07.5;0.0654561379973849;-0.19841431943129467;-1.2036299005556788;1.3019999999999998;0.01563206518581204
32:07.5;0.07325372647123447;-0.18069520003930353;-1.1799077357234953;1.2409999999999999;0.01561796290982279
32:07.5;0.07966328181772354;-0.16500330689723142;-1.1496755247465722;1.1740000000000002;0.015112145547475985
32:07.5;0.08448801474077788;-0.15187151659777573;-1.1137954047509753;1.1159999999999999;0.01429146851967033
32:07.5;0.08767917832573181;-0.1416301275800912;-1.0734688360367315;1.024;0.013330350188994079
32:07.5;0.08929192311006391;-0.13441448543473422;-1.0301170698075526;1.024;0.012363596822069884
32:07.5;0.0894314288372787;-0.13018487700105177;-0.9852734732526369;0.992;0.011471164214802465
32:07.5;0.088208891691748;-0.12875159391754432;-0.9405004993654471;0.9570000000000001;0.010681297467844401
32:07.6;0.08571880795853207;-0.1298005969495992;-0.8973277510248434;0.915;0.009983984814630394
32:07.6;0.08203916420912714;-0.13291836832656342;-0.8571994931793864;0.872;0.009347342027375945
32:07.6;0.07724950283345089;-0.13761742802148128;-0.8214225094699242;0.836;0.008732442399100161
32:07.6;0.07145830031524157;-0.14336563325575946;-0.7911111719575226;0.807;0.008104668519979168
32:07.6;0.06482936001048598;-0.14962233151623752;-0.7671305426048806;0.774;0.007441104889352241
32:07.6;0.05759711592714511;-0.15588267152408858;-0.7500404124658582;0.745;0.006734157066076907
32:07.6;0.05006373431930727;-0.16172777469658892;-0.7400457394922518;0.726;0.005991925633682194
32:07.6;0.04257676543474639;-0.16687336010929102;-0.736962538669948;0.726;0.005236065710122622
32:07.6;0.03549257657567796;-0.17120522218131906;-0.7402101748546784;0.732;0.004497897829778806
32:07.6;0.029134298020641932;-0.174790587463184;-0.7488384790215642;0.747;0.00381338586909743
32:07.7;0.02375314482087098;-0.17786047209864886;-0.761592294730584;0.764;0.003217533659347422
32:07.7;0.019501207474196848;-0.1807657908019479;-0.7770104872120281;0.785;0.002739079444155489
32:07.7;0.016421959748212263;-0.18391556873556078;-0.7935529134931067;0.8190000000000001;0.0023967314142342103
32:07.7;0.014459964296750864;-0.1877082684581106;-0.8097461759042099;0.8640000000000001;0.0021978574934028456
32:07.7;0.013484915122050634;-0.19246723107972727;-0.8243348603238722;0.904;0.0021394822204223196
32:07.7;0.013320806421538517;-0.19838971823585655;-0.8364192809144471;0.9279999999999999;0.002210414461588281
32:07.7;0.013770843265697845;-0.20551684251991767;-0.8455573741063926;0.9309999999999999;0.0023930459385283244
32:07.7;0.014632718023445923;-0.21372772805204585;-0.8518117936807744;0.9309999999999999;0.002663971177026369
32:07.7;0.015705061336491764;-0.2227557691180487;-0.8557330942592819;0.917;0.0029936906814206975
32:07.7;0.01679056396313309;-0.23222126478192967;-0.8582811445193337;0.904;0.0033465463258369912
32:07.8;0.01770198192398521;-0.24167435316418384;-0.8606956432476194;0.89;0.0036821549686687476
32:07.8;0.018274722607015362;-0.2506425478398308;-0.8643324162527076;0.872;0.003959008109550457
32:07.8;0.018385753495878197;-0.2586773948400531;-0.8704858366950182;0.857;0.004140012199371876
32:07.8;0.01797440792994787;-0.2653961438815119;-0.8802197298405913;0.857;0.004198946112511914
32:07.8;0.017057684086540653;-0.2705164122022101;-0.8942292397111398;0.868;0.004126316648555851
32:07.8;0.015732355189460426;-0.2738826613550631;-0.9127532994101586;0.887;0.0039328890405530776
32:07.8;0.01415947889553569;-0.2754823520640494;-0.9355506544489279;0.97;0.003649289854786827
32:07.8;0.012533149530531447;-0.2754485318653643;-0.9619414090472709;0.97;0.0033208503377040277
32:07.8;0.011041521085867808;-0.2740461066410799;-0.9909038099364804;1.028;0.0029983618320391097
32:07.8;0.009830049297620911;-0.271641000440435;-1.0212091009022057;1.091;0.0027268779090403143
32:07.9;0.008974127789781463;-0.26865389558490693;-1.0515756241363001;1.145;0.0025352798361278762
32:07.9;0.008464909995817735;-0.2655031824699705;-1.080819964294596;1.178;0.002429100224067338
32:07.9;0.008210762395254383;-0.26254480041086103;-1.1079793061393983;1.192;0.002388463205895726
32:07.9;0.008056003693843584;-0.260018412712433;-1.1323835856026254;1.192;0.0023720144203180824
32:07.9;0.00781625486777029;-0.2580091950823765;-1.1536689931217738;1.189;0.0023265646033552895
32:07.9;0.007325596063027761;-0.2564333469794651;-1.1717387206675953;1.198;0.0022011429608853814
32:07.9;0.006485724040250556;-0.25505294940409307;-1.1866862327105037;1.197;0.0019630199801871327
32:07.9;0.005303364696147466;-0.25351983076535106;-1.1986994632600532;1.197;0.001611661162097544
32:07.9;0.0039024169344853256;-0.2514400306740974;-1.2079639322558149;1.189;0.0011852830005915874
32:07.9;0.0025035459043555447;-0.2484462438770003;-1.2145815069399415;1.198;0.0007554655389670349
32:08.0;0.0013742412936723163;-0.2442670492723089;-1.2185191544879033;1.216;0.0004090347832836141
32:08.0;0.0007620855092344316;-0.23878348523179424;-1.2195968135801256;1.2309999999999999;0.00022193422018902364
32:08.0;0.0008291888986266022;-0.23206280557749104;-1.2175155814204102;1.237;0.0002342790991284731
32:08.0;0.0016053909879208221;-0.22435983746902471;-1.2119198180652175;1.239;0.000436515656131356
32:08.0;0.002973504721021994;-0.21608177828181943;-1.2024822655015321;1.242;0.000772619131113714
32:08.0;0.0046936057372089866;-0.20772114663659244;-1.1889990748790131;1.252;0.0011592279239332072
32:08.0;0.006465030267910332;-0.1997700178978672;-1.1714794497003813;1.23;0.0015129882161386385
32:08.0;0.00801311768865006;-0.19263380605169986;-1.1502128128848594;1.23;0.0017754654599175575
32:08.0;0.009176381928455681;-0.18656352777100635;-1.1257972586505434;1.195;0.0019273403472574837
32:08.0;0.009967026033143617;-0.18162119485344297;-1.0991172754455667;1.147;0.001989647566554822
32:08.1;0.010585920226375807;-0.17768523234337366;-1.0712663099041608;1.0859999999999999;0.00201501089406516
32:08.1;0.011386537414123904;-0.17449457329536136;-1.0434210693726316;1.0190000000000001;0.002073161831946363
32:08.1;0.012796225692583985;-0.17172215386643633;-1.0166875557666342;0.9670000000000001;0.002234064596192703
32:08.1;0.015215223798121975;-0.1690607981335256;-0.9919489538545665;0.934;0.0025515881901663536
32:08.1;0.0189202964110603;-0.1662995990001386;-0.9697483385241115;0.904;0.0030512527377824826
32:08.1;0.02399872541984702;-0.16337097916594123;-0.9502335278563715;0.895;0.0037255760986082465
32:08.1;0.030329774427204005;-0.16035878850094867;-0.93317884438817;0.958;0.004538651444287864
32:08.1;0.03761501714616868;-0.1574714970764978;-0.9180801145030466;0.958;0.005438057573115067
32:08.1;0.04544168946598072;-0.15499382761039157;-0.9042984112003013;0.981;0.006369137734817872
32:08.1;0.05335539548444411;-0.15323107681814227;-0.8912148270254237;0.982;0.007286309253710374
32:08.2;0.060922881555444314;-0.15245683216595285;-0.8783595086834423;0.956;0.008158299321932327
32:08.2;0.06777390445416955;-0.15287217383916468;-0.8654893133198804;0.912;0.008967113299601088
32:08.2;0.0736178553073067;-0.15458253165426003;-0.85260450461631;0.868;0.009702668633360924
32:08.2;0.07823696651051855;-0.1575945304928842;-0.8399126784912059;0.833;0.010355886474127496
32:08.2;0.08146442790644362;-0.1618299291131728;-0.8277616702274102;0.809;0.010912698794714178
32:08.2;0.0831604564496742;-0.1671497213089536;-0.8165674515516035;0.805;0.011350489366298174
32:08.2;0.08319907993055072;-0.17338025841673702;-0.8067578801898544;0.838;0.011637545331422205
32:08.2;0.08147188125139088;-0.1803348687743354;-0.7987410258685074;0.838;0.011735279685223114
32:08.2;0.07790582294090938;-0.18782788617742224;-0.7928923695769543;0.84;0.01160230368910022
32:08.3;0.0724864928018946;-0.1956820970685708;-0.7895464098082235;0.825;0.011199170183886753
32:08.3;0.06527758670119019;-0.203734062512684;-0.7889800600098802;0.8109999999999999;0.010492857209228596
32:08.3;0.05642934016595851;-0.21184269985479334;-0.7913843886000511;0.8029999999999999;0.00946032276006816
32:08.3;0.04617127267159048;-0.21990374344965724;-0.796830823676518;0.804;0.008090411166065905
32:08.3;0.03478903551905446;-0.22786766484626247;-0.8052432125815447;0.8170000000000001;0.006383401528408785
32:08.3;0.022590895651784938;-0.23575475624492828;-0.8163865968676361;0.8390000000000001;0.004348002436304488
32:08.3;0.009873513391332973;-0.24366075817177918;-0.8298783823087152;0.866;0.001996511253410727
32:08.3;-0.003103136437010183;-0.251749064772358;-0.8452203134641973;0.905;0.0006602959944721883
32:08.3;-0.016125397162175988;-0.2602291637793059;-0.8618430154076272;0.905;0.0036165506554551815
32:08.3;-0.029019430780018275;-0.2693244142519694;-0.8791520694161484;0.9159999999999999;0.006871137131940376
32:08.4;-0.04163367224439465;-0.2792348660205157;-0.8965682047139822;0.93;0.010423119015750092
32:08.4;-0.05381883904803576;-0.2901013880407724;-0.913561618948359;0.955;0.014263364390018794
32:08.4;-0.06541330565403781;-0.3019752774883976;-0.9296848378900738;0.988;0.01836425158692487
32:08.4;-0.07623717323198322;-0.31479413363655634;-0.9446066022328128;1.0170000000000001;0.022669627920171048
32:08.4;-0.08609350376117732;-0.3283628698472773;-0.9581437742909574;1.038;0.02708663823773939
32:08.4;-0.09477290491995621;-0.34234011161440003;-0.9702836456014742;1.052;0.03148043260154743
32:08.4;-0.10205809268239813;-0.35623384641211503;-0.9811881282162775;1.062;0.03567261221469475
32:08.4;-0.1077263448091778;-0.3694127497800923;-0.9911742542481852;1.072;0.03944426042474439
32:08.4;-0.11154874147383526;-0.38113822448447743;-1.0006703599441604;1.072;0.042543989949827755
32:08.4;-0.11328640696491848;-0.39061764655080977;-1.010152273096099;1.08;0.044700924710331
32:08.5;-0.11268663718227276;-0.3970754341436513;-1.020067142909591;1.092;0.04564300160485969
32:08.5;-0.1094858608331961;-0.3998362125904708;-1.030753589719878;1.091;0.04512269373958697
32:08.5;-0.10342998145187465;-0.3984108161099981;-1.0423671466904123;1.09;0.042953472742465526
32:08.5;-0.094321512185685;-0.3925717222450702;-1.0548217741673696;1.095;0.039057896861354566
32:08.5;-0.08209329053722142;-0.38240402882174973;-1.0677605287873526;1.113;0.03351999811034182
32:08.5;-0.06689285771278639;-0.3683222879559655;-1.0805671921520312;1.136;0.026623155386945232
32:08.5;-0.049148989995432726;-0.351048549362353;-1.092423880748353;1.163;0.018848333854935066
32:08.5;-0.029591402717784553;-0.3315506800332606;-1.1024092096560927;1.1909999999999998;0.010815791539301218
32:08.5;-0.00920831390985225;-0.3109463700644659;-1.1096201430457868;1.1909999999999998;0.003177166239701429
32:08.5;0.01085335053937463;-0.2903884181773783;-1.1132924479517012;1.1909999999999998;0.0035087496638884913
32:08.6;0.029425763214588976;-0.2709523623942777;-1.1128954586532513;1.186;0.008873093298756598
32:08.6;0.04547021996972168;-0.253543431096068;-1.1081862801853577;1.172;0.012775920110693012
32:08.6;0.05820925793942409;-0.23883283564747462;-1.0992191403404354;1.147;0.015281654616773922
32:08.6;0.06721010487025529;-0.22722816857943257;-1.0863133007406884;1.111;0.016590208275123836
32:08.6;0.07239951415694722;-0.21887727100142934;-1.0699891539823052;1.077;0.01695569877354545
32:08.6;0.07401137010072012;-0.21369973038693035;-1.0508869144410684;1.0490000000000002;0.016621047952802368
32:08.6;0.07248966802738359;-0.2114370069663446;-1.0296838474248597;1.026;0.015781962726977586
32:08.6;0.06837994459583042;-0.2117107268599126;-1.0070241021859936;0.993;0.014578454069184428
32:08.6;0.06223871300638839;-0.2140787691611919;-0.9834715223784884;0.993;0.013103761852392716
32:08.6;0.05457793201182108;-0.21808142265575475;-0.9594909174558506;0.982;0.011420276415494006
32:08.7;0.045847508517232495;-0.22327481562418935;-0.9354563050306777;0.9740000000000001;0.009575886409641887
32:08.7;0.03644744056072229;-0.22925373236053262;-0.9116770161725647;0.9620000000000001;0.007617710386810443
32:08.7;0.026753616218159595;-0.23566827033406582;-0.8884284426863907;0.94;0.005601522193780538
32:08.7;0.017139094583248356;-0.24223768670217125;-0.8659754919107557;0.915;0.003595300433314995
32:08.7;0.00797717721453331;-0.24876178181365222;-0.8445817971315277;0.888;0.0016760023221769147
32:08.7;-0.0003780784775677368;-0.2551276915653427;-0.8245037982701006;0.862;7.953022583025628e-05
32:08.7;-0.00762808891592229;-0.2613091036417966;-0.8059739329755005;0.836;0.0016065390370431716
32:08.7;-0.01356994283612383;-0.2673554525712681;-0.7891806246707026;0.805;0.0028631458923446865
32:08.7;-0.01812683264088609;-0.2733700836747988;-0.7742547591918655;0.805;0.0038366907438107845
32:08.7;-0.021359856580209186;-0.2794782813295322;-0.7612720424402745;0.795;0.00454450176983883
32:08.8;-0.023459577341954273;-0.2857883431800467;-0.7502764096961094;0.7959999999999999;0.005030208486745076
32:08.8;-0.024721527894588865;-0.29235150151474304;-0.7413227447179142;0.8009999999999999;0.00535781806495749
32:08.8;-0.025512464817951542;-0.29912848461641195;-0.7345310585085425;0.816;0.005605577401461631
32:08.8;-0.026233607302611543;-0.30597029398920295;-0.7301401390202702;0.835;0.005860619167817532
32:08.8;-0.02728447575744213;-0.31261782170323;-0.7285456016646432;0.845;0.006214212310154858
32:08.8;-0.029027936924790176;-0.3187206641612061;-0.7303059899150385;0.843;0.0067566473937227724
32:08.8;-0.03175503332037241;-0.3238720802219055;-0.7361036661544137;0.831;0.00757050872413974
32:08.8;-0.03564814861753637;-0.32765524793003775;-0.7466562666084963;0.802;0.008721171411068826
32:08.8;-0.04074410512726162;-0.3296948938657232;-0.7625879294262368;0.802;0.010243937771219121
32:08.8;-0.04690410536365235;-0.32970771698131807;-0.7842822697685852;0.7979999999999999;0.012128647271162342
32:08.9;-0.053801150851139824;-0.3275457930419977;-0.8117453999111285;0.804;0.014304853935663787
32:08.9;-0.060934762465280574;-0.323229272920042;-0.8445063110139502;0.8240000000000001;0.01663331097890039
32:08.9;-0.06767822318296003;-0.31696657687708846;-0.8815773257987891;0.868;0.018911362938275934
32:08.9;-0.07335665338858899;-0.309160740569806;-0.9214904172896088;0.937;0.020898478674019682
32:08.9;-0.07734610602516631;-0.3003993841681389;-0.9624139989016877;1.0190000000000001;0.022361422307933296
32:08.9;-0.07917684348852973;-0.2914239224951726;-1.002339364033114;1.097;0.023128004847439546
32:08.9;-0.07862053778019083;-0.2830734738656993;-1.0393102502726859;1.162;0.02313025364817394
32:08.9;-0.07574258958768529;-0.27620244447818465;-1.0716580268800369;1.228;0.02241939498338984
32:08.9;-0.07090731347850726;-0.2715778007388645;-1.0982013685789644;1.228;0.021147901496345153
32:08.9;-0.0647332991789518;-0.26976959552537433;-1.1183743191864777;1.222;0.01953025566141724
32:09.0;-0.05800464406771766;-0.2710523147356611;-1.1322617190832307;1.2009999999999998;0.017801750545370146
32:09.0;-0.05154963095914616;-0.27533479116924336;-1.1405419970478952;1.176;0.016188176622112218
32:09.0;-0.046103853776336426;-0.2821349868784118;-1.1443547617721987;1.159;0.014885206213547575
32:09.0;-0.04217971017444949;-0.2906110798699376;-1.1451193474091466;1.151;0.014036748282692496
32:09.0;-0.03996661349040961;-0.29964934948672867;-1.1443320886440254;1.1440000000000001;0.013704486458775249
32:09.0;-0.03928498580221505;-0.3079961186637823;-1.143367499986854;1.13;0.013834315870476864
32:09.0;-0.03960993518891773;-0.31441305074464054;-1.1433045346598187;1.1179999999999999;0.014238578121269602
32:09.0;-0.04016613309520744;-0.3178348229408138;-1.1447959591077963;1.147;0.014614689365628429
32:09.0;-0.04007757375108489;-0.31750975361229233;-1.1479958163119617;1.147;0.014608270373497748
32:09.0;-0.03854248011741998;-0.3131025017384258;-1.152554582840697;1.175;0.013908737049442042
32:09.1;-0.0349998205649778;-0.3047383975363622;-1.1576836896310012;1.2;0.012347610232122573
32:09.1;-0.029256382075901238;-0.2929779848677478;-1.1622817783426616;1.219;0.009962470211531065
32:09.1;-0.021546574134111148;-0.2787260795247713;-1.165105445502463;1.2409999999999999;0.006997148100643425
32:09.1;-0.012504531230282737;-0.26309478448675255;-1.164959254888311;1.2590000000000001;0.0038325725993433196
32:09.1;-0.0030462460630690117;-0.24724775866894008;-1.1608755430414475;1.268;0.0008743453526086821
32:09.1;0.005815303785076953;-0.23225116135980733;-1.1522547261845237;1.255;0.00155624797452284
32:09.1;0.01317944318186695;-0.21894989494606507;-1.1389419061589592;1.228;0.003286573702655869
32:09.1;0.018444145169219047;-0.20788304551200154;-1.12122643246296;1.133;0.004299034496095559
32:09.1;0.021430255593728444;-0.19924983631729082;-1.099767590722662;1.133;0.004695980029431665
32:09.1;0.022417421257243546;-0.19293160653666083;-1.0754664659006954;1.0659999999999998;0.004651423758480301
32:09.2;0.022080209743937384;-0.18856459862945715;-1.049312511206839;1.003;0.004368860791282946
32:09.2;0.02133227886053944;-0.1856467521661356;-1.0222335072337907;0.966;0.004048318940362922
32:09.2;0.02111081071873405;-0.1836548791083099;-0.9949764809491499;0.961;0.0038576266876835866
32:09.2;0.022154768634470773;-0.18214956425680828;-0.9680428576036222;0.97;0.003906518997548455
32:09.2;0.024836451256466295;-0.18085136364074722;-0.9416873966628286;0.977;0.004229783002911113
32:09.2;0.029089650243419297;-0.1796784082093067;-0.9159713232231064;0.97;0.004787582471547643
32:09.2;0.034446248440949914;-0.17874171404758155;-0.8908456298765518;0.945;0.005484920052567699
32:09.2;0.04016130284761019;-0.17830268132395347;-0.8662372889678756;0.889;0.006203010868417291
32:09.2;0.04538514533532868;-0.17870613327495605;-0.8421195555917422;0.889;0.006830098093741136
32:09.2;0.049333675975492555;-0.1803068252978173;-0.8185607144546614;0.8590000000000001;0.007281260035620691
32:09.3;0.051416341538589996;-0.18340514059905932;-0.7957532654822408;0.831;0.0075039702820135865
32:09.3;0.051300854220420265;-0.1882015559422763;-0.7740257597293474;0.804;0.007473141760765021
32:09.3;0.04891378449262185;-0.1947734502047401;-0.7538390002472838;0.7809999999999999;0.007181904490620518
32:09.3;0.04439034146914009;-0.20307293974100413;-0.7357699080165065;0.7709999999999999;0.006632581014823632
32:09.3;0.03799535457344967;-0.21294039937814857;-0.7204867842805482;0.768;0.0058292755516767105
32:09.3;0.030041026765104235;-0.2241262725826214;-0.7087173023245794;0.758;0.004771781798830406
32:09.3;0.020824447806552463;-0.23631475785988615;-0.7012074649276606;0.747;0.0034507291237262775
32:09.3;0.010599374550110046;-0.24914600609753468;-0.6986692434535278;0.74;0.0018450400343802242
32:09.3;-0.00041559304835380015;-0.26223645003897333;-0.7017175763349349;0.74;7.647573969350572e-05
32:09.3;-0.012002631587114999;-0.27519886085056555;-0.710801254305538;0.746;0.002347855114929804
32:09.4;-0.023901798150947774;-0.2876648317125484;-0.726134342248246;0.757;0.004992686793116594
32:09.4;-0.03577800942999835;-0.2993119217491979;-0.7476355858581619;0.77;0.008006268567014564
32:09.4;-0.047211593799778746;-0.30989510094535655;-0.7748844525189738;0.795;0.011337056726653819
32:09.4;-0.057717962887821106;-0.31927884501699494;-0.8071040342147573;0.831;0.014873413649203417
32:09.4;-0.06679286915615197;-0.3274636767885535;-0.8431811160570665;0.88;0.018442258483540277
32:09.4;-0.0739729888761144;-0.3345991209805151;-0.8817305912737087;0.94;0.02182397578643444
32:09.4;-0.07889853728884544;-0.3409743384496385;-0.9212048603000906;0.9990000000000001;0.02478260003766282
32:09.4;-0.08136462866631528;-0.34697998158864995;-0.9600391804019919;1.113;0.027103727599428626
32:09.4;-0.08135048670193565;-0.3530416038262184;-0.9968113483991754;1.113;0.028628527884374092
32:09.4;-0.07901960266328788;-0.3595342365846888;-1.0303839095324776;1.151;0.029273467061095824
32:09.5;-0.07468850231311151;-0.3666940741700332;-1.0599994009886442;1.172;0.02903108467364207
32:09.5;-0.06876675109583304;-0.37454382467659414;-1.0853136640449847;1.173;0.02795351451507364
32:09.5;-0.061676537470681456;-0.38284538163305487;-1.1063670146454854;1.165;0.02612417690526952
32:09.5;-0.05376598691985676;-0.39108909484753346;-1.1235032892609729;1.157;0.02362423078034106
32:09.5;-0.045234269899119287;-0.398523536938063;-1.1372554898621332;1.168;0.020501215135276068
32:09.5;-0.036086232404899235;-0.4042245530556898;-1.1482215267303133;1.196;0.016749039855185225
32:09.5;-0.0261292530795985;-0.4071980742221858;-1.1569496628354345;1.224;0.012309691659418195
32:09.5;-0.015017491598890327;-0.4065058439811729;-1.1638433757453595;1.204;0.0071049124409873375
32:09.5;-0.0023401312866163848;-0.4013965774726035;-1.1690887785728319;1.204;0.0010981492773236628
32:09.5;0.012259625451790553;-0.3914216177409796;-1.172609968847946;1.1909999999999998;0.005626982851515143
32:09.6;0.02895764295970656;-0.3765178825177779;-1.1740631125815804;1.204;0.012800892782136928
32:09.6;0.04764287616531702;-0.3570484633820862;-1.1728796665949353;1.2229999999999999;0.019951639877136027
32:09.6;0.06786045667533051;-0.33379601607713627;-1.1683607024773486;1.244;0.026465180972316017
32:09.6;0.08882178484769572;-0.30790626635335105;-1.1598111845255485;1.26;0.03171942573256809
32:09.6;0.10948145644052877;-0.2807845020353079;-1.1466901167691714;1.254;0.035250052548115696
32:09.6;0.1286621117094171;-0.25395750037301484;-1.1287454951036093;1.236;0.036881429777625555
32:09.6;0.14519689468013544;-0.22892076338075198;-1.1061057198480462;1.206;0.036765387849631175
32:09.6;0.1580591719856438;-0.20699271466662295;-1.0793102340107235;1.107;0.03531189771340976
32:09.6;0.1664587539351095;-0.18919593967883855;-1.0492776835201618;1.107;0.033045238242640676
32:09.6;0.169896710465614;-0.17618181626928203;-1.017223905923356;1.052;0.03044826922678563
32:09.7;0.16818121172486503;-0.16820682001103326;-0.9845472262027442;0.996;0.027852079787050097
32:09.7;0.1614129465654467;-0.1651575836074053;-0.9526958657451391;0.9520000000000001;0.0253975115384714
32:09.7;0.14995083230559936;-0.1666132133087583;-0.9230308368769882;0.9179999999999999;0.023060808600143454
32:09.7;0.1343673554340632;-0.17193017954684225;-0.8966990762938409;0.887;0.020715365899534807
32:09.7;0.11539988184708397;-0.18033525304367004;-0.8745302566123015;0.863;0.018199557859173474
32:09.7;0.09390226712748781;-0.19101373711317624;-0.8569664676963195;0.846;0.015371084426791628
32:09.7;0.07080032622170274;-0.2031836384703797;-0.8440301153515385;0.8370000000000001;0.012141768119725843
32:09.7;0.04705331786395658;-0.21615078347009284;-0.8353325479022592;0.84;0.008495842835695933
32:09.7;0.023620893270858877;-0.22934346766491384;-0.8301231595927829;0.84;0.0044970241769906934
32:09.7;0.0014319117677573181;-0.24232734858153954;-0.82737575051313;0.856;0.00028709225517278847
32:09.8;-0.018650703705451285;-0.2548032754076121;-0.8259057079444363;0.875;0.003924918984056641
32:09.8;-0.035873941484506615;-0.2665929723655688;-0.8245077282226607;0.899;0.007885378110301176
32:09.8;-0.04964626253692059;-0.27761820262087494;-0.8220995234210263;0.9159999999999999;0.011330756175736019
32:09.8;-0.05958728849175375;-0.2878776064028936;-0.8178539866343957;0.9229999999999999;0.014029341323345572
32:09.8;-0.06556170050447353;-0.2974234156504595;-0.8113025955612535;0.92;0.015820063841650193
32:09.8;-0.06768518678648151;-0.3063390124129797;-0.8023967688151301;0.9059999999999999;0.016637386694618735
32:09.8;-0.06629687887135839;-0.31471777049414645;-0.7915202058070978;0.885;0.01651491546730738
32:09.8;-0.061901853563993775;-0.32264334894019187;-0.7794525184618123;0.8440000000000001;0.015567398222344025
32:09.8;-0.05509633741718084;-0.33017152962274976;-0.76729170077621;0.8440000000000001;0.013957989014671318
32:09.8;-0.046493428552570354;-0.33731421518735477;-0.7563479609746537;0.823;0.011861725174074337
32:09.9;-0.03666503450502728;-0.34402768257285715;-0.7480215311028459;0.8029999999999999;0.009435384154201339
32:09.9;-0.02610773265765311;-0.3502089792387178;-0.7436743068217517;0.789;0.006799534963157192
32:09.9;-0.015231834289167618;-0.35570477161679576;-0.7445046040654105;0.7909999999999999;0.004033752849088474
32:09.9;-0.004367427471717465;-0.36033466370047357;-0.7514359721385439;0.8009999999999999;0.0011825614722878724
32:09.9;0.006220887437914709;-0.36392642084788346;-0.7650309078908524;0.8170000000000001;0.0017319881281042842
32:09.9;0.016317247918335352;-0.36635597117012414;-0.7854375604338393;0.838;0.0046952838500343725
32:09.9;0.02573867633838574;-0.36758289464094207;-0.8123742407319445;0.8690000000000001;0.007685951615907826
32:09.9;0.034320646483426115;-0.3676729122801509;-0.8451531094994406;0.945;0.010664794430965682
32:09.9;0.041905383150772704;-0.36680181578597854;-0.8827386514638155;0.945;0.013568549886419916
32:09.9;0.04833633519452985;-0.36523915991906125;-0.9238301954778767;0.992;0.01630959616926627
32:10.0;0.05346224144841111;-0.3633138488506781;-0.9669571479769955;1.045;0.018781762470031327
32:10.0;0.057150267905550306;-0.36136715394259816;-1.0105798230589034;1.088;0.02087072659566127
32:10.0;0.05930243010851988;-0.359701391023517;-1.0531898779520563;1.129;0.02246576874919749
32:10.0;0.05986827391076876;-0.35853332713887404;-1.09340230954344;1.17;0.023469630661167456
32:10.0;0.05885140691536757;-0.3579595842380285;-1.1300314590572895;1.2;0.02380572315078597
32:10.0;0.05631335982474226;-0.3579373451595774;-1.162146975295925;1.227;0.023424995074000962
32:10.0;0.05237967831576785;-0.3582792039892115;-1.1891095052603216;1.2570000000000001;0.022315482334530193
32:10.0;0.04724994953158371;-0.3586587850895817;-1.2105877071566313;1.305;0.020515357132076233
32:10.0;0.041210227359006875;-0.35862613071499755;-1.2265555266543056;1.305;0.01812734309854077
32:10.0;0.03464528289956311;-0.3576373310266428;-1.2372632586979615;1.3159999999999998;0.015330244224278294
32:10.1;0.028046253243963735;-0.35510518544377123;-1.2431749280371334;1.307;0.012381239032324534
32:10.1;0.02200412231050481;-0.35047216471797393;-1.2448715180905132;1.2770000000000001;0.00960024048075802
32:10.1;0.017175383913763297;-0.3432974238862892;-1.2429305524942678;1.238;0.00732864797855223
32:10.1;0.014210693361711567;-0.3333444354714618;-1.2378027061325367;1.215;0.0058635401867103325
32:10.1;0.013650879757367233;-0.3206566671649184;-1.2297123112247308;1.219;0.005382752812018014
32:10.1;0.01580943540567123;-0.3056089017782898;-1.2186072094988067;1.226;0.005887705841170456
32:10.1;0.02066938959846149;-0.288918108603111;-1.2041732156060054;1.224;0.007191034584508706
32:10.1;0.027823739683298352;-0.27159822352190943;-1.1859134583248079;1.22;0.008961803642983102
32:10.1;0.03648178687059764;-0.2548562775587054;-1.1632787098433388;1.22;0.010815714557912625
32:10.1;0.04554951586159872;-0.23994678440011602;-1.135824880535827;1.209;0.012413952442046251
32:10.2;0.0537761233726029;-0.2280117243990166;-1.1033694516867993;1.195;0.013529060107574853
32:10.2;0.05994505815195486;-0.21993163284590062;-1.0661193926920776;1.17;0.014055520329855865
32:10.2;0.06307628835269313;-0.21620878553100042;-1.0247472420085382;1.123;0.013975141868611393
32:10.2;0.06260019674480935;-0.21689981533502045;-0.9803989608782212;1.056;0.013311828770887452
32:10.2;0.05846729805082921;-0.2216087656989644;-0.9346279615472748;0.981;0.012109849028448291
32:10.2;0.05117024684483206;-0.22954249700737228;-0.8892632252095566;0.917;0.010445060177869663
32:10.2;0.04167067568118888;-0.23962132442010986;-0.84623082730217;0.8640000000000001;0.008449769244528687
32:10.2;0.0312421864385313;-0.2506300894909683;-0.8073537069155803;0.787;0.006321766817469951
32:10.2;0.021262413586462723;-0.26138673978431454;-0.7741566387719361;0.787;0.004302540390032847
32:10.2;0.013002870788217016;-0.27089723433351043;-0.7477049193115016;0.736;0.002633747013190802
32:10.3;0.0074601382625068624;-0.2784663338123794;-0.7285018848407335;0.735;0.001513387886272038
32:10.3;0.005248444337619614;-0.2837494053200454;-0.7164593635704756;0.735;0.001066982063076179
32:10.3;0.006555266183707702;-0.28674961336608856;-0.7109422754444917;0.748;0.0013363724450595727
32:10.3;0.011156606414018368;-0.28777340786999867;-0.7108786547764515;0.774;0.0022823289868483514
32:10.3;0.018482909977635544;-0.28735559222676677;-0.7149187270588416;0.8029999999999999;0.003797053138821517
32:10.3;0.02771706725423105;-0.2861638351295378;-0.7216198239092442;0.82;0.005723615861472485
32:10.3;0.0379040019737254;-0.2848959505859888;-0.7296292630989099;0.8270000000000001;0.007879045096181439
32:10.3;0.04805762009289802;-0.28418631776948294;-0.7378386490782953;0.852;0.010076897133221832
32:10.3;0.05725633334935149;-0.28453471860511026;-0.7454904734534188;0.852;0.012145094456376963
32:10.3;0.06472077629324906;-0.28626329909553716;-0.7522265282249965;0.8490000000000001;0.013936638502046714
32:10.4;0.06987023634580493;-0.2895007712436318;-0.7580751264034336;0.8320000000000001;0.015333954998658736
32:10.4;0.07235752828387287;-0.2941897917069032;-0.7633823926886636;0.815;0.016250003565301298
32:10.4;0.07208286991397835;-0.3001126849144581;-0.7687021420127709;0.7959999999999999;0.016629320851605324
32:10.4;0.06918657055814541;-0.3069311970938989;-0.7746662511398478;0.784;0.016450438286712422
32:10.4;0.0640205530221846;-0.31423687334286415;-0.7818607766431114;0.7879999999999999;0.015729176755325334
32:10.4;0.05710011111142031;-0.3216086073763856;-0.7907317562313148;0.81;0.014520908789209969
32:10.4;0.04904005372020788;-0.3286723197279135;-0.80153808530717;0.85;0.012919277598067876
32:10.4;0.04048441277924901;-0.33515503013559267;-0.8143566513237116;0.9390000000000001;0.011049642675185106
32:10.4;0.032043840047046544;-0.3409226286043158;-0.8291285212757195;0.9390000000000001;0.009057789805579345
32:10.4;0.02425487392466015;-0.3459896542056897;-0.8457210954342782;0.9570000000000001;0.007097236834818403
32:10.5;0.01756831057322564;-0.35049441304054957;-0.8639792848310749;0.948;0.005320034267325522
32:10.5;0.012362171028953125;-0.3546446058002174;-0.8837499363803022;0.938;0.0038745163846779043
32:10.5;0.008963656343488774;-0.35864982394803097;-0.9048791547639065;0.94;0.0029090179664892496
32:10.5;0.007660807215019134;-0.36265885515087437;-0.9271946787958034;0.9590000000000001;0.0025759874934472
32:10.5;0.00869143876291329;-0.36671332074517565;-0.9504910044031182;1.003;0.0030294680140831847
32:10.5;0.012210269026135616;-0.37072340598588577;-0.974530180455954;1.045;0.0044113400079113805
32:10.5;0.018247369725554775;-0.37446832389273566;-0.9990592615497547;1.08;0.0068266338324640815
32:10.5;0.02667561824744322;-0.3776198895445119;-1.0238350683111868;1.128;0.010313340475370813
32:10.5;0.03719935777566971;-0.37978234297423935;-1.048643352453409;1.128;0.01481487596157497
32:10.5;0.049366304167275867;-0.3805388288702448;-1.073302064696643;1.157;0.020162833175971662
32:10.6;0.06259920067142598;-0.37949658088658844;-1.0976444538750294;1.1740000000000002;0.026075842099226466
32:10.6;0.07624488710304313;-0.37632785741169406;-1.1214833357393965;1.181;0.032178805465958665
32:10.6;0.08963892960139032;-0.37080842928519964;-1.1445607894274041;1.2009999999999998;0.038043908074673914
32:10.6;0.10217740204246632;-0.362856208842216;-1.1664897591291825;1.214;0.04324842988526387
32:10.6;0.11337708531576583;-0.35256791915623553;-1.1866978632432927;1.197;0.04743601971033342
32:10.6;0.12290226697157011;-0.340243593755186;-1.2043896031543984;1.1640000000000001;0.050363609551790874
32:10.6;0.13054871029994275;-0.3263846200715156;-1.2185501227407247;1.179;0.05192131332634249
32:10.6;0.13619755568801087;-0.3116577006724217;-1.2280145167142276;1.294;0.05212555311993375
32:10.6;0.1397669738447427;-0.29682970303603234;-1.231610776564714;1.294;0.0510958231590836
32:10.6;0.14118700408824872;-0.2826854151690229;-1.2283551899705525;1.365;0.0490255065998178
32:10.7;0.14040910641521046;-0.26993959376340776;-1.2176555942094744;1.3969999999999998;0.046151554503919695
32:10.7;0.1374468154223161;-0.259154349384453;-1.199470883988033;1.3559999999999999;0.042725080950269466
32:10.7;0.13243103153781227;-0.2506756988418232;-1.174381800451881;1.278;0.03898623610080509
32:10.7;0.12565477865302815;-0.2446025214055186;-1.1435491340186;1.188;0.035147526603440775
32:10.7;0.11758293141567484;-0.2407938858042404;-1.1085683164071387;1.1059999999999999;0.03138717294855581
32:10.7;0.10881483833181856;-0.2389115465406282;-1.0712575672392124;1.041;0.02784961293236916
32:10.7;0.1000060160672521;-0.23848753880425602;-1.033427439682281;0.9890000000000001;0.024647439379588815
32:10.7;0.09177010388448814;-0.2390025035975089;-0.996675205035176;0.93;0.021860360909649885
32:10.7;0.08458881690290654;-0.2399594620043606;-0.9622366206415447;0.93;0.01953137018881666
32:10.7;0.07875423458117452;-0.2409415117124428;-0.9309146208860585;0.919;0.017664257911998445
32:10.8;0.07435530099471975;-0.24164807519240208;-0.9030890565269478;0.9329999999999999;0.016226537426483643
32:10.8;0.07130410497435079;-0.24190858926429706;-0.8787950362160135;0.9590000000000001;0.015158401878710533
32:10.8;0.06938566707706341;-0.24167415049267535;-0.8578434369753288;0.9640000000000001;0.014384938240452854
32:10.8;0.06831228732792362;-0.2409901463297848;-0.8399484952177445;0.937;0.013827726118177593
32:10.8;0.06776805746845806;-0.23995864917621834;-0.8248277741487996;0.885;0.01341296285401858
32:10.8;0.06743693813821208;-0.23870490300291228;-0.8122528578327894;0.8440000000000001;0.013075262940988378
32:10.8;0.06701589243760839;-0.23736128496227085;-0.8020503421408277;0.833;0.012758197421534844
32:10.8;0.06622019799796552;-0.23607298541557184;-0.794069829627144;0.813;0.012413534702518634
32:10.8;0.0647894989162634;-0.23501756343797744;-0.7881406740082588;0.813;0.012000758091999634
32:10.8;0.06250066676237447;-0.2344230841710877;-0.784034875560679;0.807;0.01148736464983745
32:10.9;0.059189139794644144;-0.23457109267259862;-0.7814464297866287;0.7979999999999999;0.010849650052538318
32:10.9;0.05477640370552725;-0.23577893749035087;-0.7799916022897582;0.794;0.01007368690942623
32:10.9;0.04929788258979614;-0.23836410010027995;-0.779231827588605;0.797;0.009156632752622998
32:10.9;0.04292261491584587;-0.24259776473655054;-0.7787198979732592;0.813;0.008108756126126455
32:10.9;0.035955803438297435;-0.24865782634869543;-0.7780667491604537;0.8420000000000001;0.006956455103343498
32:10.9;0.028819085107505974;-0.25659304863742016;-0.7770190190525467;0.8590000000000001;0.005745882298137991
32:10.9;0.02200947440631335;-0.2663072608892174;-0.7755303381028339;0.8640000000000001;0.004545602664759399
32:10.9;0.016043592545086333;-0.2775659299112252;-0.7738072954575618;0.862;0.0034458835821979477
32:10.9;0.011397024322038067;-0.2900213233430845;-0.7723161142281314;0.862;0.0025527982963826396
32:10.9;0.008448373207419603;-0.30324959861858547;-0.7717448851333274;0.847;0.0019771839897889266
32:11.0;0.007434381925744999;-0.3167939025666797;-0.7729243524066973;0.828;0.001820365822724758
32:11.0;0.008419264031731374;-0.3302096032268257;-0.776717444307645;0.82;0.0021593691268401564
32:11.0;0.01128052416657092;-0.3431072056531877;-0.7838951972489159;0.82;0.0030340108024546095
32:11.0;0.015713714142861514;-0.3551850902295094;-0.7950220019235991;0.83;0.004437237994489627
32:11.0;0.02125769101881473;-0.36624270116474106;-0.8103723258575081;0.85;0.00630913281854739
32:11.0;0.027340468884150718;-0.3761695933453654;-0.8298934747907132;0.885;0.008535166466658877
32:11.0;0.03334370905180635;-0.3849151559591127;-0.8532173898189642;0.917;0.010950617710758986
32:11.0;0.03867952042681069;-0.3924505372851476;-0.8797136665684211;0.9840000000000001;0.013353876260805447
32:11.0;0.04286772300854034;-0.3987331807256525;-0.9085695306342082;0.9840000000000001;0.015529982323313811
32:11.0;0.04559974434709172;-0.4036786433498014;-0.9388817948309162;1.02;0.017282600837543145
32:11.1;0.04677863855533549;-0.4071410211652382;-0.969750503213826;1.065;0.01846938579832744
32:11.1;0.046530061218270705;-0.4089042196387381;-1.0003692188564042;1.107;0.019033363255095033
32:11.1;0.045183463413452404;-0.40868666476636284;-1.030106743841291;1.149;0.019021826452841492
32:11.1;0.04322658720818759;-0.4061583697942254;-1.058570876513951;1.196;0.018585159711120566
32:11.1;0.04124005642909634;-0.40096649836134407;-1.0856408517725329;1.2329999999999999;0.01795202795384107
32:11.1;0.0398208469351991;-0.3927702377547435;-1.1114515692845208;1.247;0.01738359549275757
32:11.1;0.039502161932986314;-0.3812919388740688;-1.136312792715343;1.2309999999999999;0.01711497955614279
32:11.1;0.04067499374432278;-0.36638641687237006;-1.1605584733043781;1.143;0.017295530445108242
32:11.1;0.04351822051366345;-0.3481171874850372;-1.1843466087037784;1.143;0.017942188514956006
32:11.1;0.047949528054308334;-0.32682243720271753;-1.2074563764799657;1.111;0.018922026684494952
32:11.2;0.05361136547840366;-0.3031557600370045;-1.2291414076018772;1.1079999999999999;0.019976736571448012
32:11.2;0.05989917813202051;-0.2780872714734631;-1.2480926064346944;1.1540000000000001;0.020789726928587503
32:11.2;0.0660282045687877;-0.25285157894166516;-1.2625447381676862;1.2890000000000001;0.021078608340857015
32:11.2;0.07112823134818708;-0.2288389980494011;-1.27052612513957;1.401;0.020680243450552676
32:11.2;0.07435477985743044;-0.20744323679996468;-1.2702033848405958;1.453;0.01959212026893469
32:11.2;0.07500642963675307;-0.18989288697061113;-1.2602373750768234;1.369;0.017949797183720854
32:11.2;0.07263505357555207;-0.17709919630631413;-1.2400687320541794;1.411;0.01595176006106425
32:11.2;0.06712816098687524;-0.16954686072924918;-1.210085934234239;1.324;0.013772434493067677
32:11.2;0.05874252925273488;-0.16724160553591697;-1.1716625894717765;1.324;0.011510641642416013
32:11.2;0.048082955299281985;-0.1697176156122808;-1.1270643606351576;1.23;0.009197436356200892
32:11.3;0.03603494562236382;-0.17610304682374595;-1.0792298538648775;1.12;0.0068486455711093104
32:11.3;0.02366325633505055;-0.18523637091597242;-1.0314403880268768;0.9890000000000001;0.004521108246070169
32:11.3;0.01208823467910461;-0.19581746782155793;-0.9869149824571274;0.8809999999999999;0.002336114123762708
32:11.3;0.002357051549994652;-0.20657006568618128;-0.9483902707081068;0.804;0.00046176770760693087
32:11.3;-0.004669377332558362;-0.216389687550357;-0.9177572305193192;0.763;0.0009273065881572663
32:11.3;-0.008396509661763392;-0.2244547149667949;-0.8958210859653396;0.758;0.0016882968319676091
32:11.3;-0.008533774494256201;-0.23028759980995359;-0.8822298197213893;0.79;0.0017337778438955812
32:11.3;-0.0050886017722629896;-0.23376511532807517;-0.8755851760487681;0.9520000000000001;0.0010415414715337565
32:11.3;0.0016747732175100357;-0.23508587685198887;-0.8737106993447628;0.9520000000000001;0.00034399347137947306
32:11.3;0.011295602359396096;-0.2347077928195416;-0.8740144246620456;0.992;0.0023171572373222003
32:11.4;0.023179573200708337;-0.23326793855424763;-0.8738700924639278;1.008;0.004725060381996131
32:11.4;0.03665517043613046;-0.23149504363135207;-0.8709558132557961;1.0070000000000001;0.007390487087192205
32:11.4;0.05102158573794422;-0.23012332792959184;-0.8635134068556797;0.977;0.010138732924595656
32:11.4;0.06558916915158718;-0.22981650769665532;-0.8505105054830836;0.945;0.012820147818594075
32:11.4;0.07971282121207278;-0.23111025734057625;-0.8317028323146438;0.9229999999999999;0.015322004361879261
32:11.4;0.09281693260499696;-0.2343771268646654;-0.8076068358079567;0.87;0.017568813159492797
32:11.4;0.10441001899838398;-0.2398111784579876;-0.7794002778038398;0.816;0.019515161707107053
32:11.4;0.11409006863561649;-0.24742682487802317;-0.7487720697118795;0.762;0.02113704439982718
32:11.4;0.12154579854893353;-0.25706826055937154;-0.7177455823159576;0.762;0.022426367689299224
32:11.4;0.12656025511331645;-0.2684266689142266;-0.68849886764329;0.735;0.023389785220796655
32:11.5;0.12902038388002854;-0.28106252418325983;-0.6631965809119548;0.716;0.02404936150207129
32:11.5;0.12893084588951254;-0.29443413228959314;-0.6438370887272471;0.696;0.024441112897867358
32:11.5;0.126424750295767;-0.30793812825241856;-0.6321138681090138;0.684;0.024608825613044755
32:11.5;0.12176271237833017;-0.3209666215404497;-0.6292934997695514;0.691;0.024593901568671448
32:11.5;0.11531743719191653;-0.33297757173152076;-0.6361173408012346;0.6990000000000001;0.02442571012259258
32:11.5;0.10754853215304597;-0.34356418551715845;-0.6527373167631387;0.71;0.02411852887649975
32:11.5;0.09897413490313813;-0.352503691114598;-0.6786979304274127;0.732;0.023678920980158724
32:11.5;0.09014251724122624;-0.35977123121685095;-0.7129741768890349;0.812;0.023122240525208462
32:11.5;0.08160398590399845;-0.36551720139451077;-0.7540656692353714;0.812;0.022492014814562287
32:11.5;0.07388387295929807;-0.37001652169401994;-0.8001355519019693;0.884;0.021874308697628936
32:11.6;0.06745803448692474;-0.3736006666559343;-0.8491781995282692;0.963;0.02140130034046566
32:11.6;0.06273001228069804;-0.37658120133102463;-0.8992003364327209;1.023;0.021241758638581455
32:11.6;0.06000621949748895;-0.3791733471335166;-0.9483966074394407;1.07;0.02157863953624057
32:11.6;0.059466763649100036;-0.38143066623526684;-0.9952959703898656;1.112;0.022575748373907554
32:11.6;0.06113491841027032;-0.38320296160358225;-1.0388589803219621;1.1520000000000001;0.024337434302573395
32:11.6;0.06485252106047415;-0.38412672183787105;-1.0785157692041862;1.196;0.02686753867972637
32:11.6;0.07026841989118474;-0.3836533857266464;-1.114141644804481;1.2309999999999999;0.030035829524045904
32:11.6;0.0768458446003864;-0.38111653658258576;-1.1459702832176046;1.209;0.0335622862560054
32:11.6;0.08389422742115364;-0.3758326052580079;-1.1744502614045491;1.209;0.037030635257717257
32:11.6;0.09062745197940913;-0.3672216149239702;-1.2000633611200033;1.217;0.039938539807625434
32:11.7;0.09624263378538742;-0.3549294388376462;-1.2231357494178179;1.207;0.04178151482514605
32:11.7;0.10000650819840051;-0.33893072452740514;-1.243677958827603;1.196;0.04215481050658149
32:11.7;0.10133486175910866;-0.31958920162730947;-1.2612886335770808;1.213;0.04084749781215902
32:11.7;0.09985515822440724;-0.29765461126175674;-1.275151451582181;1.2690000000000001;0.03790049558397985
32:11.7;0.09544974819760452;-0.2741898241098604;-1.2841378575960094;1.327;0.033607620895156815
32:11.7;0.08828017780063263;-0.2504419326737315;-1.2870001074053785;1.385;0.028454360464866962
32:11.7;0.0787904801245263;-0.22768440172774382;-1.2826120846221056;1.426;0.023009244196194944
32:11.7;0.06768390603868475;-0.207060163994989;-1.270201929452385;1.371;0.017801423637641926
32:11.7;0.05586915064026116;-0.18945278798724535;-1.2495251883355936;1.371;0.013225682263529819
32:11.7;0.04437896061799522;-0.17540661650676173;-1.2209464727983401;1.2890000000000001;0.00950429094596957
32:11.8;0.03426969167982748;-0.16510554498140195;-1.1854217658576602;1.204;0.006707254003752475
32:11.8;0.02651189124805178;-0.1584063509937937;-1.1443947624511275;1.138;0.004806059696324996
32:11.8;0.021883809650004728;-0.15491194534407127;-1.099636426641326;1.077;0.0037278373400820588
32:11.8;0.02088279446095488;-0.15406460230492322;-1.0530635499652812;1.022;0.0033880207523621893
32:11.8;0.02366825151183083;-0.15523869905770932;-1.006567506362421;0.98;0.0036983590932018287
