Time;AccX;AccY;AccZ;Acc-old;Acc-trns
23:44.8;-0.022671145822672163;-0.23118777423308454;-1.067725435206753;1.0959999999999999;0.005596260506333659
23:44.8;-0.02935966019688268;-0.24425999813639976;-1.081396929792814;1.1;0.007755119717682147
23:44.9;-0.036252418911777766;-0.25607042271302444;-1.0961870511095664;1.0859999999999999;0.010176093197345871
23:44.9;-0.0435869557075909;-0.2655266336959748;-1.1126506610554507;1.0859999999999999;0.012877259779944535
23:44.9;-0.05144378126563884;-0.27163387948428436;-1.1310660561665231;1.0859999999999999;0.015805374419415413
23:44.9;-0.05969758741586115;-0.27356035010086915;-1.1513449901501474;1.1179999999999999;0.018802491740821232
23:44.9;-0.0680009738493061;-0.27071503644930744;-1.1729947113543742;1.165;0.02159352605388545
23:44.9;-0.07581452029295077;-0.26283133234273715;-1.1951417378947011;1.208;0.02381490982896111
23:44.9;-0.08249441134392006;-0.25004037081577696;-1.2166152627226123;1.268;0.025095041757519632
23:44.9;-0.08743189260906331;-0.23291246713880204;-1.2360764017132615;1.3359999999999999;0.0251714324211348
23:44.9;-0.09021129372569293;-0.21244667092335073;-1.2521697435546937;1.376;0.023997944618041715
23:44.9;-0.09073410003620483;-0.1899954766362312;-1.2636669051723914;1.371;0.021784440445014343
23:45.0;-0.08926260633258613;-0.1671246430332363;-1.269572906489113;1.2570000000000001;0.018939464775853787
23:45.0;-0.08636876619691605;-0.14542904517115235;-1.2691814612850834;1.2570000000000001;0.015941588267004085
23:45.0;-0.0828133599151015;-0.12634568356846354;-1.26208969349669;1.2570000000000001;0.013205384008621283
23:45.0;-0.07939991684876761;-0.11100548824521353;-1.2481972097003757;1.247;0.011001393689551065
23:45.0;-0.07683948869989167;-0.10014366131467346;-1.2277081019838645;1.249;0.00944719878318714
23:45.0;-0.07564703905405347;-0.09406535150093924;-1.2011384438359476;1.237;0.00854701928151482
23:45.0;-0.07608178508535254;-0.09265558022151398;-1.1693202771590994;1.216;0.008243008631890847
23:45.0;-0.07813515598838447;-0.09542510944339365;-1.133388380213312;1.192;0.00845060701905336
23:45.0;-0.08155789056554258;-0.1015875157149567;-1.0947358979926578;1.158;0.009070175366289885
23:45.0;-0.08591067290452074;-0.11016292731406058;-1.0549275410677774;1.11;0.009984014867749715
23:45.1;-0.09062506232051906;-0.1201003536799415;-1.015565935681022;0.922;0.011053523269214096
23:45.1;-0.09506784574595392;-0.1304039231026865;-0.9781240184985149;0.922;0.012126018689793069
23:45.1;-0.09860564053816696;-0.1402421732127232;-0.9437797085510693;0.922;0.013051217500577935
23:45.1;-0.10066733400148013;-0.1490212060302802;-0.9132948413550888;0.8740000000000001;0.013700854228944315
23:45.1;-0.10080203405703543;-0.15641408901713919;-0.8869598789348294;0.851;0.013984570753879358
23:45.1;-0.09872900598038566;-0.1623519877908184;-0.8646042358110952;0.846;0.013858611928133879
23:45.1;-0.09437400533336054;-0.1669891869269924;-0.84566622268643;0.855;0.01332722475832323
23:45.1;-0.08788668048154731;-0.1706540662689842;-0.8293147495930095;0.8759999999999999;0.012438244561954387
23:45.1;-0.07963643949528602;-0.1737939392294954;-0.8146068559352246;0.893;0.011274428134968295
23:45.1;-0.07018590392553362;-0.17691648224647707;-0.8006557139870105;0.897;0.009941776609556158
23:45.2;-0.06024125839482088;-0.1805281866839365;-0.7867800946173229;0.84;0.008556426401475338
23:45.2;-0.05058198069087332;-0.1850726681196171;-0.7726119775408733;0.84;0.007232685051814402
23:45.2;-0.04197998016277505;-0.19087591184418184;-0.758151503793219;0.84;0.006075042975414271
23:45.2;-0.03512219407731495;-0.19810725997460013;-0.7437683383218135;0.79;0.00517511156184838
23:45.2;-0.030546049484430765;-0.20676288136618867;-0.7301519253129141;0.757;0.004611485648452597
23:45.2;-0.028591242602460973;-0.21667371873479255;-0.7182177981564469;0.736;0.004449338329221421
23:45.2;-0.02937077703015036;-0.22753394615761582;-0.7089859742498104;0.716;0.0047380460667965545
23:45.2;-0.03276580859234289;-0.23894166784552448;-0.7034528099359159;0.7020000000000001;0.005507414320159153
23:45.2;-0.03844753704302723;-0.2504438561188813;-0.7024758533868445;0.7140000000000001;0.006764104471801704
23:45.2;-0.04592455728193906;-0.2615811447597602;-0.7066855180723333;0.74;0.008489411903489251
23:45.3;-0.054608062130940396;-0.2719306920884574;-0.7164293227296678;0.784;0.010638694694571675
23:45.3;-0.06388259634446498;-0.281144786931378;-0.7317448469977997;0.784;0.013142326928545599
23:45.3;-0.07316840853862927;-0.2889815343087618;-0.7523516747658912;0.784;0.015907963783163427
23:45.3;-0.0819647918280183;-0.29532517473223213;-0.7776558419471212;0.805;0.018824144530958157
23:45.3;-0.08987165469688825;-0.3001964844177092;-0.8067698794406488;0.833;0.021765969456377356
23:45.3;-0.09659387673580319;-0.3037540318424101;-0.8385581372733397;0.875;0.02460394941187644
23:45.3;-0.10193592907902711;-0.30628406485353876;-0.8717154948279262;0.925;0.02721613518593236
23:45.3;-0.10579344994143035;-0.30817461215430314;-0.9048801001631606;0.9740000000000001;0.029501675063726755
23:45.3;-0.10814576503159201;-0.3098712909068089;-0.9367716636079284;1.026;0.03139240610202094
23:45.3;-0.10905018623811776;-0.31181734654031085;-0.9663389408832762;1.0759999999999998;0.032859137819844564
23:45.4;-0.10863664919780626;-0.31438527592115406;-0.9928944919298031;1.146;0.03391108309505248
23:45.4;-0.1071001834212116;-0.3178098063139356;-1.0162111765461215;1.146;0.03458927628534124
23:45.4;-0.1046883896834013;-0.32213213801760954;-1.0365551518177252;1.146;0.03495626226636589
23:45.4;-0.10168136326086935;-0.3271640218053123;-1.054639396307925;1.133;0.03508414433630041
23:45.4;-0.09836272606964123;-0.33247809173991966;-1.0714992999541353;1.1079999999999999;0.03504172534758572
23:45.4;-0.0949828844656154;-0.33742839170261946;-1.0883093381967148;1.087;0.03488022934068422
23:45.4;-0.09171842335506972;-0.3412017550830101;-1.1061715962223604;1.089;0.03461707266230286
23:45.4;-0.0886330693238857;-0.3428960706948462;-1.1259118815987843;1.109;0.034218636448199516
23:45.4;-0.08564583795775896;-0.3416168112467945;-1.1479158235778555;1.137;0.033585787813876944
23:45.4;-0.08251316534489748;-0.33658070054687733;-1.1720265209661036;1.153;0.03254991785272071
23:45.5;-0.07883507076237507;-0.3272154965041252;-1.1975125735594179;1.227;0.030891102391937653
23:45.5;-0.07409559905083263;-0.31324639802516363;-1.223104844900793;1.227;0.02838848301237678
23:45.5;-0.0677394495935618;-0.294761107770735;-1.247093580412931;1.227;0.024900661652779522
23:45.5;-0.05927488999619049;-0.27224548737278254;-1.267477898600713;1.287;0.020453698110624027
23:45.5;-0.048385577702225804;-0.24658032722421633;-1.282164160713946;1.351;0.015297412879329068
23:45.5;-0.03502885626398392;-0.21899113597626857;-1.2892046408350413;1.405;0.009889500435174385
23:45.5;-0.019494514507791563;-0.19095031316972644;-1.2870492801700313;1.429;0.004791019902633566
23:45.5;-0.0024035296084279536;-0.16404196739926044;-1.2747661887832729;1.415;0.0005026144632054524
23:45.5;0.015357056778560378;-0.13980823436449114;-1.2521853169392019;1.3630000000000002;0.002688495710979543
23:45.5;0.03274876646351095;-0.11959925222969374;-1.2199347976012602;1.298;0.004778152756127015
23:45.6;0.04872067887683631;-0.10444780732495547;-1.1793645794006702;1.1;0.006001512826417928
23:45.6;0.062344889019769964;-0.0949850102775336;-1.1323820566434455;1.1;0.006705773948765353
23:45.6;0.07292306449278053;-0.09140521443152601;-1.0812481729745844;1.1;0.007207111972031403
23:45.6;0.08004694090942756;-0.09347929535910873;-1.028379709901318;1.028;0.007695089384847262
23:45.6;0.08360859055101723;-0.1006091066073266;-0.976174971588252;0.9590000000000001;0.00821137456912123
23:45.6;0.08376825529948553;-0.11191233825786756;-0.9268581670388427;0.898;0.008689018484167556
23:45.6;0.08089439929617932;-0.12632442380601708;-0.8823404953655113;0.848;0.009016583152516237
23:45.6;0.07549295036382471;-0.14270336940895303;-0.8441067901657213;0.813;0.009093645496670005
23:45.6;0.06814094912020328;-0.15992567466355712;-0.813139311797669;0.792;0.008861175291134633
23:45.6;0.05943407067653346;-0.17696641010600067;-0.789885889710867;0.7809999999999999;0.00830788876614071
23:45.7;0.04994995078364286;-0.19296190887592998;-0.7742732011354596;0.794;0.0074627841292032315
23:45.7;0.040223821708970785;-0.2072556690047118;-0.7657598777550131;0.794;0.006383845343187573
23:45.7;0.030731646066662916;-0.21942588298583338;-0.7634198248728935;0.794;0.00514798308466155
23:45.7;0.02187654161662825;-0.22929185617083883;-0.7660448731473086;0.8079999999999999;0.003842567519518587
23:45.7;0.013974664279204645;-0.2369001290547986;-0.7722572899212913;0.825;0.002556634807352671
23:45.7;0.007238776257631522;-0.24249491391739483;-0.7806242032102318;0.8420000000000001;0.0013702815172179836
23:45.7;0.001762502648423185;-0.24647755491331375;-0.7897659385313742;0.853;0.0003430880208547813
23:45.7;-0.002488104185039581;-0.249358455645456;-0.7984501562321695;0.856;0.000495382284367816
23:45.7;-0.005670020501379682;-0.2517046433935666;-0.8056657966222648;0.856;0.0011498224483993862
23:45.7;-0.008043944365552894;-0.2540862023997608;-0.8106750775624184;0.8590000000000001;0.0016569025345259784
23:45.8;-0.009941952240821499;-0.2570246222227138;-0.8130455633177497;0.87;0.002077596888981954
23:45.8;-0.011726093488581182;-0.26094616949814614;-0.8126649374020206;0.87;0.0024866565214779956
23:45.8;-0.013743406545211114;-0.2661439438315239;-0.8097386532892477;0.87;0.0029618008456482894
23:45.8;-0.01628318685259401;-0.272752802223449;-0.8047680522848688;0.868;0.003574204152882676
23:45.8;-0.019541295019792505;-0.28074109462165553;-0.798506126573298;0.857;0.004380640187167808
23:45.8;-0.02359503450740187;-0.28992153169179385;-0.791889968442037;0.841;0.005417088473588946
23:45.8;-0.028391308496292893;-0.2999804519750342;-0.7859528926909489;0.823;0.006693833112837292
23:45.8;-0.03374982539209078;-0.31052133049577924;-0.7817248699321074;0.8079999999999999;0.008192508441171158
23:45.8;-0.039382030660247556;-0.32111599349351266;-0.7801353201680536;0.804;0.009865747208876627
23:45.8;-0.044925678714854755;-0.3313561410381365;-0.7819348944075067;0.8140000000000001;0.01164019524653256
23:45.9;-0.04999356898397209;-0.34089787921390297;-0.7876503112275359;0.882;0.013423689251668093
23:45.9;-0.054230852384750644;-0.34949237893187945;-0.7975769014390576;0.882;0.015116690048839415
23:45.9;-0.057369650885978965;-0.3569969503472454;-0.811800878732934;0.882;0.016626323650993164
23:45.9;-0.05926831320215351;-0.36336405221852514;-0.8302376531622261;0.919;0.01787997688866215
23:45.9;-0.05992786807245165;-0.36861074729704296;-0.8526766351322256;0.951;0.018835674819578298
23:45.9;-0.05948501653799382;-0.3727755441249621;-0.8788266544033964;0.976;0.019487593856727953
23:45.9;-0.05818487542034803;-0.375871999112231;-0.9083538387215205;0.996;0.01986575789764252
23:45.9;-0.05633881483224182;-0.3778490413490038;-0.9409027261047691;1.014;0.020029529987191503
23:45.9;-0.054275155300761775;-0.3785665561782148;-0.9760967246396771;1.0270000000000001;0.02005562379899408
23:45.9;-0.05229241961731364;-0.3777911122807661;-1.0135226664776327;1.052;0.020022759914710284
23:46.0;-0.05062368063158921;-0.3752122861930708;-1.0527097939971004;1.176;0.019995829818624286
23:46.0;-0.04941508059917689;-0.37047723070264976;-1.0931090401063908;1.176;0.020011724516272773
23:46.0;-0.04871471811751043;-0.3632406437790797;-1.1340659000406006;1.176;0.020067483869100216
23:46.0;-0.04846527367715066;-0.35322708524429186;-1.174776590824418;1.205;0.02011129104700402
23:46.0;-0.048498098538082415;-0.34030013379165147;-1.2142311073111403;1.22;0.020039560211405898
23:46.0;-0.04853579745699967;-0.32452843053732305;-1.2511629231230312;1.219;0.01970737520538871
23:46.0;-0.048217623040746234;-0.3062358280985227;-1.2840305694132228;1.2309999999999999;0.01895994880438634
23:46.0;-0.04715988600996385;-0.2860243511910605;-1.311055340474501;1.276;0.01768466265228541
23:46.0;-0.04505032087351711;-0.2647618455828495;-1.330334260810438;1.348;0.015867703042381796
23:46.0;-0.041756221821091496;-0.24352708560540753;-1.3400328523587177;1.421;0.013626487216130476
23:46.1;-0.03741121808988496;-0.2235073590491358;-1.3386379934787342;1.4769999999999999;0.01119326595630172
23:46.1;-0.03244658489347407;-0.20585632398538467;-1.3252260811268826;1.4769999999999999;0.008851628538480635
23:46.1;-0.027551934497823095;-0.19154014660991014;-1.2996876651678646;1.4769999999999999;0.006858843759928617
23:46.1;-0.02357111496680088;-0.1812075699144924;-1.262853998617058;1.4080000000000001;0.005393983406640849
23:46.1;-0.02134949941961806;-0.17510658477325416;-1.2164908354347435;1.3030000000000002;0.004547775480671902
23:46.1;-0.021556699181018938;-0.17305469529044482;-1.1631522988745233;1.18;0.00433912570270705
23:46.1;-0.024520420268974382;-0.17446448746979407;-1.1059166473611781;1.068;0.004731047887775577
23:46.1;-0.03011176522657675;-0.1784232238360662;-1.0480497370370658;0.978;0.00563079208112901
23:46.1;-0.037712047220856984;-0.18381646237771726;-0.9926531073980667;0.9109999999999999;0.006881165750885974
23:46.1;-0.04627286292433837;-0.18947520751952837;-0.9423496604547531;0.861;0.008262107476538584
23:46.2;-0.054462286693125285;-0.19432107655726902;-0.8990463933110459;0.8170000000000001;0.009514760981904983
23:46.2;-0.06087039420890391;-0.19748737745637293;-0.863798347829757;0.8170000000000001;0.0103838361348688
23:46.2;-0.06422969949993751;-0.19840330870085596;-0.8367841882141271;0.8170000000000001;0.01066346298667965
23:46.2;-0.0636035581653078;-0.19683784836686882;-0.8173898378388411;0.836;0.01023338362727935
23:46.2;-0.05851245653529444;-0.19290517581683153;-0.8043820005696194;0.8640000000000001;0.009079345771506998
23:46.2;-0.04898878681394027;-0.18703548728792535;-0.7961412836069621;0.885;0.00729475725531457
23:46.2;-0.03556283241768108;-0.17991657180417073;-0.790917308659713;0.894;0.005060560140208834
23:46.2;-0.01918947567694135;-0.1724132869074384;-0.7870667848708556;0.893;0.002604026652031404
23:46.2;-0.0011304995848261715;-0.16547354388985622;-0.783241177968011;0.88;0.000146519182623708
23:46.2;0.017190085728200945;-0.1600304128580055;-0.7785020805866587;0.853;0.002141609801383426
23:46.3;0.03434037519048318;-0.1569104053506095;-0.7723572307572963;0.762;0.0041617405001818115
23:46.3;0.04902713584216752;-0.15675689394978382;-0.7647280324640989;0.762;0.005877196110012784
23:46.3;0.060216826120548524;-0.15997426346375154;-0.7558762466998035;0.762;0.007281463526346116
23:46.3;0.06721731739026862;-0.16669468064359222;-0.7463214900980311;0.754;0.008362360087409551
23:46.3;0.06971546062461703;-0.17676806948096016;-0.7367688211136988;0.755;0.00907954653918739
23:46.3;0.06777242999564118;-0.1897762887640996;-0.7280502902233932;0.759;0.009363891791180518
23:46.3;0.06178080487132902;-0.2050716235519348;-0.7210765807573721;0.764;0.009135672499798193
23:46.3;0.052389851615748335;-0.22183697142012232;-0.716792220396909;0.7659999999999999;0.008330563497378991
23:46.3;0.040410822752726186;-0.2391627374834894;-0.7161267257291276;0.765;0.006921195077484682
23:46.3;0.026718321341889225;-0.25613460676560224;-0.7199355458120189;0.772;0.004926869354465928
23:46.4;0.012163291740121275;-0.2719252854102809;-0.7289291110164116;0.79;0.0024109378295540376
23:46.4;-0.002491087387884004;-0.28587969801221613;-0.7435936751298384;0.79;0.0005295512099780772
23:46.4;-0.016604754923817824;-0.29757906255307903;-0.7641124108721563;0.79;0.0037756531844551685
23:46.4;-0.02966744789615553;-0.3068711969451721;-0.7902992139671824;0.7979999999999999;0.0071949514139634865
23:46.4;-0.041283013332742174;-0.31386366855485875;-0.821560742127498;0.815;0.010645158078387021
23:46.4;-0.05114206389074603;-0.31888539674138355;-0.8569031984919422;0.858;0.013974769251951463
23:46.4;-0.05899503281407526;-0.32242539720765345;-0.8949970341212411;0.924;0.017024183299625722
23:46.4;-0.06463639802286637;-0.32505683872782504;-0.9343028975051596;1.0070000000000001;0.019630174025337874
23:46.4;-0.06790663947185069;-0.32735441517795905;-0.9732463537058255;1.087;0.021634817047357896
23:46.4;-0.06871143642928437;-0.3298139692205579;-1.0104124085369275;1.1440000000000001;0.022897957494175402
23:46.5;-0.06705034758824172;-0.33278354003856214;-1.0447215611759368;1.189;0.023311135496979947
23:46.5;-0.06304351488604536;-0.3364124814582227;-1.0755519381128205;1.189;0.02281097802747667
23:46.5;-0.056946300490889466;-0.34062075804628184;-1.1027858854991137;1.189;0.021390839322694314
23:46.5;-0.04914571026526764;-0.3450876591167867;-1.1267782808845306;1.197;0.019109684268521797
23:46.5;-0.040135869148676444;-0.34925976134071274;-1.1482596057114447;1.206;0.01609612411630432
23:46.5;-0.03047324401069734;-0.35237965594033266;-1.1681935406185986;1.207;0.012544238916607957
23:46.5;-0.02071699622101318;-0.35353750314659693;-1.1876080724516807;1.203;0.008698320749096695
23:46.5;-0.011363673141957407;-0.35174713901441557;-1.2074173995910222;1.209;0.0048262158006682114
23:46.5;-0.0027863520426906693;-0.3460469068917367;-1.2282523633299673;1.226;0.0011842913760955903
23:46.5;0.004812043839120141;-0.33562090349307466;-1.250317455058155;1.236;0.0020192908232291875
23:46.6;0.011421410587013785;-0.3199292214963731;-1.2732905386126498;1.264;0.004652658376392603
23:46.6;0.01721481420354028;-0.2988291225137801;-1.2962781702531516;1.264;0.006668428006041403
23:46.6;0.022504358994861532;-0.27266542273832134;-1.3178364485194138;1.298;0.00808645603833922
23:46.6;0.027669263638448488;-0.2423082739759668;-1.3360643501070255;1.328;0.00895763209800953
23:46.6;0.03307006685573221;-0.2091210476585864;-1.3487703887729596;1.37;0.009327619929237129
23:46.6;0.03896625986241962;-0.1748526214646533;-1.3537016964845363;1.406;0.009223247089267165
23:46.6;0.04545366665943745;-0.14146632336696696;-1.3488103182611617;1.423;0.00867307034528392
23:46.6;0.05243316496392572;-0.11093467331846076;-1.3325214736292514;1.43;0.0077508190597944705
23:46.6;0.05961584015234771;-0.0850356407476538;-1.3039668686240335;1.4140000000000001;0.006610422441993077
23:46.6;0.06656312773260749;-0.06518016745974113;-1.2631515039675845;1.3769999999999998;0.005480303825357993
23:46.6;0.07275438744252581;-0.052288845789152195;-1.211031149784948;1.318;0.004607056708309528
23:46.7;0.07766887656287669;-0.04672608257919107;-1.149487836855355;1.222;0.004171677967929932
23:46.7;0.0808658407010635;-0.048294553405373836;-1.0812027550376018;1.114;0.00422250725046331
23:46.7;0.0820478545493391;-0.056287411443866904;-1.0094398369265292;1.013;0.004661856981105963
23:46.7;0.08109832174636886;-0.069588718204838;-0.9377659057603557;0.909;0.0052923083893852835
23:46.7;0.07809041510436456;-0.08680690426591868;-0.8697403820975458;0.81;0.005895784959092923
23:46.7;0.07326927515154863;-0.106424346176777;-0.8086089581122035;0.7290000000000001;0.006305237272811048
23:46.7;0.06701304791857125;-0.12694707242542438;-0.7570340758375843;0.6759999999999999;0.006440172344315553
23:46.7;0.059781804286859544;-0.14704032624835356;-0.7168907814884364;0.653;0.006301710848926744
23:46.7;0.05206447550514074;-0.16563818391495685;-0.6891478456679334;0.6509999999999999;0.00594311810265477
23:46.7;0.04433160409398353;-0.1820185412783921;-0.6738415182657311;0.664;0.005437344398474655
23:46.8;0.03699784255352409;-0.19583770189550287;-0.670136519352884;0.68;0.004855522709582066
23:46.8;0.03039516642544396;-0.2071215991480929;-0.6764596782791503;0.701;0.0042586488445804085
23:46.8;0.024756544045948098;-0.21621486381234717;-0.6906873705661822;0.73;0.003697064942532657
23:46.8;0.02020981637722636;-0.223695457550846;-0.7103670293914601;0.759;0.003211458608947593
23:46.8;0.016781653329543404;-0.23026913825827125;-0.7329534155755721;0.8;0.002832349575550015
23:46.8;0.014410612745271952;-0.23666043467454664;-0.7560410447602227;0.845;0.00257841891837247
23:46.8;0.012966514904876925;-0.24351416948500076;-0.7775742404211485;0.895;0.002455214075471851
23:46.8;0.012271678920779851;-0.25131732336244395;-0.7960148522257665;0.9159999999999999;0.0024549778631629614
23:46.8;0.012119794373556493;-0.26034793426396885;-0.8104470692970139;0.917;0.002557255043486163
23:46.9;0.012291374853878101;-0.270654637600671;-0.8206044663336616;0.8809999999999999;0.002729919326280953
23:46.9;0.012568710934960139;-0.28206579752147126;-0.8268188021259356;0.8809999999999999;0.0029312408894060686
23:46.9;0.012754046947937268;-0.2942228525276639;-0.8299068029318732;0.87;0.0031142518966765184
23:46.9;0.012691735346428682;-0.30663102083387955;-0.831020230550747;0.863;0.0032340646158963674
23:46.9;0.012290809201110812;-0.31872050964572307;-0.8314838163654371;0.862;0.0032571989699787113
23:46.9;0.011540547889179381;-0.32991074619679084;-0.8326408727880206;0.871;0.00317015586451177
23:46.9;0.010510350836646861;-0.339670393186569;-0.835720821305604;0.882;0.002983569297719593
23:46.9;0.009329480578352206;-0.34756823243129736;-0.8417361602545125;0.89;0.0027294398294517293
23:46.9;0.008151191160607212;-0.3533124427143176;-0.8514103377302623;0.905;0.0024519913269594558
23:46.9;0.007113757966560156;-0.35677690458369926;-0.8651349644333121;0.925;0.002195733776430677
23:47.0;0.006312700556926191;-0.3580133760613873;-0.882953701614817;0.961;0.0019955029477543218
23:47.0;0.005793384503014399;-0.35724849297301126;-0.9045682421529928;0.9740000000000001;0.0018721648843714322
23:47.0;0.005564572106458284;-0.35486531248993197;-0.9293596052080539;0.9740000000000001;0.0018351818953692258
23:47.0;0.005626277093244818;-0.3513704227008546;-0.956419934920398;0.9890000000000001;0.0018907536090592622
23:47.0;0.0060022860045436145;-0.34734835533657976;-0.9845974710638449;1.004;0.002052771683151188
23:47.0;0.0067673968837517655;-0.34340507359756856;-1.0125642835996616;1.037;0.0023531572976533584
23:47.0;0.008059846894201382;-0.3401027563263769;-1.0389163122390876;1.081;0.002847852611019869
23:47.0;0.010072358648686894;-0.3378893340218491;-1.0623078235786383;1.137;0.0036153974233806055
23:47.0;0.013022760247095855;-0.33702844035063645;-1.0816102787506419;1.199;0.004747231399923954
23:47.0;0.017114702443881098;-0.3375391927471013;-1.096071755893016;1.242;0.006331878125715393
23:47.1;0.02250431905621808;-0.33915887751167717;-1.105442920465221;1.222;0.008437336855236226
23:47.1;0.029284215747715094;-0.34134122173597997;-1.1100369252673536;1.222;0.011095829180453144
23:47.1;0.03748415867892891;-0.3432974515361538;-1.11070523243166;1.222;0.014292795007037732
23:47.1;0.04707909206587694;-0.3440806091026222;-1.108728796903378;1.198;0.017960300745806748
23:47.1;0.057994956606780626;-0.3427072847831873;-1.1056350080013364;1.15;0.02197482096214921
23:47.1;0.07010463129490443;-0.33830222820832323;-1.102959996674406;1.089;0.02615840919020178
23:47.1;0.0832076757422094;-0.3302425796876855;-1.1019900434347174;1.047;0.030281273076945357
23:47.1;0.0969946350281027;-0.318276618822165;-1.1035292349567387;1.043;0.03406718838036879
23:47.1;0.11100861461297049;-0.30259566513953895;-1.107742776736847;1.053;0.03720988362108976
23:47.1;0.12462466778669588;-0.2838409600674371;-1.1141132434901166;1.074;0.03941017991112781
23:47.2;0.1370663842532461;-0.26303398164558395;-1.121523563189607;1.207;0.0404344200175092
23:47.2;0.14746804814140957;-0.24143834345779744;-1.128448751340888;1.207;0.040177787277767676
23:47.2;0.15497322365037072;-0.22038721959921362;-1.1332077796858486;1.207;0.03870371208157441
23:47.2;0.15884941811292932;-0.2011178917201214;-1.1342174710729716;1.2429999999999999;0.03623536736988757
23:47.2;0.15860058881520828;-0.18463821671606603;-1.1302067377122813;1.248;0.03309666882584696
23:47.2;0.15406342037691442;-0.1716319849812096;-1.1203695221837877;1.222;0.029625046913982888
23:47.2;0.1454710878283979;-0.16240673701199101;-1.1044443716342385;1.18;0.026093033608237032
23:47.2;0.13346720355127004;-0.15688879789330523;-1.0827168181891045;1.1320000000000001;0.022671558692464233
23:47.2;0.11905968664983406;-0.1546656923223596;-1.0559531043739105;1.084;0.019444794442620508
23:47.2;0.10351656641748463;-0.15506772426629084;-1.0252833084119721;1.046;0.016457928026509368
23:47.3;0.0882181309667632;-0.15727402466020052;-0.9920549412455736;0.93;0.01376418741904653
23:47.3;0.0744901899780084;-0.16042626806780852;-0.9576796625352547;0.93;0.01144444740064394
23:47.3;0.06344910067428305;-0.1637347722628553;-0.9234977735203995;0.93;0.009594055878919112
23:47.3;0.055884852032088324;-0.16656569785508607;-0.890678996531044;0.8959999999999999;0.008290884885432243
23:47.3;0.052193945867755775;-0.16850288952862905;-0.8601618479478457;0.8590000000000001;0.007564977822670792
23:47.3;0.05236006179150321;-0.16938077636945006;-0.8326227923219461;0.826;0.007384354959961339
23:47.3;0.05597571297238492;-0.1692860990685814;-0.8084690727056418;0.809;0.007660980244860648
23:47.3;0.062299245278757465;-0.16852926995135695;-0.7878552532933634;0.805;0.008271886373047658
23:47.3;0.07034253475384568;-0.16759070169469892;-0.7707227678800653;0.802;0.009085861697238497
23:47.3;0.07898298765690934;-0.1670505219614241;-0.7568558131718778;0.7959999999999999;0.009986068608279301
23:47.4;0.08708926021334132;-0.16751104756437238;-0.7459424982182208;0.772;0.01088211739486459
23:47.4;0.09364485480078187;-0.1695213612759495;-0.7376316502207257;0.772;0.011709757327312382
23:47.4;0.09785024114300643;-0.17351249120473305;-0.7315815862758457;0.772;0.01242096709712366
23:47.4;0.09918693054589293;-0.17974976068115017;-0.7275013763707747;0.763;0.01297049620218081
23:47.4;0.09743679317605772;-0.18830636223569294;-0.7251847902278961;0.76;0.01330566737660014
23:47.4;0.09266133043750893;-0.1990594004353978;-0.7245357793607233;0.7659999999999999;0.01336414133808068
23:47.4;0.08515316574935128;-0.21170628269723776;-0.725584551474238;0.7759999999999999;0.013080446609430649
23:47.4;0.0753741881570422;-0.22579627889345455;-0.7284932161646148;0.7829999999999999;0.012398379911303959
23:47.4;0.06389230969055885;-0.2407712832746359;-0.7335487915286613;0.784;0.011284498976886654
23:47.4;0.0513239070089914;-0.2560118677124083;-0.7411412955862546;0.785;0.009738247762621737
23:47.5;0.038284815941852804;-0.27088718217813773;-0.7517269014963349;0.828;0.007796058896882336
23:47.5;0.0253516179174273;-0.28480644921610626;-0.7657782535559859;0.828;0.005529152002405551
23:47.5;0.013036118512849049;-0.29726622305443634;-0.7837239207560619;0.828;0.003037085145811165
23:47.5;0.0017750524794702207;-0.30788721294470733;-0.8058794417113522;0.8490000000000001;0.000440425977323206
23:47.5;-0.00806757816373781;-0.3164391569696827;-0.8323761181244499;0.871;0.0021249710216592246
23:47.5;-0.016192340056280112;-0.3228555225694287;-0.8630974518945956;0.89;0.0045120891299450195
23:47.5;-0.02235745291106872;-0.32723811062098285;-0.8976339368058261;0.915;0.006567278967286926
23:47.5;-0.026377423767710625;-0.32984905597858494;-0.9352665078063329;0.951;0.008137350156925412
23:47.5;-0.028127726190404097;-0.3310876424238002;-0.974988140381007;0.997;0.00907981354176656
23:47.5;-0.027553009954812184;-0.33145121832252716;-1.0155696316546103;1.05;0.009274668047707659
23:47.6;-0.024675690257145035;-0.3314823567306918;-1.0556671784869136;1.192;0.008634888761986015
23:47.6;-0.01960299786016253;-0.331707666905228;-1.0939548686347094;1.192;0.007113402899780735
23:47.6;-0.012531485827367564;-0.3325759227300038;-1.129251180072017;1.192;0.0047063467876072755
23:47.6;-0.0037473203233544493;-0.3344027938972034;-1.1606106960020577;1.23;0.0014543779594242026
23:47.6;0.006380663096674818;-0.337326667870509;-1.187372128893074;1.254;0.0025556615620258884
23:47.6;0.01741829378189524;-0.34127736528030267;-1.2091703124507265;1.2690000000000001;0.007187875933315667
23:47.6;0.028895301469769444;-0.3459594092695199;-1.2259208820866743;1.281;0.012255042439435886
23:47.6;0.040345579998137544;-0.3508539462743999;-1.2377818433684837;1.2919999999999998;0.017521304479178813
23:47.6;0.05135505863468182;-0.3552460540389599;-1.2450947527510698;1.3030000000000002;0.022715112648016095
23:47.6;0.06161034126619357;-0.3582838946444654;-1.2483081139951777;1.3090000000000002;0.027555144594173298
23:47.7;0.07093696079790292;-0.3590707646189197;-1.2478862513711562;1.251;0.03178539582875432
23:47.7;0.07931353077586266;-0.3567807488757837;-1.2442126493609016;1.251;0.035208158341295114
23:47.7;0.0868512194799463;-0.3507784313066441;-1.2375076304530128;1.22;0.03770133144205742
23:47.7;0.09373828807724437;-0.34072024780373544;-1.227786804027222;1.228;0.0392137090410814
23:47.7;0.10016347071135175;-0.3266198350152282;-1.2148809027799639;1.258;0.03974528586776045
23:47.7;0.10624220014511807;-0.3088657583595534;-1.198521345825321;1.2830000000000001;0.039328971848798744
23:47.7;0.11196946815090322;-0.2881861121260438;-1.178474933363222;1.295;0.03802708300987501
23:47.7;0.11721245784668739;-0.2655644560426567;-1.1546926074167176;1.28;0.03594265096280496
23:47.7;0.12174123847140654;-0.24212324847150338;-1.1274300592856552;1.238;0.03323256150906266
23:47.7;0.1252842231973678;-0.21899767141904608;-1.0973058818889327;1.177;0.030106730067961822
23:47.7;0.12759096468477993;-0.1972223204712252;-1.0652813528019822;1.109;0.026806512126238698
23:47.8;0.1284869844412677;-0.17764771249260788;-1.03256673618428;1.04;0.023568768265734154
23:47.8;0.12790968637131708;-0.16089498767434132;-1.0004757004329667;0.973;0.02058981734009235
23:47.8;0.12591911397030112;-0.14734799543993868;-0.9702589155758758;0.9259999999999999;0.018002115061383984
23:47.8;0.12268280083336668;-0.1371751858865315;-0.9429495132760309;0.898;0.01586893131396607
23:47.8;0.11843969907244575;-0.1303705012061877;-0.9192474412393674;0.878;0.014194139204191148
23:47.8;0.11345226614572039;-0.12680167309358029;-0.8994591665938169;0.866;0.01293956305178466
23:47.8;0.10795731491220419;-0.12625500559521913;-0.8834978441591892;0.872;0.012042209375948309
23:47.8;0.10212584778320194;-0.12846825592990366;-0.870939431233857;0.897;0.011426663980166911
23:47.8;0.09604037891298568;-0.13314837284890849;-0.8611211103570181;0.915;0.011011689688274208
23:47.9;0.08969473700804259;-0.13997762297307184;-0.8532595608330005;0.91;0.010712892288608817
23:47.9;0.08301601320665444;-0.14861637171319905;-0.8465628873282408;0.894;0.010444502364813217
23:47.9;0.0759030577198986;-0.158710053754718;-0.8403160995812242;0.873;0.010122933749911175
23:47.9;0.06827295073574483;-0.1699027145290727;-0.8339332899824567;0.858;0.009673425735362846
23:47.9;0.06010616937764022;-0.1818546287948613;-0.8269819351033805;0.852;0.009039396434723464
23:47.9;0.05148126830949176;-0.19425994114893055;-0.819190267018553;0.845;0.008192515549082941
23:47.9;0.04259069383409473;-0.20686112754918082;-0.810447578171831;0.8370000000000001;0.007140334073546298
23:47.9;0.03373249493521478;-0.2194583584646422;-0.8008033965950565;0.833;0.005928249819270295
23:47.9;0.025278707072616577;-0.23191292210094394;-0.7904677732901682;0.8370000000000001;0.004634084772726649
23:47.9;0.017627432557214724;-0.24414481702471763;-0.7798116690594858;0.8390000000000001;0.0033560336013568346
23:47.9;0.011148615921349758;-0.25612523303016416;-0.769363018385521;0.8320000000000001;0.002196871361170833
23:48.0;0.006132929517275227;-0.26786460161499737;-0.7597919707851932;0.82;0.001248182239331037
23:48.0;0.002751811899515282;-0.2793964420473326;-0.7518802607362741;0.809;0.0005780804722305683
23:48.0;0.0010359969396118174;-0.29075731959507395;-0.7464739024290088;0.8079999999999999;0.00022485562581950862
23:48.0;0.0008780583849592171;-0.301964600132945;-0.7444220099776888;0.8009999999999999;0.0001973779493372798
23:48.0;0.002059729410223648;-0.312995561360909;-0.7465057453298075;0.7929999999999999;0.0004812619246175066
23:48.0;0.004298303956914043;-0.32377221260224864;-0.7533622228868212;0.79;0.001048432646298696
23:48.0;0.0073013689085003825;-0.33415554865315894;-0.7654108576984299;0.7929999999999999;0.0018674440018667015
23:48.0;0.010817217711080466;-0.3439519240327658;-0.7827930664992043;0.804;0.00291246210979936
23:48.0;0.014669450412232556;-0.3529330648591655;-0.8053381278424823;0.826;0.004169504546306915
23:48.1;0.01876811209249936;-0.36086866822191643;-0.8325660700960473;0.96;0.005638823141310169
23:48.1;0.023096259605244744;-0.36756561236860874;-0.8637285708116224;0.96;0.007332529387259307
23:48.1;0.027678414253298145;-0.3729029989224187;-0.897873554547141;0.96;0.009267279495559064
23:48.1;0.03254182649594155;-0.37685252966490607;-0.9339142367944465;1.0090000000000001;0.011453028884540745
23:48.1;0.037680982948153655;-0.3794795932046282;-0.9706950922699761;1.052;0.013880128396714032
23:48.1;0.04303323527479352;-0.38092653356941475;-1.0070580296299154;1.091;0.016508199900269315
23:48.1;0.048470834694004934;-0.3813823426404678;-1.04190957664923;1.125;0.019260657586850326
23:48.1;0.0538106634661126;-0.3810436323259777;-1.0742836010386876;1.1540000000000001;0.022027337269650272
23:48.1;0.05883786720653319;-0.3800720045292125;-1.1033933075138784;1.177;0.02467477201183353
23:48.1;0.06333632363231213;-0.37855332989056745;-1.128669113080998;1.194;0.02706116954257244
23:48.2;0.06711868288657231;-0.376464769795802;-1.149781479024823;1.249;0.029052470878616368
23:48.2;0.07005063935258596;-0.37365589632054197;-1.166646978178877;1.249;0.03053679149806229
23:48.2;0.07206730695138623;-0.3698512425902269;-1.1794119286994003;1.249;0.03143626141072118
23:48.2;0.07318275278038938;-0.36468101078902293;-1.1884069165641509;1.262;0.03171663192031369
23:48.2;0.07349441998958008;-0.3577418539371377;-1.1940710207588825;1.2590000000000001;0.031394551172889265
23:48.2;0.07318103167355308;-0.3486809508998313;-1.196851817567866;1.225;0.030539866412799495
23:48.2;0.07248794603246622;-0.3372871739322709;-1.1970940228261673;1.179;0.029268056378352413
23:48.2;0.07169351170161418;-0.3235681485114109;-1.19493893065538;1.153;0.027719878855093524
23:48.2;0.07105756486542905;-0.3077945600739228;-1.190265358052279;1.158;0.026032450663004785
23:48.2;0.07076487697327678;-0.2904993421426236;-1.1827013091629837;1.1840000000000002;0.024312968463118364
23:48.3;0.07088303262870119;-0.2724259674903198;-1.1717192471823152;1.252;0.022626342442993056
23:48.3;0.07135004509864312;-0.2544321008527654;-1.1568001375248718;1.252;0.021000251092255083
23:48.3;0.07199490402401762;-0.23737197126315154;-1.1376245633555029;1.252;0.019441517213299737
23:48.3;0.07258405934153052;-0.22198696966429354;-1.1142396161477728;1.23;0.01795342579917313
23:48.3;0.07288413656555114;-0.20882228011563636;-1.0871616509530346;1.193;0.01654641722978142
23:48.3;0.07273096664769298;-0.19817419743532558;-1.0573942618765977;1.138;0.015240647452420177
23:48.3;0.07209246443762429;-0.1900699924343738;-1.026357315910769;1.069;0.014063778300722867
23:48.3;0.07111086512161378;-0.18428263650351864;-0.9957370904759866;0.9990000000000001;0.013048634420567449
23:48.3;0.07011178685772144;-0.18037961215388354;-0.967280740228413;0.9420000000000001;0.012232945050236591
23:48.3;0.06957260643635196;-0.1778002845898385;-0.9425675358416851;0.8959999999999999;0.011659587963993209
23:48.4;0.07004944433384164;-0.17595179066761954;-0.9227921481773396;0.8420000000000001;0.011373713286743114
23:48.4;0.07207227986248747;-0.1743089446277013;-0.9085928923681232;0.8420000000000001;0.011414509893846403
23:48.4;0.07602999623447207;-0.17250083766969085;-0.8999519365584826;0.8420000000000001;0.011803083871146437
23:48.4;0.08207258033197541;-0.17036860590783928;-0.896184032299822;0.861;0.012530974868994927
23:48.4;0.09005167753999911;-0.16798534870997295;-0.896015838662033;0.893;0.013554356355494764
23:48.4;0.09951073805369531;-0.16563712228534153;-0.8977435273146007;0.929;0.014797212359134474
23:48.4;0.10972809325570095;-0.16377100446201462;-0.8994450620528857;0.96;0.01616327965484886
23:48.4;0.11980788313566365;-0.16292182698097749;-0.8992163220002152;0.985;0.017552090425433736
23:48.4;0.12880351931556158;-0.16363189817513668;-0.8953984562040425;0.9990000000000001;0.018871744107869487
23:48.4;0.1358500261030947;-0.16637694937475234;-0.8867676947058892;0.998;0.02004300091911094
23:48.5;0.14027915301660412;-0.17150802619630418;-0.8726667151608513;0.9470000000000001;0.02099548906760864
23:48.5;0.14169625634642002;-0.17921448026070633;-0.8530674852914083;0.9470000000000001;0.021662813581320682
23:48.5;0.14000867003937514;-0.18950823640158598;-0.8285667941029903;0.898;0.021984193836385512
23:48.5;0.13540707921318323;-0.20222623001341283;-0.8003226829479884;0.848;0.02191512650013213
23:48.5;0.12831116812519944;-0.21704744389741165;-0.7699426458559748;0.804;0.021442603229496423
23:48.5;0.11929697855098152;-0.23352102705324548;-0.739337525857386;0.767;0.020596725748636028
23:48.5;0.10902349781996307;-0.2511012312085199;-0.7105584057287762;0.7340000000000001;0.01945220039728297
23:48.5;0.09816964742047266;-0.2691851132976193;-0.6856337546070245;0.711;0.01811842572668902
23:48.5;0.08738454477219822;-0.28715110267304994;-0.6664208293418235;0.698;0.01672221023539355
23:48.5;0.07724859899394663;-0.3043991064101518;-0.6544811768479512;0.695;0.01538973513343781
23:48.6;0.06824220516363187;-0.32039340005360345;-0.6509856597031706;0.732;0.0142333797015354
23:48.6;0.06072153565471281;-0.3347063073610709;-0.6566494973262984;0.732;0.013345666226795443
23:48.6;0.054904334311281076;-0.3470555601569682;-0.6716937121450173;0.732;0.01279902595311681
23:48.6;0.050868894674929055;-0.3573275170188006;-0.6958293839074081;0.757;0.012647990391950643
23:48.6;0.04856592416320548;-0.3655836795514054;-0.7282658156941647;0.7909999999999999;0.012930293472187417
23:48.6;0.04783932550258769;-0.3720523370811865;-0.767747932574434;0.833;0.013664940353886516
23:48.6;0.04845091663862175;-0.377106954036759;-0.8126273674732744;0.878;0.01484765894875103
23:48.6;0.05010535428972951;-0.381231806646612;-0.86096749537395;0.9259999999999999;0.01644598993449012
23:48.6;0.05247345146024084;-0.3849757767958867;-0.9106793216384977;0.98;0.018396640022406652
23:48.6;0.05521382963748784;-0.3888961056275892;-0.9596833773479013;1.043;0.020606746927940116
23:48.7;0.05799428449860309;-0.39349505360042064;-1.0060886303710976;1.205;0.02295940945802032
23:48.7;0.06051467153529789;-0.39915416504832496;-1.0483675092776414;1.205;0.025322985053128806
23:48.7;0.06253174908432241;-0.406072565773771;-1.0854919563395102;1.205;0.027563276121225132
23:48.7;0.06388468176104682;-0.41421653813490794;-1.1169978515217684;1.23;0.02955809959679569
23:48.7;0.06451960885125578;-0.42328741649025303;-1.1429684504863342;1.242;0.031214855327446812
23:48.7;0.0645116464202663;-0.4327139876845784;-1.163949568118649;1.244;0.03249175901505091
23:48.7;0.06408123321876516;-0.4416740344040538;-1.1808156778318486;1.242;0.03342064597365905
23:48.7;0.06359966514588754;-0.4491473005797854;-1.194605676273552;1.242;0.034124649311168376
23:48.7;0.0635775059030129;-0.4539994126640329;-1.206348027366706;1.251;0.03482021082260055
23:48.7;0.06462954566658033;-0.45509327553602663;-1.2168950691447429;1.264;0.0357918917025421
23:48.8;0.06741146557049106;-0.4514198947710381;-1.2267834369482045;1.263;0.03733209550024853
23:48.8;0.07252919198878459;-0.4422337470168545;-1.23613430155966;1.263;0.03964883014108552
23:48.8;0.08043296533185826;-0.42717184785527823;-1.2446058235980186;1.263;0.042763036156341715
23:48.8;0.0913171011551067;-0.4063350089832462;-1.251409397169913;1.2890000000000001;0.04643396505203459
23:48.8;0.10504705420655745;-0.38031471911554865;-1.2553964273727332;1.319;0.05015426849422075
23:48.8;0.12113178649324467;-0.35015752179193876;-1.2552103905645697;1.344;0.05324000750089669
23:48.8;0.13875430201072736;-0.31727025899690314;-1.2494825362127353;1.3519999999999999;0.05500548656162541
23:48.8;0.15686180858835871;-0.2832821532046229;-1.2370372960485738;1.35;0.05496917594684194
23:48.8;0.1742995671912012;-0.249887846448164;-1.217071942135643;1.335;0.05300998648233474
23:48.8;0.18995805435532295;-0.21869558954813362;-1.189283075251675;1.3;0.04940637334040913
23:48.9;0.20289995834718302;-0.19109910335525712;-1.153925301604055;1.181;0.04474229977244175
23:48.9;0.21244312876128132;-0.16818486373062466;-1.1118029559985112;1.181;0.03972440682454362
23:48.9;0.2181918412891344;-0.15068013786856058;-1.0642097995823407;1.114;0.03498821365573126
23:48.9;0.22002311707377828;-0.13893983579944535;-1.0128350357035931;1.053;0.03096234248862882
23:48.9;0.21804335580593978;-0.13296368779610582;-0.9596468070924138;0.992;0.027821935024566147
23:48.9;0.21253376040232555;-0.13243335930298739;-0.9067584426149577;0.932;0.025522130779429622
23:48.9;0.203901360273913;-0.13676213199727374;-0.8562830085180381;0.872;0.023878294915680724
23:48.9;0.19264578705321084;-0.14515373864455935;-0.8101838149875978;0.813;0.02265537760776291
23:48.9;0.17934212678939881;-0.15666875105210107;-0.7701308357071264;0.765;0.021638602532676125
23:48.9;0.1646310603923218;-0.17029684172397835;-0.7373758919026915;0.726;0.020673180842243444
23:49.0;0.1492036652775929;-0.1850325644841795;-0.7126609556079926;0.698;0.01967481356980942
23:49.0;0.1337722767954892;-0.1999505713120182;-0.696172226436756;0.698;0.01862110553271363
23:49.0;0.11902754068832005;-0.21427344314153152;-0.6875476026821061;0.706;0.017535517248014998
23:49.0;0.10558800779802201;-0.22742456480615997;-0.6859375510259358;0.722;0.01647162880507051
23:49.0;0.09394995798993397;-0.23906069367142765;-0.6901114196530095;0.741;0.015499724524632346
23:49.0;0.08444500588439784;-0.24908091277340605;-0.698596021405276;0.764;0.014694016622260515
23:49.0;0.07721235834436979;-0.257609731592543;-0.709831672243742;0.7859999999999999;0.014119016835880164
23:49.0;0.07219015572958115;-0.2649547869857864;-0.7223310082369518;0.807;0.013816117171701704
23:49.0;0.06912768489733495;-0.27154435003195004;-0.7348261847936327;0.83;0.013793592988915446
23:49.0;0.06761898944385951;-0.2778540294797827;-0.7463903838844516;0.8490000000000001;0.014023338293888988
23:49.1;0.0671568818267563;-0.28433332381728066;-0.7565205669739948;0.866;0.01444571440165263
23:49.1;0.0672017873748601;-0.2913412992870921;-0.7651707104779676;0.866;0.014981014158610037
23:49.1;0.06725324771363372;-0.29909883906608686;-0.7727287255356097;0.866;0.015543722921398459
23:49.1;0.06690929784401306;-0.3076639255495474;-0.7799359388288714;0.848;0.016055431503567544
23:49.1;0.06590332257597145;-0.3169352096957492;-0.7877554215656505;0.825;0.016453913157740162
23:49.1;0.0641149262864872;-0.3266855772281837;-0.7972047906473241;0.813;0.016697790523635285
23:49.1;0.061556715418319675;-0.336621192117631;-0.8091786846674095;0.8190000000000001;0.016767230173603383
23:49.1;0.05834314534722749;-0.3464547643423751;-0.8242913376136515;0.835;0.016661615677076084
23:49.1;0.05465066306778417;-0.3559772208167768;-0.8427672049636274;0.863;0.01639552285768519
23:49.1;0.05067841686903656;-0.36511110829689924;-0.8643989409956666;0.899;0.01599419225477015
23:49.2;0.04661560016280136;-0.37393245120931057;-0.8885795072302255;1.015;0.015488905482676146
23:49.2;0.042617574015698774;-0.38265522316262146;-0.914397849163712;1.015;0.014911851347632869
23:49.2;0.03879091947611319;-0.391582016144288;-0.9407699854002459;1.015;0.014290132813758114
23:49.2;0.035187234327772765;-0.4010315986299824;-0.966574542641272;1.056;0.013639519759486383
23:49.2;0.031805124396027874;-0.41125659019233146;-0.9907765392436605;1.099;0.012959423524998608
23:49.2;0.028599672622497796;-0.42236468092276164;-1.0125353361971499;1.1340000000000001;0.01223091209001464
23:49.2;0.025499345034979595;-0.434256134525514;-1.0312900322369467;1.16;0.01141972926366504
23:49.2;0.02243078497327541;-0.4465873755487104;-1.0468096835062943;1.165;0.010486212287731285
23:49.2;0.019351301635320325;-0.45876580226677083;-1.0591981693945394;1.16;0.009403259920882012
23:49.2;0.016287291940310384;-0.4699769697119145;-1.0688532194932459;1.15;0.008181699552858
23:49.3;0.013374617926486343;-0.4792421234755244;-1.0763901430457465;1.177;0.006899316690433978
23:49.3;0.010893814742211986;-0.4855002435852124;-1.0825472002656644;1.177;0.005725537701898116
23:49.3;0.00928951838659787;-0.4877051032638106;-1.0880882017507336;1.177;0.004929633132166374
23:49.3;0.009162277972797426;-0.48492740041035726;-1.0937122913552129;1.187;0.004859407064355867
23:49.3;0.011223477600511327;-0.47645417165194404;-1.0999770633905015;1.18;0.005882097342632694
23:49.3;0.01620962032137803;-0.4618784750479907;-1.10724041719919;1.188;0.008289770283115222
23:49.3;0.02476142008747081;-0.4411718599915453;-1.115625648348961;1.205;0.012187141166652619
23:49.3;0.037285900480725956;-0.414731984496364;-1.1250112083585488;1.212;0.017396785759813904
23:49.3;0.0538302978959089;-0.3833955348844752;-1.1350429804850468;1.204;0.023425352839156015
23:49.3;0.07399948932394129;-0.3484032665694766;-1.145165992724092;1.19;0.02952428462525633
23:49.4;0.09694259509209813;-0.31130767185267344;-1.154674148178857;1.21;0.03484688061310473
23:49.4;0.12141730826414357;-0.27383102449975766;-1.1627755415649423;1.21;0.038659758782977255
23:49.4;0.14591691826717448;-0.23770372115548902;-1.1686647229867857;1.21;0.04053512943263426
23:49.4;0.16883349586093802;-0.20451732771824016;-1.1715890490658714;1.22;0.04045423809301385
23:49.4;0.1886380593051984;-0.17560842944681893;-1.1708998488898217;1.227;0.03878773577857807
23:49.4;0.20406419212872692;-0.15197293519410401;-1.1660849222284868;1.224;0.03616289875866421
23:49.4;0.21427279806098495;-0.13421107569745208;-1.1567813819590682;1.209;0.03326646763746125
23:49.4;0.218966794249697;-0.12250854181068364;-1.1427697793521625;1.186;0.030655145211525715
23:49.4;0.2184289591908017;-0.11665761317714608;-1.1239540800899974;1.153;0.028639924651793162
23:49.4;0.21347067797399508;-0.11611613683524905;-1.100335396818463;1.11;0.02727444311123223
23:49.5;0.20529741591504302;-0.12009612751209268;-1.0719894604612297;1.033;0.026430355356886044
23:49.5;0.1953169035104429;-0.12766848564577826;-1.0390597423391363;1.033;0.025909799734411012
23:49.5;0.18493302260634498;-0.1378671276785067;-1.0017777504543879;1.033;0.025541510493469408
23:49.5;0.17536898005650006;-0.14977818469672527;-0.9605134834072949;1.02;0.025229276970531764
23:49.5;0.16754498775921642;-0.16260762856003805;-0.9158434478398623;0.9940000000000001;0.02495132419153692
23:49.5;0.1620151483201871;-0.17572698862057312;-0.868612236701671;0.955;0.02472976746537665
23:49.5;0.15895783663778196;-0.1886979442920088;-0.8199639966656096;0.905;0.02459483402154943
23:49.5;0.15820947013203854;-0.2012761283431139;-0.7713287724322591;0.85;0.02456203115363161
23:49.5;0.15932832905295255;-0.21339568237936907;-0.7243592439289123;0.7929999999999999;0.02462819799594874
23:49.5;0.16167431774657842;-0.22513815158678804;-0.6808223617607482;0.74;0.024781291991083976
23:49.6;0.16449317218665813;-0.2366906672766736;-0.6424577581579123;0.636;0.0250134495127767
23:49.6;0.16699770827878158;-0.24829839094146172;-0.6108230146875582;0.636;0.025327936496345762
23:49.6;0.16844198933348245;-0.2602153231642815;-0.5871528174760908;0.636;0.025735604757676802
23:49.6;0.16818625805761522;-0.27265768505376736;-0.5722549649742786;0.622;0.026242053745210978
23:49.6;0.16575150062226002;-0.28576578462008034;-0.5664505435599584;0.617;0.026830557411789906
23:49.6;0.1608621648947525;-0.29958110262612425;-0.5695539481022812;0.627;0.027447525091011078
23:49.6;0.1534738464082988;-0.31404321970132976;-0.5808891436172429;0.65;0.027997358531416106
23:49.6;0.14378122638816337;-0.3290068984335721;-0.5993428752926273;0.68;0.028351923913799825
23:49.6;0.1322017318815262;-0.3442749710641359;-0.6234555973628936;0.71;0.028375800584801006
23:49.6;0.11933260207292186;-0.35963969210961116;-0.6515480860897571;0.742;0.02796231998292067
23:49.7;0.10588335292278175;-0.3749245476116744;-0.6818778090708971;0.8809999999999999;0.027069368140157164
23:49.7;0.09259268207188665;-0.39001777042471786;-0.7128107245661572;0.8809999999999999;0.0257415850177134
23:49.7;0.08014606504596736;-0.4048872889109339;-0.7429826423573734;0.8809999999999999;0.02410987812641432
23:49.7;0.06911034559570535;-0.4195692797247262;-0.7714235714597054;0.9179999999999999;0.02236864370156056
23:49.7;0.05989334777146734;-0.43413091335112364;-0.7976336840493288;0.95;0.02073971512591471
23:49.7;0.05272926969364634;-0.4486160370712714;-0.8216130481521773;0.973;0.01943541769646274
23:49.7;0.047689213581291884;-0.46298516500230563;-0.8438473799839713;0.993;0.018631642507296764
23:49.7;0.044715186262703564;-0.47706021518943414;-0.8652482417180247;1.006;0.01845733392103543
23:49.7;0.04367154482961536;-0.4904835837958881;-0.88704732595249;1.014;0.01900070968072924
23:49.7;0.04440277810273673;-0.5027008953654911;-0.9106492704784226;1.02;0.020326890412873434
23:49.8;0.04678410833586017;-0.5129750134171517;-0.9374530594191626;1.0590000000000002;0.022498009658027153
23:49.8;0.05075345778219835;-0.5204332634127657;-0.9686569039196273;1.0590000000000002;0.025585897778501305
23:49.8;0.056319478956601984;-0.5241420285995186;-1.0050645725373604;1.0590000000000002;0.029668909122674732
23:49.8;0.06354726703894129;-0.5231992082405077;-1.0469139088094344;1.0959999999999999;0.03480766780169561
23:49.8;0.07252807341721536;-0.5168371916399745;-1.0937508614304625;1.1420000000000001;0.040999476112785704
23:49.8;0.08334193944920844;-0.504530290671755;-1.144370385915032;1.198;0.04811909586250979
23:49.8;0.0960223040784698;-0.4860962292330613;-1.19683733390116;1.256;0.0558636750661409
23:49.8;0.11052760834819701;-0.4617741322855862;-1.2485911026160097;1.305;0.06372657962990629
23:49.8;0.12671925512519663;-0.4322569063995015;-1.2966316926244867;1.357;0.07102335520544575
23:49.8;0.1443440657273926;-0.3986586275205963;-1.337779757562921;1.423;0.07698120791241994
23:49.9;0.1630233405593587;-0.36241056228117685;-1.3689933023624703;1.5519999999999998;0.08088201422220143
23:49.9;0.1822531646537218;-0.3251029846059524;-1.387704907452815;1.5519999999999998;0.08222296977991975
23:49.9;0.20141840206706993;-0.2883140770329727;-1.3921239979035076;1.5519999999999998;0.08084309165625594
23:49.9;0.2198212861135068;-0.2534698881304152;-1.381448448361283;1.5430000000000001;0.07697165074086151
23:49.9;0.23672650809135448;-0.22175513242926592;-1.3559530533668551;1.49;0.07118118693474143
23:49.9;0.25142106205942444;-0.19406949534402768;-1.3169496753606553;1.405;0.06425813442119731
23:49.9;0.26327790899887143;-0.17101726096805603;-1.2666326068121763;1.31;0.05703021782192717
23:49.9;0.271807839347437;-0.15292112743193434;-1.2078369526971324;1.2209999999999999;0.05020393768788748
23:49.9;0.2766888619482624;-0.13985333156115456;-1.1437480501940087;1.146;0.04425831345262689
23:49.9;0.27777129938533585;-0.13167810801250404;-1.0776004807114223;1.078;0.03941474532099582
23:50.0;0.27506323912120595;-0.12809982859989522;-1.0123980790339473;0.902;0.03567240696619673
23:50.0;0.2687047549815404;-0.12871097646864432;-0.9506819691501326;0.902;0.032879574900171064
23:50.0;0.25894157616621555;-0.13303460624600746;-0.8943738575361343;0.902;0.030809561135309492
23:50.0;0.24610736132229913;-0.14055794249447673;-0.8447118090176632;0.863;0.029220561765778287
23:50.0;0.23061725566569763;-0.1507564001344968;-0.8022713956691337;0.8290000000000001;0.02789259149362264
23:50.0;0.2129685334777323;-0.1631092485006785;-0.7670474967099684;0.804;0.026645034323773326
23:50.0;0.19374115178631535;-0.17710938961867984;-0.7385735314221653;0.794;0.025342952127016625
23:50.0;0.1735911509794445;-0.19227067355699118;-0.7160625912900646;0.792;0.023899654143415265
23:50.0;0.15323114412743236;-0.2081360711884229;-0.6985566577968936;0.7879999999999999;0.022279017416245172
23:50.0;0.13339459098257747;-0.2242885951234869;-0.6850678303967331;0.78;0.020496465914726876
23:50.1;0.11478474348119096;-0.2403649927450308;-0.6746955100888188;0.742;0.01861500702510475
23:50.1;0.09801562792017884;-0.2560694255945536;-0.6667095238429812;0.742;0.016733612691140806
23:50.1;0.08355877439375337;-0.2711808282954391;-0.6605991975134679;0.742;0.014968872388573924
23:50.1;0.07170888778771327;-0.28554799204389536;-0.656094529375314;0.737;0.013434407385762025
23:50.1;0.0625732119950023;-0.29907239498266147;-0.6531641786991113;0.731;0.01222326243073848
23:50.1;0.05608207384201911;-0.31168418890105737;-0.6519919420060556;0.7290000000000001;0.011396751141771307
23:50.1;0.05201711606978462;-0.32331741182028606;-0.6529339573179133;0.728;0.010981068979313603
23:50.1;0.0500538775753466;-0.3338895398487924;-0.6564608634555857;0.7340000000000001;0.010971079960141692
23:50.1;0.049812763094201316;-0.3432903785300775;-0.6630896404648369;0.7390000000000001;0.011338993517399861
23:50.1;0.05090973372219241;-0.35138484697081734;-0.67330950496476;0.742;0.012044772458636877
23:50.2;0.0529983631962661;-0.35803209153572707;-0.6875064171161007;0.782;0.013045513206416205
23:50.2;0.05579771323121968;-0.36311878846574847;-0.7058912479741246;0.782;0.014302202361209732
23:50.2;0.059103500708580274;-0.36659864254408775;-0.7284371124882077;0.782;0.015783238589479807
23:50.2;0.06278235656640764;-0.36852768583198386;-0.7548332715108431;0.8109999999999999;0.017464605012103014
23:50.2;0.06675121731222641;-0.3690879213670245;-0.784466049999008;0.845;0.019326943453985366
23:50.2;0.0709464101753927;-0.3685952023813013;-0.8164368871618074;0.879;0.021350238056658033
23:50.2;0.0752892530064847;-0.3674878470376016;-0.8496217984629509;0.919;0.023507238631738855
23:50.2;0.07965602323649713;-0.366293460962655;-0.8827689040402164;0.963;0.025756972428747627
23:50.2;0.08385937379187855;-0.3655750585272681;-0.9146245415081092;1.0070000000000001;0.02803954897431011
23:50.2;0.08764618098540268;-0.36586232079133085;-0.944073585835871;1.053;0.030273074448959124
23:50.3;0.09071423108904943;-0.3675776791340701;-0.9702750788118686;1.122;0.03235336310503984
23:50.3;0.092746673138534;-0.3709684101502553;-0.9927703388480127;1.122;0.03415734153844206
23:50.3;0.09345879582525572;-0.376054400642167;-1.0115404978348663;1.122;0.03555118907082523
23:50.3;0.09264927804122562;-0.3825981028739178;-1.0269989032260083;1.1179999999999999;0.03640447995968567
23:50.3;0.09024893590393397;-0.390100430939595;-1.0399196119484624;1.111;0.0366115645857799
23:50.3;0.08636062799750945;-0.39782386197247505;-1.0513172932124502;1.105;0.036119391825188106
23:50.3;0.08128269952719198;-0.4048411496364975;-1.0623006261481873;1.104;0.03495668215537248
23:50.3;0.07550871308138946;-0.41010592956790093;-1.0739219857221238;1.113;0.033255681385731935
23:50.3;0.06970009507140026;-0.41254102768376205;-1.087042879371626;1.133;0.031256992760231514
23:50.3;0.06463197214212661;-0.41113960822185636;-1.102228518546016;1.156;0.029289257972367613
23:50.4;0.06111302733797755;-0.4050710387256784;-1.1196781689093918;1.183;0.027717764592629784
23:50.4;0.05988288837491309;-0.39377986566350426;-1.1391919900893206;1.183;0.026862916923691832
23:50.4;0.06150034369294153;-0.37706733371199413;-1.1601713821033568;1.183;0.0269041082293207
23:50.4;0.06624420221867779;-0.35514835949329265;-1.1816512312454996;1.216;0.027800141022307316
23:50.4;0.07404610202650283;-0.3286765324161557;-1.2023671738492978;1.246;0.029262269685009976
23:50.4;0.08446644611839063;-0.29872691328168227;-1.2208607378283165;1.27;0.030805247366083942
23:50.4;0.0967189279831764;-0.26672825364696373;-1.2356170306660639;1.29;0.03187604133708467
23:50.4;0.10974376557350998;-0.23434503996087253;-1.2452204893341456;1.311;0.032024464899550575
23:50.4;0.12232205106412752;-0.20332136624448394;-1.2485095392177588;1.3330000000000002;0.0310512893973109
23:50.4;0.13321608771696855;-0.1753077591615452;-1.2447093763347166;1.351;0.02906871103733108
23:50.5;0.14131599299939723;-0.15169605756759788;-1.2335222946859072;1.272;0.026443114890864036
23:50.5;0.14577184615187233;-0.1334866848188878;-1.2151611362027825;1.272;0.02364533507152525
23:50.5;0.14609345526551953;-0.12120775228873416;-1.1903243304536928;1.272;0.021077857744012295
23:50.5;0.14220616923229956;-0.1148959221422103;-1.1601199585942379;1.196;0.01895509437252609
23:50.5;0.1344588718849248;-0.11413689378818137;-1.1259457796539494;1.122;0.01727957234022903
23:50.5;0.1235864962175961;-0.11815358574107833;-1.0893341730652981;1.063;0.015906662038379753
23:50.5;0.1106330182000432;-0.1259246512869811;-1.0517818432854231;1.014;0.014652819064284273
23:50.5;0.09684267379874631;-0.13631399826079155;-1.0145920288750758;0.97;0.013393641617045872
23:50.5;0.08352890217293833;-0.1481935942930475;-0.9787536186734922;0.935;0.012115451008814946
23:50.5;0.07193399345295927;-0.1605472013773371;-0.9448723261166839;0.9129999999999999;0.010912142779152244
23:50.6;0.06309675524369329;-0.17254916750896296;-0.9131601493010085;0.895;0.009941841726800208
23:50.6;0.05774676198692265;-0.1836159778518382;-0.8834819373855395;0.895;0.009367760566177972
23:50.6;0.056238976875528916;-0.19342838088855382;-0.8554511753951224;0.895;0.00930578115769023
23:50.6;0.058534171329665714;-0.20192275375360338;-0.8285601495558726;0.893;0.009793068141690503
23:50.6;0.06422380656742029;-0.20925453011101572;-0.8023232542557939;0.8809999999999999;0.010782520470626463
23:50.6;0.07259432433088518;-0.2157411654330902;-0.7764094829485517;0.8590000000000001;0.012159802440389552
23:50.6;0.0827226545015512;-0.22179421278432432;-0.7507431585317847;0.8370000000000001;0.013774189557281626
23:50.6;0.09359050045946148;-0.22784989657015658;-0.7255591715810924;0.81;0.015472248843372864
23:50.6;0.10420074406138746;-0.23430645734536892;-0.7014070835902322;0.78;0.017124788850912034
23:50.6;0.11367825370994265;-0.24147523865264078;-0.6791051794123236;0.7490000000000001;0.018641765484344656
23:50.7;0.1213418963846637;-0.24955052162456018;-0.6596514630860226;0.6779999999999999;0.019974862111758477
23:50.7;0.12674333208806682;-0.25859903562473596;-0.6441061280100022;0.6779999999999999;0.02111103144188034
23:50.7;0.1296766214652908;-0.2685650247142927;-0.6334674156451077;0.6779999999999999;0.022061519495887656
23:50.7;0.13016665135581945;-0.2792854407298436;-0.628562037960581;0.672;0.022850524703563958
23:50.7;0.12844338217753393;-0.29051322039075517;-0.6299612251128597;0.6759999999999999;0.023506688508844586
23:50.7;0.12490569980790345;-0.3019489665248698;-0.6379247788947964;0.691;0.024059426791861595
23:50.7;0.1200760711924898;-0.31327933839612393;-0.6523744075485304;0.711;0.024540597816130768
23:50.7;0.11454660850604909;-0.32421720475539373;-0.6728986735630879;0.735;0.024990098304468484
23:50.7;0.10891872069162384;-0.3345372660552136;-0.6987906747957542;0.768;0.025462095098507043
23:50.7;0.10374135035383739;-0.3441013015445341;-0.7291172035766844;0.809;0.02602768593188781
23:50.8;0.09945518782413888;-0.35286843971019355;-0.7628143550782289;0.924;0.02677066233806763
23:50.8;0.0963507791773987;-0.3608877048058672;-0.7987960314359096;0.924;0.027775585074843692
23:50.8;0.09454659487711138;-0.36827302964669945;-0.8360519325435011;0.924;0.029110459581516143
23:50.8;0.09398973276305199;-0.3751645415523304;-0.8737140796720901;0.963;0.030808569499815024
23:50.8;0.09447857677108784;-0.3816826449481747;-0.9110880536851487;1.001;0.032854594218679
23:50.8;0.09570413200304337;-0.38788247548602994;-0.9476585000097596;1.038;0.03517893679504471
23:50.8;0.09730451375148272;-0.3937162287760696;-0.983077016309825;1.07;0.037662040494804434
23:50.8;0.09892512523915006;-0.3990099364288039;-1.0171342706855264;1.0959999999999999;0.04014843371473509
23:50.8;0.10027599608055222;-0.40345916035384655;-1.0497172099768108;1.1159999999999999;0.04246869172933023
23:50.8;0.10117782142785633;-0.4066449622801681;-1.080755892385603;1.137;0.04446602750998399
23:50.9;0.10158949300859467;-0.40806821270985205;-1.1101682575083325;1.199;0.04602251674426957
23:50.9;0.101613036221744;-0.4071978041755182;-1.1378106525746978;1.199;0.04707874219249845
23:50.9;0.10147667635267765;-0.4035274410898293;-1.1634374607021158;1.199;0.047641162589340987
23:50.9;0.10150050209340508;-0.3966364956512715;-1.1866719309341496;1.228;0.04777399203562159
23:50.9;0.10205007872547012;-0.3862518312904705;-1.206994461044382;1.263;0.04757613662861816
23:50.9;0.10348314280391421;-0.3723072729731523;-1.2237553089562385;1.286;0.04714826533520351
23:50.9;0.10609442101515211;-0.3549932192502601;-1.2362124781746582;1.285;0.046559223397986765
23:50.9;0.1100639197653368;-0.3347822956871425;-1.2435908607752568;1.2819999999999998;0.04582315421598283
23:50.9;0.11541721395993301;-0.3124153263842994;-1.2451598562076829;1.306;0.0448981067913979
23:50.9;0.12201180512753189;-0.28884011588597813;-1.2403262926196403;1.331;0.04371146004944742
23:51.0;0.12956285855264235;-0.2651093927361454;-1.2287321411346184;1.2790000000000001;0.042204897989366594
23:51.0;0.13770689990417936;-0.24225810202210174;-1.2103393599806558;1.2790000000000001;0.040377662026135124
23:51.0;0.14608099389298518;-0.22118971333981896;-1.1854861055499413;1.2790000000000001;0.03830496845333488
23:51.0;0.15438680737867957;-0.2025980265346501;-1.1549050567867596;1.22;0.03612365450734624
23:51.0;0.16242049594875757;-0.18693383566886126;-1.119698395771522;1.1520000000000001;0.03399615538152047
23:51.0;0.1700670086788387;-0.17440899256423956;-1.081269653829133;1.0959999999999999;0.03207177238028666
23:51.0;0.17726919406450048;-0.16502482752967926;-1.0412234720299154;1.053;0.03045976213219978
23:51.0;0.18398767128258037;-0.15861352955058822;-1.0012514452388535;1.0190000000000001;0.029219454779653358
23:51.0;0.19016747654823343;-0.15488362932703975;-0.9630191132675399;0.99;0.028364600235600924
23:51.0;0.19572144022388932;-0.1534633953977507;-0.9280606960079855;0.9570000000000001;0.027875302311490865
23:51.1;0.20053097577944667;-0.15393927350301265;-0.897682637701497;0.875;0.027711097423350265
23:51.1;0.2044575766563213;-0.15588911509801134;-0.8728793167723408;0.875;0.027821029939531425
23:51.1;0.20735646324264836;-0.1589103474048699;-0.8542711406691447;0.875;0.02814916319934013
23:51.1;0.20908711245813918;-0.16264257243788893;-0.84207577293336;0.866;0.028636021001730662
23:51.1;0.20951996713031074;-0.16678449614081817;-0.836113976755653;0.865;0.029217737158288133
23:51.1;0.2085411384485963;-0.17110618632715444;-0.8358429331883288;0.87;0.0298251149893259
23:51.1;0.20605711582351458;-0.1754577099642594;-0.840408971809043;0.882;0.030384406211384666
23:51.1;0.2020006253870264;-0.17977413638319964;-0.8487139521704503;0.889;0.030820612612700984
23:51.1;0.19633747827214176;-0.18407595057283851;-0.8594907886140218;0.9;0.031062863420829086
23:51.1;0.18907273335380237;-0.18846384074894595;-0.8713846205388844;0.917;0.031050373653450238
23:51.2;0.18025391412085576;-0.1931071525278122;-0.8830370497820922;0.94;0.030737036278264566
23:51.2;0.1699711035035741;-0.1982251731946208;-0.8931700620160593;0.94;0.03009317825028096
23:51.2;0.1583573476414715;-0.2040601209566343;-0.9006646438191427;0.94;0.02910445514188064
23:51.2;0.14559315612376025;-0.21084171878834324;-0.9046301070622024;0.953;0.027769531064589043
23:51.2;0.1319144884071914;-0.21874604846309526;-0.904463167620787;0.961;0.026098983918750634
23:51.2;0.11761952965288043;-0.22785473046645702;-0.8998959829249541;0.9590000000000001;0.02411736192908203
23:51.2;0.10306959109929192;-0.23812255951843989;-0.8910288451191467;0.956;0.021868694554783852
23:51.2;0.08868160740119299;-0.2493611480009051;-0.8783406604261653;0.95;0.019423403520518523
23:51.2;0.07491136861342113;-0.26124272262219855;-0.862670894488318;0.9390000000000001;0.016882512445448163
23:51.2;0.06222787540981565;-0.27332402923339205;-0.8451684415405314;0.9159999999999999;0.014374940640466918
23:51.3;0.051080802501763715;-0.2850874856775429;-0.8272059277667222;0.848;0.012046184297787582
23:51.3;0.04186536140376173;-0.2959940201658534;-0.8102656253078538;0.848;0.01004072786970919
23:51.3;0.03489088370634348;-0.3055382495580991;-0.7958134319901532;0.848;0.00848376872022255
23:51.3;0.03035852663995313;-0.3132961413017807;-0.7851797031065878;0.8290000000000001;0.007468008456595107
23:51.3;0.028349597352603347;-0.3189609650961079;-0.7794570819917934;0.812;0.007048174356800413
23:51.3;0.02882328270181702;-0.32236930090904364;-0.7794181976240374;0.804;0.007242152408422693
23:51.3;0.031622834295494194;-0.3235191412732713;-0.7854582477468723;0.81;0.008035703019608553
23:51.3;0.036489554337960826;-0.32257841327248926;-0.7975720995478018;0.835;0.009388015840353725
23:51.3;0.04308271885589003;-0.31987943909299943;-0.8153741042672209;0.868;0.011236895527049881
23:51.3;0.051002959733626854;-0.31589579242631904;-0.8381607607837378;0.898;0.013504127996116501
23:51.4;0.05981778575394066;-0.3112020790472158;-0.8650058332908371;0.9840000000000001;0.01610244627554736
23:51.4;0.06908850225000779;-0.30642133823840517;-0.8948681854079517;0.9840000000000001;0.018944530687987387
23:51.4;0.07839624759068749;-0.3021663164044621;-0.9266883383148196;0.9840000000000001;0.021952047001707782
23:51.4;0.08736439026352126;-0.29897918781688676;-0.9594568026041052;1.008;0.025061140678289906
23:51.4;0.09567738899727435;-0.29727167559531587;-0.9922539021531631;1.033;0.02822186185202395
23:51.4;0.10309870241945746;-0.29726759333271685;-1.0242730799459807;1.0590000000000002;0.03139182214714804
23:51.4;0.1094890589911571;-0.2989530499663055;-1.054839593762249;1.092;0.03452710253902165
23:51.4;0.11482328595111138;-0.30204276146016384;-1.0834304667440788;1.1340000000000001;0.03757503963582087
23:51.4;0.11920194770868128;-0.30597210951842996;-1.1096955677991343;1.1840000000000002;0.040473339858296126
23:51.4;0.12285379838254992;-0.3099245467021667;-1.1334729769853136;1.236;0.04315744579992356
23:51.5;0.12612529523197696;-0.3129018301896851;-1.1547849363803895;1.234;0.04557339779613605
23:51.5;0.1294531172870856;-0.3138360916415527;-1.1738001178695647;1.234;0.04768804826296619
23:51.5;0.13331574288260017;-0.3117287522107023;-1.19075839337786;1.234;0.04948595429038498
23:51.5;0.13816280353748206;-0.3057928392529322;-1.2058693025833713;1.225;0.05094700848251498
23:51.5;0.1443276936223821;-0.29557828616929155;-1.219204318361086;1.218;0.052011417555750984
23:51.5;0.15193926545363504;-0.2810649635358103;-1.2306047755581193;1.212;0.05255273587012859
23:51.5;0.16085682853594294;-0.26270821738993316;-1.2396267498045979;1.213;0.052384656282754294
23:51.5;0.170651042566625;-0.2414225940610293;-1.245541390554611;1.234;0.05131508139155535
23:51.5;0.180640431094752;-0.21849762341758242;-1.247401195627593;1.265;0.04923430758728565
23:51.5;0.18997676801756888;-0.19545271791496732;-1.2441690576150144;1.298;0.046197833066985744
23:51.6;0.19776101121762213;-0.17385137624311472;-1.2348910691492638;1.3330000000000002;0.04245681944556591
23:51.6;0.20316760346395737;-0.155105924947996;-1.2188811878577692;1.3330000000000002;0.038409992280214154
23:51.6;0.20555696345180463;-0.14030973543443542;-1.1958800564169723;1.3330000000000002;0.034491145847698974
23:51.6;0.20456178426239038;-0.1301271676278823;-1.1661532348459573;1.2819999999999998;0.031041886124422578
23:51.6;0.20013980423143202;-0.12475332399852382;-1.1305051670380084;1.208;0.02822657266585504
23:51.6;0.19259003379365638;-0.12393874307013424;-1.0902026749982987;1.121;0.02602244744453889
23:51.6;0.18253056722045669;-0.12706589779933183;-1.0468223176209321;1.038;0.02427937962813547
23:51.6;0.17083804365144617;-0.13326097079022634;-1.0020530051686736;0.966;0.022812782349962694
23:51.6;0.15855352105991924;-0.14152238210851562;-0.957492797772422;0.904;0.021485058322565857
23:51.6;0.14676542120600178;-0.15084761129098703;-0.9144763905308886;0.852;0.02024578778459753
23:51.7;0.136485651523995;-0.16034263660312345;-0.8739612018168068;0.825;0.019126177024001028
23:51.7;0.12853826667361126;-0.16930290829999056;-0.8364885433027084;0.825;0.0182035820177301
23:51.7;0.12347820519562919;-0.17725950777449906;-0.802222767556666;0.825;0.017558799937135564
23:51.7;0.12155004153424147;-0.18398869953340646;-0.771056103223054;0.835;0.0172437707512311
23:51.7;0.1226872192727331;-0.18948828686339192;-0.7427533970369161;0.8320000000000001;0.017267375738871712
23:51.7;0.1265453861012061;-0.1939293936852625;-0.7171035095653718;0.8190000000000001;0.01759834400498428
23:51.7;0.13256037137555385;-0.19759571733805786;-0.6940447163234477;0.7959999999999999;0.018179364271583762
23:51.7;0.14002071793567414;-0.20082287283208874;-0.6737394559249172;0.764;0.018945124215288423
23:51.7;0.14814508661282666;-0.2039481705365683;-0.6565863856666901;0.731;0.019838048128229896
23:51.7;0.15615597308368184;-0.20727692322862637;-0.6431711523576082;0.7;0.02081786134045926
23:51.8;0.1633433568961944;-0.21106637688560326;-0.6341688233334529;0.652;0.02186378859730516
23:51.8;0.169114689742408;-0.21552338937356805;-0.6302199703234188;0.652;0.02297036532546083
23:51.8;0.17303001083236558;-0.22080844312893946;-0.6318075640914406;0.652;0.024139147677596517
23:51.8;0.17482274144378332;-0.22703895904812915;-0.6391592611235131;0.662;0.025369236621927672
23:51.8;0.1744077135519337;-0.234289227773718;-0.6521896418574387;0.6829999999999999;0.02664967435571508
23:51.8;0.17187747256258476;-0.24258877189530081;-0.6704864708153542;0.71;0.027956298806000916
23:51.8;0.16748635849309146;-0.2519227115069711;-0.6933385829580955;0.742;0.029254463017251976
23:51.8;0.16162125565285532;-0.26223726574528017;-0.7197991210531557;0.779;0.030507329765741095
23:51.8;0.15475900959013797;-0.27345207191165366;-0.7487751040468041;0.8170000000000001;0.031687542282259826
23:51.8;0.14741243768526102;-0.28547886340376316;-0.779132957342543;0.857;0.03278835755298882
23:51.9;0.14006916214707743;-0.29824313603999997;-0.8098088326286295;0.95;0.03382949365368035
23:51.9;0.13313096437966063;-0.31170171108407047;-0.8399097996096428;0.95;0.03485386243307246
23:51.9;0.12686486110085804;-0.32584655501787474;-0.868788955917765;0.95;0.03591441309092521
23:51.9;0.12137641164552099;-0.34068784513132055;-0.8960823517508947;0.973;0.0370543208132259
23:51.9;0.11661004685261812;-0.35621695595343256;-0.9217094634269165;0.992;0.03828640635495359
23:51.9;0.11237555192092692;-0.3723567437164254;-0.9458495892344445;1.0170000000000001;0.03957793592175785
23:51.9;0.10839714166853491;-0.3889086453737199;-0.9689062067134558;1.054;0.04084577737259742
23:51.9;0.10437942002670582;-0.40550594598954937;-0.991464916262196;1.087;0.041965215447394615
23:51.9;0.1000814393885348;-0.4215823525059692;-1.014244005423536;1.115;0.04279355983642236
23:51.9;0.09538774766008845;-0.43636465650546447;-1.0380321581806558;1.141;0.04320688627576269
23:52.0;0.09036526447271846;-0.4488968259487006;-1.0636068445547604;1.181;0.04314487171829576
23:52.0;0.08529702101120956;-0.45809863682781227;-1.0916293608667067;1.181;0.04265481584344347
23:52.0;0.08068700492200122;-0.4628555908748096;-1.1225176494000806;1.181;0.041922028320238544
23:52.0;0.07723273525256961;-0.4621333357235857;-1.1563063376443348;1.1909999999999998;0.04127067948268308
23:52.0;0.0757632862099926;-0.4551099855605322;-1.1925135536170686;1.2109999999999999;0.041118616338189445
23:52.0;0.07714209191529625;-0.44131619769755825;-1.2300418105262756;1.23;0.04187561066423073
23:52.0;0.08213812443338699;-0.4207623250346343;-1.267142925755075;1.248;0.04379325554668267
23:52.0;0.09127759827297537;-0.39402259512669663;-1.3014745554852298;1.291;0.046808100024136164
23:52.0;0.10470151280283238;-0.3622468854217264;-1.3302672187198303;1.3630000000000002;0.05045410490998957
23:52.0;0.12206700343004595;-0.32708120244695754;-1.3506025217725814;1.4480000000000002;0.0539239162295455
23:52.1;0.14253075994428757;-0.29049536361565476;-1.3597755037461163;1.551;0.05630085875280467
23:52.1;0.16483002171495384;-0.25454300240784455;-1.3556833406482391;1.551;0.05687949573713505
23:52.1;0.18744000998402802;-0.2211084872171977;-1.3371632805124454;1.551;0.05541816660969455
23:52.1;0.20876667311529412;-0.19170104265507995;-1.3042084108339957;1.4980000000000002;0.05219544950180915
23:52.1;0.22734170831507297;-0.16732845157395085;-1.2580188542492652;1.3940000000000001;0.047855963155936085
23:52.1;0.24199740949304033;-0.14845142893527238;-1.200882788280821;1.2670000000000001;0.04314154753194222
23:52.1;0.2519969280725249;-0.13500897074552096;-1.1359149952553713;1.147;0.038645924912837214
23:52.1;0.2570969983665013;-0.12650404709562363;-1.0667051409890287;1.042;0.0346933161737134
23:52.1;0.2575341032296657;-0.12213383669675132;-0.9969378160063692;0.956;0.03135731131116328
23:52.1;0.25394126477516116;-0.1209407347836082;-0.9300402041462145;0.885;0.028563248876454388
23:52.2;0.24721417894280243;-0.12195658658403806;-0.8688978263868268;0.767;0.026196745884276257
23:52.2;0.23835400042466082;-0.12431747828663227;-0.8156635073209153;0.767;0.02416938890442353
23:52.2;0.22831847956177492;-0.12733839099942262;-0.771672442245644;0.767;0.022435379120780266
23:52.2;0.2179074471689533;-0.13054843507121958;-0.7374613000784918;0.762;0.020978912795878334
23:52.2;0.2076939431592974;-0.13369275261041663;-0.7128706870564474;0.764;0.01979440509240532
23:52.2;0.19799902028471755;-0.13670874077302428;-0.697197970808566;0.764;0.018871891838773643
23:52.2;0.18890295964956128;-0.13968551391739228;-0.6893672608802137;0.7609999999999999;0.01819033873784167
23:52.2;0.18028557124657846;-0.1428158829774034;-0.688090427403873;0.758;0.017716706707934453
23:52.2;0.17188863133983917;-0.14634845672920005;-0.6920021755154653;0.7559999999999999;0.017407754787183868
23:52.2;0.16339213463584962;-0.1505447144198598;-0.6997616552935313;0.752;0.017212612812320404
23:52.3;0.15449376871406573;-0.1556432087273472;-0.7101213960312076;0.76;0.017075512260178827
23:52.3;0.14498064218626222;-0.1618307760153872;-0.721969766011137;0.76;0.01693909277903822
23:52.3;0.1347846089349535;-0.169219406763003;-0.7343552177997351;0.76;0.016749299797050254
23:52.3;0.12401492045253704;-0.17782828670048081;-0.7465008272135092;0.772;0.01646285210196351
23:52.3;0.11296328536902232;-0.18757265302735016;-0.7578171737774229;0.7879999999999999;0.016057254061071738
23:52.3;0.10207953271364488;-0.19826189143713227;-0.7679190489258996;0.807;0.015541515260016297
23:52.3;0.09192229040663624;-0.20960797705006246;-0.776646106039492;0.8290000000000001;0.014964141724263703
23:52.3;0.08309495108980927;-0.22124373185129637;-0.7840816272138551;0.8540000000000001;0.01441474252250597
23:52.3;0.07617891480674735;-0.23274956476871766;-0.7905593358315445;0.8690000000000001;0.014017098685078187
23:52.3;0.07167367661644833;-0.24368719225234522;-0.7966463932402079;0.873;0.01391419165894664
23:52.4;0.06994930391764034;-0.25363872839829976;-0.8030928975750938;0.841;0.014248355730981993
23:52.4;0.07121303649700308;-0.2622480316229976;-0.8107466879791764;0.841;0.01514108245967221
23:52.4;0.07548876260828438;-0.2692583476818177;-0.8204448922901351;0.841;0.0166763460520942
23:52.4;0.08260705587670582;-0.2745399227319767;-0.8329020138310813;0.841;0.01888933041441316
23:52.4;0.09220480857634826;-0.27810507644912597;-0.8486136537741625;0.855;0.021760681980528964
23:52.4;0.10373559015671849;-0.2801118025594298;-0.8677898530416998;0.8809999999999999;0.025215858454269276
23:52.4;0.11649291373347483;-0.2808568858869591;-0.8903269611141685;0.9179999999999999;0.029129572371814766
23:52.4;0.12964829396163147;-0.280757788762948;-0.9158208778571495;0.955;0.03333566778537113
23:52.4;0.14230448329925183;-0.2803220511307469;-0.9436174764645919;0.987;0.03764192462477962
23:52.4;0.15356215553354308;-0.28010432047606887;-0.972891123782677;1.023;0.04184737766063124
23:52.5;0.16259597437095863;-0.2806536085024855;-1.0027400921444343;1.128;0.045758185962630114
23:52.5;0.1687323076917848;-0.2824560961799685;-1.032284047168782;1.128;0.04919810947303592
23:52.5;0.17151639736136562;-0.2858810445925965;-1.0607435849560831;1.128;0.052011744467414966
23:52.5;0.17075627083531578;-0.2911376864845152;-1.0874848330702638;1.1540000000000001;0.05406277038508198
23:52.5;0.16653585537124016;-0.2982482222261297;-1.1120267305720752;1.167;0.05523328103652871
23:52.5;0.15919609704802162;-0.30703736088967837;-1.1340218492527279;1.172;0.055430023507661526
23:52.5;0.14928789153346064;-0.31713519178224836;-1.1532246341519534;1.1840000000000002;0.054598779240455815
23:52.5;0.13750586735251707;-0.32799005069644654;-1.1694587393259985;1.204;0.05274323983513571
23:52.5;0.1246166121924874;-0.3388916161515977;-1.1825917863111461;1.2309999999999999;0.04994265471286037
23:52.5;0.11139557136919732;-0.349009351328107;-1.1925197429131555;1.265;0.046362897171357026
23:52.6;0.09858202695679524;-0.3574531441873327;-1.199155672429004;1.248;0.04225639379574558
23:52.6;0.08685235915390473;-0.3633566282412651;-1.2024157397542405;1.248;0.03794629328641071
23:52.6;0.07680237093834043;-0.3659711517604337;-1.2022026645752661;1.248;0.03379085386943612
23:52.6;0.06892540264031877;-0.36475167192801483;-1.1983959273388811;1.224;0.030128459582907673
23:52.6;0.06357739034617055;-0.359421706770789;-1.1908599024881017;1.234;0.02721245175151708
23:52.6;0.0609313159934659;-0.3500134447978963;-1.1794764178264867;1.251;0.02515443385046638
23:52.6;0.06093486873031454;-0.3368803628199025;-1.1642007494091728;1.254;0.02389843437462615
23:52.6;0.0632893538043746;-0.3206758571042097;-1.1451306123487996;1.245;0.023240846930078943
23:52.6;0.06746426014595981;-0.3022917403701114;-1.1225696481054395;1.2209999999999999;0.022893560363015784
23:52.6;0.07275418108450411;-0.2827580113101285;-1.0970648987727913;1.1840000000000002;0.022568629917435218
23:52.7;0.07837455056340696;-0.26311602870425826;-1.0694033429230758;1.065;0.02205280850655218
23:52.7;0.08358021090268515;-0.2442873226003183;-1.0405657299071402;1.065;0.021245840220538367
23:52.7;0.08778091172555676;-0.22696584631928335;-1.011650908695027;1.065;0.02015539310756815
23:52.7;0.09062839224258327;-0.21155614674766168;-0.9837870979319427;1.0170000000000001;0.01886214358364007
23:52.7;0.09206096349257471;-0.19816484930879133;-0.9580360182423879;0.9690000000000001;0.01747768767519449
23:52.7;0.09230345406703128;-0.18663951786314573;-0.9352888678602685;0.927;0.01611266293652434
23:52.7;0.0918259019720092;-0.17664318179956243;-0.9161598472547406;0.888;0.014860497047817754
23:52.7;0.0912661228879853;-0.16775006266280934;-0.9008933889951567;0.857;0.013792585744347451
23:52.7;0.09132441349300437;-0.1595457249904438;-0.8893053396602374;0.8420000000000001;0.012957552093719907
23:52.7;0.09264456265577628;-0.1517152493164269;-0.8807758024481652;0.8490000000000001;0.01237982613399517
23:52.8;0.09570116171887892;-0.14410673519743059;-0.8743036493765589;0.884;0.01205768072550761
23:52.8;0.10071405628749319;-0.13676291308121383;-0.868620323498991;0.884;0.011964330929705698
23:52.8;0.10760487725978594;-0.129919174892947;-0.8623474355823663;0.904;0.012055562707764764
23:52.8;0.11600151815093068;-0.12397073989579205;-0.8541751195176681;0.9179999999999999;0.012283716462926902
23:52.8;0.12528789266746182;-0.11941548980218418;-0.8430371234908428;0.924;0.012612944019551956
23:52.8;0.13468842327503505;-0.11678294399490735;-0.8282601533941336;0.917;0.013027961203789093
23:52.8;0.1433701771852864;-0.11656188311833321;-0.8096679499694487;0.899;0.013530764193571212
23:52.8;0.15054360077238524;-0.11913749803620907;-0.787626430261756;0.87;0.014126385579631938
23:52.8;0.15554664797818163;-0.12474531363552266;-0.7630240264641999;0.8320000000000001;0.014805501042948371
23:52.8;0.15790399502808447;-0.13344572022021947;-0.7371890759006032;0.787;0.015533762430262027
23:52.9;0.15735947916433207;-0.14511982033810233;-0.7117538759766895;0.6970000000000001;0.016253596810402976
23:52.9;0.15388445721316027;-0.15948365081748606;-0.6884842936612205;0.6970000000000001;0.016896819429499756
23:52.9;0.14766716205779945;-0.17611481734222076;-0.6691016853015931;0.667;0.01740090952391957
23:52.9;0.13908783473307018;-0.1944861241889427;-0.6551229496536919;0.6509999999999999;0.01772150417241793
23:52.9;0.12868235268920866;-0.2140042639366287;-0.6477351075082834;0.6509999999999999;0.01783770000443913
23:52.9;0.11709608927538986;-0.2340532917323848;-0.6477120772290431;0.6629999999999999;0.017751666872997156
23:52.9;0.10503094214967423;-0.254040781474378;-0.6553767614697956;0.684;0.017486856221136018
23:52.9;0.09318992540179567;-0.2734422303048821;-0.6706077010792596;0.713;0.01708846637535252
23:52.9;0.08222372197364851;-0.2918386476894361;-0.6928855145881851;0.752;0.016626522262554323
23:52.9;0.07268257361439323;-0.3089427427390775;-0.7213715184697989;0.7929999999999999;0.016198219731425663
23:53.0;0.06497626830525126;-0.32460958788544586;-0.7550087689408903;0.8759999999999999;0.015924584309857746
23:53.0;0.059345557566245495;-0.3388283918162042;-0.7926325763187174;0.8759999999999999;0.015938224005839885
23:53.0;0.05584892960686531;-0.35169431777816457;-0.8330752375307193;0.9229999999999999;0.016363056543732827
23:53.0;0.05436707776117823;-0.36336328069952634;-0.8752533070147281;0.973;0.017290628850188908
23:53.0;0.05462393541284103;-0.37399654329327503;-0.9182330477305755;1.016;0.018758732627469136
23:53.0;0.05622078454431892;-0.38370387633269787;-0.961272722184593;1.053;0.02073670297390311
23:53.0;0.05868001731578555;-0.3924940267231115;-1.0038392779164664;1.087;0.02311998082987934
23:53.0;0.061495911598240964;-0.4002398372374341;-1.0455982955702487;1.12;0.025735429679911874
23:53.0;0.0641894981293569;-0.40666267916298277;-1.0863806067510846;1.157;0.028358307143943363
23:53.0;0.06636323763149166;-0.41133768618578154;-1.1261327456249783;1.192;0.030740834542970594
23:53.1;0.06774977559438689;-0.41371910155082225;-1.1648585885331764;1.264;0.032650259701678994
23:53.1;0.06824839534028213;-0.4131842857187008;-1.2025556988411108;1.264;0.03391106594812852
23:53.1;0.06794345034892119;-0.40909478271190425;-1.23914543866644;1.297;0.03444243291283058
23:53.1;0.06710136796588823;-0.4008724916944509;-1.274396697489397;1.321;0.034280114739972584
23:53.1;0.06614634959603265;-0.38808742405790003;-1.3078490142713384;1.337;0.033573224995452455
23:53.1;0.06561749811302751;-0.3705491619286068;-1.3387462970938844;1.3419999999999999;0.03255095880055907
23:53.1;0.0661098186431439;-0.3483870720687345;-1.3659964244030087;1.337;0.03146136485128442
23:53.1;0.06820037217236281;-0.3220991724785598;-1.3881768423785814;1.34;0.03049447416060803
23:53.1;0.07236362056276276;-0.2925525921287591;-1.403608197312529;1.3769999999999998;0.029714616811675677
23:53.1;0.07888723746201758;-0.2609298071280806;-1.410510315052075;1.44;0.029033988975908552
23:53.2;0.08780523797948867;-0.22862733966114723;-1.4072345572579226;1.541;0.02824978056178089
23:53.2;0.09886392070956507;-0.19712309380024898;-1.3925376657841708;1.541;0.02713827801175632
23:53.2;0.11152980558716825;-0.16783448565225237;-1.3658377998366875;1.5290000000000001;0.02556649980950381
23:53.2;0.12504193031359156;-0.14198896166855438;-1.3273902321615654;1.465;0.02356724790502442
23:53.2;0.13850318181725013;-0.12052179497583795;-1.2783412742138471;1.364;0.021338906133125692
23:53.2;0.1509954160705995;-0.10400986148478172;-1.2206511970043472;1.249;0.019170342075584577
23:53.2;0.16169552491888;-0.09264611565914696;-1.1569068822741233;1.143;0.017330999938221344
23:53.2;0.16997001501178496;-0.08625467888481364;-1.090065701777083;1.054;0.015981136115367285
23:53.2;0.17543286703524755;-0.08434135744806229;-1.023179103500973;0.981;0.015139209867619779
23:53.2;0.17796023588691268;-0.08617073215004913;-0.9591376123956504;0.924;0.014708340584460392
23:53.3;0.177663715899849;-0.09085847156296502;-0.9004646913592179;0.843;0.014535529476774283
23:53.3;0.1748321695170367;-0.09746618230140822;-0.84917282609548;0.843;0.01447009526164557
23:53.3;0.16985890678860746;-0.10508707920498053;-0.8066840398884493;0.8109999999999999;0.014399291067300405
23:53.3;0.1631719597832961;-0.11291483484254779;-0.773806843743622;0.7829999999999999;0.014257031190571241
23:53.3;0.15517985720040556;-0.12029330659238012;-0.7507541560193269;0.7609999999999999;0.014014401508802636
23:53.3;0.14623824453806716;-0.1267481300042343;-0.7371872219961944;0.748;0.013664077749419794
23:53.3;0.136637053732204;-0.13200167594730702;-0.7322772866950343;0.7440000000000001;0.013207587536848222
23:53.3;0.12660398240496665;-0.1359724549962743;-0.7347826073326752;0.746;0.012649028570817365
23:53.3;0.11631788443721539;-0.1387600863404571;-0.7431405979851181;0.753;0.011994497098576657
23:53.3;0.10592489876446506;-0.1406177434977462;-0.7555750633016276;0.7709999999999999;0.011254230306600417
23:53.4;0.09555044399434325;-0.14191543271188672;-0.770217189267421;0.818;0.010444208710465199
23:53.4;0.08530286149378381;-0.14309871554515433;-0.7852350200434525;0.818;0.009585151807182385
23:53.4;0.07526938438162059;-0.14464748773023875;-0.7989610596088567;0.838;0.008698710391114927
23:53.4;0.0655088081982891;-0.14703804960713204;-0.8100065640429359;0.855;0.007802216012294943
23:53.4;0.056046029400700546;-0.1507097675192119;-0.8173547334508068;0.87;0.006903937199511581
23:53.4;0.04687324464330089;-0.15603606701608536;-0.8204278296480314;0.8740000000000001;0.006000540839212881
23:53.4;0.03796124489191028;-0.16329893282808583;-0.8191232455012981;0.871;0.005077770211209478
23:53.4;0.0292807276979878;-0.17266670420739896;-0.8138141528552705;0.86;0.004114487085953869
23:53.4;0.020829251583733083;-0.1841764467299931;-0.8053132255653512;0.847;0.0030893889374516005
23:53.4;0.012656847847461069;-0.19772381617483578;-0.7948015369620949;0.8320000000000001;0.001989038738718512
23:53.5;0.004883369634884749;-0.21306387476923735;-0.7837278471365765;0.7979999999999999;0.0008154450437734829
23:53.5;-0.002296877972231691;-0.2298245588038225;-0.7736866535037742;0.7979999999999999;0.00040841291111942625
23:53.5;-0.008624303879472692;-0.2475315100224758;-0.7662863444428923;0.784;0.0016358580974121647
23:53.5;-0.013796066034267128;-0.2656418586739195;-0.763019252174272;0.7809999999999999;0.0027963225875179444
23:53.5;-0.017499686495845112;-0.28358517941778894;-0.7651433609506779;0.7829999999999999;0.003797140027500227
23:53.5;-0.019456049410430425;-0.30080910498059515;-0.773584062474971;0.794;0.004527444672643514
23:53.5;-0.019467117177844787;-0.3168250547097302;-0.788864200765808;0.8220000000000001;0.004865454431889214
23:53.5;-0.01746096427143287;-0.33124860659453187;-0.8110691712777445;0.8590000000000001;0.004691159269841666
23:53.5;-0.013525260595807078;-0.3438292774271549;-0.8398497561032459;0.904;0.0039056209939436885
23:53.5;-0.007920911141093981;-0.3544649740259558;-0.8744597599705212;0.9470000000000001;0.0024552080425228368
23:53.6;-0.0010705789435955188;-0.3631976465883163;-0.9138200772252846;1.022;0.00035532226237215957
23:53.6;0.006477663947857536;-0.3701896739020565;-0.9565964171942204;1.022;0.002293884062248625
23:53.6;0.01410542965770013;-0.3756847441169978;-1.0012769881480992;1.0590000000000002;0.005305961740480126
23:53.6;0.02118924470339535;-0.37996016469436433;-1.0462430825189861;1.093;0.008423375151095348
23:53.6;0.027168074392279695;-0.3832778413865849;-1.0898366357273885;1.1340000000000001;0.011348382690146548
23:53.6;0.03160534389093941;-0.38583918952968244;-1.1304345882994418;1.186;0.013785175328908945
23:53.6;0.03423672893307989;-0.38774695586033864;-1.166536636320993;1.24;0.015485992482277439
23:53.6;0.03499674274750365;-0.38897607477167434;-1.1968647305557343;1.2890000000000001;0.016292794652764616
23:53.6;0.03402259766535261;-0.38935686638230166;-1.220463454504939;1.3319999999999999;0.016167396406382477
23:53.6;0.031639892796955164;-0.38857615993141387;-1.2367830069512706;1.364;0.015205638627252152
23:53.7;0.028336932571914684;-0.38620271280765556;-1.2457238583889167;1.348;0.013632953050346234
23:53.7;0.024730122637887347;-0.38173938225567167;-1.2476268760715465;1.348;0.011778173787969427
23:53.7;0.02151505255443045;-0.3746964923499171;-1.243204727275306;1.2930000000000001;0.01002223753542962
23:53.7;0.01939565011671601;-0.3646753160585468;-1.233424754864113;1.258;0.00872415493330416
23:53.7;0.018992302432141075;-0.3514514245914287;-1.219364804007268;1.234;0.00813910367839254
23:53.7;0.02074261349647867;-0.33504922337209153;-1.202069037105281;1.208;0.008354135238164176
23:53.7;0.024815588048989007;-0.3157961469073663;-1.182429233282731;1.185;0.009266304257669786
23:53.7;0.031059135058060284;-0.29434226525228446;-1.16110947194466;1.171;0.010614881567386669
23:53.7;0.03899480654614379;-0.27163463382732805;-1.1385218563462012;1.162;0.012059610596809428
23:53.7;0.04786448093292848;-0.24884412438191267;-1.114850477260452;1.1420000000000001;0.013278755319449834
23:53.8;0.05672280551297403;-0.22725126527146194;-1.0901124021759205;1.1059999999999999;0.01405190786266593
23:53.8;0.06456004745215094;-0.20810625453169074;-1.0642408344425012;1.1059999999999999;0.014298447741332314
23:53.8;0.07043635846958705;-0.1924855022781265;-1.03717605860852;1.083;0.014062010017403696
23:53.8;0.07361119446856812;-0.18116728236929736;-1.0089507164199436;1.06;0.013455306271443526
23:53.8;0.07365624016009384;-0.17454213595371773;-0.9797565219731388;1.04;0.01259586495206746
23:53.8;0.07054070760587612;-0.17256679707241668;-0.9499815269346523;1.016;0.011564109903701067
23:53.8;0.06467444819606954;-0.17476672079330652;-0.9202101883186683;0.978;0.010401081678129373
23:53.8;0.056892743179793266;-0.18028932836847208;-0.8911820427900675;0.924;0.009140991862135578
23:53.8;0.0483716448859501;-0.18800601883775359;-0.8637106759758051;0.866;0.007854723408932165
23:53.8;0.04047485744431505;-0.19665477125252925;-0.8385740081837454;0.825;0.006674691731894449
23:53.9;0.034550020596144856;-0.20500666689326769;-0.816396670337453;0.792;0.005782525013700657
23:53.9;0.03170984743252924;-0.21203099894597657;-0.7975508927202533;0.792;0.005362310001175868
23:53.9;0.03264428588380784;-0.21702901523474072;-0.7821007549852196;0.792;0.00554099396940088
23:53.9;0.03750495318581704;-0.21971093563092953;-0.7698045394965484;0.8;0.006343380590450473
23:53.9;0.04588326477321935;-0.22020470338575196;-0.7601741772696489;0.812;0.007680579976159832
23:53.9;0.05688017094706492;-0.2190007653586166;-0.7525763206482128;0.813;0.009374693441904738
23:53.9;0.06924718912822954;-0.21684917458127434;-0.7463516446171274;0.812;0.011207362434603753
23:53.9;0.08156778648797446;-0.2146321249303023;-0.7409287238579088;0.813;0.01297148906255408
23:53.9;0.09244544146624419;-0.21323560408953052;-0.7359145120852904;0.813;0.014506832239335287
23:53.9;0.10066898606962935;-0.21343866804497474;-0.731150882767693;0.804;0.015709986259271468
23:54.0;0.10533506139233623;-0.215831455562859;-0.7267329333220743;0.767;0.016521996805938344
23:54.0;0.1059197537678035;-0.2207657792649444;-0.7229910848035018;0.767;0.016906030928498638
23:54.0;0.10230310248446854;-0.22833554221017507;-0.7204457618438824;0.767;0.016829205494952752
23:54.0;0.09475564738853187;-0.2383812462260361;-0.7197460911233086;0.762;0.016257602618317206
23:54.0;0.08389419128547655;-0.25051512464501174;-0.7216007130888016;0.762;0.015165711735426902
23:54.0;0.07061028154410932;-0.2641663013090832;-0.7267048023302924;0.768;0.013555120693604386
23:54.0;0.05597524242877326;-0.27864420546799007;-0.7356667279375133;0.779;0.011474324133666617
23:54.0;0.041129959511553585;-0.29321471619586736;-0.7489385874881186;0.7879999999999999;0.009032131515260803
23:54.0;0.027172707184595968;-0.3071807396740036;-0.766755508908949;0.8029999999999999;0.006400056317311456
23:54.0;0.015060170607259546;-0.319958241874668;-0.7890901221396436;0.821;0.0038023299499160192
23:54.1;0.005533177152023088;-0.3311390535899991;-0.8156300486097552;0.9059999999999999;0.0014944390092793056
23:54.1;-0.0009286040358999368;-0.34053208964825327;-0.8457832659771619;0.9059999999999999;0.0002674531384710429
23:54.1;-0.004125238967973933;-0.3481760152080899;-0.8787090825557783;0.9059999999999999;0.0012620979970859362
23:54.1;-0.004133637925817481;-0.3543203052892974;-0.9133708776109626;0.953;0.0013377520798839118
23:54.1;-0.0012879788012993218;-0.3593768884172581;-0.9486137029999662;1.0090000000000001;0.00043908464822592656
23:54.1;0.003854391952027617;-0.3638485406234416;-0.9832719939482328;1.07;0.0013789552820235786
23:54.1;0.01056222533076769;-0.3682425567693426;-1.0163016302545453;1.131;0.003952865413820963
23:54.1;0.01799633341383273;-0.37297995588454874;-1.0469156390406753;1.1840000000000002;0.007027182156310352
23:54.1;0.025291758133258624;-0.3783113095884828;-1.0746945812025352;1.2209999999999999;0.010282847706423915
23:54.1;0.03165155145367736;-0.3842502979706991;-1.0996427869383307;1.237;0.013373985417606706
23:54.2;0.03644301703421921;-0.39053600270902983;-1.1221693314408787;1.195;0.015971062021096646
23:54.2;0.03928333924671262;-0.39663245275744574;-1.142989122696882;1.195;0.017808967467456676
23:54.2;0.040099581749585556;-0.4017669312383629;-1.1629614211403394;1.195;0.01873610617384842
23:54.2;0.03915041072325019;-0.4050020869099781;-1.1828985174900895;1.193;0.018756036582292974
23:54.2;0.03700391556749393;-0.405336150508328;-1.2033782476283352;1.207;0.01804950004742169
23:54.2;0.03447404323810789;-0.4018259962079096;-1.2245867861521804;1.235;0.016963670217731222
23:54.2;0.03252317250392137;-0.39372312555584366;-1.2462109593869468;1.255;0.015957887274867265
23:54.2;0.03213901373996852;-0.38060441549268526;-1.2673934070229913;1.261;0.015503073686197364
23:54.2;0.03419452946394662;-0.3624735087658693;-1.286759887005702;1.2770000000000001;0.015948888346854418
23:54.2;0.03930654947097333;-0.33980939330799864;-1.3025258610296595;1.325;0.01739749240312585
23:54.3;0.0477200218714415;-0.31354736550787715;-1.3126829130340838;1.412;0.01964100120486667
23:54.3;0.05924615401073995;-0.2849941673096667;-1.315247446804891;1.412;0.022207701043969404
23:54.3;0.07326732785107604;-0.25569790421722605;-1.3085314327723945;1.412;0.024514423272430357
23:54.3;0.08880442424292644;-0.22729912940917082;-1.2913872780064188;1.4069999999999998;0.02606686957041236
23:54.3;0.10463588189848769;-0.2013782980803477;-1.2633915217944922;1.3840000000000001;0.02662142282486213
23:54.3;0.11945361694161243;-0.1793062531449568;-1.224948149462478;1.338;0.026236895510775616
23:54.3;0.13203128066803935;-0.16211015899931738;-1.1773008795031559;1.2690000000000001;0.025198491116744513
23:54.3;0.141374473791952;-0.1503748255943067;-1.122451058524554;1.183;0.02386236871059855
23:54.3;0.14682750545054257;-0.14419745887180763;-1.0629891098822881;1.089;0.022505768261457042
23:54.3;0.14812248167376216;-0.14320474072140996;-1.001859531260997;1.006;0.021251285665630004
23:54.4;0.14536867235976056;-0.14662918868311803;-0.9420888532692783;0.835;0.02008089757299206
23:54.4;0.13899260744357392;-0.15342897187050944;-0.8865139807147002;0.835;0.01890534756395493
23:54.4;0.12964990450188182;-0.1624259891082394;-0.8375518619592259;0.835;0.017637597591117767
23:54.4;0.11813127870310737;-0.17243791113864412;-0.7970387294763143;0.7959999999999999;0.016235926750416615
23:54.4;0.1052762051853352;-0.18239058255803287;-0.7661401002050643;0.764;0.014710953627682667
23:54.4;0.09189825915104026;-0.19140698538163095;-0.7453150308048473;0.741;0.013110068097722036
23:54.4;0.07872321041615428;-0.19887142667665347;-0.7343215515818808;0.73;0.011496389267676795
23:54.4;0.06634128661916458;-0.2044667503455033;-0.7322608256928375;0.7290000000000001;0.009932815888250113
23:54.4;0.055175326996116124;-0.20818244100193864;-0.7376623875438769;0.74;0.00847318428472024
23:54.4;0.045467048582751114;-0.21029233489906057;-0.7486119963349168;0.76;0.007157757636464872
23:54.5;0.037283487936913155;-0.21130232196764334;-0.7629193905286168;0.84;0.006010345769054668
23:54.5;0.030543350933517618;-0.21187273257680722;-0.7783142744333643;0.84;0.005036707673687951
23:54.5;0.02505934305152905;-0.21272627610210904;-0.7926482464722586;0.84;0.004225433997104198
23:54.5;0.020589863426802475;-0.2145551901360235;-0.8040788494528773;0.868;0.003552148628416157
23:54.5;0.016892441986899976;-0.21793825742869233;-0.8112220143564479;0.887;0.002986521447279562
23:54.5;0.013771059133592379;-0.22327422387561185;-0.8132676528751682;0.902;0.002500572383346544
23:54.5;0.011110100181135113;-0.23073673285449148;-0.8100518238436512;0.9079999999999999;0.0020765745070088415
23:54.5;0.008890167022886817;-0.2402552926301202;-0.8020748674102216;0.899;0.0017131594730768619
23:54.5;0.007184718888137312;-0.25152462281172433;-0.7904557868029272;0.872;0.0014284592972895263
23:54.5;0.006139716400112067;-0.26404150102252555;-0.7768194939768212;0.8370000000000001;0.0012593331033028594
23:54.6;0.005940392427308361;-0.2771649102397732;-0.7631240835267;0.767;0.0012564596383661847
23:54.6;0.006770555903405827;-0.2901909906541954;-0.7514490565552959;0.767;0.0014764127838007373
23:54.6;0.008770577759896878;-0.3024298072043428;-0.7437768206083177;0.767;0.0019728562211042203
23:54.6;0.011999735144644202;-0.31327155682009705;-0.7417989229586486;0.764;0.0027885524930323837
23:54.6;0.016407167030015317;-0.3222368061285508;-0.7467651341159476;0.772;0.0039481421124145065
23:54.6;0.021814732637291712;-0.32901110086907753;-0.7593811176953169;0.7829999999999999;0.005450297894839983
23:54.6;0.027914788172331867;-0.33346440915510855;-0.779756978438575;0.8029999999999999;0.007258436721095633
23:54.6;0.03428479988660897;-0.33565433956223056;-0.807409452452209;0.8340000000000001;0.009291540297481542
23:54.6;0.04041804349565359;-0.3358119082627033;-0.8413195982571496;0.8740000000000001;0.01141911338701269
23:54.6;0.04576708256024829;-0.3343091859618747;-0.8800450343763029;0.9209999999999999;0.013465002422813368
23:54.7;0.04979618784672155;-0.3316099431960109;-0.9218795279747611;1.082;0.015222914619583784
23:54.7;0.05203893861368126;-0.3282085721844891;-0.96503917438849;1.082;0.016482507923372882
23:54.7;0.05215548556812362;-0.32456698364557607;-1.0078389814663309;1.082;0.01706064650700093
23:54.7;0.049982216318960375;-0.3210594432729377;-1.0488256323100298;1.119;0.01683078028551339
23:54.7;0.04556756907718721;-0.3179310439381886;-1.0868559905389583;1.1540000000000001;0.015745657489878054
23:54.7;0.039189401331014555;-0.3152714617902711;-1.1211320097199593;1.19;0.013851922145149078
23:54.7;0.03134937403763267;-0.31300443774789677;-1.1512041344820878;1.219;0.01129618273496801
23:54.7;0.022740432089601553;-0.3108933152777775;-1.1769474189692115;1.237;0.008320839736476847
23:54.7;0.014187309808177805;-0.30856319002414534;-1.198510312113988;1.252;0.005246696507519595
23:54.7;0.0065659779643221184;-0.3055417206231168;-1.2162362992327658;1.2670000000000001;0.0024399891878708014
23:54.8;0.0007120037538743918;-0.3013212588480184;-1.2305610955481194;1.234;0.00026400687541568976
23:54.8;-0.002672017008475759;-0.29543980397541925;-1.2418938733140514;1.234;0.0009803760865065541
23:54.8;-0.0031010009621655686;-0.2875680769893827;-1.2505002182968563;1.234;0.0011151321733979165
23:54.8;-0.0003756028226473395;-0.27758378298120595;-1.2564107954476396;1.2209999999999999;0.0001309949630733923
23:54.8;0.005374523603256362;-0.2656177753825506;-1.2593772555673313;1.234;0.0017978479334308192
23:54.8;0.013683252048107518;-0.25206503227272503;-1.2588885132495522;1.262;0.004341993810163453
23:54.8;0.023786797763314355;-0.23755835177108153;-1.2542497411886409;1.291;0.007087454823727232
23:54.8;0.0347100043995838;-0.22290466893599087;-1.2447129083624742;1.301;0.009630371204795856
23:54.8;0.04538682955150058;-0.20898849698510952;-1.229634692153969;1.3;0.011663485044040656
23:54.8;0.05479291646626297;-0.19665556625586925;-1.2086315352417296;1.298;0.013023406075404536
23:54.9;0.06206855366329798;-0.18659680784435184;-1.1817044993508397;1.218;0.013686258058005281
23:54.9;0.06661575656794971;-0.17925351309283552;-1.1493164416547803;1.218;0.013724112206670814
23:54.9;0.06815969764187121;-0.1747593561303166;-1.1124157956156138;1.218;0.013250590667944453
23:54.9;0.06677078586681998;-0.17292713674224944;-1.0724053961316957;1.1540000000000001;0.012382508335531832
23:54.9;0.06284853368697503;-0.17328053224529233;-1.0310503077908277;1.0759999999999998;0.011228578489868848
23:54.9;0.057071773639758135;-0.17512567680084293;-0.9903199769735079;0.995;0.009897983739449804
23:54.9;0.050321771101610575;-0.1776534552306255;-0.9521752872448312;0.9229999999999999;0.008512291396379518
23:54.9;0.043584731400452804;-0.18005916458887158;-0.9183294426275725;0.851;0.007206893648005572
23:54.9;0.037839248907956556;-0.18166179469425708;-0.890022010653766;0.7859999999999999;0.006117963121229338
23:54.9;0.03393592805957489;-0.18200334596204384;-0.8678482631223796;0.746;0.0053602235354771035
23:55.0;0.03248200046754979;-0.180911884628277;-0.8516820699166321;0.8390000000000001;0.0050048074148028076
23:55.0;0.03374907244554404;-0.17852027392050426;-0.8407135780921408;0.8390000000000001;0.005065209904456329
23:55.0;0.037621829335080494;-0.17524196771030975;-0.833592792906046;0.8390000000000001;0.005495813431706158
23:55.0;0.04359957381878348;-0.17171061110750194;-0.828645928595119;0.885;0.006203665587105279
23:55.0;0.05085469597944361;-0.16869137366171635;-0.8241268912735948;0.917;0.007069977350388953
23:55.0;0.05834360006098137;-0.16697478998207438;-0.8184693683310403;0.937;0.007973455224400149
23:55.0;0.06495498325200423;-0.16726932742721443;-0.8105037779108537;0.934;0.008806104387995993
23:55.0;0.06966973495872683;-0.17011052616357233;-0.7996053462116436;0.905;0.009476566956018704
23:55.0;0.07170137111525143;-0.17579992563781602;-0.785752278166352;0.861;0.009904482670787215
23:55.0;0.07058951784726446;-0.18438064174186755;-0.7694917626468478;0.816;0.010015197380456888
23:55.1;0.0662314334732401;-0.19565087364236305;-0.7518292677687065;0.736;0.009742382453005438
23:55.1;0.058855078229925466;-0.20920892080284748;-0.7340700680613874;0.736;0.009038610180341789
23:55.1;0.04895453161601662;-0.22451427145011907;-0.7176480600759918;0.736;0.007887663369428088
23:55.1;0.03721341412727955;-0.24094781971746124;-0.7039703323798;0.7240000000000001;0.006312143648291067
23:55.1;0.024432458251318893;-0.25786312084681995;-0.6942896039637917;0.7170000000000001;0.004374184146205312
23:55.1;0.01146614316755147;-0.27462913342060774;-0.6896045468653121;0.713;0.0021715212466366144
23:55.1;-0.0008306400396559534;-0.2906655888819796;-0.6905873230298654;0.7140000000000001;0.00016673435100754078
23:55.1;-0.011645649642537753;-0.3054699419246235;-0.6975418478779315;0.7170000000000001;0.0024814325236566263
23:55.1;-0.020244091021989093;-0.31863554648511505;-0.7103986044685863;0.736;0.004582416967124097
23:55.1;-0.02599970407609832;-0.32986335313343107;-0.7287513033734835;0.769;0.006250025925151508
23:55.2;-0.028426738275317706;-0.3389704130019277;-0.7519361174756226;0.899;0.007245523495827244
23:55.2;-0.027213867106113242;-0.3458958567476727;-0.7791423983248139;0.899;0.007334195079796704
23:55.2;-0.02225581826596174;-0.35070081034903594;-0.8095292849578237;0.899;0.0063184841419464165
23:55.2;-0.013675406833269453;-0.35355755806890715;-0.842321026068037;0.946;0.004072658756155718
23:55.2;-0.0018295082811514254;-0.3547265007511364;-0.8768688124256031;0.983;0.0005690659995105336
23:55.2;0.012704554521511813;-0.3545234433212449;-0.9126799604347868;1.0090000000000001;0.004110767506561813
23:55.2;0.029162702535087112;-0.35328150441056694;-0.9494157709691281;1.025;0.009781492149676576
23:55.2;0.04664568880401969;-0.3513116028056192;-0.9868584326297618;1.032;0.016171818576839136
23:55.2;0.06418456016645965;-0.3488639442420771;-1.0248539984408933;1.042;0.02294820156957327
23:55.2;0.0808158239229235;-0.34609142380248786;-1.063248295065021;1.061;0.029738697101426917
23:55.3;0.09566289861344945;-0.34301623045854246;-1.1018365263105299;1.208;0.03615558320489712
23:55.3;0.10801854812098766;-0.3395045678627624;-1.140337222163015;1.208;0.041819348048852505
23:55.3;0.11741794821006657;-0.3352595839303662;-1.1783809524759534;1.208;0.04638754650307489
23:55.3;0.12369034275527391;-0.32984393349150287;-1.2154950669267086;1.2670000000000001;0.049590386657572434
23:55.3;0.12698155544738474;-0.3227380245371682;-1.2510770121097534;1.311;0.0512713583165988
23:55.3;0.12774185756974357;-0.3134309490836095;-1.2843615582619003;1.317;0.05142359128670998
23:55.3;0.12667038759111732;-0.30153128880139085;-1.3143898128144627;1.3;0.05020323091711375
23:55.3;0.12460907528709568;-0.28687604224870233;-1.3399919417082304;1.3;0.047901172121844124
23:55.3;0.12239557291031138;-0.2696120503382913;-1.3598051149101542;1.337;0.044872645980254255
23:55.3;0.1207095614742304;-0.25022800186070204;-1.372349880050757;1.383;0.0414517078722748
23:55.4;0.11996027174476258;-0.22952469775869694;-1.3761732841752117;1.4569999999999999;0.03789134205824968
23:55.4;0.12024891766933897;-0.2085272240337805;-1.3700416903450712;1.4569999999999999;0.034354032395290675
23:55.4;0.12140498909678835;-0.1883619520045885;-1.3531446194131251;1.4569999999999999;0.03094382039524771
23:55.4;0.12306905138531912;-0.1701285449604639;-1.3252658718593102;1.432;0.027747831908095325
23:55.4;0.12479313574995017;-0.15478619412525374;-1.2868897212311203;1.381;0.024857889414664665
23:55.4;0.12613824450235603;-0.14306156415898585;-1.239226574124492;1.307;0.02236250596951668
23:55.4;0.1267520666389017;-0.13538528366625716;-1.1841566177319276;1.228;0.020320559182041974
23:55.4;0.12641359906763242;-0.13186481401788247;-1.1241016584646342;1.151;0.01873821903731095
23:55.4;0.1250405644666184;-0.13229620601596515;-1.0618432786439642;1.08;0.017565428052054344
23:55.4;0.12266582611009115;-0.1362097719723838;-1.0003070219092476;1.013;0.016713414012575933
23:55.5;0.11939530412701937;-0.14293990852455152;-0.9423306576021668;0.8390000000000001;0.016082148446508713
23:55.5;0.11536160404327198;-0.15170678685427708;-0.8904382005169826;0.8390000000000001;0.015583682073266774
23:55.5;0.11068590057039623;-0.16169646821884726;-0.8466494461541798;0.8390000000000001;0.01515292472147811
23:55.5;0.10545627914196466;-0.17212871414932018;-0.8123504908685825;0.799;0.01474582975595223
23:55.5;0.09972500417878478;-0.1823089208345962;-0.7882295036356558;0.773;0.014330609768978368
23:55.5;0.093522266412897;-0.1916667589403102;-0.774266040404065;0.763;0.01387880370512024
23:55.5;0.08688044167805865;-0.19978494113076312;-0.7697645361052149;0.77;0.013361113981138758
23:55.5;0.07986017770164211;-0.20641885140104918;-0.7734300748642664;0.7879999999999999;0.012749721108888286
23:55.5;0.0725689143079969;-0.2115050488337306;-0.7834849207196478;0.807;0.01202546855027816
23:55.6;0.0651652708011593;-0.21515575567898454;-0.7978198912737736;0.828;0.011185979853061832
23:55.6;0.057847973097321335;-0.2176377110085225;-0.8141703933313966;0.894;0.010250324202506118
23:55.6;0.05083332781604122;-0.21933648945595965;-0.830302713608277;0.894;0.009257546183301572
23:55.6;0.04432882765450344;-0.2207102003845927;-0.8441922519109641;0.894;0.00825942878161102
23:55.6;0.03851022489557019;-0.22223786849596416;-0.8541772687569579;0.92;0.007310416615162439
23:55.6;0.03350587357158985;-0.22436747002853819;-0.8590799406234146;0.9390000000000001;0.00645824348833547
23:55.6;0.029389555205297405;-0.2274681439773854;-0.8582913069662886;0.945;0.0057378383809498865
23:55.6;0.026182556675993687;-0.2317913410814414;-0.8518138501123358;0.9359999999999999;0.005169564492810988
23:55.6;0.023864215438997118;-0.23744551304292477;-0.8402529158412457;0.915;0.004761251872945586
23:55.6;0.022387012407885935;-0.24438778670487452;-0.8247519000328607;0.883;0.004512310358160737
23:55.7;0.02169070213568572;-0.25243449845435023;-0.8068738490926483;0.85;0.004418022845437562
23:55.7;0.021711336609828918;-0.26129014581516447;-0.7884407071342822;0.779;0.0044727912603950565
23:55.7;0.02238385148431832;-0.27058981252824715;-0.7713506695470616;0.779;0.0046719492684169665
23:55.7;0.023639073490219587;-0.2799449530296464;-0.7574010964709996;0.779;0.00501220727541485
23:55.7;0.025396840715946868;-0.28898217723711206;-0.748141364534995;0.7709999999999999;0.005490784782576348
23:55.7;0.027557329629503975;-0.2973708521641515;-0.7447665769937614;0.772;0.006103173371108406
23:55.7;0.02999354692767342;-0.3048415273994232;-0.7480512059503991;0.7829999999999999;0.00683964062612699
23:55.7;0.032548311063399143;-0.3111985900909253;-0.7583186402880502;0.797;0.007681000796497541
23:55.7;0.03503749372389965;-0.31632898212748717;-0.7754435108149826;0.8170000000000001;0.00859453100919151
23:55.7;0.03725875423338886;-0.3202069296074832;-0.798884199979384;0.841;0.009531096970510725
23:55.8;0.03900385312485297;-0.3228931767130755;-0.8277434600614231;0.872;0.010424665732727451
23:55.8;0.0400731674122515;-0.3245267364678002;-0.8608544359787367;0.976;0.011195252027777807
23:55.8;0.04029130787537846;-0.32530802184448615;-0.8968839022454825;0.976;0.0117555341360188
23:55.8;0.03952190124235826;-0.325473758039338;-0.93443682073426;0.976;0.012019980142920203
23:55.8;0.03767909345978558;-0.3252651735101842;-0.9721483171795338;1.026;0.011914355089883564
23:55.8;0.03473448830079208;-0.32489137966559145;-1.00876242961963;1.075;0.011383819281960248
23:55.8;0.030720432503466674;-0.3244905873133019;-1.043204366675807;1.124;0.010399173533954404
23:55.8;0.02573196387775045;-0.3240934888430466;-1.074645598697244;1.162;0.00896207354239889
23:55.8;0.019929239726687704;-0.32359491975649385;-1.1025506286202469;1.186;0.007110349809016333
23:55.8;0.013540898514500696;-0.32274081630351564;-1.1266918674705582;1.202;0.0049238695203623626
23:55.9;0.006868235845466446;-0.32113729495057547;-1.1471237696255598;1.217;0.0025301497345922995
23:55.9;0.00028928941248609647;-0.31828665282038865;-1.1641148968454063;1.188;0.00010718815939131524
23:55.9;-0.005741434810123261;-0.31364973441720273;-1.1780457227606724;1.188;0.0021214241524932093
23:55.9;-0.010706544540355778;-0.30672668042354995;-1.1892901001688543;1.188;0.003905608311265725
23:55.9;-0.014062934550681187;-0.29714366072752624;-1.1981045169959532;1.176;0.005006533546257124
23:55.9;-0.01530767531678688;-0.2847342299984897;-1.204547607891758;1.187;0.005250164264088845
23:55.9;-0.014066973150585612;-0.26960597539437375;-1.208446007531886;1.208;0.004583079842081611
23:55.9;-0.010190895799623836;-0.25218144537084686;-1.2094150154397607;1.2329999999999999;0.003108141963273675
23:55.9;-0.003829834434975862;-0.23319945894279262;-1.2069326560437512;1.254;0.0010779300429998486
23:55.9;0.004530593650239622;-0.21366535170541823;-1.200453966894817;1.263;0.001162076516830614
23:56.0;0.014092705184927319;-0.19474859097193933;-1.1895428668802608;1.2590000000000001;0.0032647414109115273
23:56.0;0.023833153035242544;-0.17763979207968558;-1.173995818258281;1.214;0.004970365290337909
23:56.0;0.03264142220862484;-0.16339228725443178;-1.1539361906124066;1.214;0.006154353237305534
23:56.0;0.03948207560056352;-0.15278104438590426;-1.1298670773355013;1.214;0.006815485597099782
23:56.0;0.043546998738810024;-0.146207254922368;-1.1026754378041257;1.173;0.007020610070844391
23:56.0;0.0443741827112299;-0.14366201265413925;-1.0735803095493683;1.1179999999999999;0.0068439503655371575
23:56.0;0.041921180846202714;-0.14474892081481747;-1.0440213100547298;1.051;0.006335169007374235
23:56.0;0.03658461758623017;-0.14875852555350835;-1.0154960776984552;0.9890000000000001;0.005526607667263767
23:56.0;0.029159121438379405;-0.15478216723751342;-0.9893701113581429;0.9420000000000001;0.004465336006891593
23:56.0;0.020736195895644478;-0.16184680913923832;-0.9666909575623787;0.903;0.0032442990904457247
23:56.1;0.012553342954979316;-0.16904887863722562;-0.9480387867490806;0.878;0.0020118601755715793
23:56.1;0.005813556575415495;-0.1756665736195398;-0.9334394444391795;0.898;0.0009532727589118542
23:56.1;0.0015048512754405614;-0.1812360177103551;-0.9223557532478824;0.898;0.00025155708445978413
23:56.1;0.0002548854043323788;-0.1855845898446614;-0.9137596451813996;0.898;4.322339268677217e-05
23:56.1;0.002250157487683329;-0.18882154921511177;-0.906275932188688;0.938;0.0003850569074368728
23:56.1;0.007232726787953255;-0.19129066065354305;-0.898380334531587;0.971;0.001242956883878288
23:56.1;0.014568331627603064;-0.19349358163203884;-0.8886259123354214;0.986;0.0025049286254735627
23:56.1;0.02336568526076691;-0.1959972989989876;-0.8758631323528431;0.99;0.004011112610914905
23:56.1;0.03261993680555734;-0.19934176476678278;-0.8594166909480089;0.977;0.005588370585375623
23:56.1;0.04135304080333131;-0.20396263475590062;-0.8391899621234913;0.95;0.007078126887883227
23:56.2;0.04872843695313788;-0.21013940640737214;-0.8156806846802014;0.9109999999999999;0.008352378376479983
23:56.2;0.05412584338252351;-0.21797342859042187;-0.7899061358764906;0.76;0.009319309160853557
23:56.2;0.05717301662235037;-0.22739346103746272;-0.7632554325713409;0.76;0.009922908427584823
23:56.2;0.057741765788439293;-0.23817989955221683;-0.7373067439175309;0.76;0.010140126544917335
23:56.2;0.0559203057188961;-0.2499975202872246;-0.7136503324713571;0.7290000000000001;0.009976787232798937
23:56.2;0.05197218705944965;-0.262431892479832;-0.6937394612155032;0.708;0.0094620230979778
23:56.2;0.04628868838130267;-0.27502934406325663;-0.6787725894101826;0.6940000000000001;0.008641282515655265
23:56.2;0.039340377189691335;-0.28733975263271455;-0.6696076518416277;0.6920000000000001;0.007569281222742415
23:56.2;0.03163252080200542;-0.2989589971867992;-0.6667131131992762;0.7020000000000001;0.006304990368448323
23:56.2;0.023666183179202452;-0.3095672367763125;-0.6701600395926837;0.715;0.00490977669838057
23:56.3;0.015904109373254278;-0.3189594787748005;-0.67965551611944;0.733;0.003447733690260938
23:56.3;0.008740582049617942;-0.3270648634672219;-0.694613235966641;0.8190000000000001;0.0019857167491455587
23:56.3;0.0024771760903606384;-0.33395105491828586;-0.7142505009135804;0.8190000000000001;0.0005908677042520207
23:56.3;-0.0026914390900651466;-0.3398110189978722;-0.7376931747491375;0.8190000000000001;0.0006746799104667521
23:56.3;-0.006678731574335379;-0.3449319175722601;-0.7640702771761906;0.851;0.0017601945723799727
23:56.3;-0.009495655134589904;-0.3496494909115657;-0.7925905927851827;0.885;0.002631520436292154
23:56.3;-0.011232810187176773;-0.35429472077364016;-0.8226022808503641;0.917;0.003273731149055469
23:56.3;-0.012041282116963406;-0.35914136530553925;-0.8536349629708788;0.945;0.0036915636037405707
23:56.3;-0.012116409847382036;-0.3643624986136838;-0.885419750245556;0.97;0.003908920447950855
23:56.3;-0.011685072465104295;-0.37000164200906466;-0.9178836960991674;0.996;0.003968466487708724
23:56.4;-0.010993462380513479;-0.3759604625330557;-0.9511198448200855;1.02;0.003931080280037081
23:56.4;-0.0102912019204018;-0.38200176155177656;-0.9853376648461778;1.1;0.0038736158505260207
23:56.4;-0.009809704099488644;-0.38776444177357705;-1.0207973644853034;1.1;0.003882964581217245
23:56.4;-0.009736000368703111;-0.39278671382629954;-1.0577272909616928;1.1;0.004044930656734535
23:56.4;-0.01018519022944157;-0.3965353100288282;-1.096225319545064;1.133;0.004427421189383119
23:56.4;-0.011174856754459209;-0.39844075265616113;-1.136155191622264;1.165;0.005058751823320975
23:56.4;-0.012605165714077052;-0.3979392489816052;-1.177056144975564;1.198;0.005904219767235032
23:56.4;-0.014249058279291333;-0.39452036186358175;-1.2180818475648785;1.235;0.006847500249244499
23:56.4;-0.01575603285805192;-0.38777872661295815;-1.257978338094981;1.266;0.0076860644314896785
23:56.4;-0.016671405475963783;-0.37746798329255743;-1.2951069054446895;1.2890000000000001;0.008150006483349407
23:56.5;-0.016474215700086125;-0.36355230505914654;-1.3275181067244801;1.304;0.007950823339877058
23:56.5;-0.01463925717827054;-0.3462450455906837;-1.353084368895319;1.446;0.006858473820645978
23:56.5;-0.010722780074657115;-0.3260226951379842;-1.369690751604776;1.446;0.004788260341174822
23:56.5;-0.004455308643684359;-0.3036100376701066;-1.375463214515469;1.446;0.0018605566639236775
23:56.5;0.004186519831108308;-0.2799394142581258;-1.3689993822909734;1.482;0.00160442881989474
23:56.5;0.01495205957917858;-0.25608543564846775;-1.3495711915516264;1.48;0.005167514423526882
23:56.5;0.02734032767450654;-0.2331756737977282;-1.3172766014941866;1.452;0.008397769176124406
23:56.5;0.040667780420095695;-0.21228591367072253;-1.2731168336872396;1.396;0.010991068331768777
23:56.5;0.054161010582745556;-0.194337570434953;-1.2189773278432636;1.308;0.01283036927949192
23:56.5;0.06704967800500171;-0.18001572917570133;-1.1575033676108526;1.204;0.01397106180075612
23:56.6;0.07863902422681127;-0.16971988842751828;-1.0918797342791373;1.105;0.014572889069021152
23:56.6;0.08835250657306427;-0.16355068475482293;-1.0255417051250646;0.8809999999999999;0.014819193473818082
23:56.6;0.09574701497742305;-0.16132777436720236;-0.9618622149471946;0.8809999999999999;0.01485755170324798
23:56.6;0.10051090468123858;-0.1626290859850246;-0.9038711785760933;0.8809999999999999;0.014774675175541322
23:56.6;0.10245697457096253;-0.16684162561187574;-0.8540505273260572;0.835;0.014599215035128444
23:56.6;0.10151948733754657;-0.1732175673553767;-0.8142134443814825;0.802;0.01431790974014008
23:56.6;0.09775881286982037;-0.1809327655984666;-0.7854496804393882;0.785;0.013892855158968273
23:56.6;0.09137147609036227;-0.18914613212897316;-0.7681177826791461;0.7759999999999999;0.013275042656635727
23:56.6;0.08269880561589694;-0.19705822403514392;-0.7618741123442325;0.7709999999999999;0.01241586605491132
23:56.6;0.07222535636047628;-0.20396673919291786;-0.7657334521345043;0.775;0.011280456276050009
23:56.7;0.06055941142059082;-0.20931588754562466;-0.7781581091435068;0.7879999999999999;0.009863968726603403
23:56.7;0.04839174252920555;-0.21273632707968518;-0.7971734008720345;0.866;0.008206646315380213
23:56.7;0.036435255959624865;-0.21407247480398214;-0.8205039450136957;0.866;0.006399754701949593
23:56.7;0.025355182167336277;-0.2133941293082358;-0.8457185663983792;0.866;0.004575884642776151
23:56.7;0.015701248769282434;-0.21098973036960667;-0.8703717208378006;0.895;0.0028833693901641243
23:56.7;0.007848812883596363;-0.20733954725369574;-0.8921390861606429;0.922;0.001451839768858592
23:56.7;0.0019537448701252985;-0.20306843434848748;-0.9089522927728046;0.9520000000000001;0.0003606212883585516
23:56.7;-0.002070054744348809;-0.1988799475318908;-0.9191341016612332;0.981;0.00037840050488168337
23:56.7;-0.0045390654759809015;-0.19547729267747982;-0.9215261595807027;1.001;0.0008176556294173486
23:56.7;-0.005948994965714232;-0.1934808065549379;-0.9155938619107838;1.011;0.001053863499669739
23:56.8;-0.006890823078707587;-0.19335427875621114;-0.901488784300105;1.0070000000000001;0.0012011167255042872
23:56.8;-0.007952177439410965;-0.195351972129859;-0.8800507526348672;0.883;0.0013671355629292753
23:56.8;-0.009626163704466945;-0.19949404311456956;-0.8527434835832554;0.883;0.0016375764520146381
23:56.8;-0.01224497435022235;-0.20557146404718016;-0.8215364692305058;0.883;0.0020679858165389095
23:56.8;-0.015947002658534513;-0.2131768620310891;-0.7887541459726217;0.8240000000000001;0.002681394947967384
23:56.8;-0.0206787987800686;-0.22175660837994562;-0.7569046619817413;0.772;0.00347090764634563
23:56.8;-0.02622682050656646;-0.2306776234967383;-0.7284933622733729;0.735;0.004407341588429616
23:56.8;-0.03226778220249626;-0.23929805153350014;-0.7058325641056696;0.706;0.005450169014389038
23:56.8;-0.038423097218679605;-0.2470293109404242;-0.6908674283839952;0.685;0.006557458859127301
23:56.8;-0.04430450384639912;-0.25338097859825054;-0.6850374007824049;0.6779999999999999;0.007690174058660381
23:56.9;-0.04954340781582751;-0.2579863604959617;-0.6891871526841264;0.687;0.008808861766546511
23:56.9;-0.05380339916751245;-0.2606117099557743;-0.7035336720389342;0.768;0.009864805528895702
23:56.9;-0.056781608710854956;-0.26115498197003745;-0.7276851948966607;0.768;0.01079069821743818
23:56.9;-0.058208409958373675;-0.2596411092657434;-0.7606958948973651;0.768;0.011496622324601703
23:56.9;-0.05785530298606631;-0.25621967368761034;-0.8011393134797907;0.8220000000000001;0.011875822285214815
23:56.9;-0.05555768560077255;-0.251167055723942;-0.8471956240759649;0.877;0.0118219882762395
23:56.9;-0.05125389502369324;-0.24488975205813485;-0.8967572808983717;0.932;0.011255697117171622
23:56.9;-0.045034883866990914;-0.23792091009726202;-0.9475549671243769;0.985;0.01015280563505843
23:56.9;-0.03719063191704086;-0.23090029355724895;-0.9972995952066284;1.038;0.008564138565997437
23:56.9;-0.02823293690133923;-0.2245298585939506;-1.0438339614590637;1.093;0.006617006831563119
23:57.0;-0.018873117567794338;-0.21950328559129298;-1.085286824696748;1.147;0.004496030009214324
23:57.0;-0.009940157195000247;-0.2164174786379938;-1.1202184051966653;1.238;0.0024098404467439456
23:57.0;-0.002244763324386746;-0.21568286926674807;-1.147739167441091;1.238;0.0005556859459256923
23:57.0;0.0035759557957937642;-0.21745091357944618;-1.1675787327801588;1.238;0.0009079032150845925
23:57.0;0.007182960487080202;-0.22157053316073222;-1.1800880740295705;1.21;0.0018781483867282237
23:57.0;0.008591440204047805;-0.22757614766017384;-1.1861768607442393;1.176;0.0023192211406262613
