Time;AccX;AccY;AccZ;Acc-old;Acc-trns
25:46.7;-0.08556155499923114;-0.15292037411807327;-0.8629782000461893;0.883;0.011291297382638767
25:46.7;-0.07151814680029925;-0.15938484392012228;-0.8261497453390523;0.87;0.009417205490916344
25:46.8;-0.058208571673905724;-0.16585162694773817;-0.7904371482924337;0.8320000000000001;0.007630869412025347
25:46.8;-0.046277128359255994;-0.1722789311742037;-0.7570434662718792;0.7979999999999999;0.0060355852162171045
25:46.8;-0.03624927714147542;-0.17862937260910655;-0.7271308642500424;0.723;0.004708307325732071
25:46.8;-0.02850522721822779;-0.18487880321083544;-0.7017550482618407;0.723;0.0036982577312665585
25:46.8;-0.023278977446938853;-0.19102340736733842;-0.6817922097510803;0.688;0.0030318137738764156
25:46.8;-0.020667268109610826;-0.19707779502736578;-0.6678725526209489;0.6659999999999999;0.0027202847309176956
25:46.8;-0.020635052446346017;-0.2030632036183913;-0.6603305411024413;0.654;0.0027669301452393075
25:46.8;-0.02301474474966117;-0.20898978398289922;-0.6591788149290558;0.65;0.0031705489380441775
25:46.8;-0.027506382968633628;-0.21483921048511934;-0.6641119740126656;0.662;0.003924536239372023
25:46.8;-0.033689154750504505;-0.22055455094102017;-0.674544225991085;0.691;0.005012063532389987
25:46.9;-0.04105066524670909;-0.22604283161378821;-0.6896800454799336;0.73;0.0063996850175390895
25:46.9;-0.0490323304297188;-0.2311916337688596;-0.7086108272359453;0.769;0.008032716377143383
25:46.9;-0.057082428862878835;-0.23589620961134147;-0.7304241091247203;0.848;0.009835546734588582
25:46.9;-0.06470576086122037;-0.24009006393367596;-0.754306080121504;0.848;0.011718303556628448
25:46.9;-0.0715009474425162;-0.2437705220275823;-0.7796158565700461;0.848;0.013588566609052916
25:46.9;-0.07718173637984221;-0.2470122306403118;-0.8059170486902513;0.863;0.015364673838652596
25:46.9;-0.08158449202174381;-0.24996522064541635;-0.8329672813487095;0.872;0.01698693962190112
25:46.9;-0.0846673032028409;-0.25283758050961386;-0.860678831018943;0.884;0.018424617224743766
25:46.9;-0.08650547207230003;-0.2558652894670936;-0.8890670362214598;0.905;0.01967838542567438
25:46.9;-0.08728473689665195;-0.25927425599912646;-0.9182011530491039;0.9359999999999999;0.020779521262339406
25:47.0;-0.08729033183915672;-0.26324074517473384;-0.948168527616479;0.976;0.021787369146158867
25:47.0;-0.08688912784327474;-0.26785485407133774;-0.9790575907598804;1.008;0.022786267839619206
25:47.0;-0.08650343937136107;-0.2730897220548641;-1.0109581685276152;1.111;0.023882067223829222
25:47.0;-0.08657691776125624;-0.2787788566676574;-1.043968802500858;1.111;0.025197036992732548
25:47.0;-0.08753403382143138;-0.28460417579356734;-1.0781937038936917;1.111;0.026860556228743192
25:47.0;-0.08973473027365296;-0.29009710084599316;-1.113715486226358;1.16;0.028992002197295714
25:47.0;-0.09342518385311711;-0.29465498762952574;-1.1505435716793364;1.192;0.031672389399347536
25:47.0;-0.09868518131111077;-0.29757527112967436;-1.1885475336160463;1.22;0.034903207286915955
25:47.0;-0.10537419358620297;-0.29810937693108797;-1.2273833007589678;1.244;0.03855583482400431
25:47.0;-0.11308347888150447;-0.29553729322314576;-1.266417793258272;1.265;0.04232417054688028
25:47.1;-0.12111010077050324;-0.2892600385928857;-1.3046609073210245;1.274;0.0457052885111674
25:47.1;-0.12847738015613244;-0.2788999812480977;-1.3407205919000578;1.275;0.04804115464109232
25:47.1;-0.1340268324342598;-0.2643911685504475;-1.3728028995990855;1.3780000000000001;0.048645972035979465
25:47.1;-0.1365862456760629;-0.2460403635107907;-1.3987778141322316;1.3780000000000001;0.04700694890368193
25:47.1;-0.13517968945892733;-0.22454659364902235;-1.4163204919136265;1.3780000000000001;0.04299118879475528
25:47.1;-0.12921969380785578;-0.20097429311357115;-1.4231259400907446;1.4680000000000002;0.036958348152966634
25:47.1;-0.11863144915525549;-0.17667616692205007;-1.4171878703994527;1.537;0.029703336184948637
25:47.1;-0.10388437332596065;-0.1531645233485525;-1.3971168248820922;1.574;0.022230085379286
25:47.1;-0.08592667822355339;-0.13194227896072272;-1.3624460951717756;1.571;0.01544654424357615
25:47.1;-0.06603747701948325;-0.1143211437632281;-1.3138567163895654;1.526;0.00991893487725669
25:47.2;-0.04563073444181421;-0.10126266697917631;-1.2532591598242941;1.4340000000000002;0.005790921899016957
25:47.2;-0.026056442032737777;-0.09327317678081998;-1.1836939120157117;1.3030000000000002;0.0028768107686404417
25:47.2;-0.008440719231342618;-0.09036979175249155;-1.1090492477749412;0.909;0.000845967282963236
25:47.2;0.006409951284257575;-0.09211678033455299;-1.0336437505931946;0.909;0.0006103295004607362
25:47.2;0.01803684705853367;-0.09771517052781743;-0.9617676584735549;0.909;0.0016950900940333306
25:47.2;0.026302259801537112;-0.10612212518161003;-0.8972783142162627;0.821;0.002504529626405788
25:47.2;0.03132652513228497;-0.11618192680356822;-0.8432944606689048;0.759;0.003069234322088569
25:47.2;0.03340748374065283;-0.12675665023279495;-0.8019881087836801;0.722;0.003396115472009563
25:47.2;0.03293989360543923;-0.1368446066662805;-0.7744665886357277;0.7090000000000001;0.003491021827629986
25:47.2;0.03034926750033811;-0.1456736083562229;-0.7607463758436367;0.715;0.003363326146653406
25:47.3;0.026048665721831857;-0.15275912152417742;-0.7598190443424462;0.737;0.003023450128775669
25:47.3;0.020419596133035383;-0.15792334925280632;-0.7698009504025783;0.7709999999999999;0.0024824009976136467
25:47.3;0.013811429958054532;-0.16127789689716915;-0.7881489560941399;0.87;0.0017555847573795282
25:47.3;0.006549988858415207;-0.1631781141638706;-0.8119149579599522;0.87;0.0008677867475314203
25:47.3;-0.0010535589737910047;-0.164159522115326;-0.8380054826993288;0.87;0.00014493450439964975
25:47.3;-0.008699668957321986;-0.16486527572657098;-0.8634185639555861;0.9009999999999999;0.0012383782114646746
25:47.3;-0.0161066625591422;-0.16597039952214948;-0.885447850294963;0.929;0.0023670050661143503
25:47.3;-0.02302555254008489;-0.16810661299830093;-0.9018569619154693;0.956;0.0034908607159055954
25:47.3;-0.02925715238422984;-0.17179203446785446;-0.911026063454377;0.983;0.004578949759499594
25:47.3;-0.03466236594339474;-0.17737171805099167;-0.9120648480448822;1.006;0.005607487233754128
25:47.4;-0.039159995858637796;-0.18497626775763332;-0.9048794896072166;1.018;0.006554648303296002
25:47.4;-0.04271390386236546;-0.19450572618198178;-0.8901769070491287;1.0070000000000001;0.007395677772305197
25:47.4;-0.045317319560868596;-0.20564346069922215;-0.8693911859416205;0.857;0.008102039402656133
25:47.4;-0.0469822212709684;-0.21789826425092457;-0.8445319238144335;0.857;0.008645764216281578
25:47.4;-0.047736677777992266;-0.23066436526137493;-0.8179789529440832;0.857;0.0090068893398063
25:47.4;-0.04762816448609983;-0.2432863380501909;-0.7922592553212288;0.812;0.00918013119133931
25:47.4;-0.04672967996856919;-0.2551216995227885;-0.7698294109085366;0.774;0.009177717914820268
25:47.4;-0.04514611559084997;-0.26559946070979973;-0.7528727399237245;0.748;0.009027534369335644
25:47.4;-0.04301853607156038;-0.27427199161927307;-0.7431217068655904;0.732;0.00876792920919369
25:47.4;-0.04052453318327352;-0.2808548269574638;-0.7417227327646141;0.727;0.008441925259980975
25:47.5;-0.03787435939671196;-0.28524927533451494;-0.7491604224450308;0.742;0.00809365469049441
25:47.5;-0.03530431453948548;-0.2875452376084871;-0.7652522896553963;0.774;0.0077685255878541006
25:47.5;-0.03306961760627385;-0.28800443324577174;-0.7892153165942178;0.8909999999999999;0.007516641737387543
25:47.5;-0.031437942104673156;-0.28702655039061287;-0.8197905355808026;0.8909999999999999;0.007397399633191786
25:47.5;-0.03068241028076945;-0.28510255193343526;-0.8553968668064078;0.8909999999999999;0.007482698262650284
25:47.5;-0.031071153274216053;-0.2827596368987172;-0.8942859553639673;0.941;0.007856899516846233
25:47.5;-0.03285125169772766;-0.2805010984271633;-0.9346871430728454;0.996;0.00861296647601024
25:47.5;-0.036227535339321;-0.27874378489082285;-0.9749444161640443;1.055;0.009845184013094756
25:47.5;-0.041339375342802805;-0.2777577021040107;-1.0136423697275165;1.104;0.01163897609148349
25:47.5;-0.048239438814001265;-0.2776152983649183;-1.0497075605419461;1.139;0.014057690158235261
25:47.6;-0.05687679775468109;-0.27816024960545205;-1.0824683370292834;1.16;0.017125584626105698
25:47.6;-0.06708361063246066;-0.2790063371950021;-1.111661509605295;1.169;0.020806693326139557
25:47.6;-0.0785623140285383;-0.2795751382950029;-1.137383793618174;1.196;0.02498157704300064
25:47.6;-0.09087276522430185;-0.279173472641184;-1.159995420371974;1.196;0.029428231724164436
25:47.6;-0.10342686264155265;-0.2770982973619438;-1.1799898216278242;1.196;0.03381780919044874
25:47.6;-0.11550556927904762;-0.2727479654053445;-1.1978467518423217;1.2;0.03773685508257184
25:47.6;-0.12631248126371827;-0.26572188084374376;-1.213887824391859;1.195;0.04074291891485793
25:47.6;-0.1350678342947605;-0.25589866099111064;-1.2281539727159774;1.199;0.042449518372456495
25:47.6;-0.1411311703776075;-0.2434862901152406;-1.2403243295402553;1.21;0.042621891417442305
25:47.6;-0.1441265650364149;-0.22903591543595767;-1.2496949882185082;1.2229999999999999;0.04125263121455796
25:47.7;-0.1440380703892593;-0.21340896843607252;-1.255231986158626;1.244;0.03858459612795006
25:47.7;-0.14124631383958544;-0.19769070761808308;-1.2557039842692754;1.278;0.035063127494595385
25:47.7;-0.13648797776372965;-0.18305481580127086;-1.2498857655075435;1.357;0.031228122911935875
25:47.7;-0.1307397723007586;-0.17060070046993217;-1.2368034536222146;1.357;0.02758603123096473
25:47.7;-0.1250543110346388;-0.16119845473107544;-1.2159723776750286;1.357;0.02451225419628942
25:47.7;-0.12038884536522941;-0.15537480726138647;-1.1875727522513875;1.33;0.022214015812989776
25:47.7;-0.11745902361574685;-0.15325763670844386;-1.152521948486857;1.2690000000000001;0.02074711506128751
25:47.7;-0.11663483975695889;-0.1545810534154187;-1.1124244174689657;1.178;0.020056496520964227
25:47.7;-0.11788902518800022;-0.1587454046208836;-1.0694024052399675;1.078;0.02001316128197743
25:47.7;-0.12080375028668625;-0.1649215387930184;-1.0258322081597595;0.986;0.020437799098978995
25:47.8;-0.12463410482768404;-0.17218204566499984;-0.9840294357477091;0.902;0.021117030730732834
25:47.8;-0.12841970593103932;-0.1796366653270857;-0.9459371894671528;0.84;0.021821718828876208
25:47.8;-0.13113030674009096;-0.1865488243203051;-0.9128714296054773;0.813;0.02233084764353853
25:47.8;-0.13182462769230635;-0.1924165389618434;-0.8853690870868474;0.813;0.022457598152307075
25:47.8;-0.1297948747537302;-0.19701060905113646;-0.8631673426024482;0.841;0.022072023915376045
25:47.8;-0.12466955577963137;-0.2003712029175245;-0.8453183877129783;0.885;0.021116212970851148
25:47.8;-0.11645714628046865;-0.2027686509425706;-0.8304171978093398;0.929;0.01960935415846001
25:47.8;-0.1055271598232821;-0.20463724810559647;-0.8168967310895836;0.956;0.017640711388096794
25:47.8;-0.09253778167008396;-0.20649371998098598;-0.803331666776598;0.96;0.015350439677910619
25:47.8;-0.07832895046336755;-0.2088538701152791;-0.7886922691171551;0.934;0.01290245694496407
25:47.9;-0.06380483256003996;-0.2121602966531226;-0.7725040541386529;0.888;0.01045727320774285
25:47.9;-0.049828209619395415;-0.21673092953005343;-0.7548919527042972;0.83;0.00815231537496717
25:47.9;-0.037142277977186486;-0.2227331190367611;-0.7365135137058013;0.725;0.006093040354688769
25:47.9;-0.026325731250572235;-0.23018151653887353;-0.7184097230590654;0.725;0.004353345059141253
25:47.9;-0.017778073574575413;-0.23895243081566103;-0.701817491876308;0.6920000000000001;0.0029814006396004893
25:47.9;-0.01172620789180776;-0.24880654607712738;-0.6879866658368672;0.6779999999999999;0.002007240508305637
25:47.9;-0.00824110670886774;-0.2594154399211071;-0.6780296323188068;0.6809999999999999;0.001449539428586367
25:47.9;-0.007254794215900905;-0.27039060942594273;-0.6728165061778464;0.6940000000000001;0.0013198158516556113
25:47.9;-0.008573034747658222;-0.2813145356937834;-0.6729189245853218;0.711;0.0016228915507082633
25:47.9;-0.011886171992214076;-0.2917729769071105;-0.6785977598653968;0.732;0.0023534203163844193
25:48.0;-0.01678510729576492;-0.3013871442292221;-0.6898245468359865;0.755;0.0034896951466866382
25:48.0;-0.022788411074586033;-0.3098439709090397;-0.7063247901541833;0.772;0.0049872546504460945
25:48.0;-0.029381131371004943;-0.3169224621706489;-0.7276323632506059;0.84;0.006775378216213953
25:48.0;-0.036059598925029586;-0.32251342003801803;-0.7531449901657022;0.84;0.008758853737399756
25:48.0;-0.04237324681987878;-0.3266287364650248;-0.7821711696742152;0.84;0.010825499336798746
25:48.0;-0.04795643966001399;-0.32939698531277917;-0.8139637006299931;0.87;0.012857945802879456
25:48.0;-0.05254878379380993;-0.3310450343748654;-0.8477447815238114;0.899;0.014747380034728686
25:48.0;-0.05600644071497858;-0.33186854000877425;-0.8827335943801681;0.934;0.016407171331457256
25:48.0;-0.05830681098401979;-0.3321954872915771;-0.9181842459419755;0.982;0.017784548916759076
25:48.0;-0.05954622656196002;-0.33234693112902153;-0.9534346496891554;1.037;0.018868477112054048
25:48.1;-0.059927954892505034;-0.3325989003234671;-0.9879594669083642;1.088;0.0196919803286876
25:48.1;-0.059737321210524885;-0.3331489356751823;-1.0214135257603545;1.127;0.020327584657879247
25:48.1;-0.059302382768690515;-0.3340894333765252;-1.053648926879416;1.1520000000000001;0.020875208061955048
25:48.1;-0.05894284899233902;-0.3353888559331502;-1.0846919628534013;1.1520000000000001;0.02144303102059746
25:48.1;-0.05891566063728271;-0.33688244310808485;-1.1146748107418796;1.1520000000000001;0.022123677394358887
25:48.1;-0.059368244569934295;-0.33827544702731965;-1.1437294094541042;1.1540000000000001;0.022969311253879483
25:48.1;-0.060307491455887915;-0.3391621954269888;-1.1718626365086686;1.16;0.02396930321400333
25:48.1;-0.06158761306284297;-0.3390633300069032;-1.1988380066299467;1.181;0.025034256543602074
25:48.1;-0.06291700784317947;-0.33748179020169633;-1.224088162203898;1.209;0.025991485574287706
25:48.1;-0.06388295391904208;-0.3339747073686949;-1.2466765644616693;1.232;0.026598207087398407
25:48.2;-0.06399290172107083;-0.32823236392426036;-1.2653197473191724;1.246;0.02657746102474924
25:48.2;-0.06273242573421385;-0.320147412397149;-1.2784771007576556;1.261;0.025676453092996033
25:48.2;-0.059639280832553924;-0.30985290880364125;-1.28451189557221;1.3840000000000001;0.02373701508949733
25:48.2;-0.05438579999192691;-0.29771518616172626;-1.2819152166074512;1.3840000000000001;0.020756102757168018
25:48.2;-0.04685092860715602;-0.284285907250102;-1.2695614558492647;1.3840000000000001;0.016909363610330044
25:48.2;-0.03715932368678534;-0.270229748528749;-1.2469484619702136;1.396;0.012521301183191858
25:48.2;-0.02567428005075114;-0.2562408936373782;-1.2143801125355638;1.3769999999999998;0.007989164447457977
25:48.2;-0.012948566938940807;-0.24295590490224594;-1.1730605483137388;1.329;0.0036903673066685334
25:48.2;0.00034815625192411765;-0.23087354467701654;-1.125076050516193;1.2429999999999999;9.043368942674533e-05
25:48.2;0.013503013419522685;-0.22029656417668184;-1.0732508143155757;1.128;0.003192564276287841
25:48.3;0.02581979079725213;-0.21130789949836104;-1.0208835482008152;1.014;0.005569864847419567
25:48.3;0.03666177734354929;-0.20378574197919747;-0.9713964149385889;0.919;0.007257445895259315
25:48.3;0.04548269715099121;-0.19745292434413955;-0.9279468985281876;0.7759999999999999;0.008333604879296784
25:48.3;0.05185250752995188;-0.19194826936522938;-0.8930633604382423;0.7759999999999999;0.008888658807164957
25:48.3;0.05548151959196981;-0.1869034537641134;-0.8683642892193171;0.7759999999999999;0.009004666429832137
25:48.3;0.05624303370957461;-0.18201041061173293;-0.8544038543970636;0.779;0.008746376465061685
25:48.3;0.05419322748736547;-0.17706981153518425;-0.8506560825461061;0.812;0.00816288264901461
25:48.3;0.04958413517899833;-0.17201750187064252;-0.8556237899081597;0.86;0.00729790541698353
25:48.3;0.04286058754995256;-0.16693090301790656;-0.8670445916384225;0.9059999999999999;0.006203493000292515
25:48.3;0.03463023338581281;-0.1620204146726442;-0.8821591590266656;0.9390000000000001;0.00494962282034756
25:48.4;0.02560155960030659;-0.15761114112601413;-0.8980040672503115;0.96;0.003623528150567786
25:48.4;0.016496431545366456;-0.15411797794143062;-0.9116960191264948;0.98;0.0023178929258337883
25:48.4;0.007955200727221423;-0.15201380697598518;-0.9206842941474083;0.996;0.0011133838371292705
25:48.4;0.00045756496870779425;-0.15178911597076733;-0.9229578734509196;0.996;6.410254584638832e-05
25:48.4;-0.005721842848763012;-0.1539032266419966;-0.9171992581310361;0.996;0.0008076949091097946
25:48.4;-0.010514867720252516;-0.1587302931416198;-0.9028796698288609;0.978;0.0015069314817005193
25:48.4;-0.014021904564281392;-0.16650510703859964;-0.88029229339283;0.9470000000000001;0.0020552348967734957
25:48.4;-0.01644869116716844;-0.17727563290909926;-0.8505225112813853;0.9079999999999999;0.0024800829344958407
25:48.4;-0.018038609722665657;-0.19087155111527204;-0.815357312362029;0.862;0.00280732204242703
25:48.4;-0.019020727395779202;-0.206898066675182;-0.777140212053421;0.812;0.003058320074026522
25:48.5;-0.01958550050197554;-0.22476003686898263;-0.7385822570149473;0.763;0.003251267024809868
25:48.5;-0.019888402120936566;-0.24371498857084195;-0.702543395481792;0.72;0.003405299283469821
25:48.5;-0.0200717651815209;-0.26294747573916044;-0.6718019509907293;0.6679999999999999;0.003545649764990228
25:48.5;-0.02029012608503877;-0.28165174415864375;-0.6488338868277599;0.6679999999999999;0.0037079230661298604
25:48.5;-0.02072532718664887;-0.2991060798860401;-0.6356255442635563;0.6679999999999999;0.003940288112947214
25:48.5;-0.02158285877767582;-0.31472556657483713;-0.6335376165442823;0.675;0.004303416686130735
25:48.5;-0.02306768291000456;-0.32809025328122415;-0.6432253906334595;0.6829999999999999;0.004868111099918532
25:48.5;-0.025344628999332288;-0.33895393182274813;-0.6646114841166556;0.7020000000000001;0.005709452388692398
25:48.5;-0.028494194515550898;-0.34723992655478353;-0.6969074227152174;0.743;0.006895426452073348
25:48.5;-0.03247734928932324;-0.3530284978371552;-0.7386830569559149;0.79;0.008469318758606898
25:48.6;-0.03712164362936838;-0.3565387393146063;-0.7879822819241716;0.8370000000000001;0.010429185064349802
25:48.6;-0.042135764083186825;-0.35810599416025546;-0.8424810137658486;0.9;0.012712254726444326
25:48.6;-0.047151618374977056;-0.3581543595363038;-0.8996794136227698;1.092;0.015193387991234153
25:48.6;-0.05178412656713467;-0.3571637965564348;-0.957109208588094;1.092;0.017702132248680696
25:48.6;-0.05569297870108778;-0.3556325287670946;-1.0125218598273757;1.092;0.02005424574654007
25:48.6;-0.05863158717935223;-0.3540363501271688;-1.0640256969764939;1.147;0.02208674017774407
25:48.6;-0.060475162846201004;-0.3527862005926564;-1.1101656446423622;1.195;0.023685165248915434
25:48.6;-0.061226267732745907;-0.3521851037410356;-1.149959741880623;1.235;0.024796558286102624
25:48.6;-0.060999662229160444;-0.35238696151552557;-1.182904291895886;1.263;0.02542710220386343
25:48.6;-0.0599909131180359;-0.35336255831332947;-1.2089488872606395;1.275;0.025627954409165276
25:48.7;-0.05843549065415039;-0.35488089664328926;-1.2284393901647337;1.284;0.025474932998654946
25:48.7;-0.05656492802929036;-0.3565152934272691;-1.2420303886700832;1.295;0.025047110123136197
25:48.7;-0.05456445103436809;-0.35768204209108306;-1.2505731026067306;1.278;0.024407090424994476
25:48.7;-0.05253662530724692;-0.3577120533657342;-1.254988833969607;1.278;0.02358498522199786
25:48.7;-0.05048015734083184;-0.35594327894040667;-1.256142598356424;1.278;0.022570461560644836
25:48.7;-0.04829598324961421;-0.3518135324863515;-1.254733883150894;1.254;0.021319409852885503
25:48.7;-0.04582699504342134;-0.3449372627121817;-1.2512193055878045;1.242;0.019778571883514104
25:48.7;-0.04292502841999812;-0.33515920197526605;-1.2457787655936536;1.253;0.01792266812735944
25:48.7;-0.03952674426281151;-0.32258217256801597;-1.238333828842152;1.274;0.015789527847807336
25:48.7;-0.03571468931608408;-0.3075654324389619;-1.2286194912104604;1.2990000000000002;0.013495898410443468
25:48.8;-0.03174298167173944;-0.2906901681718197;-1.2162965045628877;1.315;0.011223221137509655
25:48.8;-0.028016551362926183;-0.2726934123454465;-1.201077303158672;1.3090000000000002;0.009176145311605892
25:48.8;-0.025024946028547528;-0.2543786262680254;-1.182833066190568;1.208;0.00752969220897814
25:48.8;-0.02324414299081599;-0.23651810752979957;-1.161658502293326;1.208;0.006386404308051916
25:48.8;-0.023029428907073747;-0.21976717005805865;-1.1378895343178543;1.208;0.0057589868535416686
25:48.8;-0.0245235806136071;-0.20460709691050946;-1.1120805955790318;1.159;0.005580085286670422
25:48.8;-0.027597380334232143;-0.19132246518555981;-1.0849458895565316;1.105;0.005728513036377881
25:48.8;-0.03183213278394687;-0.1800084508030971;-1.0572665341531335;1.047;0.006058193178763265
25:48.8;-0.03654983905351308;-0.1706013803164197;-1.0297735263717953;0.99;0.0064211044169956875
25:48.8;-0.040891027083875084;-0.16292632127498835;-1.0030277358787998;0.9470000000000001;0.006682396072433961
25:48.9;-0.0439306313768339;-0.1567540771369758;-0.9773234038434072;0.924;0.0067301476088825985
25:48.9;-0.04481264788993693;-0.1518575818853632;-0.9526390982933609;0.9179999999999999;0.006482842763398129
25:48.9;-0.042878953953355586;-0.14805731436778455;-0.9286506463483757;0.9279999999999999;0.005895578342304603
25:48.9;-0.03776924500513502;-0.14524885933005496;-0.9048060914673968;0.9279999999999999;0.004963711707523886
25:48.9;-0.029476997308842956;-0.14341183116161274;-0.880447750397157;0.9279999999999999;0.0037219609395758493
25:48.9;-0.01835557813794002;-0.14260353670800627;-0.8549567858824604;0.9179999999999999;0.0022379095424825586
25:48.9;-0.005075541203249366;-0.1429409007337131;-0.8278938863701617;0.895;0.0006006390274228877
25:48.9;0.009458403636426516;-0.14457335293465928;-0.7991134790067244;0.867;0.0010927342435279454
25:48.9;0.02421411672518558;-0.14765003198847032;-0.7688355137411033;0.8290000000000001;0.0027487523450984933
25:48.9;0.038143488086447554;-0.15228573266945356;-0.7376667650963747;0.787;0.004284891599408433
25:49.0;0.05028505324068822;-0.1585303039458493;-0.7065714442902069;0.748;0.005632578955747159
25:49.0;0.059850823909562034;-0.1663454454442053;-0.676797325470396;0.7070000000000001;0.006738134589474091
25:49.0;0.06629284035813661;-0.17559101448215442;-0.6497679723297529;0.6679999999999999;0.007563576708223969
25:49.0;0.06934417328995303;-0.1860211854415288;-0.6269544124555402;0.631;0.00808738923906465
25:49.0;0.06902888794555087;-0.19729070453046296;-0.6097415445156323;0.601;0.008303922498117823
25:49.0;0.06563788568724784;-0.20897275529611095;-0.5993056507489155;0.591;0.00822039383211452
25:49.0;0.05967231458690741;-0.22059045827511117;-0.5965183265396075;0.602;0.007852056166229386
25:49.0;0.05176258594506418;-0.23166192806053884;-0.6018874305376641;0.63;0.00721748525002863
25:49.0;0.042577726347163246;-0.24175406192291546;-0.6155376952901812;0.662;0.0063359377290192476
25:49.0;0.032743714871924595;-0.2505352100550425;-0.6372255008761457;0.695;0.005227449754886502
25:49.1;0.02278666933152335;-0.257815162626125;-0.6663773891875098;0.728;0.0039147998070688875
25:49.1;0.013107078229170349;-0.26356401516162337;-0.7021411797714074;0.758;0.002425584737079927
25:49.1;0.003980098907011119;-0.26790764043081744;-0.7434409906388569;0.7879999999999999;0.0007927303156321059
25:49.1;-0.004429365738590875;-0.2711036254575129;-0.7890317355946594;0.8220000000000001;0.0009474828086001922
25:49.1;-0.012047327351886052;-0.27350493032209133;-0.837553538436788;0.868;0.0027597417802366973
25:49.1;-0.018872302406969157;-0.2755178504047718;-0.8875901065441254;0.925;0.00461516339287933
25:49.1;-0.02495760273752869;-0.2775577705500442;-0.9377350614966953;0.987;0.00649585635071414
25:49.1;-0.030391567890837624;-0.28000433169672245;-0.9866656932963656;1.051;0.008396298764578338
25:49.1;-0.035273610044569303;-0.28315842887550335;-1.0332169351767755;1.105;0.010319791413904553
25:49.1;-0.03968659894114737;-0.28720489657552234;-1.0764435878085326;1.147;0.012269503741842132
25:49.2;-0.04366923686929922;-0.29218472664357137;-1.1156587697557536;1.176;0.014235230263872214
25:49.2;-0.04719360314858038;-0.29797942979360287;-1.1504414014665563;1.197;0.016178338706074102
25:49.2;-0.050151815014672765;-0.3043088471088703;-1.1806130483953563;1.214;0.018018092513418404
25:49.2;-0.05235299501632298;-0.31074275876359114;-1.206191468364199;1.2309999999999999;0.019622701673185115
25:49.2;-0.05352979261995607;-0.31672604610718447;-1.2273322130198472;1.251;0.020808533459228565
25:49.2;-0.05335362716058092;-0.3216169608954969;-1.2442697306586963;1.2690000000000001;0.021350961111390825
25:49.2;-0.05145871884597696;-0.32473786364570917;-1.257266428412048;1.287;0.021009669368089366
25:49.2;-0.04747531560020189;-0.3254372113872695;-1.2665737927183194;1.3090000000000002;0.019568861879372235
25:49.2;-0.04107226676981165;-0.3231600201307953;-1.272405364913604;1.319;0.01688852768928478
25:49.2;-0.032009709152013156;-0.31751978200786435;-1.2749186441349882;1.311;0.0129579108590085
25:49.3;-0.020203093510649885;-0.3083581973848789;-1.274204034289402;1.2930000000000001;0.007938022909267742
25:49.3;-0.005794706966644741;-0.2957764529121789;-1.2702836868610679;1.2890000000000001;0.0021771873194248318
25:49.3;0.010784250715985958;-0.28012904415425516;-1.2631266673736383;1.296;0.003815882730057206
25:49.3;0.028790021470303958;-0.26198340175910134;-1.2526841317832014;1.296;0.00944837978669245
25:49.3;0.04720638187757702;-0.2420554449525057;-1.2389400142431206;1.29;0.014156824602042484
25:49.3;0.06485167673977306;-0.22113140288184774;-1.2219649478403978;1.278;0.01752388436370847
25:49.3;0.08052988529508526;-0.19998692434258322;-1.2019583037122856;1.254;0.019357447225997828
25:49.3;0.09318883904672992;-0.1793173738665664;-1.179265897390249;1.22;0.019705978779989725
25:49.3;0.10205028957000586;-0.15969196308615013;-1.1543676063185704;1.181;0.018812279917688166
25:49.3;0.10668771203736895;-0.14153586256295406;-1.1278375510556011;1.135;0.01703050192725846
25:49.4;0.10704304752561054;-0.12513466239713755;-1.1002864894470974;1.093;0.014738112643075289
25:49.4;0.10338924896936154;-0.110651811394415;-1.0722993587325789;1.058;0.012267327355994782
25:49.4;0.09625687282497027;-0.0981519613526665;-1.0443806048270152;1.0090000000000001;0.009867099977961142
25:49.4;0.0863468167507039;-0.08762667162356114;-1.0169177517619474;1.0090000000000001;0.007694288674284821
25:49.4;0.07444791923736985;-0.07902071391674728;-0.9901696615898042;1.0090000000000001;0.00582509655734677
25:49.4;0.06136971677106676;-0.07225671863617715;-0.964278216475787;0.9840000000000001;0.0042759705966446005
25:49.4;0.04789125541016701;-0.0672541534281648;-0.9392930662262732;0.956;0.003025355735888367
25:49.4;0.03472170573216736;-0.06393876206396365;-0.915196184336849;0.9129999999999999;0.0020317930779206947
25:49.4;0.022469006894823756;-0.062242721795633116;-0.8919190912123041;0.873;0.00124737751995896
25:49.4;0.011615135494900857;-0.062101238162956734;-0.8693550066140563;0.865;0.0006270781942776601
25:49.5;0.0024977313794003505;-0.06345289452184899;-0.847373282384613;0.856;0.00013429873892481148
25:49.5;-0.004701513223664654;-0.06624718741938325;-0.82584055636907;0.85;0.0002572179742294196
25:49.5;-0.009959800267859337;-0.07045697596080079;-0.8046460682701801;0.774;0.0005646502463430794
25:49.5;-0.01340477438905413;-0.07608962899386884;-0.7837271446259737;0.774;0.0007993737163042594
25:49.5;-0.015293482357212786;-0.08318911373230262;-0.7630974559991984;0.774;0.0009708516870602915
25:49.5;-0.015980107496751668;-0.09182292920951217;-0.742884169646632;0.774;0.001090063865076847
25:49.5;-0.015875153748626452;-0.10205292859486441;-0.7233727235656293;0.753;0.0011719404404530434
25:49.5;-0.015399132271330771;-0.11389477033443848;-0.7050481768544666;0.747;0.001236570342993992
25:49.5;-0.014935045929373897;-0.12727395517555584;-0.688619868693164;0.745;0.0013089578205915033
25:49.5;-0.014786095095750037;-0.14198720961978525;-0.675018806657053;0.733;0.001417159042457454
25:49.6;-0.015145920343920207;-0.1576782114790026;-0.6653592793989094;0.706;0.0015889988090976815
25:49.6;-0.016086836137059274;-0.17383743275363872;-0.6608593076468521;0.682;0.001848089283760838
25:49.6;-0.01756759658984144;-0.1898346330372713;-0.6627222235391171;0.677;0.002210137693717424
25:49.6;-0.019457719044019085;-0.204983674407704;-0.6719921152691027;0.677;0.002680250460433005
25:49.6;-0.021571696206130926;-0.21862481415121196;-0.6894036281606885;0.677;0.003251302017007848
25:49.6;-0.02370556542936254;-0.2302032564614354;-0.7152481684612498;0.7020000000000001;0.0039031796057431194
25:49.6;-0.025670333630468292;-0.23933039968928482;-0.7492752629481396;0.735;0.004603315845299369
25:49.6;-0.027318483409332413;-0.2458231874877102;-0.7906434263680621;0.77;0.005309579109019659
25:49.6;-0.028559847641390267;-0.24971819882566298;-0.8379310573423767;0.821;0.005976051997355689
25:49.6;-0.029363945561288546;-0.2512572962286552;-0.8892134953200859;0.887;0.006560533198560496
25:49.7;-0.02974892528175767;-0.25084699690268664;-0.942205579502427;0.96;0.007031141833418575
25:49.7;-0.029761404293440884;-0.24900098176605953;-0.9944596970108939;1.037;0.007369561813828176
25:49.7;-0.029454786841275133;-0.24627867654933017;-1.0435985733130233;1.21;0.00757035371817115
25:49.7;-0.028873992655801036;-0.24323049225001042;-1.08754947677035;1.21;0.007637898525608833
25:49.7;-0.028051256837633768;-0.2403542406352198;-1.1247368031414733;1.21;0.007583243817079972
25:49.7;-0.02701324530309719;-0.23806175660201934;-1.1541976424161247;1.228;0.007422438008073214
25:49.7;-0.025796983050940678;-0.2366524818882021;-1.1756113710474;1.23;0.007177013446847733
25:49.7;-0.024470393174447727;-0.23629106394099633;-1.189257794993795;1.2209999999999999;0.006876449403790871
25:49.7;-0.0231507309591486;-0.23698764997387495;-1.1959251330768277;1.218;0.006561368288240811
25:49.7;-0.02201126193001857;-0.23858262017816118;-1.1967867022753442;1.225;0.0062849308060254905
25:49.8;-0.02126554079053305;-0.24074179321098008;-1.1932604925644812;1.226;0.006108902370088558
25:49.8;-0.021122387401160462;-0.24297160517191801;-1.1868587721595698;1.218;0.006091125820371155
25:49.8;-0.02171502939119919;-0.24466301117628453;-1.1790291975983356;1.1520000000000001;0.006264022343190558
25:49.8;-0.023023519951991755;-0.24516486763048623;-1.1709926855938986;1.104;0.006609736390689287
25:49.8;-0.024822055655586296;-0.24387518204483893;-1.1635976664471486;1.104;0.0070438190903174755
25:49.8;-0.02668059385579692;-0.24033191963096842;-1.157222603708357;1.09;0.007420340856493202
25:49.8;-0.028032008362436724;-0.23428824829184305;-1.1517556567797749;1.113;0.007564236054672988
25:49.8;-0.02829269530264877;-0.22576167964410798;-1.1466648676229474;1.158;0.007324214529228687
25:49.8;-0.02700532753169404;-0.2150464814270211;-1.1411538904993195;1.21;0.006627137863095206
25:49.8;-0.023961547881276586;-0.20268019249520544;-1.1343793713049481;1.2590000000000001;0.005509148737981278
25:49.9;-0.019264001962748602;-0.18936465119789136;-1.1256876307540689;1.285;0.004106419561571814
25:49.9;-0.013303673454537637;-0.17585618817157578;-1.114816735579661;1.2690000000000001;0.0026081508789551934
25:49.9;-0.006655739972008367;-0.1628501458647849;-1.1020123597093856;1.2209999999999999;0.0011944582208016363
25:49.9;7.539535384140635e-05;-0.1508868413920919;-1.0880241821826266;1.149;1.2377544575427664e-05
25:49.9;0.006414469825476149;-0.1402994587742632;-1.0739791753467782;1.067;0.0009665239554793721
25:49.9;0.012129313410285843;-0.13121196775401478;-1.0611590776927566;0.995;0.0016888464298635737
25:49.9;0.0172681569972262;-0.12358173839281549;-1.0507317180684377;0.9490000000000001;0.0022422918110609757
25:49.9;0.022113761194450895;-0.11727122089338463;-1.0434939917387978;0.927;0.0027061010807086085
25:49.9;0.027073759439239464;-0.11212741402368746;-1.039678243633886;0.9279999999999999;0.0031561622999520607
25:49.9;0.032543557867239704;-0.10804765295712661;-1.0388581397138876;0.953;0.00365289017629351
25:50.0;0.03878241086905025;-0.10501669695045132;-1.0399700465817903;0.9940000000000001;0.004235590722510328
25:50.0;0.045835917334734716;-0.10311149094612933;-1.0414449558703283;1.045;0.004922087330837929
25:50.0;0.053521317215353165;-0.10248056636978244;-1.0414263904941223;1.124;0.005712114299077796
25:50.0;0.061469625876770836;-0.10330983351325923;-1.0380338712376846;1.124;0.006591947750916038
25:50.0;0.06920025038271656;-0.1057854810593628;-1.0296238338839954;1.122;0.0075372395498685355
25:50.0;0.07619953097083232;-0.1100612460406452;-1.0150057159630008;1.099;0.008512462493840885
25:50.0;0.08198365735619391;-0.11623416843168806;-0.9935882482695644;1.065;0.009468202717672678
25:50.0;0.08613806446219552;-0.12433027529823407;-0.9654492319419755;1.028;0.010339545424453431
25:50.0;0.08833411590050616;-0.13429871271807475;-0.9313335985255218;0.983;0.011048557680799842
25:50.0;0.08833037615641245;-0.14601050905721577;-0.8925896509607912;0.93;0.011511874388194492
25:50.1;0.08596909763649974;-0.15925816027441858;-0.8510553267578165;0.8740000000000001;0.011652037055015751
25:50.1;0.08117723520737434;-0.1737544867872031;-0.8089076800117545;0.82;0.011409569088370954
25:50.1;0.07397699567305721;-0.18913171825350614;-0.7684907024673799;0.747;0.010752257973297832
25:50.1;0.06450605635302145;-0.20494303299909655;-0.7321387418423059;0.747;0.009678923100232968
25:50.1;0.053043105661332635;-0.22066942726630354;-0.7020119974703023;0.726;0.0082170446364829
25:50.1;0.04003071936324659;-0.2357360468021407;-0.6799532396921697;0.7;0.006416503540442692
25:50.1;0.02608561939131366;-0.2495427673348891;-0.6673654758602452;0.68;0.004344200649862971
25:50.1;0.011987202354913231;-0.2615113329022621;-0.6651086665939275;0.669;0.002084975508497832
25:50.1;-0.001360608560404093;-0.27114624242800045;-0.6734204704265392;0.67;0.000248440905325889
25:50.1;-0.012993581052122677;-0.2781018797829203;-0.691873262481654;0.682;0.002500111235463961
25:50.2;-0.021973145806785527;-0.28224532641026523;-0.7193831733768302;0.6970000000000001;0.004461483305281623
25:50.2;-0.027488045637902567;-0.2837014822875801;-0.7542882376856405;0.737;0.00588224085923067
25:50.2;-0.028962389991597375;-0.28286545591173184;-0.7945086108329709;0.9840000000000001;0.006508979735243951
25:50.2;-0.026154313440748426;-0.2803724093146214;-0.8377793002445334;0.9840000000000001;0.006143391938066831
25:50.2;-0.01922290828156757;-0.27702829633606973;-0.8819083340059726;0.9840000000000001;0.0046964172191484395
25:50.2;-0.008741054886435442;-0.2737155937543166;-0.924997892240593;1.034;0.002213115758211537
25:50.2;0.004358793840171886;-0.2712887381528917;-0.9655918362604446;1.061;0.001141804313396272
25:50.2;0.018902791809829025;-0.27047153580093175;-1.0027461930095485;1.078;0.005126707502467035
25:50.2;0.033637344301479154;-0.2717690446942321;-1.0360304829720457;1.091;0.009470964791030772
25:50.2;0.04740078198029078;-0.2754047324118862;-1.065469453620734;1.1;0.013909064091621952
25:50.3;0.059268687933657985;-0.28128793281382397;-1.0914406024739771;1.103;0.018196024813543155
25:50.3;0.06864540938531917;-0.2890116233090658;-1.1145487721820657;1.1159999999999999;0.02211189108345662
25:50.3;0.07529189686699525;-0.2978792646066918;-1.13549912463448;1.185;0.025466854991806127
25:50.3;0.07929904727922542;-0.3069592081364406;-1.1549822228782247;1.185;0.028114083813316874
25:50.3;0.0810273306754007;-0.31516355388887235;-1.1735735002649297;1.185;0.029969383933739928
25:50.3;0.08103327061059566;-0.3213477766051062;-1.1916440031762319;1.206;0.03103024461144271
25:50.3;0.07999535785568058;-0.32442913269844376;-1.2092837407695225;1.2329999999999999;0.03138432877835978
25:50.3;0.07864339828018561;-0.3235202732734156;-1.2262445677271663;1.246;0.031199013991133083
25:50.3;0.07768943369055652;-0.3180652513802742;-1.241910432366704;1.244;0.030687990852503372
25:50.3;0.07775642756462478;-0.3079527797224715;-1.255303872704194;1.248;0.030058637877815785
25:50.4;0.07930520185195399;-0.2935751740994758;-1.2651412159132578;1.268;0.029455066421782954
25:50.4;0.08257010653574542;-0.27580648114412243;-1.269948373983313;1.2930000000000001;0.02892100487636838
25:50.4;0.08752224932064444;-0.2558907821931264;-1.2682378347234804;1.359;0.028403628089547106
25:50.4;0.09387580231705664;-0.2352601607147442;-1.2587266251190126;1.359;0.027799275003627284
25:50.4;0.10113760109130365;-0.21533002917148608;-1.240554831960887;1.359;0.027016756725412205
25:50.4;0.10868702516424932;-0.19732475769757576;-1.213458355708217;1.3359999999999999;0.026024605608538327
25:50.4;0.11587112998917945;-0.18216365372694976;-1.1778611530697047;1.28;0.024861714182804976
25:50.4;0.12210035078410496;-0.17041074778091306;-1.1348712677510544;1.2;0.02361350715321879
25:50.4;0.12692632349656363;-0.16227929542244524;-1.086183587648562;1.109;0.022372682030701193
25:50.4;0.130083627820418;-0.15767725835436208;-1.0339094686959764;1.02;0.021206754696044012
25:50.5;0.13148730097205716;-0.15627681952267808;-0.980366139248831;0.951;0.020144972441503112
25:50.5;0.1311923750798874;-0.1575910882349569;-0.9278622695048786;0.903;0.019183319674228493
25:50.5;0.12933287427788506;-0.16104460301390652;-0.878510049079664;0.812;0.018297924791132777
25:50.5;0.1260614211906395;-0.1660292630043682;-0.8340842916558984;0.812;0.01745728818252538
25:50.5;0.12150621528836471;-0.17194379613168437;-0.7959397978586916;0.812;0.01662896521099968
25:50.5;0.11575321001293339;-0.1782211101492307;-0.7649864657832726;0.795;0.01578141497139402
25:50.5;0.10885286616679044;-0.1843506538850528;-0.7417073018417667;0.7809999999999999;0.01488391241254247
25:50.5;0.10084513029669127;-0.18990189134665958;-0.7261970833252143;0.772;0.013907168668783842
25:50.5;0.0917932061895233;-0.19455172270349372;-0.7182036388983014;0.764;0.01282605864343451
25:50.5;0.0818160272725057;-0.19811402020534968;-0.7171626568975893;0.752;0.01162441928121951
25:50.6;0.071110477921886;-0.20056479281440384;-0.7222248636537166;0.731;0.010300557535409954
25:50.6;0.05995680685300821;-0.20205413851247775;-0.7322818967797444;0.726;0.008871244384708935
25:50.6;0.048704848472222964;-0.20289740649867172;-0.7460032802793477;0.78;0.007372069645445263
25:50.6;0.03774504821405816;-0.20354282163174614;-0.761895729104112;0.78;0.00585344192996314
25:50.6;0.027474278462091842;-0.20451955032730407;-0.7783864328173813;0.78;0.0043737744420855405
25:50.6;0.018266630503694772;-0.20637479348992738;-0.7939244062199984;0.8140000000000001;0.0029929140744550833
25:50.6;0.010453070259095249;-0.20960857242776385;-0.8070950263964809;0.8490000000000001;0.0017683880874221982
25:50.6;0.004307690595205042;-0.21461334308400382;-0.8167436096136516;0.88;0.0007550695678354978
25:50.6;3.6620453243922494e-05;-0.2216251953351221;-0.8220972935271332;0.9079999999999999;6.672154050767494e-06
25:50.6;-0.0022335040382754304;-0.2306925290476547;-0.8228668329173117;0.9229999999999999;0.00042398435347429814
25:50.7;-0.0024691569045341456;-0.2416654472289173;-0.8193077493309445;0.9259999999999999;0.000488889051409566
25:50.7;-0.0007453508061488075;-0.25420665487057226;-0.8122232089357084;0.9129999999999999;0.00015389447782741133
25:50.7;0.002739398722969727;-0.26782353584057833;-0.8028985182162517;0.8290000000000001;0.0005890669333129549
25:50.7;0.0076528219910027805;-0.28191813154691725;-0.7929717679529297;0.8290000000000001;0.0017108122267002035
25:50.7;0.01352961882027702;-0.2958457483316943;-0.7842634009644609;0.8290000000000001;0.003139155590175806
25:50.7;0.019790420222023142;-0.3089708823807108;-0.7785950576700561;0.809;0.004760846857250013
25:50.7;0.02578486615921996;-0.3207152807490264;-0.7776193724887779;0.804;0.006430601621007856
25:50.7;0.030860264722280126;-0.33059956622107994;-0.782671567263895;0.813;0.007985120673396273
25:50.7;0.03444994910916298;-0.3382802848795631;-0.7946511259445032;0.8270000000000001;0.009260656498946971
25:50.8;0.03616683067665305;-0.34358127253713294;-0.8139420945257927;0.8490000000000001;0.01011424445827054
25:50.8;0.035881306094541474;-0.34651522744606095;-0.8403790873654733;0.865;0.010448785263656593
25:50.8;0.033761813851483365;-0.34728854911332924;-0.8732655309773452;0.888;0.010239118121695706
25:50.8;0.03026252442981991;-0.3462815805224549;-0.9114495742684102;1.053;0.009551403462096627
25:50.8;0.02605646970101829;-0.34400085090522664;-0.9534516733959295;1.053;0.008546214255429839
25:50.8;0.021929240401384425;-0.3410090522890501;-0.9976166509483022;1.053;0.007460246636875207
25:50.8;0.018656916628295637;-0.3378448899573547;-1.0422556823535272;1.104;0.00656948759360828
25:50.8;0.01688921231078542;-0.33494467943851025;-1.0857619715044777;1.153;0.0061421031427707825
25:50.8;0.01705580968907024;-0.33257628964541697;-1.1267028447953271;1.2009999999999998;0.006391061786333349
25:50.8;0.019313921825232106;-0.3307964927837999;-1.1638907085116785;1.24;0.007436071667493039
25:50.9;0.023548715518881422;-0.329439830993212;-1.1964278256067298;1.263;0.009281749315131886
25:50.9;0.02942361437710499;-0.3281408469538053;-1.2237189722260475;1.288;0.011815116496008415
25:50.9;0.03646366342391802;-0.32638835900021307;-1.2454498599315555;1.3159999999999998;0.014822491433617437
25:50.9;0.044147515938892136;-0.3236096382653486;-1.2615332266041153;1.287;0.018022972232179735
25:50.9;0.0519833258171518;-0.31927656844504565;-1.2720299351123687;1.287;0.021111954462300686
25:50.9;0.05955215051630283;-0.31301592787251437;-1.2770607815131032;1.287;0.02380539841220448
25:50.9;0.06651582853875569;-0.30470158463902175;-1.2767304695782757;1.2830000000000001;0.02587610716288301
25:50.9;0.07259723216032435;-0.2945107799932347;-1.2710822323470432;1.28;0.027176586535422778
25:50.9;0.0775468968951054;-0.2829333381182334;-1.2600931006565306;1.268;0.02764720170753377
25:50.9;0.08111236614781674;-0.2707289795559465;-1.243711963677081;1.2670000000000001;0.027311253212559453
25:51.0;0.08302421989126653;-0.2588367604507676;-1.2219355413682171;1.2770000000000001;0.026259052783316448
25:51.0;0.08300621473932321;-0.24825014163499956;-1.1949089002401272;1.2819999999999998;0.024622656726520708
25:51.0;0.08081040965680464;-0.23987670217003035;-1.1630274273347743;1.28;0.022544745370428356
25:51.0;0.07627389145561739;-0.23440360213538358;-1.1270110970651364;1.1440000000000001;0.020149690422191523
25:51.0;0.06938879056789816;-0.2321903810219645;-1.087928364303566;1.1440000000000001;0.017528059623971692
25:51.0;0.06036988738701775;-0.23320747963388544;-1.047165538714607;1.1440000000000001;0.014742739191061456
25:51.0;0.04969965151891301;-0.2370312556113325;-1.0063492789275492;1.063;0.011855167663071656
25:51.0;0.038133904684800615;-0.24289738496717037;-0.9672256529931571;0.991;0.008959049216769743
25:51.0;0.0266592829647795;-0.2498058993953718;-0.931497814312245;0.93;0.006203445840505102
25:51.0;0.016401975441760443;-0.25666210921621063;-0.9006380576521461;0.878;0.0037914751241378535
25:51.1;0.008496106893043812;-0.2624303342744587;-0.8757048900040308;0.841;0.0019525032987266426
25:51.1;0.003930078312866483;-0.2662751600638584;-0.8571993078480161;0.823;0.0008970438447930838
25:51.1;0.0033979092921132678;-0.26766827256524944;-0.844989249727736;0.826;0.0007685282939104799
25:51.1;0.007186187010812689;-0.26644588026039895;-0.8383204955574401;0.884;0.0016051573385885945
25:51.1;0.015120549707388404;-0.2628118042741618;-0.8359143826083419;0.884;0.003321805850942354
25:51.1;0.02657917244281716;-0.25729303005602705;-0.836131240122342;0.884;0.0057179970440671595
25:51.1;0.040566391918120455;-0.25066123399052703;-0.8371672718459069;0.9009999999999999;0.008512669984784827
25:51.1;0.055835259428199474;-0.24383242105832237;-0.8372578391989653;0.919;0.011398802047425934
25:51.1;0.07104426219136654;-0.23775473947539874;-0.8348688918825437;0.9329999999999999;0.014101862328882567
25:51.1;0.08492385800645051;-0.23329691491341248;-0.828859968679443;0.93;0.01642176664163944
25:51.2;0.0964219421746911;-0.23115178241662576;-0.8186019420518601;0.915;0.018245085053493773
25:51.2;0.10480240731953165;-0.23176696999823784;-0.8040372686067527;0.889;0.01952985330458083
25:51.2;0.10968451393630661;-0.23530953978614527;-0.7856786402465746;0.863;0.02027821838689153
25:51.2;0.11102592926588896;-0.24166543560360862;-0.7645503094991485;0.784;0.02051374840880247
25:51.2;0.10906468207336968;-0.25046843883622727;-0.7420848249236386;0.784;0.02027172458765483
25:51.2;0.10424187733035564;-0.2611487913262113;-0.7199946407412992;0.784;0.019600155101514517
25:51.2;0.09712500396841456;-0.27299234155631485;-0.7001358711002673;0.76;0.01856367011819287
25:51.2;0.08834316609220273;-0.2852064057209637;-0.6843701684022032;0.737;0.017243415996588855
25:51.2;0.07853784961418775;-0.2969918077948674;-0.6744234732679459;0.718;0.01573099356514776
25:51.2;0.06832910001394443;-0.3076183802336567;-0.6717448834442562;0.7090000000000001;0.014119598542322752
25:51.3;0.05829435410042421;-0.31649739363258894;-0.6773775468797614;0.711;0.012497623283397277
25:51.3;0.04895449476352773;-0.323242439440179;-0.6918578771045656;0.723;0.010948076876873375
25:51.3;0.04076097502931664;-0.32770996597233404;-0.715158789371884;0.7440000000000001;0.009552932157134484
25:51.3;0.03407985367313051;-0.33001170392802376;-0.7466878431574777;0.845;0.008397811933324999
25:51.3;0.029172517074687685;-0.33049517597165595;-0.7853399976870468;0.845;0.007571758334441764
25:51.3;0.02617711211371438;-0.32969525902073693;-0.8295908588732027;0.845;0.007159758819637241
25:51.3;0.025096384750112413;-0.3282648567705003;-0.8776142672147528;0.92;0.007230015518290521
25:51.3;0.02579608266111484;-0.32689326683017783;-0.927419869276695;0.9990000000000001;0.00782052900931447
25:51.3;0.028016659395957908;-0.3262203592651151;-0.9770109419133395;1.0659999999999998;0.008929493790368438
25:51.3;0.031400719510577386;-0.32675593591673663;-1.0245507692553548;1.1179999999999999;0.010512271505115339
25:51.4;0.035536372835112434;-0.32881393118805113;-1.0685144251191903;1.1640000000000001;0.012485435537463096
25:51.4;0.040011706433329644;-0.3324685205022977;-1.1078045938090573;1.207;0.014736717770639897
25:51.4;0.04447109918124054;-0.33753522770445166;-1.1418189224486293;1.2429999999999999;0.01713934440004291
25:51.4;0.0486630323613268;-0.34357652695894525;-1.1704632819162548;1.28;0.01956953234121255
25:51.4;0.052472196513403575;-0.34992949393281664;-1.1941082813864978;1.28;0.021925701806913635
25:51.4;0.05593426402478734;-0.3557538265932141;-1.213488592518422;1.28;0.024147001346143424
25:51.4;0.05923588368375763;-0.3601011733136564;-1.2295500057948583;1.266;0.0262274220102167
25:51.4;0.06270233616830527;-0.36200790082591094;-1.2432580590527416;1.252;0.028220392794433728
25:51.4;0.06677086744044533;-0.36060988676463585;-1.2553914511185318;1.24;0.03022761031033098
25:51.4;0.07194203730274006;-0.35526906546324366;-1.2663508944545403;1.217;0.032366384370137065
25:51.5;0.07870015209479408;-0.34569054283340456;-1.2760191060727792;1.206;0.03471524602704075
25:51.5;0.0874030097698979;-0.3320023590812552;-1.2837085151467558;1.235;0.03725066066872451
25:51.5;0.0981615408445931;-0.31477259356575255;-1.2882247104313234;1.2990000000000002;0.03980429211585537
25:51.5;0.11074962015604727;-0.2949509668461789;-1.288050466380436;1.4;0.04207507983524476
25:51.5;0.12458216125156185;-0.2737432202308647;-1.2816201328543333;1.4;0.04370776040198163
25:51.5;0.13877150873519273;-0.25245011981723137;-1.2676235083644172;1.4;0.044408507333606094
25:51.5;0.15224503557108823;-0.23231112490203687;-1.2452722996965377;1.401;0.04404305901980703
25:51.5;0.16390026716983497;-0.214378062049623;-1.2144812842033736;1.365;0.04267276937833338
25:51.5;0.17277267653691816;-0.19942625944743825;-1.175940298719158;1.296;0.04051750350095387
25:51.5;0.17818346325841958;-0.18790539150915378;-1.1310712188143677;1.204;0.037870111924813765
25:51.6;0.17983409252701768;-0.17993192666541546;-1.0818811046727423;1.11;0.03500739491540545
25:51.6;0.17782976172143633;-0.17532086687813084;-1.0307395322399244;1.03;0.032135642616010936
25:51.6;0.17263389794962117;-0.1736487063002398;-0.9801180607700503;0.961;0.029381639166471445
25:51.6;0.16496933310499468;-0.1743355415762319;-0.9323304572413837;0.8340000000000001;0.026813840760487123
25:51.6;0.15569000617198978;-0.17673246624504288;-0.8893089989361788;0.8340000000000001;0.024469762871733667
25:51.6;0.145652312629171;-0.18020110228912758;-0.8524473155766232;0.8340000000000001;0.02237393516930455
25:51.6;0.13561232071861834;-0.18417599851725586;-0.8225270958623998;0.8220000000000001;0.02054387645246016
25:51.6;0.12616195720572493;-0.18820641504407387;-0.7997242483546342;0.8140000000000001;0.018989044162408878
25:51.6;0.11770326459273582;-0.19197866762102167;-0.7836741120061096;0.8109999999999999;0.017708304541108673
25:51.6;0.11045256104187749;-0.19532223685930475;-0.773573541747318;0.812;0.016688952815442755
25:51.7;0.10446404493587629;-0.19820331998415489;-0.7683028094280394;0.816;0.01590780226910697
25:51.7;0.09966254048114681;-0.2007094427514193;-0.7665542916826491;0.82;0.015333548744353635
25:51.7;0.09587752194934997;-0.2030277549230077;-0.7669573104098222;0.8240000000000001;0.014929436101270382
25:51.7;0.09287411532453617;-0.2054175828211852;-0.7681910022905188;0.816;0.014655529717613159
25:51.7;0.09038011265943766;-0.20817665558753587;-0.7690803181546642;0.816;0.014470268939372317
25:51.7;0.08811073262560078;-0.21160203780105;-0.7686735505718848;0.816;0.01433146527555914
25:51.7;0.08579385850439097;-0.21594956935525975;-0.7663019498333884;0.812;0.014197388715658201
25:51.7;0.08319704837144329;-0.22139649092947164;-0.7616225010024809;0.812;0.014028731982793714
25:51.7;0.08015526013900509;-0.2280107605140157;-0.7546442942675627;0.816;0.013792076705639315
25:51.7;0.0765966376990887;-0.235729371818198;-0.74573738464624;0.813;0.013465091853866885
25:51.8;0.07256261982475154;-0.2443481941392001;-0.7356207163152596;0.8059999999999999;0.013042956299029773
25:51.8;0.06821732205411922;-0.2535272513454511;-0.7253241074882082;0.792;0.012544444284886266
25:51.8;0.0638398825362235;-0.2628159273445098;-0.7161205862193305;0.778;0.012015169970331087
25:51.8;0.05979420886117547;-0.2716996385983271;-0.7094299635774097;0.758;0.011525445257138183
25:51.8;0.05647651953174999;-0.27966239147442024;-0.7067008422204395;0.758;0.01116188646445876
25:51.8;0.05425115719683124;-0.28625249314493745;-0.7092831323515897;0.758;0.011014832975611785
25:51.8;0.05339070193252137;-0.2911381172641407;-0.7183033853098908;0.7609999999999999;0.011165356981973093
25:51.8;0.05403215231698693;-0.2941456142758565;-0.7345518425540273;0.768;0.011674467955952846
25:51.8;0.056153154589635206;-0.2952792292237519;-0.7583878932279433;0.778;0.0125747236393152
25:51.8;0.05956798345120699;-0.29472277297845156;-0.7896716928823293;0.7909999999999999;0.01386350882483973
25:51.9;0.06394171057579404;-0.2928246471886675;-0.8277319413475522;0.816;0.01549821186735686
25:51.9;0.06882022444361835;-0.29006879920433576;-0.8713813344543861;0.855;0.017395036909833034
25:51.9;0.07367256270977325;-0.2870345236835133;-0.9189907420450835;0.9079999999999999;0.019433501087340162
25:51.9;0.07794008917509897;-0.28434786192490374;-0.9686267338168696;1.124;0.02146680032438097
25:51.9;0.08108543247539414;-0.28262786431303877;-1.018238229698214;1.124;0.023334968164968453
25:51.9;0.08263479810319756;-0.28243183945428724;-1.0658534156473585;1.124;0.024875631013337833
25:51.9;0.08221044653642992;-0.2842035699190166;-1.1097438062462295;1.1909999999999998;0.02592861181364937
25:51.9;0.07955373133677232;-0.28822744742110457;-1.148536186167766;1.232;0.026335439633279122
25:51.9;0.07454130677155715;-0.29459111964306767;-1.1812754890903072;1.251;0.025939873014346384
25:51.9;0.06719730894723103;-0.30315970484012517;-1.207443915515951;1.27;0.024597463462407026
25:52.0;0.05770252387234605;-0.3135650855168404;-1.2269382169842096;1.2890000000000001;0.022199602742762527
25:52.0;0.046398955500852525;-0.32521480668661334;-1.2400086700132387;1.301;0.018711268733420293
25:52.0;0.03378603213001433;-0.3373264958607127;-1.2471647612678047;1.3030000000000002;0.014213841784455504
25:52.0;0.020502984407048112;-0.3489915922229244;-1.24905362250088;1.229;0.008937439786538158
25:52.0;0.007292506425986212;-0.35926328272887514;-1.2463249100222227;1.229;0.0032652837696587086
25:52.0;-0.0050542524118806255;-0.367253310142434;-1.239509082806163;1.229;0.0023007655153707168
25:52.0;-0.015766520348622793;-0.3722210186214826;-1.2289407089422741;1.235;0.00721219863750522
25:52.0;-0.024171056666456234;-0.3736454305711076;-1.2147461845625334;1.261;0.010970864613749055
25:52.0;-0.029769986849385904;-0.3712760241747149;-1.196895702628969;1.281;0.013229147394964566
25:52.0;-0.03230538337012663;-0.3651559370901812;-1.1753035954740239;1.286;0.013864471846431688
25:52.1;-0.0317939496079749;-0.35561043586797414;-1.149950866637878;1.271;0.013001643805184326
25:52.1;-0.028520557021553358;-0.34319937697795383;-1.120999237964882;1.237;0.010972606667384897
25:52.1;-0.022988725262730228;-0.3286410530921366;-1.0888693472846929;1.192;0.00822645025352906
25:52.1;-0.01583554924264183;-0.31272033860901544;-1.0542667913655113;1.055;0.005220832807637765
25:52.1;-0.007727785392371051;-0.2961964482603684;-1.0181569707752876;1.055;0.0023305028497814934
25:52.1;0.0007376764709924045;-0.27972667663850403;-0.9817058214962736;1.055;0.0002025728244037303
25:52.1;0.009107975497548087;-0.26381891508853;-0.9462045728351036;1.002;0.002273593537945713
25:52.1;0.017112991043303296;-0.24881641030334417;-0.9129823524558995;0.946;0.0038874724667462665
25:52.1;0.02466873724324487;-0.23491028335591724;-0.8833012720700484;0.892;0.005118677922896082
25:52.1;0.031849478659930604;-0.2221728083822082;-0.8582362742679281;0.841;0.006072955503973384
25:52.2;0.03883440725056217;-0.2106030906624739;-0.838555462401302;0.8059999999999999;0.006858248438522038
25:52.2;0.04583930742471497;-0.20017452027953678;-0.8246235443978076;0.7859999999999999;0.007566631328873969
25:52.2;0.05304971144045413;-0.1908732244511295;-0.8163498212843041;0.777;0.008266170104418283
25:52.2;0.06057380349732922;-0.18272033135835478;-0.8131946173058602;0.845;0.009000491245219289
25:52.2;0.06842535976958274;-0.17577692736623332;-0.8142343423531393;0.845;0.009793284564268326
25:52.2;0.07653227979335062;-0.17013631394882922;-0.8182690586925665;0.845;0.01065461593709786
25:52.2;0.08475727984049784;-0.16590994286107855;-0.8239482098368706;0.868;0.011586421898065719
25:52.2;0.09292001808804998;-0.16321135394331532;-0.829895180436899;0.873;0.012585859975516357
25:52.2;0.10081527662461841;-0.1621412595328746;-0.8348202822461026;0.875;0.013646236080095308
25:52.2;0.10822293737385526;-0.16277746606762866;-0.8376166211042948;0.875;0.014755668421915483
25:52.3;0.11490718956436705;-0.16517130629159257;-0.8374365535743162;0.871;0.015894018706486344
25:52.3;0.12060857942344155;-0.16934757011793358;-0.8337499644582039;0.87;0.017029151145455324
25:52.3;0.12503912653913812;-0.17530230126688623;-0.826386874878539;0.883;0.018114108277596234
25:52.3;0.1278920669209627;-0.18299402954114377;-0.8155646894132248;0.871;0.019087055707880225
25:52.3;0.12887156143393164;-0.19232730189633765;-0.801896597070698;0.871;0.01987542390546703
25:52.3;0.12773738406656626;-0.20313163665724326;-0.7863750372836685;0.871;0.02040446933715263
25:52.3;0.12435309636719193;-0.2151431063466731;-0.7703231525521077;0.847;0.020609003336052926
25:52.3;0.11872671655845447;-0.22799737252188776;-0.755307681079466;0.81;0.020445710200607776
25:52.3;0.11103515902518823;-0.24124109849345793;-0.7430119489149984;0.769;0.019902499161381235
25:52.3;0.10162466282312857;-0.2543644770089796;-0.7350788495250001;0.7390000000000001;0.019001570831409326
25:52.4;0.0909827323351331;-0.26685268338443313;-0.73294534220465;0.7340000000000001;0.01779516989658611
25:52.4;0.07968452670181604;-0.27824887783097213;-0.7376951316364402;0.737;0.01635627245880009
25:52.4;0.0683245035537058;-0.2882166479040815;-0.7499533579103133;0.752;0.014768276049841373
25:52.4;0.05744843569996271;-0.2965879843390706;-0.769838328927516;0.858;0.013116902490602713
25:52.4;0.04750012899303096;-0.3033860521453892;-0.796970791101398;0.858;0.011485047733605433
25:52.4;0.03879186352887766;-0.30881849694944413;-0.8305251306438258;0.858;0.00994939621943625
25:52.4;0.031500119132079035;-0.31324305145538245;-0.8693028995447173;0.9059999999999999;0.008577579866144153
25:52.4;0.02568155316929034;-0.3171110719222071;-0.9118210687510534;0.9520000000000001;0.00742578402790957
25:52.4;0.02130037981348153;-0.32089699523913;-0.9564181975674675;0.996;0.006537336328568446
25:52.4;0.01825770067360853;-0.3250228251709072;-1.0013798590010494;1.053;0.0059423577711959575
25:52.5;0.016415765744362248;-0.3297861632520978;-1.0450780471246954;1.121;0.00565773108287991
25:52.5;0.015614878004923302;-0.3352986623144209;-1.0861142989588066;1.1840000000000002;0.005686511839159088
25:52.5;0.0156861440776335;-0.34144075306243327;-1.123450904263751;1.236;0.006017078167751179
25:52.5;0.016466821251827884;-0.34783857415369773;-1.1565092568353788;1.3090000000000002;0.006624248661665763
25:52.5;0.017823357032218396;-0.353868817031553;-1.1852121206813258;1.3090000000000002;0.007475287240968499
25:52.5;0.019680716634112583;-0.3586956721567821;-1.2099496089103643;1.3090000000000002;0.008541503606488697
25:52.5;0.022051256147030046;-0.36134241800647177;-1.2314597132324223;1.288;0.009812337760161044
25:52.5;0.025055762240541672;-0.3607986422619437;-1.2506324813537002;1.264;0.0113058239317285
25:52.5;0.028928729186603906;-0.35615902740048255;-1.2682658357885666;1.244;0.013067232135463317
25:52.5;0.03399608987595611;-0.34677839672265004;-1.2848152221631757;1.209;0.015146827395340522
25:52.6;0.04061279189974851;-0.3324147254053187;-1.300187893086232;1.1909999999999998;0.0175529136986535
25:52.6;0.049058983659796405;-0.3133258730072811;-1.3136342213635819;1.23;0.02019246128603654
25:52.6;0.05941694460394741;-0.2902908197717815;-1.3237778196466863;1.296;0.022832776060278087
25:52.6;0.07147176855879409;-0.2645403995374981;-1.3287979359132907;1.4409999999999998;0.02512380874926835
25:52.6;0.084676660208809;-0.23760658862710618;-1.3267339047529192;1.4409999999999998;0.026693531087912337
25:52.6;0.09819595020192218;-0.21112779639743992;-1.315841191222133;1.4409999999999998;0.02727988086212918
25:52.6;0.11101161766662893;-0.1866575665903445;-1.2949185554902667;1.449;0.02683221252531092
25:52.6;0.12207147622910824;-0.165506282340586;-1.2635485142726353;1.422;0.025528223974750266
25:52.6;0.13045517267679713;-0.14862493664995075;-1.2222216589519563;1.354;0.023697523470171653
25:52.6;0.13552485780579507;-0.1365357580494353;-1.1723335968778688;1.254;0.021692848209629405
25:52.7;0.1370236440279368;-0.12931551871482266;-1.1160598331483498;1.143;0.019775780702217843
25:52.7;0.1350981405430533;-0.12663214797388955;-1.0561335758733936;1.0490000000000002;0.01806808790181857
25:52.7;0.13024404627243713;-0.1278265909592636;-0.9955657243604099;0.9740000000000001;0.016574827713853865
25:52.7;0.12319393846043306;-0.13202440937628482;-0.9373493210281407;0.8220000000000001;0.01524561829447346
25:52.7;0.11477884883681713;-0.13825702786063146;-0.8841876913511071;0.8220000000000001;0.014031159002042033
25:52.7;0.10579837059692873;-0.14557256030101956;-0.8382805291974079;0.8220000000000001;0.012910643180209128
25:52.7;0.096925945527541;-0.15312228464534341;-0.8011880132190707;0.789;0.011890849701058935
25:52.7;0.08865971362157582;-0.16021849179310138;-0.7737694751459242;0.762;0.01099133782542412
25:52.7;0.08131425217970772;-0.16636704185730894;-0.7561783250816578;0.7490000000000001;0.010229589150331292
25:52.7;0.07504062229889442;-0.17128082493581426;-0.7478980515251097;0.7440000000000001;0.00961274838315128
25:52.8;0.06986039349338567;-0.17487970844926923;-0.7478130448650983;0.746;0.0091361555424366
25:52.8;0.06570164170762759;-0.17728017133982532;-0.7543121325086705;0.76;0.008785924711701094
25:52.8;0.06242989508146777;-0.1787747279212695;-0.7654227853452538;0.782;0.008542797602795374
25:52.8;0.059872297035806175;-0.17979892612237647;-0.7789717306058962;0.8390000000000001;0.008385610980959803
25:52.8;0.0578366233323894;-0.1808843458177541;-0.7927622654685381;0.8390000000000001;0.008293672525395304
25:52.8;0.05612757693414946;-0.18259994931722326;-0.8047524833537352;0.8390000000000001;0.008247821854746871
25:52.8;0.0545617701115757;-0.18548774116514846;-0.8132191132381951;0.862;0.008230216151150584
25:52.8;0.052981512546583204;-0.18999890979405654;-0.8168990874705825;0.883;0.008223257173189825
25:52.8;0.05126721574305662;-0.19643532978340064;-0.815105181270572;0.8959999999999999;0.008208673579950214
25:52.8;0.049348608991021524;-0.20490139385451195;-0.8078081247490521;0.9009999999999999;0.00816823163821871
25:52.9;0.04721454994609811;-0.21527245167997552;-0.7956720929325749;0.8959999999999999;0.008087204725018674
25:52.9;0.04491944121260178;-0.22718701561515994;-0.7800297009133523;0.8759999999999999;0.007960291859109956
25:52.9;0.04258228662896044;-0.24006894925164873;-0.7627867571337904;0.847;0.007797728593702249
25:52.9;0.040374062112639046;-0.25318176462387143;-0.7462557347454958;0.754;0.007628208427376131
25:52.9;0.03849222772261876;-0.26570910075113724;-0.7329316694007858;0.754;0.007496231044648541
25:52.9;0.037127374528992174;-0.2768467820508754;-0.7252402685622199;0.754;0.00745445039219462
25:52.9;0.03643104794940246;-0.28589045145939246;-0.725292090177693;0.735;0.007554126543950613
25:52.9;0.0364920775505459;-0.2923097674178812;-0.7346660241971938;0.731;0.007836675648742561
25:52.9;0.037324470177692075;-0.2958058478966885;-0.7542357709478835;0.743;0.008327363696415539
25:52.9;0.038866812006681295;-0.2963480153068705;-0.7840534454898848;0.762;0.009030808028632405
25:53.0;0.04099119945208062;-0.294184473845333;-0.8233064806445048;0.79;0.00992823180893023
25:53.0;0.043519179940833375;-0.28982293171463497;-0.8703614593963399;0.8390000000000001;0.010977744030584286
25:53.0;0.04624334116423089;-0.28397932721213115;-0.9229031779876229;0.9159999999999999;0.0121197056561744
25:53.0;0.04895386453501537;-0.2774958314262423;-0.9781662474834165;1.153;0.013287892875008324
25:53.0;0.051467661534403006;-0.27123638763118324;-1.033231910275669;1.153;0.014423816824890582
25:53.0;0.05365543004826396;-0.2659772025742842;-1.0853339903814583;1.153;0.015488932905274958
25:53.0;0.05546208437806178;-0.26231184700925725;-1.1321163795485751;1.2229999999999999;0.016470438680539972
25:53.0;0.05691814237721163;-0.2605829712329982;-1.1718161145389212;1.281;0.017380257856320545
25:53.0;0.05814109900524932;-0.2608438415848024;-1.2033732080475048;1.3130000000000002;0.018250054364103003
25:53.0;0.05932617232441886;-0.26284986213183553;-1.2264687766678075;1.32;0.019125402286493846
25:53.1;0.0607269857708945;-0.2660806941619626;-1.2414865778343884;1.308;0.02006028591377323
25:53.1;0.0626292556929634;-0.26979375049686005;-1.2493980170888983;1.296;0.021111055536005972
25:53.1;0.0653217733548526;-0.2731079603852888;-1.2515822311183438;1.281;0.022328097201174953
25:53.1;0.06906596038895609;-0.2751112083981977;-1.2496028676833706;1.195;0.023743478937641022
25:53.1;0.07406093896210421;-0.27497728117664416;-1.24497194883944;1.195;0.02535394790429355
25:53.1;0.08040240305006395;-0.2720745897102014;-1.2389384996629427;1.195;0.02710233822031452
25:53.1;0.08804008501540944;-0.2660523466192489;-1.232337293841641;1.2009999999999998;0.028865370661898353
25:53.1;0.09674273301647429;-0.25689504466653046;-1.2255176347138983;1.208;0.030457457316421285
25:53.1;0.10607915577825308;-0.2449380701813131;-1.2183539567795598;1.217;0.03165627606659774
25:53.1;0.11542228836477007;-0.23083928956428904;-1.2103284193582733;1.232;0.03224798925073824
25:53.2;0.12398116200615784;-0.21550780374669495;-1.200668814199738;1.245;0.03208055950091732
25:53.2;0.13086243263665814;-0.19999919207337225;-1.1885195175964154;1.2590000000000001;0.03110638540286995
25:53.2;0.13515964848681844;-0.18539170682614078;-1.1731191293227492;1.263;0.029395406688737434
25:53.2;0.1360648097830331;-0.17265967781585612;-1.15395780131375;1.212;0.02710982240719459
25:53.2;0.13299052649972423;-0.16256099769983048;-1.1308927043223456;1.212;0.02444885155945541
25:53.2;0.12568273659891877;-0.15555481439843452;-1.1042102077796119;1.212;0.02158792213897156
25:53.2;0.11430055919494463;-0.15176090005178888;-1.0746296985756802;1.1640000000000001;0.018640909040098914
25:53.2;0.09944550734950568;-0.15096407852269675;-1.0432434918353906;1.0959999999999999;0.015661900923316784
25:53.2;0.08213184037830909;-0.15266000806828267;-1.011390388851056;1.016;0.012681062928381066
25:53.2;0.06369813550876233;-0.15613417989874476;-0.9804743550851805;0.941;0.00975126470346352
25:53.3;0.04566767054802582;-0.16056236772959154;-0.9517571183906898;0.871;0.00697876793325348
25:53.3;0.02957336447877583;-0.1651183592576769;-0.9261643475615988;0.8220000000000001;0.004522558145819222
25:53.3;0.016771701574898656;-0.1690752840030088;-0.9041469231929266;0.804;0.0025638715343088187
25:53.3;0.008276618145276934;-0.17188894972611932;-0.8856311762299435;0.895;0.0012599513409146021
25:53.3;0.004642652684904515;-0.17325367919843113;-0.8700715300989734;0.895;0.0006998478289545791
25:53.3;0.00591428178245808;-0.17312428213982867;-0.8565891914441603;0.895;0.0008770666310242703
25:53.3;0.011643372843266964;-0.17170253105218997;-0.8441592306212825;0.9159999999999999;0.0016876402528888824
25:53.3;0.020967551425867603;-0.16939175620261143;-0.8318071898117994;0.924;0.0029543548491354934
25:53.3;0.03273612500201696;-0.16672883990579987;-0.8187841716167721;0.92;0.004468969978992128
25:53.3;0.045662090203836735;-0.1643074792373349;-0.8046944839253697;0.897;0.006037319293261196
25:53.4;0.058472871140168414;-0.1627066085398331;-0.7895563299730082;0.8590000000000001;0.0075117777760180665
25:53.4;0.07003518134555627;-0.16243344109524863;-0.7737884122897697;0.816;0.008802659926319397
25:53.4;0.07944003332791043;-0.1638853313171949;-0.7581298539145201;0.777;0.009870135161208118
25:53.4;0.08604626202168791;-0.16733041693748374;-0.7435126693142763;0.7090000000000001;0.010705212069925517
25:53.4;0.08948966409326371;-0.17290340018977501;-0.7309139975454028;0.7090000000000001;0.011309481404047176
25:53.4;0.08966841274621792;-0.1806104492987137;-0.7212181677596929;0.7090000000000001;0.011680165956673238
25:53.4;0.08671461673951625;-0.19033812143892723;-0.715112604121785;0.703;0.011803003076800676
25:53.4;0.08095871938257905;-0.20186529800641378;-0.7130282083065573;0.71;0.011652846039725976
25:53.4;0.07289029502488346;-0.21488034148905338;-0.7151236472869944;0.7290000000000001;0.011200761061931434
25:53.4;0.06311654301338963;-0.2290048657121628;-0.7213084590797221;0.755;0.010425789190631984
25:53.5;0.05231788908791496;-0.24382221035079624;-0.7312975646261737;0.782;0.009328624327657247
25:53.5;0.04119930870308256;-0.25890681743729094;-0.744686426144627;0.805;0.007943407689290189
25:53.5;0.030437712570518884;-0.2738521154267652;-0.7610335921396898;0.8290000000000001;0.006343543738874721
25:53.5;0.020629547710956174;-0.28829669325114243;-0.779937366563;0.9;0.004638623194895025
25:53.5;0.012246337867221763;-0.3019470785919316;-0.8010940775050555;0.9;0.002962242374620939
25:53.5;0.005606567205505055;-0.3145912071917334;-0.8243260841241533;0.9;0.0014539271777895084
25:53.5;0.0008688574835208936;-0.32609662429549696;-0.8495726010951932;0.909;0.00024071067294500096
25:53.5;-0.001954387257680595;-0.33639404058281286;-0.8768473407251206;0.9229999999999999;0.0005764782216594582
25:53.5;-0.0029683489924406323;-0.34545327808269044;-0.9061768240394728;0.945;0.0009292171762264911
25:53.5;-0.0023597587840251642;-0.3532586741308621;-0.9375362000691063;0.971;0.0007815351071742929
25:53.6;-0.00036113160119423;-0.35978633170263985;-0.9707976822419302;0.996;0.00012613595065834782
25:53.6;0.002778879421776416;-0.3649817127295779;-1.0057038248669121;1.028;0.001020025219136331
25:53.6;0.00681692776831657;-0.3687362030297222;-1.0418744886842;1.073;0.002618905788929169
25:53.6;0.011530304861261026;-0.3708646201103063;-1.0788497128497898;1.238;0.004613357865339251
25:53.6;0.016730238128973004;-0.3710897103494182;-1.1161552685056888;1.238;0.00692955982301003
25:53.6;0.02227618529150415;-0.3690425582047434;-1.1533581314181007;1.238;0.009481596197689138
25:53.6;0.02809228937244655;-0.36428769911561804;-1.190076517246983;1.2690000000000001;0.012178856848143224
25:53.6;0.034185666824716826;-0.3563778614291413;-1.2259309803875442;1.285;0.014935535320161215
25:53.6;0.040662006277775845;-0.34493661248343604;-1.260447706883029;1.2770000000000001;0.017678805978599905
25:53.6;0.04772584502242158;-0.3297580353900172;-1.292937737820866;1.245;0.020348229412269866
25:53.7;0.05564801699160834;-0.3109026600541313;-1.3223854244274047;1.232;0.022878744298388626
25:53.7;0.06469116213370972;-0.28876450119495733;-1.3473896482991146;1.272;0.025169927369011125
25:53.7;0.07500643445605966;-0.2640886223904096;-1.3661997812035063;1.3430000000000002;0.027062157897315642
25:53.7;0.08653641319099799;-0.23792849741343725;-1.3768655306145738;1.469;0.028348943600832222
25:53.7;0.0989614231872778;-0.2115473113456662;-1.3774810965040187;1.469;0.028837598440420106
25:53.7;0.11170643656495849;-0.1862867567050383;-1.3664690527574461;1.469;0.028435441787277412
25:53.7;0.12400416161241376;-0.1634352416104172;-1.3428404215890986;1.469;0.027214876983043573
25:53.7;0.13500152181504466;-0.1441147602440471;-1.3063852047297024;1.4340000000000002;0.025416654237599857
25:53.7;0.1438912938026144;-0.12919003769688597;-1.257770039855332;1.364;0.023381091858531065
25:53.7;0.150040625897577;-0.11920167414833702;-1.1985341712526898;1.271;0.021435896072070255
25:53.8;0.15308495337161276;-0.11432938497272947;-1.1309877573433134;1.169;0.019794670517598735
25:53.8;0.15296679912481065;-0.11439130915341397;-1.058030563496914;1.073;0.018513495410892335
25:53.8;0.14991620027962335;-0.11888049677636357;-0.9829182023988161;0.993;0.0175176786478379
25:53.8;0.14438412439153386;-0.1270328590791897;-0.9090051174688907;0.792;0.016672542929735242
25:53.8;0.13695027654024164;-0.13791391163444428;-0.8394952651925376;0.792;0.015855839501023823
25:53.8;0.12823133376971177;-0.15050787190132964;-0.7772339923369742;0.792;0.015000480157985148
25:53.8;0.11881135529704183;-0.16379616578157208;-0.7245633803146875;0.743;0.014100615237722231
25:53.8;0.1092036666415943;-0.1768215319087798;-0.683236039951062;0.7;0.013192987051809171
25:53.8;0.09984103775122341;-0.1887408634381699;-0.6543646032101135;0.6659999999999999;0.01233090133470901
25:53.8;0.09108410936852589;-0.19887059400158527;-0.6383907719069274;0.648;0.011563779119183533
25:53.9;0.08323558034394901;-0.20672568076105496;-0.6350731196465363;0.642;0.010927659991228215
25:53.9;0.07654839936500218;-0.21205017170285967;-0.6435011499823917;0.644;0.010445375807445626
25:53.9;0.07122082857931457;-0.21483489575017758;-0.6621445498988944;0.655;0.010131287882823223
25:53.9;0.0673785492323223;-0.21531693441389382;-0.6889442934749974;0.7609999999999999;0.009995026520916375
25:53.9;0.06505057096815825;-0.21395739126184402;-0.7214440491735197;0.7609999999999999;0.010041094683667401
25:53.9;0.0641487762071422;-0.21139804859782083;-0.7569481869542405;0.7609999999999999;0.010264918432481946
25:53.9;0.06445961225308293;-0.2084007073904396;-0.7926899859596521;0.81;0.010648544480247726
25:53.9;0.06565247255063059;-0.2057736790467204;-0.8260049376644046;0.858;0.01115895567903053
25:53.9;0.06730581112630839;-0.2042905735899682;-0.8545119630140408;0.914;0.011749490579974363
25:53.9;0.06894982735483568;-0.20460896160794426;-0.8762978984698527;0.972;0.012362593936339166
25:54.0;0.07012180005207838;-0.20719882423673255;-0.8900868453129679;1.013;0.012932209315468773
25:54.0;0.07042592398551745;-0.21229123837148942;-0.8953670504965355;1.024;0.013386459622618115
25:54.0;0.06958534687974356;-0.21985618987751726;-0.8924472126878473;1.013;0.013653343962477853
25:54.0;0.06747336157678317;-0.22961414930782004;-0.8824233583397525;0.902;0.013671242596497383
25:54.0;0.06411675288029299;-0.24107834146022186;-0.8670577457117198;0.902;0.013402250689848894
25:54.0;0.059675090355575625;-0.25361636227757123;-0.8485944754405356;0.902;0.012843120411429598
25:54.0;0.05440644717673178;-0.2665180859355538;-0.8295447514063141;0.866;0.012028649554031762
25:54.0;0.048628171081641636;-0.27906277669222906;-0.8124635098295683;0.835;0.011025383680585962
25:54.0;0.042677201027238536;-0.2905829768097409;-0.7997277125887805;0.804;0.00991763778393091
25:54.0;0.03687372716383895;-0.3005213957404316;-0.7933286622265345;0.7809999999999999;0.008791147774245724
25:54.1;0.03149261316135004;-0.3084751886046324;-0.7946980621589236;0.7759999999999999;0.007720245146296856
25:54.1;0.02674545659519752;-0.31422326809677564;-0.8045900398748255;0.7859999999999999;0.006761810723107963
25:54.1;0.022772238480904733;-0.31773414057826066;-0.823038088859673;0.807;0.0059551065961579545
25:54.1;0.0196378049780697;-0.3191529485843188;-0.8493969271074818;0.958;0.005323564120844786
25:54.1;0.01732902722338074;-0.31876862288087304;-0.8824612716407542;0.958;0.004874672068432798
25:54.1;0.015753946285871546;-0.31696515804499026;-0.9206318053297202;0.958;0.004597130798021144
25:54.1;0.014748692982851079;-0.31416234874226107;-0.962093323505861;1.023;0.004457844048266779
25:54.1;0.014096885426673342;-0.31075056669811196;-1.0049867716940484;1.09;0.00440246026257492
25:54.1;0.013562302490114002;-0.30702469228606016;-1.0475705940324078;1.148;0.004362043882632444
25:54.1;0.012932744174359372;-0.303125623784481;-1.0883614981022371;1.193;0.004266644967408159
25:54.2;0.012070334637495801;-0.29900098461330593;-1.1262351285738545;1.226;0.004064629814702097
25:54.2;0.010959367609623166;-0.29439667628808336;-1.1604680434673351;1.252;0.003744135718348676
25:54.2;0.009738065269482458;-0.28888716781039503;-1.1907114289030432;1.262;0.0033497118871086843
25:54.2;0.008698534205656815;-0.2819451243730822;-1.2168986972614249;1.206;0.002984455382507691
25:54.2;0.008244965672812061;-0.2730410888078411;-1.2391039399496424;1.206;0.0027894886382723192
25:54.2;0.00881469538207123;-0.2617552868228917;-1.2573846494727758;1.206;0.0029011549483953995
25:54.2;0.010779486617901178;-0.24788101224782255;-1.2716503024038754;1.219;0.0033978878266555787
25:54.2;0.014346418842071348;-0.23150197839139347;-1.2815912383219161;1.249;0.004256452020760065
25:54.2;0.019475780213794702;-0.21303008631809156;-1.2866851328849207;1.288;0.005338362868533921
25:54.2;0.025834066260894958;-0.1931946989268134;-1.2862791740814485;1.327;0.006419825343320628
25:54.3;0.03279780496985575;-0.1729821955636192;-1.2797278951084596;1.355;0.0072604547113191715
25:54.3;0.03951370694860472;-0.1535340963163783;-1.2665527441748563;1.359;0.007683797164993497
25:54.3;0.04500699056730539;-0.13601901601467367;-1.2465842560772762;1.348;0.007631347689843104
25:54.3;0.04831890721115825;-0.1214962653055122;-1.220053855009282;1.213;0.007162407618583037
25:54.3;0.04864932422901812;-0.11078959691748415;-1.1876208244742994;1.213;0.006401085062664932
25:54.3;0.045481116396413716;-0.10439010967743269;-1.1503431496697594;1.213;0.005461574736907671
25:54.3;0.03866911217736669;-0.1024040164258934;-1.1096100606663821;1.1440000000000001;0.0043939142524258915
25:54.3;0.028484318595411257;-0.10455177537761659;-1.0670442368090618;1.075;0.003177749587928494
25:54.3;0.01561035895835297;-0.11021512014698372;-1.0243736839945627;1.013;0.0017624324526589628
25:54.3;0.0010926127715474767;-0.11852202782096388;-0.9832805060339681;0.9590000000000001;0.00012733352888617084
25:54.4;-0.013756794726666991;-0.1284556036272016;-0.94524429686645;0.907;0.0016703765213293108
25:54.4;-0.027491410980187685;-0.13897106274463333;-0.9114005329646888;0.867;0.0034820153972798256
25:54.4;-0.038688265001942605;-0.1491070472612318;-0.8824317785923368;0.836;0.005090477987169021
25:54.4;-0.04611286231591357;-0.1580819159423381;-0.8585062096811329;0.825;0.006258175128771604
25:54.4;-0.04886828144929076;-0.1653679345162558;-0.8392741282920084;0.825;0.006782381335574555
25:54.4;-0.04650469452314425;-0.17073531661092678;-0.8239274408418218;0.825;0.006541978725220101
25:54.4;-0.0390712434486557;-0.17425856297197514;-0.8113189853183117;0.8420000000000001;0.005523864286755366
25:54.4;-0.027102542374533245;-0.1762830838574401;-0.8001292171626866;0.855;0.0038227931635179614
25:54.4;-0.011543530818029701;-0.1773579406355819;-0.7890591277021832;0.8590000000000001;0.0016154698317740028
25:54.4;0.0063736512370501765;-0.17814672411415397;-0.7770227167519603;0.865;0.0008822666274096197
25:54.5;0.025280151143358787;-0.1793316906400754;-0.7633118480982028;0.8590000000000001;0.0034604988757141394
25:54.5;0.04382477113764969;-0.18152587663488756;-0.7477106191846263;0.8440000000000001;0.005948284719434012
25:54.5;0.060810412259768645;-0.18520471838276517;-0.7305434121000491;0.82;0.008227654063437506
25:54.5;0.07529661562578319;-0.19066430371248558;-0.7126501174310611;0.731;0.010231073605418176
25:54.5;0.08666031774953617;-0.19800746714262007;-0.695295363226657;0.731;0.01193084431625899
25:54.5;0.09461473574085669;-0.20715192686500417;-0.6800325164112051;0.731;0.013328382186068381
25:54.5;0.09919205657504801;-0.21785180391511633;-0.6685464503199745;0.703;0.014446732867580319
25:54.5;0.1006986966554125;-0.2297279497662796;-0.6624893014007388;0.6859999999999999;0.015325567152533547
25:54.5;0.09965274699475571;-0.2423074108170064;-0.6633152625320969;0.675;0.01601680772465768
25:54.5;0.09671260075372769;-0.2550722676178421;-0.6721230987994672;0.67;0.016580404687996986
25:54.6;0.09260385810714407;-0.26751491190632787;-0.689521623572442;0.675;0.0170814591535717
25:54.6;0.08804867264191538;-0.27919429761323616;-0.7155368415272467;0.696;0.017589818436938184
25:54.6;0.0836990991619467;-0.2897864607527433;-0.7495797466077228;0.727;0.0181809560961544
25:54.6;0.08007573586611581;-0.2991220901253692;-0.7904888779420188;0.9179999999999999;0.018934122780193453
25:54.6;0.07751587633782141;-0.3072042246413595;-0.8366449533860729;0.9179999999999999;0.019923197525960574
25:54.6;0.07613914335945754;-0.31420080436639247;-0.886130970757799;0.9179999999999999;0.021198893568187178
25:54.6;0.07583884317484381;-0.32041033147738485;-0.9369043788289333;0.997;0.022766353749720438
25:54.6;0.07630277852176984;-0.3262039232015874;-0.9869661479968289;1.07;0.024565849665464785
25:54.6;0.07706115275796478;-0.3319520353235137;-1.034526426353509;1.136;0.026463813428865217
25:54.6;0.07755468807211802;-0.3379474804502369;-1.0781595120483543;1.203;0.02825792623960381
25:54.7;0.07721373790042285;-0.34433700147774177;-1.1169279180415166;1.255;0.029696373495899993
25:54.7;0.07553823723694644;-0.35107148952580375;-1.1504518009773594;1.2819999999999998;0.03050920113772343
25:54.7;0.07216835919489542;-0.3578813685502965;-1.178905068675305;1.288;0.030448419592555835
25:54.7;0.06693733777725668;-0.36428035563219413;-1.202930413538718;1.255;0.029332203731023014
25:54.7;0.0599018966538522;-0.3695976145088815;-1.2234816995312914;1.255;0.027087393119896996
25:54.7;0.051350515817716616;-0.37303501683605045;-1.2416186288591182;1.255;0.0237838759711443
25:54.7;0.04179157313818509;-0.3737449177000136;-1.2582869651093977;1.247;0.019653672402765283
25:54.7;0.03192173078776703;-0.37092517646323686;-1.2741153568870787;1.251;0.015086256690556337
25:54.7;0.022573820391154003;-0.36392803593334927;-1.2892537000063413;1.262;0.010591536454693563
25:54.7;0.014643974978841581;-0.3523741811073928;-1.303273608003184;1.271;0.006725098635514013
25:54.8;0.008997241027083429;-0.33625413595370657;-1.3151483562423998;1.2770000000000001;0.0039787965833693135
25:54.8;0.006352595908873143;-0.3159918536046865;-1.3233257188240461;1.306;0.0026564024379041843
25:54.8;0.007160041397149649;-0.2924465340832653;-1.3258998370573;1.36;0.0027763405050690265
25:54.8;0.011500172142165876;-0.26684090381184267;-1.3208731140076022;1.436;0.0040533848927093484
25:54.8;0.019040572410076728;-0.24062567490477238;-1.3064750628983697;1.436;0.005985812238499817
25:54.8;0.029064417339617413;-0.2153123120703708;-1.2814821259713474;1.436;0.008019421463335043
25:54.8;0.04056367214920979;-0.19231196070958045;-1.2454771045090458;1.403;0.009715816593821232
25:54.8;0.05237954476658858;-0.17280235047603;-1.1990022918245253;1.335;0.010852539578595296
25:54.8;0.06336739363090893;-0.1576277903813752;-1.1435836441778282;1.234;0.011422642048457173
25:54.8;0.07255439654175211;-0.1472352123645654;-1.0816250897770314;1.124;0.011554527063703149
25:54.9;0.07925716332317843;-0.14165202762360624;-1.0161922918870816;1.016;0.011408727743711032
25:54.9;0.08313927422576971;-0.14050887428895625;-0.9507213064237819;0.92;0.011106141700717581
25:54.9;0.08420626333396901;-0.14310396441017414;-0.8886943674061032;0.8490000000000001;0.0107089893997098
25:54.9;0.08274912535092623;-0.14849975922736502;-0.8333226662040849;0.7240000000000001;0.010240056578986648
25:54.9;0.07925598466583551;-0.15563767522000393;-0.7872707787557033;0.7240000000000001;0.009711156051686643
25:54.9;0.07431527780649778;-0.16345332113006988;-0.7524518209005064;0.7240000000000001;0.009140091688226153
25:54.9;0.06853030869405377;-0.17097707793155487;-0.7299097283720841;0.71;0.008552433986319006
25:54.9;0.062455227220534544;-0.17741268018704043;-0.7197852688998891;0.7020000000000001;0.007975472166492975
25:54.9;0.05655288871826484;-0.18219301898633136;-0.7213501466824874;0.708;0.007432461192556543
25:54.9;0.05117007714143005;-0.18501348171012813;-0.733095898786666;0.728;0.006940331866845932
25:55.0;0.04652434753342246;-0.18584199284781422;-0.7528707818120453;0.763;0.006509454385166988
25:55.0;0.04269803189223277;-0.18490519451858772;-0.778058829789705;0.802;0.0061428428467986814
25:55.0;0.03963839606694172;-0.1826518528629622;-0.8057914945729069;0.8390000000000001;0.0058339517630164855
25:55.0;0.037166814916071614;-0.17969646547126306;-0.8331775278531075;0.929;0.005564580475920969
25:55.0;0.035001096933357505;-0.1767485147055371;-0.8575314997763083;0.929;0.005305025920811295
25:55.0;0.032792282456362905;-0.17453583523906274;-0.8765771933683184;0.929;0.005017026810256005
25:55.0;0.03017300627203442;-0.17373136225978747;-0.8886061141360548;0.95;0.004658071013780601
25:55.0;0.02681210815807789;-0.17488983359069815;-0.8925839051821798;0.9590000000000001;0.0041854733273338105
25:55.0;0.02246888725845227;-0.17839826491795827;-0.8882063758165211;0.9590000000000001;0.003560295764362261
25:55.0;0.017038619657974558;-0.18444328509931257;-0.8759059783543867;0.946;0.0027526737913792995
25:55.1;0.010580055121517103;-0.19299779938579475;-0.8568064607375865;0.92;0.0017495365508347095
25:55.1;0.0033175576626177164;-0.20382826458354206;-0.8326244013123968;0.883;0.0005630306291680194
25:55.1;-0.004384836227528392;-0.21652320236967726;-0.8055205230801924;0.843;0.0007647763137787946
25:55.1;-0.012074251109273786;-0.23054207652956307;-0.7779101525575935;0.7490000000000001;0.0021654085329048376
25:55.1;-0.019274925117514226;-0.24527825091360106;-0.752252410775864;0.7490000000000001;0.0035564387067774255
25:55.1;-0.0255541108931154;-0.260122630007166;-0.7308477320162959;0.7490000000000001;0.004858092895504759
25:55.1;-0.030573276395041524;-0.27451427723606636;-0.7156712660687656;0.73;0.006006486426158666
25:55.1;-0.03411749677010289;-0.2879729038997051;-0.7082541983675845;0.727;0.006958537027279864
25:55.1;-0.03610420501384843;-0.300116046678481;-0.7096121116027474;0.733;0.007688967461000733
25:55.1;-0.036576305938087174;-0.3106645206552595;-0.7202183735741255;0.7490000000000001;0.008183812967457401
25:55.2;-0.0356848437509298;-0.3194375064138689;-0.7400230522890415;0.78;0.008435580128207948
25:55.2;-0.03366512249187217;-0.3263381978944562;-0.7685163772613243;0.828;0.008443086463549966
25:55.2;-0.030808807949555015;-0.331331956686563;-0.8048307034504976;0.88;0.008215665640527541
25:55.2;-0.02743409338125051;-0.334419744248402;-0.8478673897971223;1.021;0.0077787614807866
25:55.2;-0.023856208265033603;-0.33561026815513456;-0.8964240516461977;1.021;0.007177119176085017
25:55.2;-0.020360292557823404;-0.33489522012998507;-0.949288971127395;1.021;0.0064727882288184
25:55.2;-0.01717745456792779;-0.3322322113579609;-1.0052779719406486;1.047;0.005737024594287773
25:55.2;-0.014463403321765565;-0.32753860323971634;-1.0632163618185047;1.075;0.005036799241998575
25:55.2;-0.012278930802243125;-0.32069737222764316;-1.1218925631639622;1.122;0.004417811917761705
25:55.2;-0.01057337338622916;-0.3115748614758414;-1.180014552369551;1.182;0.003887436812100763
25:55.3;-0.009175109895110936;-0.3000500910261868;-1.236190820034731;1.2570000000000001;0.0034032241293110443
25:55.3;-0.007796273492556686;-0.2860550124002717;-1.2889440772677492;1.328;0.0028745555327349855
25:55.3;-0.006061728020207398;-0.2696222635716662;-1.3367534328000188;1.3659999999999999;0.002184758837943341
25:55.3;-0.00357195488700678;-0.250932100510243;-1.3781135780816818;1.43;0.0012352282027695044
25:55.3;5.835719834781199e-07;-0.23034889842795858;-1.4115989340397852;1.43;1.897544175719213e-07
25:55.3;0.00480087990650295;-0.20844197209471418;-1.4359245397589149;1.43;0.0014369366877887953
25:55.3;0.010698232510124785;-0.18598804053251042;-1.4500030729757634;1.4469999999999998;0.0028851339019259395
25:55.3;0.017237371967574466;-0.16394886418244953;-1.4530059913724067;1.463;0.0041062640301527
25:55.3;0.023647902526625245;-0.1434145822701151;-1.4444377673340016;1.4780000000000002;0.004898744333938294
25:55.3;0.028916000404965177;-0.1255085738188959;-1.4242221134450628;1.489;0.00516879539867743
25:55.4;0.03191386013211783;-0.11126187247987657;-1.3927850033471088;1.4880000000000002;0.004945495190829995
25:55.4;0.031572115480863173;-0.10147829238854923;-1.35110875569115;1.4680000000000002;0.004328796219248992
25:55.4;0.02706846278799866;-0.0966191049336117;-1.3007273969673736;1.421;0.003401832224037715
25:55.4;0.017995922253962553;-0.09673365191908147;-1.2436403675380383;1.13;0.002164943179175239
25:55.4;0.004475702192846005;-0.1014494423288247;-1.182147685804454;1.13;0.0005367630127919554
25:55.4;-0.012804347084351533;-0.11001856376483231;-1.1186462351235424;1.13;0.0015758547112327238
25:55.4;-0.03262770035345496;-0.12140755859622222;-1.0554378064239327;1.04;0.004180852422313514
25:55.4;-0.05335929478064223;-0.1344179461276068;-0.9945719795751893;0.972;0.007133514623444226
25:55.4;-0.07311992613767314;-0.14782438699673633;-0.9377196839264131;0.91;0.010135726035795387
25:55.4;-0.09000628083117027;-0.16051233590938285;-0.8860745257962356;0.862;0.012801223570096948
25:55.5;-0.1023252719400558;-0.1715948735676218;-0.8402911748846982;0.8290000000000001;0.014754245957027248
25:55.5;-0.10880447838098695;-0.18049400358038684;-0.8004735493053968;0.809;0.01572014455287838
25:55.5;-0.10874181001422635;-0.18697966461750812;-0.7662208975170218;0.797;0.015579191889780273
25:55.5;-0.10206855855656634;-0.1911648792776838;-0.7367317204275073;0.769;0.014375053097574324
25:55.5;-0.08932161501036608;-0.19345985663800783;-0.7109554727558793;0.769;0.01228541496207037
25:55.5;-0.0715447184957289;-0.1944944880422263;-0.6877724082444526;0.769;0.009570389784984049
25:55.5;-0.05014810696755901;-0.19502354825633683;-0.6661762541069279;0.745;0.006515244907646082
25:55.5;-0.026747370094582588;-0.19582772007202498;-0.6454349421981;0.725;0.0033807085183062057
25:55.5;-0.00299430760922043;-0.1976202339709725;-0.6252104834522673;0.705;0.0003699594070347689
25:55.5;0.019583707989275674;-0.20096785605739645;-0.6056268900754812;0.6859999999999999;0.002383563212638908
25:55.6;0.03971480993023783;-0.2062342082710668;-0.5872816960692652;0.667;0.004810161494996608
25:55.6;0.0564676988781307;-0.2135507763317244;-0.5712011191110842;0.644;0.006887954892029752
25:55.6;0.06928487790437071;-0.22281755272152004;-0.5587423177455941;0.617;0.00862580072730227
25:55.6;0.07796870328663659;-0.2337317734134626;-0.5514505264524258;0.588;0.010049503860178296
25:55.6;0.0826323159803721;-0.24583838336275388;-0.550885359543016;0.588;0.011190792602153249
25:55.6;0.0836307858478813;-0.2585908668977077;-0.55843673864306;0.588;0.012076840814393622
25:55.6;0.0814863033246743;-0.27141141462039536;-0.5751515339868789;0.5920000000000001;0.012720231266145838
25:55.6;0.07681650541685595;-0.2837460273530739;-0.6015874867576485;0.608;0.013112428410139348
25:55.6;0.07027031054176931;-0.29511523729103023;-0.6377078906305798;0.642;0.013224683800909505
25:55.6;0.062472724497683506;-0.3051596970110229;-0.6828307075250087;0.696;0.013017592276433392
25:55.7;0.05397886412474756;-0.3136758996043859;-0.7356440446080286;0.758;0.012455828420286804
25:55.7;0.04523771158897237;-0.3206356018783144;-0.7942931886884328;0.828;0.011521080430455256
25:55.7;0.036566801659595465;-0.32618429854622216;-0.8565352503670689;0.903;0.01021633837390966
25:55.7;0.028138878201522905;-0.33061833164159704;-0.9199472399484052;1.119;0.008558479809193113
25:55.7;0.01998179301762999;-0.3343444417198829;-0.9821580291046669;1.119;0.006561602766351607
25:55.7;0.011994762514246733;-0.3378273942988656;-1.0410591435851078;1.119;0.004218537558636272
25:55.7;0.003984457475435687;-0.34153077537186244;-1.0949550960311933;1.183;0.0014900311558812094
25:55.7;-0.004279633806406752;-0.34585499839587447;-1.1426439147589094;1.236;0.0016912646721097236
25:55.7;-0.012997164353381852;-0.35107641278441454;-1.1834413067128149;1.272;0.005400040123403561
25:55.7;-0.022267321415424167;-0.3572926050928012;-1.21715989869519;1.294;0.009683662415963376
25:55.8;-0.032030797983408216;-0.3643813655050807;-1.244046050944736;1.3;0.014519791309009572
25:55.8;-0.04203546661328935;-0.37198293923344783;-1.2646771521895948;1.297;0.019775094472743386
25:55.8;-0.051833428226878406;-0.3795146045810935;-1.2798295875744727;1.294;0.025176222787176503
25:55.8;-0.06081052080619425;-0.38622159667584305;-1.2903347893521204;1.3159999999999998;0.0303052369835513
25:55.8;-0.06824244945602091;-0.39125962740932424;-1.296943670483533;1.3159999999999998;0.03462906437879916
25:55.8;-0.07336669676384498;-0.3937959902778383;-1.3002168383101274;1.3159999999999998;0.037565229093615336
25:55.8;-0.07545985177647363;-0.3931140941941265;-1.3004519238389212;1.33;0.03857703668134162
25:55.8;-0.07391636317983366;-0.3887091558255477;-1.2976540886888728;1.327;0.03728415462663705
25:55.8;-0.0683305190599909;-0.38036319615360586;-1.2915527788049022;1.3130000000000002;0.03356799223055553
25:55.9;-0.058580767302596565;-0.3681854023588537;-1.281666500814491;1.3230000000000002;0.027643730787909878
25:55.9;-0.044903238503993935;-0.3526075639881036;-1.26741478007609;1.36;0.020067259001173638
25:55.9;-0.02792840107260956;-0.3343343473158033;-1.2482670668810374;1.3880000000000001;0.011655598549379037
25:55.9;-0.008653740029444449;-0.3142568970195979;-1.223901504612611;1.379;0.0033283970689047065
25:55.9;0.011658550327865324;-0.2933434330861963;-1.1943337992159904;1.214;0.0040845728382054814
25:55.9;0.03164175913594882;-0.2725260545698928;-1.159984958938294;1.214;0.010002786679146239
25:55.9;0.05000034934368267;-0.25260680080223363;-1.1216844340359262;1.214;0.014167354804400397
25:55.9;0.06565579932999178;-0.23420021115186032;-1.0806239678417224;1.14;0.01661632473694692
25:55.9;0.0778385450825352;-0.21771515378317646;-1.0382722772060844;1.068;0.017595216965083454
25:55.9;0.08612542753966394;-0.20336720062385394;-0.9962530399217843;1.0;0.01744945876913909
25:56.0;0.09043218730318768;-0.1912102889599073;-0.9561961844925361;0.9420000000000001;0.0165341281570752
25:56.0;0.09097263012294175;-0.18117827178254392;-0.9195835198373323;0.898;0.015156818256819844
25:56.0;0.08819685269738162;-0.17312860292133903;-0.8876113607683151;0.862;0.01355329103886236
25:56.0;0.08271986582636164;-0.16688151575065605;-0.8610871644035306;0.836;0.011886805939273054
25:56.0;0.07524887649269692;-0.16224977926328288;-0.8403700593358399;0.8170000000000001;0.010260173521100379
25:56.0;0.06651495929115145;-0.15905738261781033;-0.8253587378116316;0.8170000000000001;0.008732043983819457
25:56.0;0.0572139257110059;-0.15714944386790136;-0.8155245252082954;0.8170000000000001;0.007332492412493551
25:56.0;0.04795950495280749;-0.15639741953063402;-0.8099826277604029;0.8170000000000001;0.006075471376733094
25:56.0;0.03924867630698856;-0.1567024299350878;-0.8075917197504595;0.8220000000000001;0.004966982191105381
25:56.0;0.031437744585643364;-0.1579976437713362;-0.8070717090435927;0.8340000000000001;0.004008797468246009
25:56.1;0.024730252364987916;-0.16024950324350967;-0.8071302399051472;0.847;0.003198665741988796
25:56.1;0.019180304088829682;-0.1634563268651315;-0.8065884463762789;0.857;0.002528769358921288
25:56.1;0.014713479134428907;-0.16764208400809444;-0.8044955718668815;0.8640000000000001;0.001984367414031549
25:56.1;0.011162864356617536;-0.17284423558544285;-0.8002215076925708;0.866;0.0015439767904147652
25:56.1;0.008313333732601092;-0.17909665500457814;-0.7935174756328827;0.8320000000000001;0.001181460443343714
25:56.1;0.005945497475135522;-0.186409783938768;-0.7845394325125348;0.8320000000000001;0.0008695041898629575
25:56.1;0.003871584698793691;-0.19475008028183335;-0.7738352513248766;0.8320000000000001;0.0005834651484334869
25:56.1;0.0019577427796378956;-0.20402114848926742;-0.7623000876175876;0.8109999999999999;0.0003044786102008031
25:56.1;0.00013053878861784697;-0.21405028110340266;-0.7511025701072304;0.787;2.0987206163336976e-05
25:56.1;-0.0016300018410558646;-0.22458464205619727;-0.7415836311773045;0.767;0.0002714740264358987
25:56.2;-0.0033042853475037538;-0.2352996966976941;-0.7351341438794868;0.7509999999999999;0.0005715648414611347
25:56.2;-0.00484667612746645;-0.24581987007247874;-0.733063161877233;0.74;0.0008733782655696424
25:56.2;-0.006194774598085421;-0.25574955280486855;-0.7364711432094844;0.736;0.0011667992105166257
25:56.2;-0.007275379011785005;-0.2647122146344769;-0.7461421847807144;0.747;0.001436981572189889
25:56.2;-0.008011106061365212;-0.272395396113918;-0.7624665072422875;0.821;0.00166384557427568
25:56.2;-0.00833112502602323;-0.27859699989041037;-0.7853978285697634;0.821;0.001822929124428359
25:56.2;-0.008185935573573479;-0.28326377549177023;-0.8144422033128524;0.821;0.0018885114911961604
25:56.2;-0.007562998227493468;-0.28651155470052014;-0.8486739610299522;0.852;0.0018389800475189485
25:56.2;-0.006499812267180759;-0.2886213742961817;-0.8867827392204266;0.887;0.001663590894649847
25:56.2;-0.005092235121800398;-0.29001155226381514;-0.9271621398163788;0.945;0.0013692395494953383
25:56.3;-0.0034963072604983045;-0.29118919066562815;-0.9680459764609244;1.025;0.0009855549093264943
25:56.3;-0.0019217131451331655;-0.29268659134151237;-1.0076848270056855;1.1079999999999999;0.0005667820752467145
25:56.3;-0.0006152574054989146;-0.2949901232022624;-1.0445398845578484;1.181;0.00018957861786567692
25:56.3;0.00016541127434823146;-0.2984711244726636;-1.0774583654918624;1.229;5.319464644092047e-05
25:56.3;0.00018336485098207372;-0.3033294380585588;-1.1057914525794563;1.204;6.150407327353417e-05
25:56.3;-0.0007489814176234958;-0.30955778219840674;-1.1294273492622584;1.204;0.00026186114919180334
25:56.3;-0.0027512301073189796;-0.3169293235477164;-1.148735672699039;1.204;0.001001634896865622
25:56.3;-0.005868203529929227;-0.32500659674829163;-1.1644415338195284;1.185;0.0022208285504936452
25:56.3;-0.010071897477927971;-0.333170583870066;-1.177457434537328;1.175;0.00395114677168542
25:56.3;-0.015265119556544155;-0.3406706345794962;-1.1887018320189906;1.186;0.006181698815684187
25:56.4;-0.021278432479741635;-0.34669445084560535;-1.1989309510465445;1.208;0.008844650859606543
25:56.4;-0.027858750042998093;-0.35045231581317166;-1.2086044943766325;1.2109999999999999;0.011799803247035293
25:56.4;-0.03466114290819457;-0.35126401160308346;-1.217797538072429;1.2;0.014826943326589173
25:56.4;-0.04126323362118888;-0.34863508121351605;-1.2261662156563518;1.209;0.017639395193492658
25:56.4;-0.04721469559912749;-0.3423132116272176;-1.2329739839317604;1.285;0.01992758949143775
25:56.4;-0.05211591525503992;-0.3323214686311564;-1.237179688618397;1.285;0.021427008853166195
25:56.4;-0.05570265649550813;-0.3189678156118734;-1.2375756578842485;1.285;0.021988445639824297
25:56.4;-0.057910028567895566;-0.3028291264966015;-1.2329549444037147;1.307;0.021622137738094117
25:56.4;-0.058898846316152484;-0.2847064900856682;-1.2222881914340722;1.3159999999999998;0.02049640865809671
25:56.4;-0.05903853799368534;-0.2655518929138324;-1.2048927347257874;1.311;0.018890061917466065
25:56.5;-0.05884680247480185;-0.24637434267591304;-1.1805728480262072;1.2930000000000001;0.01711634923516155
25:56.5;-0.058892303457039434;-0.22814009332456262;-1.1497071565332118;1.264;0.01544711539212535
25:56.5;-0.0596765599197792;-0.21168241627890982;-1.1132625278280388;1.219;0.014063264835239469
25:56.5;-0.06152044267856322;-0.19763294591042058;-1.0727211776621826;1.156;0.013042644309654187
25:56.5;-0.0644820921044769;-0.18638241641381553;-1.0299198244704941;0.915;0.012377914410283592
25:56.5;-0.0683237421241188;-0.17807395611120697;-0.9868230844403918;0.915;0.012006359753797196
25:56.5;-0.0725303457358947;-0.17262591623879672;-0.9452817149926985;0.915;0.011835510677083851
25:56.5;-0.07637320374707546;-0.16977572710921396;-0.9068315448195876;0.865;0.011758264548288242
25:56.5;-0.07900951810602255;-0.1691351656370793;-0.8725614464431032;0.833;0.011660289846979099
25:56.5;-0.07960578442093244;-0.17024999959491816;-0.8430502169176729;0.82;0.011425762441344934
25:56.6;-0.07746532180619772;-0.17265950426088497;-0.8183655106228805;0.8190000000000001;0.010945740231389287
25:56.6;-0.07213545930310246;-0.17595160358808576;-0.7981195591302708;0.823;0.010130012578771294
25:56.6;-0.06347437766370229;-0.1798077143739776;-0.7815721305133044;0.831;0.00892022557272145
25:56.6;-0.051668041295670396;-0.18403034690797004;-0.7677640229991346;0.8290000000000001;0.007300274664541668
25:56.6;-0.03719790367522675;-0.18854897456567238;-0.7556606232640056;0.794;0.005299921443330294
25:56.6;-0.020769966711337375;-0.19340510977559056;-0.7442875115430838;0.794;0.002989816101685302
25:56.6;-0.003225489838671414;-0.19872218552862722;-0.7328473827297198;0.794;0.0004697378699064948
25:56.6;0.014544965002238449;-0.2046672487845013;-0.7208134530489557;0.784;0.0021457736893476156
25:56.6;0.031672960585202324;-0.21141054759189348;-0.7079952000367131;0.775;0.004740734401806964
25:56.6;0.04736842010794914;-0.21908777665787574;-0.6945712631879659;0.768;0.007208150719617995
25:56.7;0.06096159171917896;-0.22776886801371696;-0.6810852757649775;0.754;0.009456973081730177
25:56.7;0.07192980686245903;-0.23743679519706573;-0.6684025780094109;0.728;0.011415502466529273
25:56.7;0.0799091221416899;-0.24797953946139542;-0.6576289395830222;0.7020000000000001;0.013031461499165644
25:56.7;0.084694096928245;-0.25919750192251206;-0.6499979760933676;0.6779999999999999;0.014269079498592723
25:56.7;0.08623125551694652;-0.2708263846805094;-0.6467406944204648;0.691;0.015103787623741285
25:56.7;0.08461121816139477;-0.2825710012257359;-0.6489545339728228;0.691;0.015515644100844158
25:56.7;0.0800613255304976;-0.29414034965288893;-0.657487866014283;0.691;0.015483356836067672
25:56.7;0.07293723540353306;-0.3052741374685407;-0.6728510934685473;0.7090000000000001;0.014981602614338643
25:56.7;0.06371017850697096;-0.31575741137367785;-0.69516114471444;0.732;0.013984529667186432
25:56.7;0.05294617515221366;-0.32542640382521243;-0.7241234495099884;0.764;0.01247670740963517
25:56.8;0.04127428316679037;-0.33417000574015915;-0.7590530331881244;0.8059999999999999;0.010469335696066276
25:56.8;0.029343091847297186;-0.34192943988211244;-0.7989333708190314;0.861;0.008015911792484842
25:56.8;0.017767921077464888;-0.34869677393592186;-0.842508066760057;0.9159999999999999;0.005219857098230416
25:56.8;0.007074890146003408;-0.35451151160046296;-0.8883964371487184;0.973;0.0022282137559652385
25:56.8;-0.0023485256141531517;-0.35945363857977414;-0.935219662522112;1.105;0.000789499418323187
25:56.8;-0.010285197068318982;-0.3636313225981553;-0.9817176832374841;1.105;0.0036716435862136723
25:56.8;-0.016693180029925255;-0.3671622545063881;-1.0268314544164385;1.105;0.006293558432581884
25:56.8;-0.021680371190979538;-0.3701492818916202;-1.069732551187745;1.128;0.008584575725690246
25:56.8;-0.025452764110507262;-0.3726525252093014;-1.109804234908461;1.149;0.010526534030363114
25:56.8;-0.028246419091390675;-0.3746608271648129;-1.1465965278564858;1.175;0.012134232396394658
25:56.9;-0.030257500716109536;-0.3760659880253095;-1.1797795683558978;1.217;0.013424495693019043
25:56.9;-0.03158537888928402;-0.3766451441650813;-1.20911023436237;1.266;0.014384155219424611
25:56.9;-0.03220051518440312;-0.37605970596664595;-1.2344145530044692;1.317;0.014947916233363622
25:56.9;-0.031943371583914;-0.3738813880527282;-1.2555756323221858;1.359;0.014995380089437313
25:56.9;-0.030554934441926033;-0.3696532743770298;-1.2725091134996573;1.301;0.0143726488507828
25:56.9;-0.027734482066901253;-0.36298261420021355;-1.2851144549150615;1.301;0.012937420456369515
25:56.9;-0.023216226050561523;-0.3536452177019812;-1.2932113094732707;1.301;0.01061766227513323
25:56.9;-0.016854022555626416;-0.34167184867379813;-1.2964890342131512;1.28;0.007465890502789888
25:56.9;-0.008700620703060507;-0.3273926877519605;-1.2944984340133971;1.297;0.0036874041576834345
25:56.9;0.0009380201876304612;-0.3114288696800877;-1.2867025864204003;1.329;0.00037588000902617514
25:57.0;0.011496708271311697;-0.2946305807787729;-1.2725869500252864;1.358;0.004310610659305033
25:57.0;0.022208163450138884;-0.2779700708472061;-1.2518089784613917;1.37;0.007727673153989186
25:57.0;0.03221752564768631;-0.26240889948440327;-1.2243488186026177;1.3630000000000002;0.010350847480145892
25:57.0;0.040726968791212556;-0.2487683056194223;-1.1906151541156627;1.329;0.012062811515385822
25:57.0;0.04713157398874186;-0.23763167337387153;-1.1514702729350919;1.0979999999999999;0.012896415005452895
25:57.0;0.05111163615389375;-0.22929592778820568;-1.108168493514611;1.0979999999999999;0.01298739124797349
25:57.0;0.05266430233715129;-0.2237714408290342;-1.0622400071546108;1.0979999999999999;0.012518250785073947
25:57.0;0.052076387639470145;-0.22081852119164275;-1.0153658938112473;1.0290000000000001;0.011676129941765737
25:57.0;0.049850212594093425;-0.2200065556163176;-0.9692685376919661;0.983;0.010630330142096375
25:57.0;0.04659924682690632;-0.2207838930797429;-0.9256169683157944;0.9470000000000001;0.009523083488423114
25:57.1;0.04293564778129272;-0.2225478031617263;-0.8859425426056023;0.91;0.008465388385818643
25:57.1;0.03937365222827772;-0.22470548501759835;-0.8515647923229607;0.8740000000000001;0.0075341987396680965
25:57.1;0.036267435242224755;-0.22672081564639088;-0.8235277512287273;0.846;0.006771524875122277
25:57.1;0.033791842361929836;-0.22814592179527302;-0.8025464842905615;0.8190000000000001;0.006187208866711682
25:57.1;0.031963071326920986;-0.228639844577602;-0.7889648655089996;0.792;0.005765780216090903
25:57.1;0.030686450813363762;-0.22797809669487773;-0.7827279896805726;0.792;0.005475838723232491
25:57.1;0.029812765824052314;-0.2260570739351819;-0.7833744019244028;0.792;0.0052794629534577125
25:57.1;0.02918592402855492;-0.22289612916127802;-0.7900527395554452;0.805;0.005139632392107806
25:57.1;0.028672281374421547;-0.21863785657532214;-0.8015643000553055;0.82;0.005024883270630375
25:57.1;0.028170773616352944;-0.21354466011760603;-0.816429735745119;0.8370000000000001;0.004911411283334015
25:57.2;0.02760907255623433;-0.207988109366499;-0.8329761760415167;0.8540000000000001;0.0047832480766262465
25:57.2;0.026933395430360267;-0.20242764053822176;-0.8494406061713473;0.867;0.0046312042845722875
25:57.2;0.026099155121932418;-0.19737690737123761;-0.8640858767024765;0.8809999999999999;0.0044512265145591505
25:57.2;0.025067397970263302;-0.1933588874123337;-0.875326561380676;0.9;0.004242711503498534
25:57.2;0.023808427433373965;-0.19085377311933122;-0.8818611089844007;0.955;0.004007113568385367
25:57.2;0.022310147495930296;-0.19024620276070586;-0.8828016664153479;0.955;0.0037469817941677753
25:57.2;0.020586684208081015;-0.1917799968066677;-0.8777849576817569;0.955;0.0034655952837829335
25:57.2;0.018683622110908387;-0.19552803397054358;-0.8670441057650587;0.9540000000000001;0.003167461162196314
25:57.2;0.016678164055591325;-0.20138185216477622;-0.8514259996767954;0.935;0.002859667108968276
25:57.2;0.014674133721556397;-0.20906164586334927;-0.8323464765834;0.903;0.0025534713118355616
25:57.3;0.012792544634851325;-0.2181443043592502;-0.8116822723370356;0.856;0.002265097391878462
25:57.3;0.011158738452752223;-0.22810553722616106;-0.7916065459871234;0.809;0.0020149315773363885
25:57.3;0.009887677407579298;-0.2383716936881794;-0.7743845858388441;0.767;0.0018251798722361242
25:57.3;0.009069954901653353;-0.2483766780582812;-0.7621547555499912;0.7440000000000001;0.0017169557626097911
25:57.3;0.00876115720820792;-0.2576185096897303;-0.7567230524351433;0.755;0.0017079513704970548
25:57.3;0.008975568812617386;-0.26570866890163924;-0.7593958884464943;0.755;0.0018110729583417687
25:57.3;0.009683152000251093;-0.27240688531887886;-0.7708667376715443;0.755;0.0020333593464723033
25:57.3;0.010808093970318488;-0.27763638401661156;-0.7911637971245676;0.792;0.002374061130601099
25:57.3;0.012228120524813235;-0.2814790120070901;-0.8196608980774898;0.838;0.0028212394378925847
25:57.3;0.013775107355225212;-0.2841525173913517;-0.8551493255305632;0.885;0.0033472523693218593
25:57.4;0.01523863283086448;-0.2859722756269809;-0.8959616552230217;0.9329999999999999;0.0039044454513597958
25:57.4;0.01637474322529059;-0.2872993718111962;-0.9401337048571778;0.985;0.004422815243939478
25:57.4;0.01692195122568426;-0.28847803237822683;-0.9855898577047507;1.043;0.004811266481656067
25:57.4;0.016625543531246557;-0.28976764800465654;-1.0303378971034953;1.101;0.004963698819605589
25:57.4;0.015270109947894617;-0.291277543607136;-1.0726575768460145;1.244;0.004771009401277667
25:57.4;0.01271819732081749;-0.2929162736698259;-1.11125896108953;1.244;0.004139847425438367
25:57.4;0.008949833879880284;-0.2943701585423819;-1.1453772277728778;1.244;0.0030175696314969198
25:57.4;0.004095332792926886;-0.29512463776100056;-1.1747754045441037;1.27;0.0014198730346363893
25:57.4;-0.0015468006289747246;-0.2945346614542106;-1.199648830160071;1.255;0.000546543691307658
25:57.4;-0.007515851646702983;-0.2919377452141466;-1.2204485966038046;1.208;0.0026778604484605506
25:57.5;-0.013228057920555019;-0.286789350567593;-1.2376570876076431;1.161;0.004695257786567445
25:57.5;-0.01805301468214439;-0.2787917819988432;-1.2515625915431596;1.1540000000000001;0.006299154740556441
25:57.5;-0.02141941295207553;-0.2679890408000545;-1.2620888666196588;1.1740000000000002;0.007244602038907403
25:57.5;-0.022929455784965334;-0.2548066454437879;-1.2687286771798991;1.209;0.007412645889860247
25:57.5;-0.022454985455021635;-0.24002321706527804;-1.2706056988313525;1.3359999999999999;0.0068482062128486605
25:57.5;-0.020192028949582722;-0.2246752777972439;-1.2666527802127245;1.3359999999999999;0.00574635997250352
25:57.5;-0.01666190851624944;-0.20991816098626964;-1.2558591237607053;1.3359999999999999;0.004392539582006855
25:57.5;-0.012658128837978611;-0.19687634163063383;-1.2375249271699966;1.348;0.003084018666322987
25:57.5;-0.009143690816713146;-0.18650722006206805;-1.211474461811653;1.345;0.0020660053645688895
25:57.5;-0.007108081639054341;-0.1794906546244416;-1.1781962233386525;1.3119999999999998;0.001503183067289507
25:57.6;-0.007402289071287967;-0.17615451952900682;-1.1388871830904161;1.244;0.0014850481553261299
25:57.6;-0.010579996397697937;-0.1764458246793324;-1.0953864392352026;1.159;0.0020448632307900633
25:57.6;-0.01677662011217487;-0.17995115984771076;-1.0500003806729221;1.064;0.0031699220091268017
25:57.6;-0.025653215889779465;-0.18596332470397647;-1.0052418971471104;0.975;0.004795564086998248
25:57.6;-0.036421010782693566;-0.19358506121697697;-0.9635232045388445;0.833;0.006793381635557646
25:57.6;-0.047944045436833255;-0.20185373331143566;-0.9268544785912255;0.833;0.008969805278198946
25:57.6;-0.05889639633242233;-0.20986436675927098;-0.8966052009962827;0.833;0.011082268847545668
25:57.6;-0.06794126081397357;-0.21686988076386862;-0.8733716402461849;0.8240000000000001;0.012868618564874479
25:57.6;-0.07390636224982934;-0.2223480442353278;-0.8569645067897128;0.841;0.014082442125475974
25:57.6;-0.07593734560429541;-0.22603527711404733;-0.8465056928773246;0.8809999999999999;0.014529863012577637
25:57.7;-0.07360956375612025;-0.2279304965019262;-0.8406111773096204;0.924;0.014103660357980911
25:57.7;-0.06698007024019641;-0.2282709808449581;-0.8376288379294032;0.9520000000000001;0.012807015183260875
25:57.7;-0.056571802475489284;-0.22748307226262346;-0.8358908228209972;0.9620000000000001;0.010757185516917884
25:57.7;-0.043294037369253004;-0.226114806548454;-0.8339374067858942;0.96;0.008163765934188872
25:57.7;-0.028312788055581562;-0.22476165463926542;-0.8306779308270994;0.878;0.005286126245716269
25:57.7;-0.01289406294280276;-0.22399686783945624;-0.8254735692032362;0.878;0.002384157289796819
25:57.7;0.0017498560809467538;-0.22431459115324764;-0.8181491640383363;0.878;0.0003211384792319146
25:57.7;0.014584277521593926;-0.2260896949720172;-0.8089537479081016;0.851;0.0026674075691419013
25:57.7;0.024833715445126043;-0.22955500851739447;-0.7984865990707379;0.826;0.004551935558050942
25:57.7;0.03202194303705766;-0.2347943456978557;-0.7875998056647442;0.802;0.005921625187138854
25:57.8;0.03597567290429793;-0.2417484455061754;-0.7772890537639291;0.789;0.0067601318703025826
25:57.8;0.03679797579684336;-0.25023118865352195;-0.7685867000748005;0.787;0.007077147274798812
25:57.8;0.03481886380663801;-0.25995453813055047;-0.7624687599547685;0.794;0.006901350001354372
25:57.8;0.03053111107814154;-0.27056116855162893;-0.759781076272752;0.802;0.0062761967220727605
25:57.8;0.024519405661735594;-0.28166313399746185;-0.7611833748222964;0.812;0.005256894246412552
25:57.8;0.017391548786618815;-0.29288281099516494;-0.7671066342573337;0.812;0.003907400090364791
25:57.8;0.009720491764130838;-0.3038895288980481;-0.7777208523400828;0.812;0.0022973529158935757
25:57.8;0.0020029840622748296;-0.3144255705871198;-0.7929149615331403;0.8270000000000001;0.000499369443153946
25:57.8;-0.005364996599128268;-0.32431979908828273;-0.8122944982109168;0.852;0.0014133718101529203
25:57.8;-0.012100237594907673;-0.33349079220284217;-0.8352032287514888;0.882;0.003370310473445289
25:57.9;-0.01803665022006053;-0.3419408290393705;-0.8607722173196809;0.9159999999999999;0.005308784356168792
25:57.9;-0.02312478831955049;-0.3497407639693411;-0.887995283653386;0.955;0.00718182270224836
25:57.9;-0.02742618064421327;-0.35700665422677924;-0.9158251733736515;0.998;0.008967145569834216
25:57.9;-0.031099990407464962;-0.36387090254739274;-0.9432807680855075;1.041;0.010674525107579845
25:57.9;-0.034379767233387315;-0.370451868071547;-0.9695517320790978;1.12;0.012348258363405385
25:57.9;-0.037540412261296605;-0.376825465989458;-0.9940823351567051;1.12;0.014062470971959048
25:57.9;-0.04085827590088717;-0.3830003764349654;-1.0166137441121788;1.12;0.01590871913033214
25:57.9;-0.044568849812243475;-0.3888972971983633;-1.0371706883943548;1.114;0.017976973816402196
25:57.9;-0.04882636339267555;-0.39433404113355675;-1.0559944160171892;1.103;0.02033200791972576
25:57.9;-0.05366885504510894;-0.39902042814725575;-1.0734393898405952;1.107;0.022987671813149244
25:58.0;-0.0589922932160325;-0.40256681727407523;-1.0898582244076478;1.125;0.02588232336387647
25:58.0;-0.06453799367270777;-0.40450749636594663;-1.1054977117551064;1.146;0.028860236290301666
25:58.0;-0.06989719712471279;-0.4043376113403998;-1.1204210146337032;1.169;0.031665412355019705
25:58.0;-0.07453442273617536;-0.40156227827453356;-1.1344609638124694;1.187;0.03395465783763696
25:58.0;-0.07782940153515071;-0.39575727151409823;-1.1472021451644678;1.179;0.03533560606432306
25:58.0;-0.07913749167331277;-0.3866376111737062;-1.1579894851805086;1.179;0.03543161886344225
25:58.0;-0.07786790831783671;-0.37412340747987477;-1.1659679243191314;1.179;0.03396721915188975
25:58.0;-0.0735758669653811;-0.35838776901879954;-1.1701641097429625;1.219;0.030855695613027864
25:58.0;-0.06605819696286133;-0.3398740365914684;-1.1696174374770028;1.274;0.02625962619101696
25:58.0;-0.05543169055452024;-0.31927652709212595;-1.163551516356366;1.311;0.020592578545460878
25:58.1;-0.04216669547138266;-0.2974853552204913;-1.1515554993381143;1.317;0.01444508268174196
25:58.1;-0.02705650034844509;-0.27550139161393555;-1.1337301003926237;1.291;0.008450941507350788
25:58.1;-0.011124124960468903;-0.2543345779121973;-1.1107536817688886;1.2429999999999999;0.0031425994392374713
25:58.1;0.004511557478147674;-0.23490487684278258;-1.0838388892855222;1.171;0.0011486382064731751
25:58.1;0.018779054562329717;-0.21796396925101355;-1.0545759713914213;0.937;0.004316545305319616
25:58.1;0.030777856767275524;-0.20404788883957364;-1.024693720668968;0.937;0.006435237131586848
25:58.1;0.0398627175740395;-0.193461905065668;-0.9958019554243683;0.937;0.0076795423104508796
25:58.1;0.04568027498024768;-0.18629233940472073;-0.9691839920398462;0.902;0.00824764459786241
25:58.1;0.04816030958975977;-0.18243606678889437;-0.9456772371444575;0.898;0.008308888022493827
25:58.1;0.047472616559003165;-0.18163781987341748;-0.9256456898025271;0.917;0.007981678550910209
25:58.2;0.043966373893093186;-0.1835282182453095;-0.9090311613113138;0.95;0.007335036312156081
25:58.2;0.038109800602864924;-0.18765986102726584;-0.8954604274359469;0.9690000000000001;0.0064040463266269694
25:58.2;0.030441755435129548;-0.19354201353589098;-0.8843756112269089;0.966;0.0052105276506465535
25:58.2;0.021536736322163266;-0.2006753233924401;-0.8751521874486404;0.95;0.0037823128231290297
25:58.2;0.01197752838877435;-0.20858740728529554;-0.8671786575992139;0.879;0.002166525851808552
25:58.2;0.002329730489294991;-0.21686787049778994;-0.8598914791662379;0.879;0.0004344547439740769
25:58.2;-0.006883043486096457;-0.22519769616386356;-0.8527789638030735;0.879;0.0013218462257516463
25:58.2;-0.015201866787089065;-0.23336689535880395;-0.8453759878638285;0.863;0.002999066384347055
25:58.2;-0.02225314647434012;-0.24127781088656416;-0.8372649069338731;0.856;0.004495434756384057
25:58.2;-0.027768190763977612;-0.24893502303469636;-0.8280888544632546;0.858;0.005724143676053361
25:58.3;-0.03160009799856966;-0.25642313630874786;-0.8175795449611882;0.863;0.006624843975824749
25:58.3;-0.03373303538687973;-0.2638737298174998;-0.80559854134957;0.866;0.00717084357509925
25:58.3;-0.03427817742603556;-0.27142539778665176;-0.7921851722964894;0.87;0.007370465448174916
25:58.3;-0.03345326408007822;-0.2791847903585927;-0.7775984441469114;0.868;0.007262491491668399
25:58.3;-0.031548156125643385;-0.2871981110696136;-0.7623381178484442;0.8170000000000001;0.006907218526145168
25:58.3;-0.02888426390921606;-0.2954386764864719;-0.7471349617323929;0.8170000000000001;0.006375697639183556
25:58.3;-0.025777868043904893;-0.3038089383645159;-0.7329105798757862;0.8170000000000001;0.005739823450605445
25:58.3;-0.022514768377474993;-0.31215164194689493;-0.7207136031353376;0.7959999999999999;0.005065190998774901
25:58.3;-0.01933841430385527;-0.3202670554482937;-0.7116368756646557;0.772;0.004407492393409207
25:58.3;-0.016448860625808113;-0.32793578695476777;-0.7067187780854488;0.752;0.003812161269230456
25:58.4;-0.01400717899703803;-0.33494557252773344;-0.7068378223394408;0.745;0.0033162304305643627
25:58.4;-0.01213975818313946;-0.34111818643672537;-0.7126169623465887;0.75;0.0029510126122115
25:58.4;-0.010939159877307142;-0.34633189442058426;-0.7243554158317401;0.764;0.002744278415001363
25:58.4;-0.01046135341051431;-0.3505353509053154;-0.7420012847362695;0.789;0.002720973759237984
25:58.4;-0.01072111155458555;-0.3537503097106412;-0.7651699611070598;0.887;0.0029019809415562424
25:58.4;-0.011687774240256967;-0.3560631205441676;-0.7932007250792956;0.887;0.003300972531536923
25:58.4;-0.013283686239959833;-0.3576077259582324;-0.8252312582226949;0.887;0.003920136340834412
25:58.4;-0.015387868322083694;-0.35854422688404936;-0.8602695022306565;0.9279999999999999;0.00474630586796027
25:58.4;-0.01784745058310247;-0.3590368400714858;-0.8972563185584754;0.97;0.005749521819545255
25:58.4;-0.020498517135705968;-0.3592343143304051;-0.9351235757906343;1.01;0.00688603563320533
25:58.5;-0.023195250478160328;-0.3592551353788465;-0.972850384821565;1.05;0.00810677475850489
25:58.5;-0.02584165922635551;-0.35917885308180947;-1.009514112421661;1.092;0.009370085397476701
25:58.5;-0.028416923342719613;-0.359043471433371;-1.0443307129075792;1.129;0.010655213114118694
25:58.5;-0.030986847094116008;-0.3588468193712796;-1.0766796374845409;1.153;0.011972173168177783
25:58.5;-0.033698854585560684;-0.3585478131033994;-1.1061101662510289;1.186;0.013364742681331754
25:58.5;-0.036761742084646616;-0.3580645512841115;-1.1323280665360638;1.186;0.014904921171215762
25:58.5;-0.04041159699268913;-0.35727147553773175;-1.155163975238202;1.186;0.016678154533685152
25:58.5;-0.04486443885393725;-0.3560024775748449;-1.1745290627734197;1.215;0.018759403640337437
25:58.5;-0.050258483756826546;-0.35406593722132873;-1.1903677390867982;1.24;0.021182376263883827
25:58.5;-0.056596044890307715;-0.35127229835200785;-1.2026162526148587;1.244;0.023908760050799387
25:58.6;-0.06370361694787406;-0.34746822996609583;-1.2111711950980713;1.232;0.02680925384182514
25:58.6;-0.07123058535919;-0.3425675749591247;-1.2158706154562944;1.235;0.02966881013990186
25:58.6;-0.07869600469839316;-0.33657187567690083;-1.2164932792338745;1.254;0.03222108950104404
25:58.6;-0.08557363688607626;-0.32957876580576073;-1.2127815630642744;1.271;0.03420438602140299
25:58.6;-0.09139072762061581;-0.32177751083787454;-1.2044877697499594;1.251;0.03542095101987831
25:58.6;-0.0958135849774663;-0.3134298486577334;-1.1914370922468918;1.251;0.03577985363587317
25:58.6;-0.09870012466832251;-0.30483831343678475;-1.1735974755772294;1.251;0.03531070739424614
25:58.6;-0.10010957716600614;-0.29630946089289717;-1.1511459204945744;1.234;0.03414691898132098
25:58.6;-0.10026884141747376;-0.2881183067735185;-1.1245195472124119;1.209;0.03248656997342226
25:58.6;-0.09950319169511088;-0.2804767637446143;-1.0944389380803097;1.1740000000000002;0.030543966538856302
25:58.7;-0.09814632301679056;-0.27350899677379653;-1.0618935195819768;1.123;0.02850536594082853
25:58.7;-0.0964496532025866;-0.2672380326078176;-1.028084568599985;1.071;0.02649889576043851
25:58.7;-0.09451171841438541;-0.2615872501098177;-0.9943292946273709;1.022;0.024582863331035907
25:58.7;-0.09224509633525715;-0.256398285670586;-0.9619366316718626;0.981;0.02275122939349197
25:58.7;-0.08939057737439357;-0.2514643148779861;-0.9320703046126189;0.8859999999999999;0.020951579900939266
25:58.7;-0.08557607301357884;-0.24657418209382645;-0.9056195951584174;0.8859999999999999;0.019109343424791606
25:58.7;-0.08040439917909548;-0.24155920862839825;-0.8831026105783544;0.8859999999999999;0.017151992486799432
25:58.7;-0.07354751017999411;-0.23633318641952486;-0.8646226734483123;0.862;0.015028626996960486
25:58.7;-0.0648275282136731;-0.2309181757496299;-0.84988420221521;0.857;0.012722642894444278
25:58.7;-0.05427042763568892;-0.22545249529186534;-0.8382620689718437;0.8740000000000001;0.010256474510968056
25:58.8;-0.04212319051980255;-0.22018047334965046;-0.8289131302798801;0.895;0.007687923947976813
25:58.8;-0.028832781841475814;-0.21542591709751982;-0.8209130091716214;0.8959999999999999;0.005098960345813245
25:58.8;-0.014994236767615096;-0.21155399793555352;-0.8133940281501195;0.8909999999999999;0.0025801596599333526
25:58.8;-0.0012805745144301103;-0.20892896743020734;-0.8056591447781212;0.879;0.0002155533879683623
25:58.8;0.01163144081762808;-0.20787540330948837;-0.797254899171913;0.8220000000000001;0.0019276750077485462
25:58.8;0.023126720037048704;-0.20864763011468804;-0.7880000456760647;0.8220000000000001;0.003802364458910522
25:58.8;0.03269943487357901;-0.2114081229411018;-0.7779793175641161;0.8220000000000001;0.005378113566881812
25:58.8;0.03998062982791609;-0.21621400265928536;-0.7675159697614375;0.805;0.006634693561577221
25:58.8;0.04474991299753587;-0.2230110236707944;-0.7571313625975229;0.792;0.007555961959871866
