Time;AccX;AccY;AccZ;Acc-old;Acc-trns
14:24.3;0.03556934930390085;-0.1271384535917279;-0.6864357187647098;0.7;0.0031042216184821274
14:24.3;0.025891827746299327;-0.14319905204426048;-0.6968163807402191;0.7;0.0025835757742975534
14:24.3;0.016588537567933343;-0.15903391696606067;-0.7069365886661626;0.688;0.0018649977670771502
14:24.3;0.007980182886178253;-0.17440083071925436;-0.716871285570097;0.711;0.0009977059877922967
14:24.3;0.0003492853635620751;-0.18910998847414084;-0.7267040115647845;0.752;4.800123520525101e-05
14:24.4;-0.006081922818522178;-0.2030342503008373;-0.7365339512328267;0.7859999999999999;0.0009095005825408953
14:24.4;-0.011180426858103533;-0.2161167700869501;-0.7464998101433692;0.8109999999999999;0.0018037508747360076
14:24.4;-0.014928391467724754;-0.2283712239335888;-0.7568066181161007;0.823;0.0025801164979236606
14:24.4;-0.017433978452683564;-0.23987196108784725;-0.7677396901710063;0.823;0.0032106279620173783
14:24.4;-0.018918393718843574;-0.25073210126806966;-0.7796567757331921;0.82;0.003698261848927774
14:24.4;-0.019677836173081137;-0.26106912990691433;-0.7929590786415641;0.821;0.00407364930125367
14:24.4;-0.02002657653188868;-0.2709621125629879;-0.8080490338915362;0.831;0.0043848324151050545
14:24.4;-0.020232951139428575;-0.280410097794039;-0.8252853618443738;0.838;0.004682276148544929
14:24.4;-0.020462682496322476;-0.2893047932640138;-0.84494454217631;0.8759999999999999;0.005002031241534304
14:24.4;-0.02074397921557424;-0.2974296828507437;-0.8671941935383093;0.9109999999999999;0.00535047991287171
14:24.5;-0.020966408993939794;-0.30448966493462826;-0.8920796072575017;0.94;0.005695085142805122
14:24.5;-0.020918423266785613;-0.31016333800238044;-0.9195214471301517;0.9740000000000001;0.005965972835011328
14:24.5;-0.020355895357243373;-0.31416327522986687;-0.9493208758979536;1.041;0.006070977968483654
14:24.5;-0.019081621923976777;-0.3162906981191828;-0.9811665819172767;1.041;0.005921673447137469
14:24.5;-0.017011384600805212;-0.31647461917108277;-1.0146368992261985;1.068;0.0054624717197851915
14:24.5;-0.014208154282258665;-0.31478888527332066;-1.0491934413883346;1.092;0.004692590111636564
14:24.5;-0.010877662778731378;-0.31144445315561853;-1.0841698769578036;1.104;0.0036729374126090414
14:24.5;-0.007330022090200663;-0.30675852642494844;-1.1187646730820708;1.131;0.0025155946977011043
14:24.5;-0.003920636176110461;-0.3011064404182245;-1.1520475244990904;1.158;0.0013600252852844304
14:24.5;-0.0009880547618926726;-0.2948659340972315;-1.1829875836234192;1.185;0.0003446559681974875
14:24.6;0.0011955981460924098;-0.288364724432072;-1.2105083184169343;1.239;0.00041734493130629385
14:24.6;0.002454762577799116;-0.28184026734368095;-1.2335683236525474;1.286;0.0008534454057438577
14:24.6;0.0027243047823910156;-0.27541749651192643;-1.251258920958468;1.3359999999999999;0.0009388460987149182
14:24.6;0.0020533624611516893;-0.2691076350173309;-1.2628997067951122;1.354;0.0006978474568277546
14:24.6;0.0005995283420695596;-0.26282726551349656;-1.268108500965304;1.3319999999999999;0.00019981889329230484
14:24.6;-0.0013931075799990082;-0.256431860762303;-1.2668280051217073;1.3;0.00045255805013579833
14:24.6;-0.003635808597403787;-0.24975612710234432;-1.2593064400034264;1.2770000000000001;0.0011435326995707944
14:24.6;-0.005848786213768796;-0.2426557872243907;-1.246044670198368;1.256;0.0017684387092832675
14:24.6;-0.007809763472584703;-0.23504638620014576;-1.227729333553186;1.2329999999999999;0.0022536895539758727
14:24.6;-0.009384951575450131;-0.22693206889419976;-1.2051694327148361;1.212;0.002566705354101571
14:24.7;-0.010542492405781152;-0.21841697026012116;-1.1792473041931837;1.186;0.0027154047133458466
14:24.7;-0.011357353215751553;-0.2096982292523392;-1.150887565216319;1.177;0.0027409732273689885
14:24.7;-0.01201544575688275;-0.20104766072859812;-1.1210406939733413;1.169;0.0027080725142446887
14:24.7;-0.012816539367738883;-0.19279094585336815;-1.0906716162242234;1.141;0.002694954399617615
14:24.7;-0.014167445119067685;-0.18528807917974743;-1.0607399187496676;1.101;0.0027845045447222583
14:24.7;-0.016553953685360247;-0.1789127006939081;-1.0321604636341744;1.05;0.0030569626101229043
14:24.7;-0.02048323058315057;-0.17402541276774477;-1.0057418770372;0.995;0.003585070167192927
14:24.7;-0.026396307026351207;-0.1709368265079214;-0.9821116667235483;0.9520000000000001;0.004431386988960106
14:24.7;-0.034560675429104945;-0.16985850377768044;-0.9616453938136621;0.9179999999999999;0.005645266793566375
14:24.7;-0.04496332797912955;-0.17084616035939557;-0.9444200813105944;0.892;0.007254857459078879
14:24.8;-0.057232890410298116;-0.17375219221472485;-0.9302079636099099;0.927;0.009250304424165277
14:24.8;-0.07062384384353615;-0.17821515242112265;-0.9185164144818799;0.943;0.011560667205480903
14:24.8;-0.08408840471947965;-0.1837037647675649;-0.9086665096421322;0.953;0.014036495532468723
14:24.8;-0.09643254766905786;-0.18960461559612463;-0.8998931860288126;0.953;0.016453697525927166
14:24.8;-0.10651392070901458;-0.19532446405410148;-0.8914493858056795;0.97;0.01854640342915953
14:24.8;-0.11342428188081674;-0.20038276591672222;-0.8827009582195919;0.972;0.02006226687760194
14:24.8;-0.11661713953808629;-0.20448099714135862;-0.8732017864545412;0.965;0.020822360174073292
14:24.8;-0.11596688020998805;-0.207540739309151;-0.8627395580955732;0.946;0.020764288045512762
14:24.8;-0.11176111645205837;-0.2097054573103174;-0.8513454579440763;0.9109999999999999;0.019952912014691022
14:24.8;-0.10463759278790288;-0.21130504646655143;-0.8392668988062238;0.871;0.01855656998288375
14:24.9;-0.0954834162088831;-0.21278882088226286;-0.8269096456373911;0.836;0.016800987732749854
14:24.9;-0.08531500602666686;-0.21464078091631594;-0.8147620561980202;0.809;0.014919987560894304
14:24.9;-0.07515453736017215;-0.2172953286722022;-0.8033172962459597;0.8059999999999999;0.013118757786489446
14:24.9;-0.06591704553659881;-0.2210693628173898;-0.7930073209149721;0.805;0.01155589241180009
14:24.9;-0.05832047211007182;-0.2261223330021629;-0.7841557803509047;0.772;0.010341102355722238
14:24.9;-0.052825291801962514;-0.23245198323937133;-0.7769513288516128;0.7809999999999999;0.009540452517460407
14:24.9;-0.049603302612308935;-0.23992618112500236;-0.7714427168672536;0.8079999999999999;0.009181040806943961
14:24.9;-0.04853318822006619;-0.24833906675494027;-0.7675580416748727;0.816;0.00925113657674205
14:24.9;-0.049223381539058815;-0.25747010602347925;-0.765146301611344;0.828;0.009697119347405895
14:24.9;-0.05106273844292123;-0.2671259392626213;-0.7640328159956974;0.83;0.010421546639618355
14:25.0;-0.05329370679559697;-0.277156821702839;-0.7640770466522385;0.833;0.01128596382975931
14:25.0;-0.055097456795259576;-0.28745323311552295;-0.7652224645179078;0.823;0.012119549080715959
14:25.0;-0.055681333132765104;-0.2979353132688671;-0.7675318561558241;0.8340000000000001;0.01273292016827141
14:25.0;-0.05436369616305676;-0.30854529896866684;-0.7712069578847429;0.8340000000000001;0.01293596552664341
14:25.0;-0.050653806404708415;-0.3192445578368189;-0.7765960098065671;0.867;0.012558296820046683
14:25.0;-0.044321631399377934;-0.3300095048748392;-0.7841929959631097;0.897;0.01147004561951283
14:25.0;-0.03544586071838018;-0.34081931588042524;-0.7946268011753211;0.915;0.009599595552250295
14:25.0;-0.024424154927415374;-0.3516323510586501;-0.808631104489129;0.91;0.00694478512916806
14:25.0;-0.011934461885404203;-0.36235530920475767;-0.8269834383376395;0.903;0.0035763028020950535
14:25.0;0.001150443613713423;-0.37281520718782457;-0.8504089182359703;0.89;0.0003647428292805298
14:25.1;0.013879376923964695;-0.38274463876999837;-0.8794586427464288;0.882;0.004671910425343884
14:25.1;0.02534698788095949;-0.39178597673657745;-0.9143878465902127;0.9059999999999999;0.009080414832683003
14:25.1;0.03480263067125972;-0.3995141181274575;-0.955065825132461;1.054;0.013279371139601185
14:25.1;0.04172650215862062;-0.4054711831935661;-1.0009402260869642;1.054;0.01693480178647496
14:25.1;0.04586545242584418;-0.40920151233270385;-1.0510559415533183;1.138;0.019726441256759614
14:25.1;0.047231145534945555;-0.4102766531885642;-1.1041112844004612;1.203;0.021395287744135464
14:25.1;0.04607133608349607;-0.4083101434305058;-1.1585298025943787;1.262;0.021793560396947294
14:25.1;0.04282911822491889;-0.40297344517388933;-1.2125264954496169;1.305;0.020926991541281203
14:25.1;0.038102268037717386;-0.39402700907204935;-1.264150556388199;1.3;0.018979100261839493
14:25.1;0.03260496120621813;-0.38137168935974447;-1.311301257895693;1.258;0.016305518602427904
14:25.2;0.027123368720346628;-0.365112783529784;-1.351739463819173;1.2590000000000001;0.013386395744865633
14:25.2;0.022452899784897385;-0.34561992265212;-1.383141389959716;1.3330000000000002;0.010733411610533478
14:25.2;0.019311474449470494;-0.3235626820850387;-1.4032421269204667;1.537;0.00876811979584225
14:25.2;0.018237623964548647;-0.2999038940240947;-1.410080026584537;1.537;0.0077124812752091725
14:25.2;0.01949637739567961;-0.2758410877196586;-1.4022975284688446;1.589;0.007541418609210966
14:25.2;0.023019797650141116;-0.2526988018187229;-1.3794209133264925;1.5919999999999999;0.008024195301558228
14:25.2;0.028400483533348276;-0.23178712937884616;-1.34204655334217;1.53;0.008834513366103771
14:25.2;0.034942398362703055;-0.2142521619744098;-1.291884727788008;1.416;0.009671674853147912
14:25.2;0.041760382953865895;-0.20094640077883566;-1.2316406562869235;1.272;0.010335434068243998
14:25.2;0.047910516736131975;-0.192339169251914;-1.1647471422126472;1.1320000000000001;0.010733225268433568
14:25.3;0.05252983796326318;-0.1884755142901887;-1.094996537105526;1.004;0.010841109822456148
14:25.3;0.05496399650369274;-0.18898502396309785;-1.0261387982545649;0.91;0.010658885622593678
14:25.3;0.054862217778735324;-0.1931392895372489;-0.9615135843189848;0.8240000000000001;0.010188245788420166
14:25.3;0.052222487021953666;-0.19995181778803753;-0.9037722339304244;0.8240000000000001;0.0094371726843258
14:25.3;0.047378673775752986;-0.20830492050447807;-0.8547243584006837;0.8290000000000001;0.008435454932598854
14:25.3;0.04093255238306349;-0.2170814178354465;-0.8153153695453998;0.847;0.007244644931223326
14:25.3;0.03364434631924245;-0.2252795744719312;-0.7857121809887229;0.848;0.005955214350622231
14:25.3;0.02630510598946101;-0.23209542473742253;-0.7654563437923951;0.8370000000000001;0.004673336595109668
14:25.3;0.019619136645747468;-0.23696648146281052;-0.7536422564680089;0.8320000000000001;0.003503741468826152
14:25.3;0.014119321088836343;-0.239582474102741;-0.7490876378840576;0.833;0.0025339701237972975
14:25.4;0.01012435241450692;-0.23987515072683976;-0.7504757913698785;0.83;0.0018225909187533072
14:25.4;0.007734059081045336;-0.23799727450099448;-0.7564592387484693;0.8240000000000001;0.001392403160349067
14:25.4;0.006853843853782618;-0.23429542262382216;-0.7657222544684962;0.7959999999999999;0.0012296153591091934
14:25.4;0.007239134323914566;-0.22927710452457598;-0.7770082499233892;0.7959999999999999;0.001289653240185937
14:25.4;0.008550468125543095;-0.22357107939162787;-0.7891264542811391;0.792;0.0015085236339673729
14:25.4;0.01040967138326263;-0.2178796569411812;-0.8009566554410862;0.807;0.001816614251643542
14:25.4;0.012449632478714728;-0.21292278308155052;-0.8114679485531844;0.825;0.0021510476738105747
14:25.4;0.014353225228941939;-0.20937591304015188;-0.8197594013788282;0.8370000000000001;0.0024635570509510705
14:25.4;0.015879468718220525;-0.2078069376640362;-0.8251213599677137;0.872;0.0027227880783639536
14:25.4;0.016877218189020066;-0.20862063109156614;-0.8271079735683609;0.899;0.002912194165305789
14:25.5;0.0172880670890439;-0.21201972208995168;-0.8256045913656171;0.909;0.0030261802991961885
14:25.5;0.017140188240541736;-0.21798867545085526;-0.8208695809753649;0.899;0.0030670699574585395
14:25.5;0.016535055515216446;-0.22630194540266477;-0.8135329217877699;0.8490000000000001;0.0030441712304975703
14:25.5;0.01563051091953895;-0.23655488395348198;-0.8045454033500942;0.8490000000000001;0.0029747854666920238
14:25.5;0.0146247267709529;-0.24821268756633216;-0.7950869469297638;0.816;0.002886199596780368
14:25.5;0.013743741206888017;-0.26067113413982573;-0.7864517150589678;0.8;0.0028175392465087886
14:25.5;0.013230759044122228;-0.2733217577403731;-0.7799294429568683;0.7979999999999999;0.0028204232159675813
14:25.5;0.013332140326327927;-0.28561200314539;-0.7767010570200668;0.8029999999999999;0.00295753727899352
14:25.5;0.014276589710417523;-0.29708995471558713;-0.777762693383181;0.8190000000000001;0.0032988271021226626
14:25.5;0.016249658033316634;-0.3074268144277971;-0.7838841050613438;0.843;0.003915956231595562
14:25.6;0.01937069402256097;-0.3164169104824032;-0.7955976957653594;0.865;0.004876389455376393
14:25.6;0.023679887925885077;-0.3239604587182746;-0.8132072524613754;0.8859999999999999;0.006238395305128283
14:25.6;0.029138277803207067;-0.33003678815387427;-0.8368031229308065;0.91;0.008047287620265629
14:25.6;0.035636498400975644;-0.33467594364869524;-0.8662729999494164;0.9329999999999999;0.01033175976346057
14:25.6;0.043003906205860566;-0.3379355083467219;-0.9013025891793286;0.956;0.013098222152460998
14:25.6;0.05101176924333037;-0.3398877298843357;-0.9413661095153187;0.982;0.01632166396046839
14:25.6;0.0593705332005244;-0.34061942117166993;-0.9857118333628816;1.022;0.01993381053649013
14:25.6;0.06772683910311474;-0.3402427584153807;-1.0333518147693272;1.072;0.02381211131857207
14:25.6;0.07566775268693822;-0.33890915011874684;-1.0830660327436819;1.121;0.027774680112434336
14:25.6;0.0827379524945023;-0.3368137749669325;-1.1334288864300286;1.165;0.03158558253283814
14:25.7;0.08847256336065656;-0.33417929953321285;-1.1828621420999545;1.209;0.03497214634963405
14:25.7;0.09244531572484009;-0.3312149053426115;-1.2297151988951973;1.26;0.037652977390593374
14:25.7;0.09432836449394247;-0.32805814105650466;-1.2723692702649072;1.401;0.03937370615261939
14:25.7;0.09395513661168724;-0.3247170237576706;-1.3093519324512013;1.401;0.03994679856457003
14:25.7;0.09137214601138381;-0.32103297768770145;-1.3394357126162548;1.426;0.03929030012151087
14:25.7;0.0868643391262261;-0.3166798270202476;-1.3616938066689934;1.419;0.037457723633983725
14:25.7;0.08094315178046484;-0.31120410812716753;-1.3755030704257338;1.3980000000000001;0.03464870413262364
14:25.7;0.0742933659605504;-0.3041025660752568;-1.380505522590133;1.3780000000000001;0.03118948963114838
14:25.7;0.06768096726701467;-0.2949244677219461;-1.3765525307573645;1.371;0.02747705292783519
14:25.7;0.06183085616022056;-0.2833786294646887;-1.363658958321761;1.371;0.023893409453728406
14:25.8;0.057292231275941526;-0.26942127725977383;-1.341987959873253;1.368;0.02071458545466659
14:25.8;0.05431884448905515;-0.25330500089926555;-1.3118730165106978;1.358;0.01805036906155275
14:25.8;0.052795550746545884;-0.23557919737848515;-1.2738688901967083;1.3359999999999999;0.015843786958246897
14:25.8;0.05223647125186207;-0.21704260101116604;-1.2288132429881895;1.304;0.013931718788820532
14:25.8;0.05186373908675987;-0.1986557517909308;-1.1778768677843454;1.258;0.012135700798103862
14:25.8;0.050754847508330106;-0.18142670733250837;-1.1225814486448227;1.197;0.010337049762836748
14:25.8;0.048028585521614105;-0.16628771687904775;-1.064768762007682;1.1179999999999999;0.008503843683369178
14:25.8;0.04303030157218225;-0.15398245058987384;-1.0065143213973384;1.0290000000000001;0.006669074601371264
14:25.8;0.0354788757730779;-0.14498157116425947;-0.9499904929803974;0.9470000000000001;0.0048865450930390296
14:25.8;0.025548009119351955;-0.13943951033039131;-0.89729549930933;0.871;0.0031965271750179157
14:25.9;0.013868594274316316;-0.13719818911023515;-0.850271516212059;0.804;0.0016178507433415028
14:25.9;0.0014530689314567258;-0.13783505187018794;-0.8103363002170789;0.75;0.00016229725904204378
14:25.9;-0.01044481722074983;-0.1407449682728563;-0.7783510303163894;0.696;0.0011442191884126346
14:25.9;-0.02051039362123033;-0.14524015766165396;-0.7545450588998842;0.696;0.002247739027487125
14:25.9;-0.027556880810139746;-0.1506505327009212;-0.7385146460665628;0.7170000000000001;0.0030659131068623727
14:25.9;-0.03069180238388196;-0.156409282509342;-0.729302590734099;0.758;0.003501004535362096
14:25.9;-0.029438094532079927;-0.16211341134164647;-0.7255484025995617;0.795;0.0034625418449656022
14:25.9;-0.023795178006385403;-0.16755360945818035;-0.7256815452678091;0.816;0.0028932690720834564
14:25.9;-0.014232327751594498;-0.17271239178152176;-0.7281213226404217;0.8190000000000001;0.0017897945619877636
14:25.9;-0.0016160396846125714;-0.1777349718011259;-0.7314490376363645;0.809;0.00021009174287178053
14:26.0;0.012915620989875963;-0.1828821686362999;-0.7345292285639318;0.795;0.001734985050851035
14:26.0;0.02810903553167916;-0.18847645402107058;-0.736572003189499;0.782;0.0039022784391666847
14:26.0;0.042753590989578;-0.194850710748085;-0.7371420781268955;0.765;0.006140811906265924
14:26.0;0.05581614764943333;-0.2023054690808618;-0.73612879955906;0.765;0.008312301575601715
14:26.0;0.06653262698870084;-0.21107641287772422;-0.7336941706297794;0.763;0.010303610786125463
14:26.0;0.07444992821317642;-0.22131215523729372;-0.7302128966832837;0.7659999999999999;0.012031479900448581
14:26.0;0.07942265403140958;-0.2330625701984569;-0.7262120764281634;0.765;0.013442510790944537
14:26.0;0.08157577609959099;-0.246277922559849;-0.7223126772230306;0.7609999999999999;0.014511487530203744
14:26.0;0.08124618937353925;-0.26081769820954276;-0.7191729491414335;0.7559999999999999;0.015239594177519356
14:26.1;0.07891509856430506;-0.2764667472030542;-0.7174350734798493;0.752;0.015652568406389678
14:26.1;0.07514086889211141;-0.2929561700693191;-0.7176788406581847;0.755;0.01579825080287054
14:26.1;0.07049897454225161;-0.30998677623232956;-0.7203880457517254;0.77;0.015743180143934134
14:26.1;0.06553242138438177;-0.32725291887857727;-0.7259349880015559;0.787;0.015568166679847199
14:26.1;0.060713156650873006;-0.3444640422898163;-0.7345856417533774;0.809;0.015362756348773293
14:26.1;0.056413116155720075;-0.36136117186650374;-0.746524098914845;0.8370000000000001;0.01521827430649864
14:26.1;0.052882990169043596;-0.3777262991040232;-0.7618911691678527;0.8759999999999999;0.015219001747422037
14:26.1;0.05023776337309788;-0.3933839699803529;-0.7808283124375418;0.91;0.015431299738661699
14:26.1;0.04845022324858317;-0.4081959129734748;-0.8035144852372539;0.9309999999999999;0.0158912531082634
14:26.1;0.04735520760704821;-0.4220507728568108;-0.8301828096532888;0.953;0.016592284323493564
14:26.2;0.04666674532192127;-0.4348514970969735;-0.8611086155915655;0.981;0.017474566749948274
14:26.2;0.04600775677666197;-0.44650230817650977;-0.8965681295047846;1.0070000000000001;0.01841781319683441
14:26.2;0.04494959165353532;-0.45689589165699085;-0.9367735478284808;1.028;0.019238784168891455
14:26.2;0.043057904433429106;-0.46590052364679113;-0.9817937890493992;1.097;0.01969547088259745
14:26.2;0.03994153352832602;-0.4733466695503576;-1.0314710220448826;1.097;0.01950118905356711
14:26.2;0.035300690281767265;-0.4790127810862405;-1.0853422444396725;1.158;0.018352574957487433
14:26.2;0.0289703649798309;-0.48261106492152195;-1.1425751425025072;1.21;0.015974821456777224
14:26.2;0.02095594546476929;-0.4837761709972366;-1.2019274099676704;1.248;0.012185124525192543
14:26.2;0.011460061593270556;-0.4820620207983891;-1.261736413669335;1.29;0.006970412915800073
14:26.2;0.0008999363117876958;-0.4769533539854197;-1.3199443389349799;1.354;0.0005665565965424356
14:26.3;-0.01008854519385868;-0.46789848621472163;-1.3741637722931082;1.432;0.006486623316602151
14:26.3;-0.020668015034289146;-0.4543675713269056;-1.4217848389819367;1.479;0.0133518048304886
14:26.3;-0.02984674172791621;-0.43593615105542893;-1.4601174701644015;1.495;0.018997988053665187
14:26.3;-0.03655964549510179;-0.4123872997624962;-1.4865592092732918;1.56;0.022412457009371035
14:26.3;-0.039779680776014306;-0.38381722308320027;-1.4987823477433448;1.56;0.022883598647056688
14:26.3;-0.03865001393417581;-0.35072022434551153;-1.4949363269761138;1.6;0.02026437251955037
14:26.3;-0.03262322908071251;-0.3140253417747841;-1.473856360482826;1.618;0.015098951937591618
14:26.3;-0.021587254838782204;-0.27506510794070327;-1.4352578479875686;1.599;0.008522418411420941
14:26.3;-0.005948601060878008;-0.23547551601203082;-1.3798834345262962;1.5390000000000001;0.0019328715889406064
14:26.3;0.013358337199857118;-0.1970454621922175;-1.3095647797035241;1.443;0.0034470360564957353
14:26.4;0.034952652710357274;-0.1615439103293918;-1.2271704335428606;1.3230000000000002;0.006929080649474913
14:26.4;0.05716981997270968;-0.130552405759981;-1.1364307312257853;1.18;0.00848192978932596
14:26.4;0.07827416342172443;-0.10532499787903822;-1.041652323100506;1.035;0.008587617265456517
14:26.4;0.09667918743164433;-0.08669177035459816;-0.9473554501460771;0.795;0.007940060680128484
14:26.4;0.1111366847447245;-0.07501545996378625;-0.857886565439657;0.795;0.007152174151956591
14:26.4;0.12086543111769073;-0.07020161821373938;-0.7770690130106426;0.708;0.006593390828752885
14:26.4;0.1256044147136159;-0.071753917511445;-0.7079402193285577;0.645;0.006380388259397104
14:26.4;0.1255912698936241;-0.0788610231881428;-0.6525921366184642;0.597;0.006463439615529979
14:26.4;0.12147937884163201;-0.09050013115403488;-0.6121095005261132;0.5720000000000001;0.0067294704650222945
14:26.4;0.11421430073305543;-0.1055432262337887;-0.5865954899248788;0.569;0.007071142188463883
14:26.5;0.10489235612429952;-0.12285456927110022;-0.5752730295739604;0.581;0.00741325890513515
14:26.5;0.09462233919440913;-0.14137164497808818;-0.5766456379553239;0.612;0.00771374011283606
14:26.5;0.08440628625707061;-0.1601661324814827;-0.5886970096688096;0.657;0.007958611608555391
14:26.5;0.07504893317149379;-0.1784850825850839;-0.6091050518054667;0.695;0.0081590322373561
14:26.5;0.0671003880768868;-0.19577441755567113;-0.6354447788150214;0.723;0.008347545369305055
14:26.5;0.060833426204534934;-0.21168718433628408;-0.6653577323083165;0.741;0.008568248463859555
14:26.5;0.0562545110831824;-0.22607821743018833;-0.6966748507190654;0.7559999999999999;0.008860254730491525
14:26.5;0.0531451246845585;-0.23898574502883085;-0.7274923943390235;0.769;0.009239827951704228
14:26.5;0.05112707176967617;-0.2506000682803092;-0.7562115850726808;0.789;0.009688921366071399
14:26.5;0.04974181688582494;-0.2612203474715056;-0.7815583059760837;0.815;0.010155236223899104
14:26.6;0.04853029034317279;-0.27120241082715973;-0.802598517771028;0.8440000000000001;0.01056342586548668
14:26.6;0.04709884167011043;-0.280902685710145;-0.81875902289047;0.879;0.010832338353222795
14:26.6;0.045161333571722105;-0.2906250577975249;-0.8298539970578499;0.917;0.010891846308148911
14:26.6;0.04255513586844883;-0.30057776719046697;-0.8361079330645148;0.94;0.010694763361059569
14:26.6;0.03923600545115308;-0.3108459754016499;-0.8381585257029275;0.938;0.010222478410557059
14:26.6;0.03526052104353559;-0.32138322202919023;-0.8370224626173192;0.917;0.009485255615186566
14:26.6;0.03076420067649352;-0.33202267028646304;-0.8340150983907485;0.897;0.0085189738774214
14:26.6;0.025939848800769005;-0.3425065480734479;-0.8306284174467584;0.882;0.0073797747159300925
14:26.6;0.0210165563337397;-0.3525289338982559;-0.8283836398724743;0.867;0.0061374481628035
14:26.6;0.016237826122546595;-0.3617842796514238;-0.8286805138418427;0.858;0.004868158447796815
14:26.7;0.011838128834675415;-0.37001391701940156;-0.8326650871138368;0.8640000000000001;0.0036472999164302486
14:26.7;0.00801882566100256;-0.3770448537841221;-0.8411340477519452;0.8809999999999999;0.002543132581609357
14:26.7;0.004925038470861937;-0.38281676173764057;-0.8544878821050444;0.9059999999999999;0.001611040582851191
14:26.7;0.0026251219423425497;-0.3873932840869613;-0.8727369654207191;0.978;0.0008875338806273872
14:26.7;0.001095173252012791;-0.3909544296169347;-0.8955539912858697;0.978;0.0003834429349737932
14:26.7;0.00021230636886257064;-0.39376917534846223;-0.9223562079876144;1.018;7.710870577500966e-05
14:26.7;-0.00023933755829607135;-0.39615091731443336;-0.9523983005890391;1.054;9.030049557968682e-05
14:26.7;-0.0005473927793290945;-0.39840189913226653;-0.9848612126565414;1.087;0.00021478082094691646
14:26.7;-0.0010352256356824247;-0.4007548354861033;-1.0189264670565592;1.1159999999999999;0.00042272373449023546
14:26.7;-0.0020148227137325404;-0.4033197537560058;-1.05382784434023;1.141;0.0008563592652522734
14:26.8;-0.00373523554740152;-0.40604261452932167;-1.088876124189061;1.1640000000000001;0.0016514600973387473
14:26.8;-0.0063337737872725215;-0.4086812894618869;-1.1234579901462158;1.186;0.0029080652088127354
14:26.8;-0.009795362551541335;-0.41080420500883247;-1.1570148058608563;1.207;0.004655799955934033
14:26.8;-0.013923666556771037;-0.4118161294252549;-1.1890094148581127;1.27;0.00681776865213047
14:26.8;-0.018328294435114915;-0.4110124364963373;-1.218888210190832;1.27;0.009182076195039824
14:26.8;-0.022435297035825884;-0.40765750390610483;-1.246042789924341;1.2919999999999998;0.011396204170619496
14:26.8;-0.025529762162848652;-0.40107728318844144;-1.2697758178852083;1.29;0.013001752221816551
14:26.8;-0.026836470746316284;-0.39075313377572957;-1.2892812344601239;1.296;0.013519963918103384
14:26.8;-0.025636633264075583;-0.37640435608829304;-1.3036540541768966;1.3259999999999998;0.012579923241193175
14:26.8;-0.021406865504458913;-0.3580494618654811;-1.3119430791287847;1.367;0.01005567199406619
14:26.9;-0.013954479237157823;-0.3360385019295161;-1.313249394096278;1.3940000000000001;0.006158144606699314
14:26.9;-0.0035165791263103;-0.31104989932889027;-1.3068583518698413;1.4069999999999998;0.001429482940071239
14:26.9;0.009206266739167222;-0.2840481578073906;-1.2923800579192963;1.4040000000000001;0.0033796037151878865
14:26.9;0.02309752434331531;-0.25620491388059785;-1.2698682969779287;1.376;0.0075146986498743325
14:26.9;0.03674975947906992;-0.22879231619253665;-1.2398907440407883;1.3319999999999999;0.010425078981567982
14:26.9;0.04864602595731509;-0.20306225865601463;-1.2035319710062602;1.281;0.011888695703403012
14:26.9;0.05736614028811719;-0.18012757966465287;-1.162323432189739;1.139;0.01201054839084626
14:26.9;0.06178416113895378;-0.16086221758698774;-1.1181107001960724;1.139;0.011112608379080149
14:26.9;0.06122732515744705;-0.1458352326695901;-1.072882799170126;1.06;0.009579879100336412
14:26.9;0.05557577401688334;-0.13528686222958533;-1.0285917697618177;0.997;0.007733644223828534
14:27.0;0.04529370596622933;-0.12914492069690786;-0.9869833620983532;0.9520000000000001;0.0057733118656235925
14:27.0;0.03139128859108229;-0.12707158333279003;-0.9494537287851021;0.9109999999999999;0.0037873146634126564
14:27.0;0.015321328710465345;-0.12852715101918002;-0.916944722559436;0.878;0.0018056537177708468
14:27.0;-0.0011812306718756655;-0.132839310996514;-0.8898866045563611;0.838;0.00013963554971838161
14:27.0;-0.016300930783674818;-0.13927181946421124;-0.8681925300855691;0.838;0.0019710230244355687
14:27.0;-0.028358165645418047;-0.14709133854950104;-0.8513062328494202;0.845;0.003551003073474938
14:27.0;-0.036009746147164755;-0.15563221359072155;-0.8382999347798978;0.867;0.004698064627559679
14:27.0;-0.03840746133542531;-0.16435608488998377;-0.8280119844091133;0.888;0.00522682563142369
14:27.0;-0.03529466863071794;-0.17289864934364205;-0.8192060599157373;0.899;0.004999123498536498
14:27.0;-0.027027228510130154;-0.1810936318474336;-0.8107293110199003;0.897;0.003968081348295707
14:27.1;-0.014515127315691625;-0.18896688043604423;-0.8016469145741042;0.882;0.0021988199486759493
14:27.1;0.0009058953022691987;-0.19670043790292874;-0.791335279440982;0.86;0.00014100803554106816
14:27.1;0.017651749665195535;-0.20457410876019508;-0.7795242352238407;0.8370000000000001;0.0028149329156557656
14:27.1;0.034087995489755205;-0.2128971810098484;-0.766287957012343;0.787;0.005561134192485104
14:27.1;0.04871786378089852;-0.22194384045889504;-0.7519937345287216;0.787;0.008131029853216043
14:27.1;0.060333693885323676;-0.23190315415356397;-0.7372243884312543;0.767;0.010314929521749252
14:27.1;0.0681152083257808;-0.24285046217236392;-0.7226903976111221;0.747;0.011954607118106676
14:27.1;0.07167041871743315;-0.2547426360000037;-0.709143215596278;0.731;0.012947190333977659
14:27.1;0.07102422277825286;-0.2674349295441723;-0.6972982821407708;0.723;0.013244733213969432
14:27.1;0.06656482829567424;-0.28071307288678093;-0.6877760647306765;0.7290000000000001;0.012851520469190367
14:27.2;0.05896112386482044;-0.2943321873230017;-0.6810676436781968;0.7340000000000001;0.011819354512360908
14:27.2;0.04906533492422021;-0.3080542257804558;-0.6775265187946071;0.737;0.01024066682510209
14:27.2;0.037814013102212815;-0.32167756876447534;-0.6773836390489791;0.748;0.008239640259188594
14:27.2;0.0261372739950517;-0.33505520104369685;-0.6807802690557854;0.789;0.005961885274659192
14:27.2;0.014882780012922581;-0.3480999654387583;-0.6878113335484298;0.789;0.003563340879812539
14:27.2;0.004758030465717705;-0.3607766553442863;-0.6985689811772046;0.8059999999999999;0.0011991539548822745
14:27.2;-0.003707909482574687;-0.37308312276554567;-0.7131753718568483;0.82;0.000986577176056476
14:27.2;-0.010183505994883636;-0.3850262735787057;-0.731797028197274;0.841;0.0028693156756432166
14:27.2;-0.014535497895106522;-0.3966007313787398;-0.7546374126028412;0.867;0.004350325527722258
14:27.2;-0.016813664560148406;-0.4077760217498743;-0.7819072203462599;0.885;0.005360919513162844
14:27.3;-0.017224448767268287;-0.4184939653063293;-0.8137745544378171;0.897;0.005865953796443589
14:27.3;-0.01609865347239313;-0.4286745788586608;-0.8503017120154142;0.9209999999999999;0.0058680031126597575
14:27.3;-0.013856264405672206;-0.43822708269488253;-0.8913813309718748;0.961;0.005412637096083096
14:27.3;-0.010969594247236744;-0.4470610450826272;-0.9366875211051554;1.068;0.004593588916441495
14:27.3;-0.007925532430720125;-0.45509096008779526;-0.9856515778698064;1.068;0.0035550857265838802
14:27.3;-0.005187164287319154;-0.46222824528276746;-1.0374601501200627;1.123;0.0024874703195475905
14:27.3;-0.0031543832346545733;-0.46835909923022623;-1.091068651841826;1.1740000000000002;0.001611927467775921
14:27.3;-0.0021243316689510965;-0.4733124083929047;-1.1452271366285844;1.22;0.001151494436175283
14:27.3;-0.002255245611953397;-0.4768262429205945;-1.198519454513003;1.2690000000000001;0.0012888402305858417
14:27.3;-0.0035383400549759293;-0.4785242247581212;-1.2494148136941898;1.334;0.0021154859630853505
14:27.4;-0.005780471322935565;-0.47791405231654777;-1.2963274972610905;1.405;0.003581193476228766
14:27.4;-0.008598440741885711;-0.4744177766804819;-1.3376762883729472;1.444;0.005456720199226576
14:27.4;-0.011427335644366585;-0.46743620367772726;-1.3719319993717047;1.439;0.00732824390870363
14:27.4;-0.013549288605068094;-0.4564410595971615;-1.3976463180136633;1.422;0.008643676074320511
14:27.4;-0.014150888744970423;-0.4410819849453366;-1.4134703891763216;1.4240000000000002;0.008822461091281845
14:27.4;-0.012413843363304589;-0.42129077191439035;-1.418187696710233;1.4409999999999998;0.0074168914152069184
14:27.4;-0.007634372618531095;-0.3973614667973995;-1.4107885616115405;1.5019999999999998;0.004279775942349421
14:27.4;0.0006457963530777988;-0.3699856052297303;-1.3905966477550857;1.5019999999999998;0.0003322627030655144
14:27.4;0.012525036321510757;-0.3402296812141397;-1.3574300148632106;1.508;0.005784537489526577
14:27.4;0.02767407734767535;-0.30945271005427544;-1.311757725204473;1.48;0.011233654725027131
14:27.5;0.045335071318496505;-0.2791721753601728;-1.254806758168538;1.411;0.015881198827765137
14:27.5;0.06439144898017887;-0.25089795486281574;-1.1885800688704002;1.3;0.01920232264612592
14:27.5;0.08349672970445864;-0.22596306861047102;-1.1157625546098853;1.169;0.021051289901196164
14:27.5;0.10123893997452246;-0.20538156707152752;-1.0395181677822458;0.9359999999999999;0.021614298075832223
14:27.5;0.11631164026394357;-0.1897566818879141;-0.9632143249306117;0.9359999999999999;0.021259017563785627
14:27.5;0.1276630030330315;-0.1792497488812163;-0.8901330829658217;0.8540000000000001;0.020369414911430368
14:27.5;0.13460154471797983;-0.17360717805092354;-0.8232229381765918;0.7979999999999999;0.019236904315103047
14:27.5;0.1368484626522929;-0.17223334782770108;-0.7649164606490092;0.7559999999999999;0.018028980672225924
14:27.5;0.13453614948984466;-0.1742931361443567;-0.7170152660086327;0.722;0.01681309552816423
14:27.5;0.12815881553239544;-0.1788275365810114;-0.6806354595311173;0.7;0.015599024853734848
14:27.6;0.11848660984582016;-0.18486751056378317;-0.656203768368111;0.684;0.014373700344332165
14:27.6;0.1064586113969666;-0.19153346484877665;-0.6434926618322393;0.672;0.01312106421584944
14:27.6;0.09307040606193644;-0.1981104543744589;-0.6416838607289653;0.6679999999999999;0.011831508472897588
14:27.6;0.07926934753447012;-0.20409338382790262;-0.6494529142184102;0.687;0.010507076146979922
14:27.6;0.06586771179324577;-0.20920214235041928;-0.6650701118786045;0.687;0.00916444428684572
14:27.6;0.05348178963011048;-0.21337179980777757;-0.6865140665466177;0.71;0.00783415919061009
14:27.6;0.042501874007380355;-0.21672527386551105;-0.7115956719115495;0.74;0.006554671603108405
14:27.6;0.03309348192114626;-0.21953468005216964;-0.7380917870118483;0.779;0.0053623600684102055
14:27.6;0.02522565974316504;-0.2221747477374169;-0.7638869259800881;0.8220000000000001;0.004281207782856371
14:27.6;0.018718898304074857;-0.22506988263210223;-0.7871165786973763;0.86;0.0033161695653396517
14:27.7;0.013303374583598362;-0.22863748298658507;-0.8063001162280864;0.888;0.0024524828130466155
14:27.7;0.008678419832981631;-0.23323345550738198;-0.8204475102625801;0.91;0.001660666038270431
14:27.7;0.0045655629458578465;-0.23910827676496577;-0.8291241576930187;0.92;0.0009051249019917171
14:27.7;0.0007490178282796449;-0.24638026008367234;-0.8324623810456062;0.893;0.000153625277787089
14:27.7;-0.002900424611665537;-0.25502754094643265;-0.8311161745559081;0.893;0.0006147667909227617
14:27.7;-0.006418625443591824;-0.26489582209978346;-0.8261653385780151;0.866;0.0014047017142976234
14:27.7;-0.009755343745051702;-0.2757181598885292;-0.818982340025981;0.843;0.0022028376237942823
14:27.7;-0.012790469716133275;-0.2871442384894451;-0.8110788861608125;0.821;0.0029788572817682456
14:27.7;-0.015354350287975747;-0.29877626063165935;-0.8039516476308977;0.807;0.003688140534993792
14:27.7;-0.017249476636924926;-0.31020718057074237;-0.7989476372244005;0.812;0.004275098110996384
14:27.8;-0.018273918238383934;-0.3210568849242385;-0.7971664894091001;0.831;0.0046769496980988475
14:27.8;-0.01824790669615374;-0.3310030116859778;-0.7994085495439174;0.8540000000000001;0.00482851723167269
14:27.8;-0.017042226155967073;-0.33980414528558955;-0.8061668926520527;0.88;0.004668527867244307
14:27.8;-0.014603173590481739;-0.34731400143067465;-0.8176519896774537;0.9209999999999999;0.004147038213486784
14:27.8;-0.010967954888948831;-0.353485782962457;-0.8338323738069646;0.9209999999999999;0.0032327815558089957
14:27.8;-0.006267082326068575;-0.3583660169111947;-0.8544748594396888;0.93;0.0019190730597904084
14:27.8;-0.0007135794791766723;-0.3620780828768391;-0.8791744791936089;0.9440000000000001;0.00022715361998386908
14:27.8;0.005419309671907522;-0.3647978327294874;-0.9073743080358724;0.9620000000000001;0.0017938358370225866
14:27.8;0.011828827515600092;-0.3667251687289219;-0.9383825928388791;0.987;0.004070636843480925
14:27.8;0.018217258092693176;-0.36805470058492673;-0.971396473668471;1.022;0.0065131623311952104
14:27.9;0.02432462234493395;-0.36894693865261047;-1.0055396196149262;1.064;0.009024210236292506
14:27.9;0.029953440491728035;-0.36950072331016776;-1.0399166119431087;1.11;0.011509607720583452
14:27.9;0.034980962617075874;-0.36972808181586286;-1.07368076695811;1.153;0.013886390297174887
14:27.9;0.0393586707537225;-0.36953388921499414;-1.1061057372583083;1.226;0.016087603002852214
14:27.9;0.04310437793533904;-0.3687040869052838;-1.1366457103602576;1.226;0.018064437830178227
14:27.9;0.0462947595819188;-0.3669072238712734;-1.164966630747757;1.266;0.019787985395286572
14:27.9;0.04906344681732859;-0.3637139036097983;-1.190934685541485;1.294;0.021252298259595254
14:27.9;0.051603109126247645;-0.35863695013386726;-1.2145561873488269;1.281;0.022477526190632417
14:27.9;0.05416277476804958;-0.3511921805254591;-1.235871275834049;1.238;0.02350817858373396
14:27.9;0.05702860304175894;-0.34097627902894334;-1.2548159454021721;1.21;0.02440039906812853
14:28.0;0.06047999833459804;-0.32775438101808413;-1.2710841461064049;1.2109999999999999;0.02519617278874209
14:28.0;0.0647215715535298;-0.31154453610487576;-1.2840334087597627;1.236;0.02589080279214501
14:28.0;0.06980157328420482;-0.2926799160989092;-1.292672396712442;1.2790000000000001;0.02640867478836341
14:28.0;0.0755364800318933;-0.27182801525134986;-1.2957473258501822;1.351;0.026605491013204616
14:28.0;0.0814664371697258;-0.24995512603156775;-1.2919150847788683;1.351;0.02630720688786598
14:28.0;0.08686409798173211;-0.22824024663322687;-1.2799666801282112;1.3619999999999999;0.025376469832177295
14:28.0;0.09080934686861089;-0.2079533198048779;-1.2590564895633267;1.37;0.023776155139509952
14:28.0;0.09232625219481265;-0.19031476175042547;-1.2288988583476934;1.361;0.021593041674824516
14:28.0;0.09056020988764472;-0.17635400159103728;-1.1899015413412117;1.318;0.019003507475035823
14:28.0;0.08495918665308384;-0.16678707247177;-1.1432116737226643;1.244;0.01619941690306998
14:28.1;0.07541920597831202;-0.16193302003224136;-1.0906609473107682;1.148;0.013320089230663537
14:28.1;0.062361323725656295;-0.16168355504394474;-1.0346144691210046;1.046;0.010431811304366635
14:28.1;0.046721488579813716;-0.1655304440623526;-0.9777463811184369;0.95;0.007561723074331295
14:28.1;0.02985176444227085;-0.17264333645261032;-0.9227780223053876;0.87;0.004755728671695413
14:28.1;0.01334841754049369;-0.18198199789425454;-0.8722181975793449;0.8140000000000001;0.002118767755457467
14:28.1;-0.001163486757358725;-0.19242433336906575;-0.8281406140703168;0.78;0.0001854067406404274
14:28.1;-0.012251036906711322;-0.20289352655678242;-0.7920235343856215;0.7659999999999999;0.00196869811531688
14:28.1;-0.018861788559718626;-0.2124705510796287;-0.7646645092496233;0.763;0.0030644500721546267
14:28.1;-0.020449258649612567;-0.22048068698269077;-0.746171341438196;0.7659999999999999;0.0033642378015523635
14:28.1;-0.0170193022211788;-0.22654532764335056;-0.7360207671236699;0.773;0.002837833611520475
14:28.2;-0.009096778652485999;-0.23059440694779823;-0.7331695245155926;0.782;0.0015379449880041968
14:28.2;0.002374429850640039;-0.2328403090597768;-0.7361988606967176;0.7929999999999999;0.00040701709619159134
14:28.2;0.016175781204493693;-0.2337200088298368;-0.7434730439755106;0.807;0.0028107769601925744
14:28.2;0.030976667227266812;-0.23381658234955907;-0.7532945849978381;0.818;0.005456006060580175
14:28.2;0.045490463430062814;-0.23377282362095353;-0.7640427991254765;0.826;0.00812516278455656
14:28.2;0.0586047800389745;-0.23420855850325092;-0.774287260133327;0.8340000000000001;0.010627666434255393
14:28.2;0.06947380708648675;-0.23565032331977215;-0.7828727376959188;0.8390000000000001;0.012816820677005873
14:28.2;0.07756711147092442;-0.2384787140337983;-0.7889762224044837;0.8420000000000001;0.01459456500051956
14:28.2;0.08267493812548413;-0.2428962874610066;-0.7921387042949608;0.847;0.01590728232646276
14:28.2;0.08487590709008412;-0.24891762719546542;-0.7922743782664402;0.856;0.016738467463601574
14:28.3;0.0844782755804708;-0.25638159983135855;-0.7896583609287403;0.8590000000000001;0.017102954151245728
14:28.3;0.08194878286375017;-0.26498281109888555;-0.7848918475031912;0.8540000000000001;0.017043941263247618
14:28.3;0.0778428405580811;-0.27431605801485515;-0.7788427902702588;0.8420000000000001;0.016631051584323535
14:28.3;0.07274699436867814;-0.2839262085747164;-0.7725625519545575;0.8079999999999999;0.01595710823064902
14:28.3;0.06723940478512458;-0.2933566360215679;-0.7671849054953065;0.8079999999999999;0.015132818616140346
14:28.3;0.06186741376079913;-0.3021910781153156;-0.7638201215885871;0.804;0.014280213307650709
14:28.3;0.05713571468050315;-0.31008608986396025;-0.7634584971931083;0.805;0.013526186832633198
14:28.3;0.05349651644271698;-0.31679341021221724;-0.766893585594711;0.8109999999999999;0.012996809313183814
14:28.3;0.05133464988771248;-0.3221727192355333;-0.774670120731178;0.821;0.012811977653521076
14:28.3;0.0509448807730339;-0.32619575697372843;-0.7870582510641309;0.8340000000000001;0.013079337123250543
14:28.4;0.05250378605667983;-0.32894288657328113;-0.8040538254229563;0.855;0.013886610146233143
14:28.4;0.05604201000012234;-0.33059255761759887;-0.8254034626837776;0.878;0.015292308903434127
14:28.4;0.06142389656616217;-0.33140362552881714;-0.850652241635601;0.9079999999999999;0.01731596381098669
14:28.4;0.06834149141210236;-0.331691255892643;-0.8792100980177228;0.951;0.019930176386680744
14:28.4;0.07632917849744422;-0.331798082558832;-0.9104302564242799;0.9990000000000001;0.023057442933004803
14:28.4;0.08480257955687708;-0.3320614828762301;-0.9436896970489709;1.044;0.026573990752700345
14:28.4;0.09311983538816547;-0.33277599860261536;-0.9784588012262468;1.082;0.030320526547966353
14:28.4;0.10065663219426252;-0.33415010654228816;-1.0143466471908156;1.113;0.03411696559183056
14:28.4;0.10688160807142551;-0.33626009326574324;-1.051111106503035;1.135;0.03777695366279864
14:28.4;0.11141791995824477;-0.3390085195242853;-1.0886286670824414;1.153;0.04111927279046757
14:28.5;0.11407975623432645;-0.3420977108191738;-1.1268264113888011;1.168;0.04397600469516291
14:28.5;0.11487877093090605;-0.34502864645622516;-1.1655859401428093;1.19;0.04619970846662591
14:28.5;0.11400313084661183;-0.34713236038038325;-1.2046343723513062;1.2229999999999999;0.04767241254846947
14:28.5;0.11177821587054762;-0.3476348504155379;-1.2434394340339214;1.254;0.048317573698028714
14:28.5;0.10862016026263883;-0.3457489958518452;-1.2811245838604153;1.261;0.04811303261230048
14:28.5;0.10499074405010178;-0.3407808320134183;-1.3164197652324856;1.265;0.04709996308440856
14:28.5;0.10135721865233553;-0.33223517928645846;-1.3476664420588902;1.3090000000000002;0.04538190426756435
14:28.5;0.09815641267054419;-0.3199062651669764;-1.3728972186480866;1.383;0.04311014152226535
14:28.5;0.09575962455316979;-0.3039393266679732;-1.390001018983376;1.4509999999999998;0.040456140631678156
14:28.5;0.09443435556125562;-0.28484956851803384;-1.3969627802102427;1.5030000000000001;0.037577719655644
14:28.6;0.09430300161357026;-0.26348990750129736;-1.3921422564981993;1.5390000000000001;0.03459179650147931
14:28.6;0.09530609645905838;-0.24096972027001945;-1.3745414842744623;1.546;0.03156755946148784
14:28.6;0.09718342381178673;-0.21853790600956924;-1.3440084354576693;1.5030000000000001;0.028544403200029857
14:28.6;0.09948601449475848;-0.1974497258280677;-1.3013342359687305;1.416;0.02556274121738607
14:28.6;0.10162513557121919;-0.1788377210305655;-1.248221792100409;1.305;0.02268569168097918
14:28.6;0.1029533806335325;-0.16360434470403992;-1.1871309629278242;1.19;0.019995583273319913
14:28.6;0.10286286546799707;-0.1523487056926832;-1.121031073725869;1.081;0.01756770532957148
14:28.6;0.10088123827040739;-0.14533311232042573;-1.0531070387399186;0.993;0.015440007038307736
14:28.6;0.09674820227003211;-0.14248880681771103;-0.9864674498918736;0.925;0.0135989824478378
14:28.6;0.09045999196318384;-0.1434552910111439;-0.9238939391373334;0.872;0.011989338824029824
14:28.7;0.08227465513556476;-0.1476438057739269;-0.8676559528650865;0.828;0.010539714641536671
14:28.7;0.07267795705177993;-0.1543135731531647;-0.8193993739676971;0.795;0.009189723960328787
14:28.7;0.06231806096599662;-0.16265050072485243;-0.7801052800873928;0.773;0.007907196905535383
14:28.7;0.05192361371910519;-0.17184144088814324;-0.7501078866676034;0.754;0.006692934080873458
14:28.7;0.0422210849813567;-0.18114014817260513;-0.7291579546654969;0.743;0.005576551613560053
14:28.7;0.03386315175679345;-0.18992208233881527;-0.7165186546703102;0.743;0.004608189627137229
14:28.7;0.02737399698899888;-0.19772507456667485;-0.7110829846381402;0.762;0.003848754855118626
14:28.7;0.023113001611547966;-0.20427323031293276;-0.7115025313460915;0.762;0.0033592649286747355
14:28.7;0.02125606941475616;-0.20948274509684292;-0.7163164224067523;0.772;0.003189599275307938
14:28.7;0.021792685950002007;-0.2134504417652157;-0.7240696858246157;0.78;0.0033681248675881117
14:28.8;0.024536244133118213;-0.21642820106028363;-0.733413315710792;0.7859999999999999;0.0038946705308042693
14:28.8;0.029145091400048253;-0.21878759121330618;-0.7431823414841132;0.79;0.0047389648827820905
14:28.8;0.03515201947854186;-0.22097819479581754;-0.7524516068282889;0.8;0.005844916020444475
14:28.8;0.042000626700703494;-0.2234815731580463;-0.7605712276438853;0.812;0.007139000009618106
14:28.8;0.049088063109519055;-0.2267621160267854;-0.7671839428051391;0.816;0.008539764643788071
14:28.8;0.05581420965015661;-0.23121680834219055;-0.7722252140802843;0.816;0.009965708025742063
14:28.8;0.06163618583607458;-0.23712790676849593;-0.7759061779592747;0.8190000000000001;0.011340380678295575
14:28.8;0.0661240410918363;-0.24462459481980112;-0.7786803478119493;0.8290000000000001;0.012595595950684187
14:28.8;0.06901005363765378;-0.253660312992195;-0.7811956509534423;0.835;0.013674917211781793
14:28.8;0.07022282118888243;-0.26401075616531594;-0.7842327442428199;0.8320000000000001;0.014539345796294404
14:28.9;0.06989960446396049;-0.2752941094760874;-0.7886303644946497;0.8270000000000001;0.015175574170596935
14:28.9;0.06837437282974804;-0.28701129303336;-0.7952011481067109;0.8290000000000001;0.015605200013314417
14:28.9;0.06614180564767272;-0.2986008257612688;-0.8046459492112322;0.841;0.015891755713614328
14:28.9;0.0637991896641522;-0.3095008072804407;-0.8174772872944033;0.866;0.01614182534342062
14:28.9;0.061971618208101056;-0.3192094094067832;-0.8339608949217694;0.866;0.01649735074891914
14:28.9;0.061231225148450114;-0.32733558129647805;-0.85408088079848;0.884;0.017118478617231675
14:28.9;0.062023621136859254;-0.3336339713081032;-0.8775328264082232;0.914;0.01815895090604166
14:28.9;0.06461173983274592;-0.3380209714424627;-0.9037495537999469;0.955;0.01973800147479632
14:28.9;0.06904234039580955;-0.3405705818380897;-0.9319615121835305;1.003;0.021913947322904363
14:28.9;0.07513655437504596;-0.3414907588885663;-0.9612859806578866;1.05;0.02466509767108609
14:29.0;0.08250297366885327;-0.3410845572286859;-0.9908303426535435;1.09;0.027882451590792973
14:29.0;0.09056984017939394;-0.3397038749534662;-1.0197895639169472;1.115;0.03137578970478932
14:29.0;0.098632716218779;-0.3377042617091461;-1.0475193422751528;1.135;0.034891495585874524
14:29.0;0.10591497690487359;-0.3354064467274659;-1.0735733431833256;1.162;0.03813822714897435
14:29.0;0.11163847547522247;-0.33306539571283966;-1.0977017096702235;1.162;0.04081574718262049
14:29.0;0.11510027065769211;-0.33084372428916603;-1.1198153026001965;1.166;0.04264279316207932
14:29.0;0.11575045340948213;-0.3287866242384669;-1.1399254908999334;1.168;0.04338237333907122
14:29.0;0.1132663291710797;-0.32680120212850594;-1.1580727556728745;1.181;0.042866726087017554
14:29.0;0.10761654715444573;-0.3246503925493361;-1.1742572733749492;1.215;0.041025912076909435
14:29.0;0.0991033825497966;-0.3219732038538694;-1.1883804946215757;1.229;0.03791959777113234
14:29.1;0.08836504920582493;-0.3183351766386069;-1.2002018188539;1.207;0.033761321361669094
14:29.1;0.07631931938810424;-0.3133005560013534;-1.209314493926;1.188;0.028915780032466996
14:29.1;0.06404103284558643;-0.3065105281164651;-1.2151511761553146;1.203;0.023852507194996316
14:29.1;0.05258810277317498;-0.29775330060070065;-1.2170333918259861;1.281;0.019056651046191933
14:29.1;0.042813157303217386;-0.2870157718860711;-1.2142696292997701;1.281;0.014921007606470839
14:29.1;0.0352081236494201;-0.27450780546054876;-1.2062871303347567;1.3;0.011658650224745847
14:29.1;0.029820543146709226;-0.26065136102993763;-1.1927683945027339;1.2930000000000001;0.009271108618165678
14:29.1;0.02625936123910235;-0.24603274201578026;-1.1737628803972329;1.2670000000000001;0.007583286000445878
14:29.1;0.02378644519695202;-0.23132613942501765;-1.149751395766314;1.23;0.006326422592231107
14:29.1;0.02147361548668534;-0.21720445439967997;-1.1216495836888407;1.187;0.005231558658467004
14:29.2;0.018393200344597307;-0.20425463340428177;-1.090747028128414;1.135;0.004097823576215277
14:29.2;0.013804486256439341;-0.19291093541345222;-1.0585882537072515;1.077;0.0028190590063258405
14:29.2;0.007301013704109084;-0.18341480704200888;-1.0268096372919953;1.014;0.0013750151809123596
14:29.2;-0.0011063179305696425;-0.17580574750608646;-0.9969528865234747;0.919;0.00019390439617865773
14:29.2;-0.010980600444835538;-0.16994252380176153;-0.9702825242893218;0.919;0.00181061603425014
14:29.2;-0.021520058512049467;-0.1655486804279422;-0.9476383358765423;0.89;0.0033760727194938095
14:29.2;-0.03167463053492957;-0.16227299476914628;-0.9293476280216726;0.879;0.004776788403281261
14:29.2;-0.040298995580145054;-0.1597554412000333;-0.9152084032504144;0.885;0.0058920968909781605
14:29.2;-0.046318966086933706;-0.15769037176272044;-0.9045426014755561;0.905;0.006606828894660458
14:29.2;-0.04888530800496123;-0.1558788755253288;-0.8963108895513039;0.93;0.006830056446472362
14:29.3;-0.0474914863297288;-0.15426201037358447;-0.8892728954394127;0.9570000000000001;0.006514930755496963
14:29.3;-0.04203910652033257;-0.15292795629080463;-0.8821688194770904;0.9690000000000001;0.005671423329162597
14:29.3;-0.03284375404262332;-0.1520906483060014;-0.8738934518109482;0.958;0.004365296904176309
14:29.3;-0.020583223369182564;-0.15204425398853944;-0.8636349885966765;0.9309999999999999;0.002702798241960996
14:29.3;-0.006199416965511035;-0.15310399883436646;-0.850959718408857;0.902;0.000807693120715107
14:29.3;0.009227318057222303;-0.1555463604827615;-0.8358367288490861;0.873;0.0011996561802015942
14:29.3;0.024609472121502517;-0.15955975236733352;-0.8186086469552134;0.843;0.003214415247678654
14:29.3;0.03896922997750601;-0.16521224029078665;-0.7999214047600732;0.8109999999999999;0.005150049018207135
14:29.3;0.051526434118003235;-0.17243823313381076;-0.780628464826136;0.787;0.006935983251973483
14:29.3;0.061750196995971264;-0.18104304209307387;-0.7616846489492826;0.768;0.008515210508407313
14:29.4;0.06937317060306453;-0.19072269841975759;-0.744042541818398;0.746;0.009844455364169275
14:29.4;0.07437259916877943;-0.20109575172077315;-0.7285612704352772;0.728;0.010896372369075402
14:29.4;0.07692627328454368;-0.21174341004908145;-0.7159349087881852;0.721;0.011661599855429543
14:29.4;0.0773540136099558;-0.2222539752670847;-0.7066461795663594;0.722;0.012148828613807148
14:29.4;0.07605533671933751;-0.23226687418891562;-0.7009490515515254;0.7240000000000001;0.01238235985171846
14:29.4;0.07345197040719853;-0.2415111425745636;-0.6988807042993277;0.727;0.012397772796460102
14:29.4;0.06994153082289563;-0.24983373389672753;-0.7003003004381231;0.757;0.012236875035877727
14:29.4;0.06586603289516589;-0.2572143876136171;-0.7049493503044187;0.757;0.011943034286038488
14:29.4;0.06149523550292476;-0.263765485658305;-0.7125257850493422;0.777;0.011557396710665326
14:29.4;0.05702145177413483;-0.2697175392013194;-0.72276225591185;0.8;0.011115856298649302
14:29.5;0.052561578839421655;-0.27539344057316584;-0.7354989191519535;0.8240000000000001;0.01064643072995188
14:29.5;0.04816364006453787;-0.2811759167211439;-0.7507403813004228;0.8440000000000001;0.010166868316753654
14:29.5;0.04381721410743643;-0.28747216298934175;-0.7686859144267802;0.8590000000000001;0.009682544049815884
14:29.5;0.03946846116083345;-0.2946786756395088;-0.7897239389416036;0.87;0.009184895220911893
14:29.5;0.03504064954950301;-0.30314868582551313;-0.8143868897381688;0.88;0.008650846611819115
14:29.5;0.030459590547818258;-0.31316362527786146;-0.8432696958257694;0.894;0.00804381116396398
14:29.5;0.02567985015783857;-0.32490822634765576;-0.8769222768570794;0.914;0.007316683945442045
14:29.5;0.020703724275012436;-0.33844755607047367;-0.915731522371694;0.9390000000000001;0.006416645136040687
14:29.5;0.015584718751979343;-0.353705314082764;-0.9598097632324925;0.978;0.005290853266671481
14:29.5;0.010412980894662593;-0.3704451074830691;-1.0089050637694192;1.033;0.0038917885565761404
14:29.6;0.0052888378294206565;-0.3882568753142296;-1.062345049798883;1.09;0.002181448698773167
14:29.6;0.00029717175247753356;-0.4065483993119292;-1.1190216327571625;1.146;0.00013519426318010013
14:29.6;-0.00450259953256924;-0.4245404416599329;-1.1774199552172149;1.2109999999999999;0.002250680153689349
14:29.6;-0.009059002161296617;-0.44126666954916505;-1.2356913733758272;1.2930000000000001;0.004939596826368902
14:29.6;-0.013279600350640401;-0.45558473244016673;-1.2917653690551552;1.386;0.00781515874580714
14:29.6;-0.016959326504720075;-0.4662089463811858;-1.3434867691812251;1.4680000000000002;0.010622398706511946
14:29.6;-0.019708342559663167;-0.4717758574407845;-1.3887549504878338;1.506;0.012912532720630898
14:29.6;-0.020911753704373943;-0.47095050528951554;-1.4256392338721717;1.496;0.014040266818818882
14:29.6;-0.019753162481562357;-0.4625732571520711;-1.4524566983478329;1.494;0.013271510379064252
14:29.6;-0.015317939683664834;-0.44583608221438975;-1.4678205670614621;1.5290000000000001;0.010024172637713406
14:29.7;-0.0067640892335930685;-0.42046415488245625;-1.4706829300702065;1.5659999999999998;0.004182706174923588
14:29.7;0.00647760646627469;-0.3868647930742784;-1.46039280392096;1.5759999999999998;0.0036596828624633334
14:29.7;0.02452510121480153;-0.3461976103815725;-1.4367738327286212;1.5590000000000002;0.012198973391667922
14:29.7;0.0469352182493939;-0.3003289197610114;-1.400208920784777;1.4869999999999999;0.019737349701914514
14:29.7;0.07269004098306701;-0.2516647018007991;-1.3517094587232552;1.4869999999999999;0.024727520621702123
14:29.7;0.10027996543309702;-0.20289468712137437;-1.2929431051602946;1.4;0.02630657237104391
14:29.7;0.1278635769534251;-0.15669918724277546;-1.226194908666778;1.2919999999999998;0.024568186600278506
14:29.7;0.1534768951035241;-0.1154663026086699;-1.1542465617402093;1.173;0.0204548761155291
14:29.7;0.1752611381878331;-0.08105857869489806;-1.0801798358995862;1.063;0.015345487087010296
14:29.7;0.19167599524353027;-0.05466056162682231;-1.0071333596928018;0.972;0.010551854598422197
14:29.8;0.20166919424397087;-0.03672396582099927;-0.9380542626655233;0.902;0.006947316729902481
14:29.8;0.2047821330080327;-0.02700693496508774;-0.8754838102550587;0.856;0.00484189626051845
14:29.8;0.20118073247131724;-0.024686774306316918;-0.8214030599770464;0.821;0.004079501038643556
14:29.8;0.19160971144419722;-0.0285165043358302;-0.7771476013226366;0.754;0.004246364932311245
14:29.8;0.1772800174129389;-0.03699551803965227;-0.743386525987574;0.754;0.004875549655358815
14:29.8;0.159711591733277;-0.04853160466601779;-0.7201534522247264;0.7290000000000001;0.005581952495392471
14:29.8;0.14055866426948882;-0.06158161648679242;-0.7069150031387696;0.7140000000000001;0.006118935919795523
14:29.8;0.12144017975937467;-0.07476608872227251;-0.7026626058167307;0.711;0.006379900493125722
14:29.8;0.10379166303761288;-0.08695619632563342;-0.7060169647028149;0.718;0.006372034841023431
14:29.8;0.08875079139660584;-0.09733140631827868;-0.7153390932895056;0.735;0.006179270296014489
14:29.9;0.0770845033139931;-0.10540688345862487;-0.7288439255328295;0.755;0.00592202981848451
14:29.9;0.06916020454783704;-0.11103211911480575;-0.7447119032313181;0.777;0.0057186457354139525
14:29.9;0.06495915910962526;-0.11436470980146984;-0.7611926711391576;0.792;0.005654927285285174
14:29.9;0.0641264791712809;-0.11582443633448292;-0.7766950738249528;0.804;0.005768835324578577
14:29.9;0.06604864536081227;-0.1160329482722617;-0.7898597857394031;0.8140000000000001;0.006053342473255701
14:29.9;0.06994670234528184;-0.11574413229652551;-0.7996141366611429;0.823;0.006473612377101321
14:29.9;0.07497245922147219;-0.11577012817533922;-0.805211020001636;0.83;0.006988886390152347
14:29.9;0.08029659348200126;-0.11690805410171848;-0.8062540864863614;0.8340000000000001;0.0075685638977246086
14:29.9;0.08518066781405857;-0.119872676466988;-0.802710260686469;0.831;0.00819634173097818
14:29.9;0.0890287769733726;-0.12524039328459796;-0.7949091593150746;0.8240000000000001;0.008863236364674721
14:30.0;0.09141806571528874;-0.13340955864863283;-0.7835281193587841;0.818;0.009555943261908844
14:30.0;0.09210960712353101;-0.14458046220705312;-0.7695614284868267;0.8079999999999999;0.010248441603859307
14:30.0;0.09104150590242745;-0.15875503334054353;-0.7542725086020212;0.7959999999999999;0.010901724815747681
14:30.0;0.08830577942969409;-0.175752725014102;-0.7391282910857652;0.762;0.011471257307146253
14:30.0;0.08411179513053618;-0.1952363925385994;-0.7257169833193063;0.762;0.011917494575252383
14:30.0;0.07874192547045265;-0.2167417393032603;-0.7156535351313609;0.743;0.012213816909141131
14:30.0;0.07250668909527987;-0.23970703048817707;-0.7104789124344862;0.732;0.012348381496847456
14:30.0;0.0657052601244937;-0.26350369082023994;-0.7115597607274272;0.736;0.012319645809738823
14:30.0;0.05859462536117565;-0.2874687453320676;-0.719996457436845;0.75;0.012127709202390332
14:30.0;0.05136880916656603;-0.3109371613437081;-0.7365488720973614;0.777;0.011764506018084141
14:30.1;0.04414888892931676;-0.33327005906674245;-0.7615875712880142;0.8140000000000001;0.011205620878740441
14:30.1;0.03698476587686681;-0.3538753364670436;-0.7950740334654345;0.8540000000000001;0.010405926142454888
14:30.1;0.029870007506944483;-0.37221943852988304;-0.83656909865165;0.902;0.009301140396889148
14:30.1;0.022770306244432804;-0.3878310606523721;-0.8852653390244773;1.008;0.00781780655703146
14:30.1;0.01566328943698262;-0.40029836750722275;-0.940034943264858;1.008;0.005894008933825206
14:30.1;0.00858313702970156;-0.4092614223044026;-0.9994819300621416;1.061;0.003510927020057313
14:30.1;0.0016598733502930058;-0.41440264091945067;-1.061992392825704;1.12;0.0007304977331106173
14:30.1;-0.004858029020154654;-0.4154401254479868;-1.125786798764155;1.182;0.0022720856419061798
14:30.1;-0.010607135919161324;-0.41212983356030464;-1.18898238969998;1.25;0.005197656920599766
14:30.1;-0.015142199755408087;-0.40428167527618886;-1.249668463032048;1.328;0.0076501127811439175
14:30.2;-0.017994250578822278;-0.3917914611718703;-1.3059896449627355;1.41;0.009207218804474478
14:30.2;-0.018742015540395104;-0.37468482489562255;-1.3562258024944056;1.466;0.00952389065151813
14:30.2;-0.01708231047895783;-0.3531626259135369;-1.398853152133097;1.476;0.008439048333212013
14:30.2;-0.012886429693410166;-0.3276346887883774;-1.4325738371153476;1.455;0.006048386023349081
14:30.2;-0.006234214186670097;-0.29873318420353606;-1.4563137731039693;1.4380000000000002;0.002712190210232693
14:30.2;0.0025751802177944854;-0.2673046321136004;-1.4692057615353946;1.435;0.0010113389530094369
14:30.2;0.013029430485705332;-0.23438334425896287;-1.4705855656545617;1.446;0.004490994039927317
14:30.2;0.02441798693363186;-0.20114828909476393;-1.460025065792255;1.464;0.007171112104518989
14:30.2;0.035854455257053774;-0.16886466891131338;-1.4374105070678838;1.484;0.00870287481472199
14:30.2;0.04631494835546265;-0.1388126075197899;-1.4030533477205513;1.494;0.009020368521721169
14:30.3;0.05470478100034362;-0.11220591366161672;-1.3578040770425595;1.474;0.008334472895819005
14:30.3;0.059959799594520094;-0.09010392459184689;-1.3031306102414437;1.415;0.007040310715975052
14:30.3;0.061175940013119476;-0.07332195305713073;-1.2411257078692999;1.3259999999999998;0.005567118265318799
14:30.3;0.05774763458185142;-0.06235138725275784;-1.1744225754437398;1.215;0.004228678923009367
14:30.3;0.049488098573662216;-0.05730495620606171;-1.1060197062795019;1.099;0.0031365760188629423
14:30.3;0.03670508894931764;-0.05790136647129246;-1.0390374311741342;0.991;0.0022082400756052146
14:30.3;0.02021353162269274;-0.0634956737813107;-0.9764428625348163;0.904;0.0012532368880246113
14:30.3;0.0012783287849854493;-0.07315117297450423;-0.9207838148033841;0.835;8.610364556534459e-05
14:30.3;-0.01850657095197907;-0.08574049403147861;-0.8739669736306876;0.787;0.0013867780516781001
14:30.3;-0.03738585655895278;-0.10006073806193745;-0.8371054074904225;0.758;0.003131491121391988
14:30.4;-0.05363336623508688;-0.11494892258062135;-0.8104499532641538;0.747;0.004996503112924378
14:30.4;-0.06573927288164023;-0.12938692814363034;-0.7934101166748564;0.76;0.0067485898146748555
14:30.4;-0.07256959554729894;-0.14258723119928926;-0.7846622640721977;0.79;0.008119290971462596
14:30.4;-0.07347873459795239;-0.1540514195154656;-0.7823337079061561;0.86;0.008855629042337512
14:30.4;-0.06836370701483528;-0.16359430633934274;-0.7842392451220354;0.86;0.008770863667341417
14:30.4;-0.05765782125709314;-0.17132958911583115;-0.7881358303067489;0.88;0.0077855925687689564
14:30.4;-0.04226834077739294;-0.17761898891392625;-0.7919595349579768;0.887;0.0059457628841688
14:30.4;-0.023466987427787186;-0.182993862342654;-0.7940175950609979;0.882;0.0034097614042925893
14:30.4;-0.002746672502815511;-0.18806372226589585;-0.7931192967720353;0.867;0.0004096853402793666
14:30.4;0.01833739979307093;-0.19342779985217826;-0.7886386600459002;0.848;0.0027972720663095906
14:30.5;0.03832175839907815;-0.19960292724250475;-0.7805109616016231;0.826;0.005970233834107195
14:30.5;0.055964361108325957;-0.20697489787710524;-0.7691735702138133;0.804;0.00890950508605473
14:30.5;0.07033456334793203;-0.21577414944956866;-0.7554668873581472;0.784;0.011465253000633441
14:30.5;0.08085500052970578;-0.2260725401431361;-0.7405127997588027;0.754;0.01353590407692681
14:30.5;0.08729648835697618;-0.23779589543834673;-0.7255871135499992;0.754;0.015062279039086126
14:30.5;0.08973626407496238;-0.2507461491088371;-0.7119994530546452;0.746;0.016020715821544053
14:30.5;0.08849487836963724;-0.26462810258193387;-0.7009885763348211;0.7390000000000001;0.016415912935535855
14:30.5;0.08406680134153523;-0.27907848378498573;-0.6936349760164028;0.732;0.01627353349217827
14:30.5;0.07705695644927431;-0.29369659501886747;-0.6907901623698753;0.725;0.01563352480843168
14:30.5;0.06813113123734162;-0.3080759716949413;-0.6930240544543307;0.726;0.014546273062343065
14:30.6;0.057981623174642394;-0.3218361832250295;-0.700595540600914;0.74;0.013073522145390438
14:30.6;0.047302152026290706;-0.3346530147872382;-0.7134533584260125;0.769;0.01129382952496542
14:30.6;0.03676259340843018;-0.34628392607954117;-0.7312726050042969;0.804;0.009309316117536185
14:30.6;0.026977430943796402;-0.35658520982085146;-0.7535252757173099;0.883;0.007248726936352425
14:30.6;0.018469715443475067;-0.3655179428026763;-0.7795728523231463;0.883;0.005262905987318763
14:30.6;0.011638495821304008;-0.37314085962546734;-0.808761099930909;0.9229999999999999;0.003512286358604208
14:30.6;0.006737574904745937;-0.37958975964386066;-0.8404985658951516;0.9540000000000001;0.002149587217962496
14:30.6;0.0038688643216447205;-0.38504526676777756;-0.8743087023608331;0.978;0.0013024470902392427
14:30.6;0.0029897370774376966;-0.3896931254752065;-0.9098524912368021;1.006;0.0010600509278030133
14:30.6;0.003932425382674741;-0.3936829674932384;-0.946921659922866;1.035;0.0014659567821730009
14:30.7;0.0064330735057959105;-0.3970916833059347;-0.9854053055677635;1.062;0.0025172375486123937
14:30.7;0.010167478315331763;-0.3998957745579934;-1.0252356489113656;1.09;0.0041685380389755245
14:30.7;0.014790061812496995;-0.40195468762563147;-1.0663208969651985;1.1159999999999999;0.006339208075904977
14:30.7;0.01997268075688971;-0.40300553611462914;-1.1084751582675836;1.1440000000000001;0.008922228411859844
14:30.7;0.025440540449131657;-0.4026687963455729;-1.1513569488816975;1.185;0.011794629307240007
14:30.7;0.03100321609769417;-0.40046453728499193;-1.1944273679259945;1.239;0.014829638242240227
14:30.7;0.03657932736839816;-0.39584013576511956;-1.2369342568580763;1.3019999999999998;0.01791027110062048
14:30.7;0.04221371527097625;-0.38821256708574636;-1.2779195700687367;1.359;0.020942411440819576
14:30.7;0.0480849319902282;-0.37702837947401674;-1.3162382352837971;1.3769999999999998;0.02386258838371739
14:30.7;0.05449740972170313;-0.3618400069752649;-1.350575585497644;1.3559999999999999;0.026632463371596544
14:30.8;0.061848979995634976;-0.34239021479995746;-1.3794620412112426;1.337;0.029212157976777557
14:30.8;0.07056569214430773;-0.3186919018931127;-1.4013033151587837;1.358;0.03151351037571174
14:30.8;0.0810054734343343;-0.29108917226255926;-1.4144571346639274;1.4080000000000001;0.033352639273341235
14:30.8;0.09334695071823818;-0.26028534997728486;-1.4173793580794471;1.521;0.03443784477931843
14:30.8;0.10749133940173325;-0.22732587960243816;-1.4088328355571356;1.521;0.03442562390299118
14:30.8;0.123006865638525;-0.1935309496109579;-1.3881182416478977;1.535;0.03304503691335208
14:30.8;0.13913626684407443;-0.1603809633371134;-1.3552699605839973;1.506;0.03024258965193163
14:30.8;0.1548722580752672;-0.12936626451403807;-1.3111679729603127;1.44;0.026269572235309274
14:30.8;0.16908818601927816;-0.10182312958546545;-1.257536590501587;1.345;0.0216511184894843
14:30.8;0.18069704167416584;-0.07878641504554061;-1.196823833833544;1.2329999999999999;0.01703854914632435
14:30.9;0.18880629496798226;-0.06088762937524104;-1.1319793201358777;1.124;0.013013197714620136
14:30.9;0.19283940182208156;-0.048316026460144865;-1.066168475810535;1.025;0.009933740789789428
14:30.9;0.19260455986200067;-0.04084547514263898;-1.0024702364735458;0.94;0.007886458173708151
14:30.9;0.18830354802950722;-0.03791614735038351;-0.9436029769758264;0.879;0.006737084706379369
14:30.9;0.1804848179847399;-0.03875044796839421;-0.8917125427574655;0.836;0.006236519415295149
14:30.9;0.16995318369205917;-0.04247853454356464;-0.8482413301280304;0.805;0.006123761381845854
14:30.9;0.15765315809605054;-0.04825070559093536;-0.8138824082364353;0.782;0.006191102653076021
14:30.9;0.14454492523011056;-0.05532145510436719;-0.7886109584133583;0.778;0.006306076735846774
14:30.9;0.13149124136303034;-0.0631003440264996;-0.7717780415339919;0.7809999999999999;0.006403552440285256
14:30.9;0.1191698759314468;-0.07117340234156946;-0.7622478123317157;0.7859999999999999;0.006465176727497534
14:31.0;0.10802004482172971;-0.07930263046118148;-0.7585578024434237;0.795;0.006498013750647768
14:31.0;0.09822446916892276;-0.08741094012286027;-0.7590829669886864;0.802;0.006517405279284868
14:31.0;0.08972337039587971;-0.0955579032845381;-0.7621876110085111;0.802;0.0065348267237750075
14:31.0;0.08225388724201305;-0.10390970749181856;-0.7663541557374579;0.8079999999999999;0.006550011621422238
14:31.0;0.07540745867634678;-0.11270518730799942;-0.770283024401886;0.8079999999999999;0.006546490422107745
14:31.0;0.06869759525786331;-0.12221886280764788;-0.7729624643894307;0.8059999999999999;0.006489902588522647
14:31.0;0.061630700740050816;-0.1327222722900427;-0.7737099652049697;0.8029999999999999;0.0063287669663242094
14:31.0;0.05377300308338254;-0.1444464032432007;-0.7721884197047467;0.802;0.005997832152303194
14:31.0;0.04480678589273392;-0.15754908066375925;-0.7684008002472117;0.799;0.005424347122651194
14:31.0;0.034569141183107846;-0.1720908159507177;-0.7626668479388979;0.792;0.0045371292647786365
14:31.1;0.02306766018615762;-0.18802147848840023;-0.7555844978699803;0.785;0.0032771328512337062
14:31.1;0.010470718409693939;-0.20517891573791622;-0.7479782421738237;0.782;0.0016069345025477631
14:31.1;-0.002925402778637029;-0.22329936789218746;-0.7408363901284449;0.779;0.00048394440154383864
14:31.1;-0.0167455869031519;-0.24203814430323606;-0.7352388284414476;0.779;0.0029799750113682815
14:31.1;-0.03059019875885057;-0.26099762010913313;-0.7322767304578114;0.7809999999999999;0.005846474770116162
14:31.1;-0.04408196993957805;-0.2797582512741056;-0.7329664211056112;0.7809999999999999;0.009039158000443862
14:31.1;-0.056895143002081996;-0.2979073917220887;-0.7381613930871209;0.782;0.012511454465705184
14:31.1;-0.06876294813572109;-0.3150612179241918;-0.7484687439228632;0.7879999999999999;0.016215229685015466
14:31.1;-0.079467120975054;-0.33087780558620145;-0.764178260200093;0.7929999999999999;0.02009323180287455
14:31.1;-0.08881872992075208;-0.3450636992116736;-0.7852135540309223;0.805;0.0240653188414644
14:31.2;-0.0966412976338552;-0.3573797919925651;-0.8111152128147227;0.84;0.02801401077183912
14:31.2;-0.10276495912205673;-0.3676519977818194;-0.8410653163567253;0.8959999999999999;0.031776913227776114
14:31.2;-0.10703517617524898;-0.3757869132371604;-0.8739587755484705;0.961;0.0351527355892529
14:31.2;-0.10933350751843655;-0.3817853830362318;-0.908518450611432;1.024;0.03792331815407917
14:31.2;-0.10960373725252291;-0.38574315609598914;-0.9434401433921846;1.077;0.03988760348535943
14:31.2;-0.10787535667220546;-0.3878310661268191;-0.9775447569054816;1.119;0.04089794527199525
14:31.2;-0.10427717999054997;-0.3882556878101763;-1.0099114963915026;1.148;0.04088748714701427
14:31.2;-0.09903585090522819;-0.38720987766944914;-1.0399688268531706;1.166;0.03988037068523252
14:31.2;-0.0924570070072271;-0.3848260489134108;-1.0675278835984454;1.176;0.03798249766292498
14:31.2;-0.08489051285192305;-0.3811423920082317;-1.0927537015218831;1.179;0.03535645374885579
14:31.3;-0.07668403676986445;-0.37608674560680516;-1.1160801397296862;1.1740000000000002;0.0321875836266778
14:31.3;-0.06813004184400825;-0.36947878203933526;-1.1380826883986106;1.171;0.028648505836751777
14:31.3;-0.0594107027367774;-0.3610503780502785;-1.1593284922304259;1.178;0.02486789373865936
14:31.3;-0.0505464340251412;-0.35048462901778904;-1.1802243608631686;1.189;0.020908557569971817
14:31.3;-0.04135931209659309;-0.33747258613082226;-1.2008816240252471;1.189;0.016761466202077083
14:31.3;-0.03146947393032957;-0.3217824762671982;-1.2210141961481864;1.1740000000000002;0.012364386882777465
14:31.3;-0.02034193831899913;-0.30333181898815637;-1.2398865753925674;1.182;0.007650542998200449
14:31.3;-0.00738982234094904;-0.28225115292287856;-1.2563305266820135;1.22;0.0026204364676737702
14:31.3;0.007876756226546705;-0.25892762078797665;-1.2688459411724649;1.276;0.0025878236673386214
14:31.3;0.025683093841571733;-0.23401628827946613;-1.2757872292673185;1.3419999999999999;0.007667815877111525
14:31.4;0.04584335888180199;-0.20840998638226255;-1.2756142457085393;1.392;0.012187491230174034
14:31.4;0.06767809596037375;-0.1831666095479844;-1.2671653447339746;1.416;0.01570824714164364
14:31.4;0.090027344785826;-0.15940257841454522;-1.249898822100136;1.402;0.017936786645697186
14:31.4;0.11136737410061676;-0.13816858015817501;-1.2240522286888937;1.3559999999999999;0.018835069340927692
14:31.4;0.13001268925347545;-0.12032783281257627;-1.190685570515999;1.295;0.01862725787649995
14:31.4;0.1443651836197468;-0.10645744435019028;-1.1515982897159334;1.213;0.017698624489176227
14:31.4;0.15316403536386666;-0.0967890045226852;-1.1091337717176881;1.123;0.01644245842477636
14:31.4;0.15569310423462654;-0.09119646335186019;-1.0659039231539498;1.04;0.015134407903268992
14:31.4;0.1519130800510535;-0.0892306532292837;-1.0244779053517041;0.971;0.013887108799859717
14:31.4;0.14249849739695628;-0.09019272852411939;-0.9870820021395681;0.915;0.012686301941456247
14:31.5;0.12877247189794788;-0.09323399462342069;-0.9553518087032328;0.871;0.011469927020135547
14:31.5;0.11254494651128694;-0.09746747416289178;-0.930166445458984;0.8420000000000001;0.010203434468361496
14:31.5;0.09587414975898538;-0.10207724227259501;-0.9115816754243128;0.8320000000000001;0.008921256794869855
14:31.5;0.08078538889210844;-0.10641398119315368;-0.8988667346017191;0.875;0.007727283032003893
14:31.5;0.06899354029104322;-0.11006740755390707;-0.8906376018956808;0.875;0.0067634486154578306
14:31.5;0.0616791844059358;-0.11290734331146923;-0.8850676875374318;0.92;0.006163640449503921
14:31.5;0.059356887327110815;-0.11508677403946048;-0.8801481613799764;0.9640000000000001;0.006012461676895087
14:31.5;0.06185139022606209;-0.11700437834143808;-0.8739641506205632;0.9840000000000001;0.006324776708840675
14:31.5;0.06837531784385943;-0.1192311166847976;-0.8649482790184846;0.981;0.007051461004156708
14:31.5;0.0776864613015316;-0.12241385192475325;-0.8520737278977861;0.961;0.008103135067575087
14:31.6;0.08829226911923937;-0.1271748816269772;-0.83495987645251;0.924;0.009375396130021545
14:31.6;0.09866399637004801;-0.13402611041432283;-0.8138812699900462;0.8759999999999999;0.010762401028106494
14:31.6;0.10742538480429627;-0.14331065773956175;-0.7896881071255706;0.8220000000000001;0.012157408363864022
14:31.6;0.11349084713862176;-0.15517625143519562;-0.7636601564059854;0.735;0.01344888333845894
14:31.6;0.11614283736243139;-0.16957654931386118;-0.7373257544167431;0.735;0.014521705636275145
14:31.6;0.11505218866983645;-0.18629120617637887;-0.7122807084104986;0.7090000000000001;0.015266462714973577
14:31.6;0.11025363752278773;-0.20495577347677568;-0.6900340254828223;0.693;0.015592781372309928
14:31.6;0.10209095679319882;-0.2250966231400747;-0.6718922977354234;0.682;0.015440306475996179
14:31.6;0.0911454038172071;-0.24616869591850568;-0.6588836615933106;0.679;0.014783468382867839
14:31.7;0.07815931579243258;-0.26759364715162154;-0.6517192950918761;0.6859999999999999;0.013630667589102927
14:31.7;0.06396357561642906;-0.288795616413813;-0.6507899718016626;0.705;0.012021652836620897
14:31.7;0.04941414576756284;-0.3092325732641986;-0.6561932439880569;0.7290000000000001;0.010026936881786014
14:31.7;0.035339943639891874;-0.3284222119078592;-0.6677836706693142;0.754;0.007750579392951271
14:31.7;0.022502294074962174;-0.3459620825033289;-0.6852359684953526;0.785;0.005334521256404962
14:31.7;0.011564840436925287;-0.3615438179253052;-0.708110486266685;0.8170000000000001;0.002960749133004922
14:31.7;0.0030713952585235352;-0.37496091908857976;-0.7359119252968538;0.845;0.0008475153156061837
14:31.7;-0.0025723111730017382;-0.3861094333359138;-0.7681347629378736;0.877;0.000762906537685866
14:31.7;-0.0051169642368616075;-0.3949820677921335;-0.8042915706501532;0.909;0.00162556102463429
14:31.7;-0.004488985366416124;-0.40165798935749314;-0.843923064217289;0.94;0.0015216243719809687
14:31.8;-0.0008071369021141375;-0.40629042722457653;-0.886591653951142;0.975;0.00029074177141637117
14:31.8;0.00561036843186558;-0.4090915648596875;-0.9318636082882379;1.015;0.002138770861910012
14:31.8;0.014255268959526729;-0.4103112237078227;-0.9792874113430328;1.052;0.005727946913976627
14:31.8;0.024460636001958913;-0.41020527213493524;-1.028376045169818;1.092;0.010318603732318292
14:31.8;0.03545691529390009;-0.40899281061288384;-1.0785981302811007;1.194;0.015641423930274536
14:31.8;0.04644945376110498;-0.4068069294541154;-1.1293762611752787;1.194;0.021340648271424994
14:31.8;0.05670617918805786;-0.40364882892716586;-1.1800835409604133;1.25;0.027011383931212662
14:31.8;0.06564013059661826;-0.3993561192005634;-1.23002919776417;1.298;0.032243724401221606
14:31.8;0.07287486338403369;-0.3935940896563375;-1.2784310339536666;1.3359999999999999;0.036669385021617824
14:31.8;0.07828603645441548;-0.385877003792271;-1.3243768358228587;1.376;0.040007810040918024
14:31.8;0.0820149537980241;-0.37562477848686976;-1.3667772145250285;1.391;0.042106099063588254
14:31.9;0.0844499279186535;-0.3622553569592827;-1.4043158670475109;1.376;0.04296144719514861
14:31.9;0.08617157967647754;-0.34530416192940566;-1.4354134641947995;1.3630000000000002;0.042711309116439444
14:31.9;0.08786173724411865;-0.3245525749462815;-1.4582345756963766;1.395;0.04158265706678369
14:31.9;0.09018374234423043;-0.30014052468289576;-1.470772737337584;1.463;0.039810576041662986
14:31.9;0.0936520256715508;-0.2726355419832345;-1.4710355742045251;1.536;0.03755976122422675
14:31.9;0.09851661136195167;-0.2430344354789167;-1.4573201997997145;1.595;0.03489251411436201
14:31.9;0.10469033315719624;-0.21268631458529927;-1.4285333333859451;1.6230000000000002;0.03180801052481105
14:31.9;0.11174034376175634;-0.1831447836622362;-1.3844869269726234;1.6019999999999999;0.028333055736541306
14:31.9;0.11895089571351684;-0.15597567865170256;-1.3260966576422923;1.516;0.02460366363691351
14:32.0;0.12544576072072558;-0.13255777542735508;-1.2554280802634372;1.379;0.020876276243088316
14:32.0;0.13034290308869775;-0.11391475352037045;-1.1755692795503525;1.216;0.017454828773407288
14:32.0;0.13290671312281627;-0.10060847784708356;-1.0903495908899166;1.0590000000000002;0.014579655461513975
14:32.0;0.13266624611149666;-0.092708960304083;-1.003957733044846;0.9229999999999999;0.012348027287356147
14:32.0;0.1294793949569046;-0.08983879833377517;-0.9205289747143343;0.8140000000000001;0.01070784457018006
14:32.0;0.12353771194754345;-0.09127452485682565;-0.843767812006038;0.737;0.009514195874111583
14:32.0;0.11531920212475902;-0.09607860946657046;-0.7766558346896997;0.687;0.008605120319156157
14:32.0;0.10550376433940357;-0.10323505570807458;-0.7212720422149544;0.6609999999999999;0.007855869317714793
14:32.0;0.09486886066263824;-0.11176703836295376;-0.678730775510834;0.6509999999999999;0.007196726024796213
14:32.0;0.08418379576297927;-0.12082412696490395;-0.6492241126461475;0.6509999999999999;0.006603539971252691
14:32.1;0.07411982697974151;-0.12973606727467338;-0.6321433981039886;0.6579999999999999;0.006078700309459094
14:32.1;0.06518864284097495;-0.1380366548317364;-0.6262497543115534;0.67;0.005635259686173243
14:32.1;0.05771395600399507;-0.14546375888083057;-0.629864992712952;0.682;0.005287898632351918
14:32.1;0.051833181629457784;-0.15194160578311816;-0.6410596972707999;0.695;0.0050487405534432326
14:32.1;0.047521323205450806;-0.15755126457156857;-0.6578220075019167;0.71;0.004925142686092105
14:32.1;0.0446277913774456;-0.16249533888678558;-0.6781973733148307;0.727;0.004918157194112509
14:32.1;0.042917771214312034;-0.16706187035515216;-0.7003954545441615;0.745;0.005021781570059495
14:32.1;0.042111780889017715;-0.17158977889730753;-0.7228648795500079;0.76;0.005223386323378467
14:32.1;0.041919680684274194;-0.17643537951107124;-0.7443396355722272;0.774;0.005505221372933893
14:32.1;0.04206795705547043;-0.18193876194263864;-0.7638626755485266;0.79;0.005846446053642678
14:32.2;0.04232054723514796;-0.18839021456535363;-0.7807930489598554;0.8079999999999999;0.006225088842325622
14:32.2;0.042493422654334825;-0.19599879268047274;-0.7948021692536641;0.826;0.006619636667070782
14:32.2;0.04246287330283553;-0.2048664217255068;-0.8058625276782047;0.84;0.007010372927700404
14:32.2;0.042168210231324325;-0.2149713654267109;-0.8142291319409652;0.855;0.007380952664416788
14:32.2;0.04161062519478451;-0.22616414738672266;-0.8204116338911078;0.868;0.007720755704131149
14:32.2;0.04084936170558648;-0.23817676966679757;-0.8251342063142045;0.877;0.00802803517929432
14:32.2;0.03999420536813954;-0.25064320221860276;-0.8292805711070083;0.878;0.008312937080464381
14:32.2;0.03919195818969373;-0.263127507883376;-0.8338231176852302;0.8740000000000001;0.008598786132056628
14:32.2;0.03860590842876913;-0.2751564389916385;-0.8397380819623737;0.8690000000000001;0.008920255733945321
14:32.2;0.03839061768288792;-0.2862546320047179;-0.8479129903200523;0.871;0.009318133140193415
14:32.3;0.03866715880437908;-0.29598092736263376;-0.8590564161387048;0.8809999999999999;0.009831678635006294
14:32.3;0.039504244854056396;-0.3039634224312205;-0.8736216846350826;0.8909999999999999;0.01049031418519403
14:32.3;0.04090838752230902;-0.3099292877425078;-0.8917554073868897;0.902;0.011306305889299827
14:32.3;0.04282298838551584;-0.313724152648858;-0.9132804497219049;0.9179999999999999;0.012269562776755978
14:32.3;0.04513399307340001;-0.31531613530767055;-0.9377220452012897;0.951;0.013345169031238268
14:32.3;0.04767919128503422;-0.3147821404228225;-0.9643820515139239;1.0659999999999998;0.014473983844686582
14:32.3;0.05025908156077113;-0.3122783376799845;-0.9924545549908026;1.0659999999999998;0.015576398023446686
14:32.3;0.0526487364254363;-0.3080005075016631;-1.0211597146986382;1.119;0.01655896003426675
14:32.3;0.05461181176643843;-0.30214102401659687;-1.0498655230874325;1.157;0.017323273234948214
14:32.3;0.055919218127302515;-0.29484832626569757;-1.0781731827618677;1.176;0.017776582908175787
14:32.4;0.056374897920274954;-0.2861944339133376;-1.1059509573922817;1.182;0.01784361402656156
14:32.4;0.055848960348109926;-0.2761572439499145;-1.1333091472001828;1.187;0.017479134604467237
14:32.4;0.05431509034151352;-0.264625288635797;-1.1605182896549682;1.203;0.016680299345445782
14:32.4;0.051885591417424916;-0.2514306558830456;-1.1878816214729475;1.218;0.015496662075523512
14:32.4;0.048833351373114675;-0.23640911959609828;-1.215577846848961;1.183;0.014033420309526258
14:32.4;0.0455866728510057;-0.21947724435977492;-1.2434947666061285;1.183;0.012441460267049205
14:32.4;0.04268385897207789;-0.20070983490283606;-1.271082370532784;1.16;0.010889452009304412
14:32.4;0.040682118324303594;-0.18040103699261015;-1.2972618027196168;1.173;0.009520729338969731
14:32.4;0.040029297489686595;-0.15909677141032463;-1.3204266535959017;1.226;0.008409179387086152
14:32.4;0.04092354815505381;-0.13759096134793097;-1.3385613133154397;1.308;0.007537051017465877
14:32.5;0.043198258826435555;-0.11688162867252185;-1.3494775830387875;1.402;0.006813624117540679
14:32.5;0.046270838529561584;-0.09808703442064018;-1.3511399232296692;1.49;0.006132242218163803
14:32.5;0.0491825148209159;-0.08232810745150565;-1.3420211107900173;1.541;0.005433982195482307
14:32.5;0.050734814906643874;-0.07059064073094698;-1.3214136387698803;1.534;0.0047325148912072
14:32.5;0.049702495891449185;-0.06358770326648165;-1.2896247121533482;1.466;0.004075817067785066
14:32.5;0.04508079630028979;-0.061647669453656975;-1.2480058984691984;1.3519999999999999;0.003468365676816109
14:32.5;0.036314653457753705;-0.06465277174608194;-1.1988067020302313;1.2109999999999999;0.002814609924964179
14:32.5;0.023461208759028754;-0.07204426036832963;-1.144882523580811;1.08;0.00193513245610698
14:32.5;0.007251289472402119;-0.08289480542383622;-1.089318585844976;0.977;0.0006547831164597395
14:32.5;-0.0109645388081342;-0.09603273983852145;-1.03504376508253;0.904;0.0010898542000587748
14:32.6;-0.029378816477814953;-0.11019233298744022;-0.9845009835376108;0.863;0.0031871450470410275
14:32.6;-0.04597350805022586;-0.12416246884909034;-0.939420456885751;0.851;0.005362385066615973
14:32.6;-0.05880944434007505;-0.1369119570404901;-0.9007174705705339;0.8590000000000001;0.00725232137471339
14:32.6;-0.06630949510213835;-0.14767956725410025;-0.8685135971232555;0.873;0.00850496937542345
14:32.6;-0.06748567213813464;-0.15602594037378892;-0.8422624113825092;0.8909999999999999;0.00886861507959459
14:32.6;-0.06207092624088113;-0.16184897149902058;-0.8209488152831327;0.902;0.008247346677095011
14:32.6;-0.050536886330255354;-0.1653641049469094;-0.8033244498667833;0.9059999999999999;0.006713371964080206
14:32.6;-0.034003171298638994;-0.16705074147498863;-0.7881397605767806;0.894;0.00447683479832767
14:32.6;-0.014063848563224735;-0.1675701151757627;-0.7743368933299764;0.8640000000000001;0.0018248648300474867
14:32.6;0.007433149627553564;-0.16766745847558012;-0.7611777113362868;0.83;0.0009486537314219374
14:32.7;0.028616842917732394;-0.16807614400887116;-0.7482964337764298;0.797;0.0035991626309979444
14:32.7;0.0478021145048635;-0.16943947702319187;-0.735682229247281;0.763;0.0059587062428213535
14:32.7;0.06365228847232711;-0.1722582287187225;-0.723608861326417;0.7340000000000001;0.007934103766465778
14:32.7;0.07528065709262081;-0.17686375905095075;-0.7125343275289159;0.7140000000000001;0.009486981299161359
14:32.7;0.08228693124273423;-0.18341172421286508;-0.7029938180085354;0.695;0.010609855420395577
14:32.7;0.0847347119895808;-0.19189051568682636;-0.6955055060020878;0.695;0.011308771788491974
14:32.7;0.08308342908167825;-0.20214007898888348;-0.6905023482861554;0.696;0.01159663541662317
14:32.7;0.07809063748932221;-0.21387903996273763;-0.6882958070263897;0.706;0.011495882550825431
14:32.7;0.0706992197242716;-0.2267395274632692;-0.6890706420497636;0.722;0.011046014400009206
14:32.7;0.06192264913649635;-0.24030815932113608;-0.6929049907695543;0.74;0.010310785072607954
14:32.8;0.052741090763921576;-0.2541688997121847;-0.699807288337613;0.7609999999999999;0.00938101817858125
14:32.8;0.04401964827984666;-0.2679413904019537;-0.7097606632893642;0.7829999999999999;0.008371403991932024
14:32.8;0.03645594561444337;-0.28130888148834243;-0.7227654368884822;0.802;0.007412235134476538
14:32.8;0.03055767906515072;-0.29403308057203137;-0.7388708770842828;0.8190000000000001;0.006638731564044344
14:32.8;0.026643920769623224;-0.30595698456984705;-0.7581888097913481;0.8540000000000001;0.006180674548430457
14:32.8;0.024860059349561637;-0.3169983165278326;-0.7808841753089548;0.8540000000000001;0.006153833460076724
14:32.8;0.025196842855164634;-0.3271354575951848;-0.8071411880792579;0.863;0.006653087821301475
14:32.8;0.027507820819653365;-0.3363875003393325;-0.8371093598709244;0.879;0.007746013228681932
14:32.8;0.0315244213338449;-0.3447912076133531;-0.8708404952160638;0.9;0.009465464302923676
14:32.8;0.036871831548768726;-0.3523777093163334;-0.908232364463608;0.934;0.0118004919455073
14:32.9;0.04309010497068064;-0.35914956243450646;-0.9489946635843693;0.991;0.014686444350597412
14:32.9;0.04966353165505825;-0.36505705441928865;-0.9926475136065414;1.054;0.01799672183373642
14:32.9;0.05605878450245714;-0.3699740241820516;-1.0385525806188007;1.114;0.021539885953211473
14:32.9;0.061769942133951615;-0.3736769850468238;-1.0859657994585608;1.168;0.025066268819947227
14:32.9;0.06636684651705617;-0.37583351332429815;-1.1340941431044962;1.256;0.02828757989809539
14:32.9;0.06954276338396567;-0.3760050460082507;-1.1821378712862995;1.256;0.030911049313522898
14:32.9;0.07115765835557081;-0.37366704069671075;-1.2293032910715476;1.294;0.03268627911044033
14:32.9;0.07127363152651754;-0.36824798495019867;-1.2747805828140022;1.3330000000000002;0.03345836436198777
14:32.9;0.07017782136702247;-0.35918789077475144;-1.3176929813048228;1.368;0.03321511812472627
14:32.9;0.0683844997163843;-0.34601495823154;-1.3570295324361936;1.368;0.03211011396457977
14:33.0;0.06660419021829474;-0.32843529688149514;-1.3915755171489157;1.3459999999999999;0.030440946813901946
14:33.0;0.06566860476681184;-0.30642616354139196;-1.4198615074647971;1.33;0.028571274818881935
14:33.0;0.0664093051937481;-0.2803186024702687;-1.4401636474564368;1.354;0.026809746039390073
14:33.0;0.06950242765131831;-0.2508492783175081;-1.45059250042376;1.412;0.025290549063514682
14:33.0;0.07530567779382845;-0.21915712655300196;-1.4492930781996374;1.5719999999999998;0.02391880826069808
14:33.0;0.08372414065022238;-0.18670931026938326;-1.4347407405176489;1.5719999999999998;0.022427977090483903
14:33.0;0.0941460052766745;-0.15516404097469133;-1.406072328377917;1.6019999999999999;0.0205400094945587
14:33.0;0.10548149889312741;-0.12619676046074;-1.3633689841306178;1.571;0.018148381864799033
14:33.0;0.11631369534994498;-0.10131945441991463;-1.3078182401383134;1.483;0.015412428911065664
14:33.0;0.12513541090835198;-0.08171921406193451;-1.2417127538222537;1.357;0.012697714178930465
14:33.1;0.13061733450701796;-0.06813800032509576;-1.1682779691270673;1.208;0.010397678576265045
14:33.1;0.13184243375707302;-0.060808819100624974;-1.0913568946061922;1.058;0.00874960761945886
14:33.1;0.12845485103016246;-0.05945551288233892;-1.0150087861959347;0.925;0.00775197638922127
14:33.1;0.12069996706885232;-0.06335572657264277;-0.9430909866258633;0.8240000000000001;0.007211848944449162
14:33.1;0.10936150158112758;-0.07145734566133732;-0.8788886120273232;0.757;0.006868235561787721
14:33.1;0.09562113344485255;-0.08252835988063159;-0.8248399567611073;0.727;0.006509187659264928
14:33.1;0.08087465414674914;-0.09531315625234969;-0.7823826796951167;0.72;0.0060309331594388905
14:33.1;0.0665391295349665;-0.10866842433593557;-0.7519229542442704;0.7190000000000001;0.005436931082235609
14:33.1;0.05388037410707347;-0.1216596180650124;-0.7329117725061495;0.723;0.004804284846781945
14:33.1;0.04388071032569862;-0.13361149396116515;-0.7240025793196473;0.74;0.0042448034206569035
14:33.2;0.037155880137400524;-0.1441182901856607;-0.7232617752873888;0.765;0.003872952470365423
14:33.2;0.03392044557411306;-0.15302587789292804;-0.7284046706330066;0.7859999999999999;0.0037809344669660935
14:33.2;0.03399511386874676;-0.16039899118266004;-0.7370315343238981;0.802;0.004018872261451829
14:33.2;0.036846736243713124;-0.16648364907856691;-0.746842075725053;0.813;0.0045814124251745275
14:33.2;0.04165117398353514;-0.17167027489840858;-0.7558130386287643;0.82;0.005404266152620616
14:33.2;0.04737162707448588;-0.176457927337677;-0.7623309171813829;0.8440000000000001;0.006372399705193394
14:33.2;0.052852486743107344;-0.18141510830725902;-0.7652765156848094;0.86;0.0073376545978497175
14:33.2;0.05693608165758087;-0.18713030301126252;-0.764058427187897;0.8290000000000001;0.00814063469712218
14:33.2;0.05860214478500918;-0.19414988595830887;-0.758593328512893;0.759;0.008630971247333018
14:33.2;0.057107156156796034;-0.2029104772197441;-0.7492401939094745;0.762;0.008681925871647277
14:33.3;0.05208769571660123;-0.2136789966364656;-0.7367094114059484;0.7559999999999999;0.008199610048538915
14:33.3;0.04360332444068398;-0.22651310018217635;-0.7219710082457549;0.7390000000000001;0.007130708526896126
14:33.3;0.0321158110610142;-0.24124998662052527;-0.7061752679988785;0.737;0.005471402891838554
14:33.3;0.018415492222587464;-0.2575245345573034;-0.6905873596383433;0.737;0.0032750698521209634
14:33.3;0.0035103990123728666;-0.2748107834768487;-0.6765330450243651;0.7340000000000001;0.0006526483861026749
14:33.3;-0.011504068310586254;-0.29247730482883916;-0.6653513942715659;0.7340000000000001;0.0022386937934303643
14:33.3;-0.025574994981709395;-0.309847591065318;-0.6583500010945715;0.74;0.005216996217355461
14:33.3;-0.03780384301006181;-0.32625945964484837;-0.656758645171138;0.7509999999999999;0.008100370098169963
14:33.3;-0.04753085561352367;-0.34111988688803896;-0.6616782534515121;0.7609999999999999;0.010728265991484619
14:33.3;-0.0543888715646179;-0.3539520918630715;-0.674023365943959;0.7659999999999999;0.012975660797653436
14:33.4;-0.05832507537563817;-0.364431846573721;-0.6944588685728399;0.777;0.014761080842759164
14:33.4;-0.05959003870404712;-0.372410859468207;-0.7233360762161207;0.795;0.016052257949677802
14:33.4;-0.05869603016222148;-0.37792472190294923;-0.7606383991875367;0.8270000000000001;0.01687299887110569
14:33.4;-0.0563497153237866;-0.38118140280099155;-0.8059495550778508;0.873;0.017311364078987545
14:33.4;-0.053366520316397034;-0.38252660108318437;-0.8584546022983381;0.9279999999999999;0.017524589796027945
14:33.4;-0.05057502065208538;-0.38238578938814255;-0.9169765007848708;0.993;0.017733563696856285
14:33.4;-0.048720350819185285;-0.38118787956544187;-0.9800420626872552;1.06;0.018200956247747025
14:33.4;-0.04837588051708403;-0.3792800070048383;-1.0459648315535732;1.1159999999999999;0.019191367228442245
14:33.4;-0.04987163560659662;-0.376846687289217;-1.1129308509337552;1.1640000000000001;0.020916378638698278
14:33.4;-0.05324590404048877;-0.37384988968704536;-1.1790769866836266;1.22;0.023470677434826868
14:33.5;-0.058224245116481124;-0.37000672998422995;-1.2425586445480785;1.285;0.026768891358387017
14:33.5;-0.06422922214886752;-0.36481452559091104;-1.3016098383465549;1.3619999999999999;0.03049900050434618
14:33.5;-0.07042439307402594;-0.35762081224712955;-1.354598790232617;1.442;0.03411588026528109
14:33.5;-0.07579517044419516;-0.34772600500931217;-1.4000759014300899;1.486;0.03690033299901816
14:33.5;-0.07926470600991989;-0.3345026426755339;-1.4368039353462851;1.5;0.03809578396010281
14:33.5;-0.07983465212606768;-0.3175154838052492;-1.4637612265762117;1.49;0.03710450011134851
14:33.5;-0.07673202574241453;-0.2966278528263311;-1.4801204129827996;1.466;0.033688807640267764
14:33.5;-0.0695399145087132;-0.27207995098652293;-1.485221181398485;1.45;0.02810100339292774
14:33.5;-0.05829270157414847;-0.24452499074793138;-1.478565777476635;1.455;0.021075509583524075
14:33.5;-0.04352154709855649;-0.21501169517395557;-1.459863188879141;1.4780000000000002;0.013660876533212126
14:33.6;-0.02623964277178162;-0.18490893280356768;-1.4291305278094522;1.505;0.006934061778494571
14:33.6;-0.007860774782098005;-0.1557785960210946;-1.3868340000855641;1.518;0.0016982343432895926
14:33.6;0.009947821243531356;-0.129212388187089;-1.334027572399963;1.4980000000000002;0.0017147346823994593
14:33.6;0.02546585703671417;-0.10665428000609738;-1.2724350666613085;1.431;0.003455987906576352
14:33.6;0.03714818669381126;-0.089233481748446;-1.2044286790807983;1.1740000000000002;0.003992514907365399
14:33.6;0.043844742502467456;-0.07763379046871635;-1.1328881356612202;1.1740000000000002;0.003856162647496357
14:33.6;0.04497283451623367;-0.07202186958965467;-1.0609665040305305;1.0390000000000001;0.0034364998132138673
14:33.6;0.040610170651031174;-0.07204620638359145;-0.9918108574931911;0.929;0.002901848871310314
14:33.6;0.03149307499926851;-0.07690257355033087;-0.9282809890955954;0.8390000000000001;0.002248202350346168
14:33.6;0.018921749889268227;-0.08544881538751585;-0.8727001589926789;0.778;0.0014110174964655027
14:33.7;0.0045892835967735815;-0.0963471470493136;-0.8266680952191572;0.7440000000000001;0.0003655231870691554
14:33.7;-0.00963751451291351;-0.10821445008693496;-0.7909582439593911;0.728;0.0008249048534365805
14:33.7;-0.021951588515167753;-0.11976579691235592;-0.7655073737292248;0.7290000000000001;0.002012556772033636
14:33.7;-0.030820670898251308;-0.1299402457034947;-0.7494931598370392;0.742;0.0030016043453781702
14:33.7;-0.035157788760873165;-0.13799937616455893;-0.7414863854262863;0.8029999999999999;0.003597508732907889
14:33.7;-0.03443058028103938;-0.14358908711913027;-0.7396560449506749;0.8029999999999999;0.003656752673643073
14:33.7;-0.02870193490815839;-0.14675677005227658;-0.7419975604220174;0.8320000000000001;0.0031254445439396973
14:33.7;-0.01860158645461626;-0.1479210485285867;-0.7465515181811297;0.8420000000000001;0.002054185903576651
14:33.7;-0.005234123320948923;-0.14779871920006205;-0.7515850516405937;0.836;0.0005814237329834734
14:33.7;0.009964831359217899;-0.14730035449342563;-0.7557165314226305;0.816;0.0011092582511581053
14:33.8;0.025406038430227575;-0.1474097797735413;-0.7579749083684469;0.787;0.0028386907150453815
14:33.8;0.039534686975182295;-0.14906287086254758;-0.7577983907063387;0.7609999999999999;0.0044658225712898994
14:33.8;0.051004622205803644;-0.15303930933633164;-0.7549898012465124;0.745;0.005893233068745151
14:33.8;0.058816525007328514;-0.15987901896314996;-0.7496526893413977;0.742;0.0070493802921319845
14:33.8;0.06240315609629654;-0.16983313744122222;-0.742130479608841;0.757;0.00786519068830879
14:33.8;0.061653236951556986;-0.18285480902462498;-0.7329618151962939;0.762;0.008263111626775843
14:33.8;0.05687714090579108;-0.1986263990063371;-0.7228533012428499;0.762;0.008166291817338692
14:33.8;0.04872818837986194;-0.21661235020321565;-0.7126617886121408;0.767;0.007522235976265182
14:33.8;0.03809728947318404;-0.23612672215540162;-0.7033750828783191;0.767;0.006327413190762991
14:33.8;0.025997216353316532;-0.25640782746609037;-0.6960813534181812;0.76;0.004640001569580214
14:33.9;0.013450836963278666;-0.2766930361972787;-0.6919215877903426;0.754;0.0025751611889146386
14:33.9;0.0013951955059922794;-0.29628634856829705;-0.6920250805470086;0.753;0.00028606751608133206
14:33.9;-0.00939099007339195;-0.3146132769615951;-0.69743339005718;0.758;0.0020605879861452193
14:33.9;-0.018333127837764814;-0.3312602667923979;-0.7090216205712762;0.768;0.004305914406967471
14:33.9;-0.025079560458723383;-0.3459966335304728;-0.7274269224227833;0.804;0.0063122060118043655
14:33.9;-0.029495986803638755;-0.3587762427799031;-0.7529930551287627;0.804;0.007968518376021454
14:33.9;-0.031641248273705166;-0.36971627112107863;-0.7857378893698279;0.8390000000000001;0.00919178523506479
14:33.9;-0.031732073678371026;-0.3790534685500006;-0.8253493580746035;0.89;0.009927428020688942
14:33.9;-0.030103666328697067;-0.38708406332310563;-0.8712126198795527;0.953;0.010151935285001539
14:33.9;-0.02717016245062474;-0.394098403933612;-0.9224638098160303;1.022;0.009877482023764652
14:34.0;-0.023385614916739694;-0.40032194143382455;-0.9780565367977392;1.093;0.009156345005027369
14:34.0;-0.01920427399591702;-0.40586973784162556;-1.0368225249678935;1.146;0.008081444379928897
14:34.0;-0.01503938485894006;-0.410716208613251;-1.0975098007676871;1.181;0.006779229282779891
14:34.0;-0.011221655799811771;-0.4146799960388129;-1.1587897008512884;1.212;0.0053923075703948085
14:34.0;-0.007960944865696323;-0.417425578234251;-1.219236031967872;1.248;0.004051645713196135
14:34.0;-0.005316593213522052;-0.4184842104003524;-1.2772918843783088;1.287;0.0028418598862397846
14:34.0;-0.00318195224353395;-0.4172952849023739;-1.3312463742743883;1.339;0.0017676471312519494
14:34.0;-0.0012873033210600154;-0.41326682695772315;-1.3792423198089094;1.4;0.0007337565815017963
14:34.0;0.0007753935802190165;-0.4058511251830515;-1.419328183014243;1.449;0.00044665456991372683
14:34.0;0.0035027061040901206;-0.39462784695616643;-1.4495575543193657;1.4869999999999999;0.002003673206805365
14:34.1;0.007404831343579232;-0.37938399678685647;-1.4681309742797353;1.5290000000000001;0.004124382924354019
14:34.1;0.012913312003641882;-0.3601794490569412;-1.4735688647800176;1.574;0.006853730297619063
14:34.1;0.02028757838006074;-0.33738689848115316;-1.4648979897198724;1.6;0.010026879774649949
14:34.1;0.0295404963067109;-0.31169454238958694;-1.441825601599397;1.595;0.01327576995896679
14:34.1;0.04040104542001394;-0.2840620519136382;-1.4048687919852605;1.5519999999999998;0.01612284162919167
14:34.1;0.052325306419628084;-0.2556293866142396;-1.3554071347506624;1.472;0.01812977129693717
14:34.1;0.06455672518092415;-0.22759151827665247;-1.2956371182168098;1.3630000000000002;0.019036230112671124
14:34.1;0.07622571920936601;-0.20106302338514084;-1.228425263180741;1.246;0.01882705879383909
14:34.1;0.08647014113882776;-0.17695922390378757;-1.1570776726341059;1.136;0.01770524277275816
14:34.1;0.09455404872068887;-0.15591462989535718;-1.0850598835381804;1.038;0.015996342894510917
14:34.2;0.09996370427098811;-0.13824871041644965;-1.0157072407024634;0.956;0.014036924964662056
14:34.2;0.10246627175605263;-0.12397854123963535;-0.9519624111886038;0.892;0.012093367677512812
14:34.2;0.10212545604800193;-0.11287046199128788;-0.896166762515914;0.843;0.010330067137817313
14:34.2;0.09927560346339073;-0.10451833179702118;-0.8499205255457585;0.805;0.008818877756304877
14:34.2;0.09446065566058313;-0.0984336300184688;-0.8140163364828144;0.763;0.007568809556041304
14:34.2;0.08834907844592853;-0.09413304706281016;-0.788443854638421;0.763;0.0065571468991980015
14:34.2;0.0816402155620601;-0.09121235798922908;-0.7724590521060818;0.764;0.005752190926460718
14:34.2;0.0749771719392946;-0.08939928982537;-0.7647077321528534;0.775;0.005125763988348835
14:34.2;0.06887592526668206;-0.08858100968272482;-0.7633880919033379;0.7879999999999999;0.004657506326378865
14:34.2;0.06367553836020617;-0.08880453405885022;-0.7664340316954267;0.802;0.004333936519343713
14:34.3;0.05951311478843712;-0.0902522781395811;-0.7717008614985272;0.815;0.004144955182802819
14:34.3;0.056326615477563326;-0.09319929002184808;-0.7771373433336082;0.821;0.004079660641964303
14:34.3;0.05388548562172869;-0.09796108201854677;-0.780931930925752;0.82;0.004122290137330828
14:34.3;0.05184332979186943;-0.1048405557668922;-0.7816261875413689;0.82;0.004248359926709799
14:34.3;0.0498017683802786;-0.11408043223988626;-0.7781935403993083;0.81;0.004421234432547722
14:34.3;0.04737342892155255;-0.12582508152044766;-0.7700852154029344;0.81;0.00459029742712591
14:34.3;0.04423493097372137;-0.14009367004732995;-0.7572463627802025;0.799;0.004692681323551984
14:34.3;0.040164582160248645;-0.15676571395414335;-0.7401043337122367;0.778;0.004660014684388641
14:34.3;0.03506171518466927;-0.17557955004550907;-0.7195299334779504;0.7559999999999999;0.00442951274068215
14:34.3;0.02894605129877056;-0.1961428622872239;-0.6967733775317411;0.7340000000000001;0.003955973600528954
14:34.4;0.02193872660670795;-0.2179531733382277;-0.6733788488016492;0.7120000000000001;0.003219838459957222
14:34.4;0.01423196091344931;-0.24042609893122832;-0.6510828850193092;0.691;0.002227832993066579
14:34.4;0.00605867290858257;-0.26292938031674473;-0.6317022394180483;0.677;0.001006303634131838
14:34.4;-0.0023272015984120704;-0.2848203776150582;-0.6170174150221921;0.669;0.0004089803915508876
14:34.4;-0.010655272774898064;-0.30548385683919005;-0.608658658528448;0.669;0.0019811923469679853
14:34.4;-0.01863262382911095;-0.32436615267914587;-0.6080011030077875;0.67;0.003674632509856229
14:34.4;-0.025937752219062117;-0.341002295655749;-0.6160751239906935;0.675;0.005449081618479509
14:34.4;-0.032225226007488374;-0.35503504930892527;-0.6334976547002813;0.6940000000000001;0.007247900327565953
14:34.4;-0.037146899065555544;-0.36622747357794283;-0.6604303100721972;0.727;0.008984635928119076
14:34.4;-0.04038964095613545;-0.37447120420287083;-0.6965694477221431;0.773;0.010535443969069745
14:34.5;-0.04172468993688751;-0.3797908084308336;-0.7411704814073639;0.8270000000000001;0.011745071968317018
14:34.5;-0.04105954480857019;-0.38234223056552424;-0.7931042906740915;0.885;0.012450784011074693
14:34.5;-0.03848002190804159;-0.3824021189301131;-0.850939267569825;0.946;0.012521436800800463
14:34.5;-0.034269666739122906;-0.38034496872105455;-0.9130399588303493;1.006;0.011900832465982617
14:34.5;-0.028897581734580298;-0.3766061121284666;-0.9776727880036223;1.062;0.01064001872693202
14:34.5;-0.022973034282400624;-0.37163086141810786;-1.0431097204523634;1.165;0.008905537263208222
14:34.5;-0.01717338861135529;-0.36581428242880826;-1.1077197281302906;1.165;0.006958995337769245
14:34.5;-0.012157794343618815;-0.3594407287692606;-1.1700377085895006;1.218;0.005113072343923337
14:34.5;-0.008480197037595807;-0.35263397912450645;-1.2288072194849682;1.276;0.003674632021344838
14:34.5;-0.006512932992527488;-0.3453273830193658;-1.2830032520065495;1.348;0.002885595052182239
14:34.6;-0.006390453922743778;-0.33726177680719766;-1.331841536401051;1.4240000000000002;0.0028704592553948824
14:34.6;-0.007982540137692402;-0.32801682367002966;-1.3747701987244345;1.4669999999999999;0.003599708545204088
14:34.6;-0.010905025286397162;-0.317076271965235;-1.4114305367150701;1.4569999999999999;0.004880338318756169
14:34.6;-0.014571443143051912;-0.3039205554505298;-1.4415775327908296;1.4269999999999998;0.006384114175344684
14:34.6;-0.018281856224004894;-0.28813452707258264;-1.4649687908160303;1.411;0.007716919407211459
14:34.6;-0.021338351805367514;-0.26951406886995816;-1.4812526353294062;1.415;0.008518663194969084
14:34.6;-0.0231717100790943;-0.24815155120226176;-1.4898970244319036;1.432;0.00856705062282151
14:34.6;-0.023459140310051845;-0.2244793652278104;-1.4901937270141365;1.4609999999999999;0.0078474986435886
14:34.6;-0.022209195593557555;-0.1992577194635011;-1.4813517775286107;1.499;0.0065555055179754755
14:34.6;-0.019791526306258057;-0.1735066279233491;-1.4626694004494263;1.541;0.005022749663660736
14:34.7;-0.016899035175555504;-0.1483951870500145;-1.4337507176850315;1.571;0.003595467552589233
14:34.7;-0.014445011763258821;-0.12510802351501812;-1.3947167230805295;1.561;0.0025205137512069107
14:34.7;-0.013411558313987056;-0.10471010519121947;-1.3463537066569204;1.494;0.0018907190870930807
14:34.7;-0.014674547769112667;-0.08803034454308563;-1.2901514663068918;1.375;0.0016666247550140754
14:34.7;-0.018834634165450812;-0.07558175950565195;-1.228209616883163;1.232;0.0017484236830784723
14:34.7;-0.026083802330259545;-0.0675296426913268;-1.1630261752433086;1.104;0.0020485890230257167
14:34.7;-0.03613208455864615;-0.06370947129118479;-1.09721439587902;0.997;0.002525739266136979
14:34.7;-0.048209876723146916;-0.06368583475333976;-1.033209017086649;0.919;0.0031722474307562796
14:34.7;-0.06114921719539928;-0.06683622249961427;-0.9730185934014559;0.8740000000000001;0.00397671014453275
14:34.7;-0.07353348525690862;-0.07244223746023047;-0.9180623847267524;0.855;0.004890454242923038
14:34.8;-0.0838910298260516;-0.07977545954794235;-0.869106879851045;0.843;0.005816450389118537
14:34.8;-0.09089870011581146;-0.08817137887752918;-0.8262956267964473;0.835;0.006622481588183263
14:34.8;-0.0935606176362303;-0.09708785797676157;-0.7892515628221691;0.826;0.0071692454623381195
14:34.8;-0.09133550297018886;-0.10614416268555728;-0.7572249120192167;0.81;0.00734109143948926
14:34.8;-0.08419757948912346;-0.11513624866741444;-0.7292599992656036;0.7909999999999999;0.0070695875076836725
14:34.8;-0.07262712497609149;-0.12402657591928751;-0.7043581249337533;0.767;0.006344642194955729
14:34.8;-0.05753612126996377;-0.132911935126173;-0.6816188413583334;0.738;0.0052125009718835425
14:34.8;-0.040142962344091496;-0.14197776795725336;-0.6603475703395687;0.711;0.0037635903524929942
14:34.8;-0.021817544440135197;-0.15144919632011544;-0.6401233158090202;0.684;0.0021151271917366713
14:34.8;-0.003921930122949891;-0.16154687439060536;-0.6208259532125197;0.659;0.00039334014658669433
14:34.9;0.012330212836260563;-0.17245202817855174;-0.6026274014706311;0.637;0.0012814089551125736
14:34.9;0.025979503009114814;-0.1842819667436443;-0.5859541724972053;0.616;0.002805287189351503
14:34.9;0.03638528442974336;-0.19707564919165038;-0.571430213960938;0.6;0.004097528092324557
14:34.9;0.04324921095824247;-0.21078839795913473;-0.5598090763396041;0.586;0.00510346131634901
14:34.9;0.04660291837703959;-0.22529518885695957;-0.5519038980984418;0.58;0.005794667126383323
14:34.9;0.04676648555212148;-0.2404023393388685;-0.5485228148109094;0.584;0.006166917234098343
14:34.9;0.044284540853476974;-0.25586710175070976;-0.550415830547053;0.598;0.0062367381743950985
14:34.9;0.03984672673614925;-0.271423683530571;-0.5582364070167621;0.619;0.00603751952735666
14:34.9;0.03419984192197179;-0.2868131293606161;-0.5725172360986707;0.648;0.005615800778088231
14:34.9;0.028060173250568622;-0.30181383451889354;-0.5936560317624767;0.6759999999999999;0.005027642351410637
14:35.0;0.02203545387729096;-0.31626955674742535;-0.6219050886547419;0.7090000000000001;0.004334145638611167
14:35.0;0.016565683542077315;-0.33011239487811594;-0.6573587338448684;0.742;0.00359479086520366
14:35.0;0.01188981251000061;-0.34337831608185354;-0.6999357961275724;0.774;0.0028576305333552566
14:35.0;0.008041164481582803;-0.3562120127965802;-0.74935913337866;0.8140000000000001;0.00214643386658823
14:35.0;0.0048701990025692594;-0.36885710685219514;-0.8051395253334055;0.862;0.0014463586930324322
14:35.0;0.0020900766413629087;-0.3816280832954166;-0.866573315764976;0.995;0.0006912065572449446
14:35.0;-0.0006617129666222659;-0.39486207081750074;-0.9327576177741157;0.995;0.0002437159027587349
14:35.0;-0.003753710785202748;-0.40885176015098423;-1.0026169784272103;1.08;0.0015387275678915534
14:35.0;-0.007491005078303072;-0.42376554954448903;-1.0749323110410627;1.165;0.00341229725106719
14:35.0;-0.012053908366353273;-0.43956666340929806;-1.1483669254101725;1.24;0.00608461788424339
14:35.1;-0.017453110831825495;-0.45594730600937955;-1.2214848379056658;1.3;0.00972020850852683
14:35.1;-0.0235086871969448;-0.47229428264307965;-1.2927543876625442;1.351;0.014353475954000897
14:35.1;-0.0298560873034441;-0.48769767683777815;-1.3605355475653884;1.391;0.019810410378826533
14:35.1;-0.03597574765438283;-0.501005962341769;-1.4230616312004876;1.432;0.02564935402278939
14:35.1;-0.041237853176579964;-0.510923653711729;-1.4784366175388164;1.5019999999999998;0.031149764509974247
14:35.1;-0.044953548263677416;-0.5161430610938431;-1.5246704651633285;1.631;0.03537610854243439
14:35.1;-0.046428951109025014;-0.515497064329081;-1.559762962655419;1.631;0.037331348025706146
14:35.1;-0.04502429757222994;-0.5081143068394249;-1.5818293346369252;1.6469999999999998;0.036188284392325035
14:35.1;-0.04022181715069748;-0.49355633253617476;-1.5892540660876395;1.68;0.03154944669119755
14:35.1;-0.031701512771465226;-0.4719185663238436;-1.5808648354312975;1.725;0.023650579681243122
14:35.2;-0.019417001086389576;-0.44387787849152144;-1.5561185336096142;1.744;0.013411839014057104
14:35.2;-0.0036562771762901998;-0.4106683804164267;-1.5152775388785609;1.725;0.0022752156303687196
14:35.2;0.014933304828071816;-0.37397254437385735;-1.4595384727086036;1.659;0.008151005697055135
14:35.2;0.03537523798716326;-0.3357324516646992;-1.3910711826433542;1.54;0.016521217399191337
14:35.2;0.05645646963958365;-0.297910517253618;-1.3129368700720343;1.392;0.022082253802630427
14:35.2;0.07687075856380016;-0.26224755223571655;-1.2288785411566516;1.2429999999999999;0.02477316929685396
14:35.2;0.09538523150759612;-0.23006820572925352;-1.143006474063899;1.1;0.025083401736501622
14:35.2;0.11099609577191205;-0.20216918900296427;-1.0594253400422675;0.975;0.023773494740498086
14:35.2;0.12304283819408782;-0.1788024501533621;-0.9818607735539844;0.878;0.02160129141388876
14:35.2;0.1312609583834822;-0.15974345751764957;-0.9133409394046382;0.8140000000000001;0.019151005272095255
14:35.3;0.13576780607305347;-0.14441965531006343;-0.8559757960743936;0.78;0.016783579451080912
14:35.3;0.13699036492915256;-0.1320672708044092;-0.8108569702670398;0.769;0.014669978592139126
14:35.3;0.13555469565313047;-0.12188555743035111;-0.7780789500180446;0.774;0.012855544626264955
14:35.3;0.1321624008442995;-0.11316503840624033;-0.7568624519807162;0.7909999999999999;0.011319758327106643
14:35.3;0.12747873537865004;-0.10537719365775307;-0.7457470074633136;0.807;0.010017881595746979
14:35.3;0.12205020801383286;-0.09822288095233984;-0.7428140134789478;0.812;0.00890494579829923
14:35.3;0.11625959639229846;-0.09164317103168772;-0.7459040778146327;0.812;0.00794715897173853
14:35.3;0.11031725363260349;-0.08579980083284663;-0.7528020443211465;0.8029999999999999;0.007125420697975521
14:35.3;0.10428197904602682;-0.08103413347759862;-0.761376435639324;0.7879999999999999;0.006433935286550239
14:35.3;0.09810262443034685;-0.07781342070648219;-0.7696735361072634;0.7759999999999999;0.005875457478475641
14:35.4;0.0916715010470641;-0.07667170470225512;-0.7759770119808138;0.772;0.005454039986297485
14:35.4;0.08488074578819116;-0.0781508642614121;-0.7788494978004582;0.777;0.005166500980618911
14:35.4;0.07767238039269576;-0.08274557511117511;-0.7771715900059999;0.7879999999999999;0.004994917392428519
14:35.4;0.07007318911770087;-0.0908545409575812;-0.7701868813081985;0.8;0.004903369695418372
14:35.4;0.06220870063292591;-0.10273968164895704;-0.75755205150849;0.7959999999999999;0.0048417440167731855
14:35.4;0.05429611813824104;-0.1184947893596684;-0.7393827467136027;0.7959999999999999;0.004757045951995211
14:35.4;0.04662065880742669;-0.13802513939294894;-0.7162819082592796;0.775;0.004609147247959212
14:35.4;0.039500635419710474;-0.1610403115737103;-0.6893375633043564;0.7440000000000001;0.004385010409636713
14:35.4;0.03324539830505399;-0.18706342203078224;-0.6600809696164642;0.715;0.00410504221253577
14:35.4;0.028110519026592548;-0.21545855101111072;-0.630402371975633;0.6829999999999999;0.0038181275964224303
14:35.5;0.024256098263203924;-0.24547416310392797;-0.6024284596734469;0.648;0.0035870068976874723
14:35.5;0.021714235099866565;-0.27629703373611947;-0.578371246966391;0.621;0.0034699838417201934
14:35.5;0.02037046723214725;-0.30711107559809214;-0.5603624395613528;0.609;0.0035056252376593124
14:35.5;0.01996298083675617;-0.3371570974197591;-0.5502902868099256;0.609;0.0037038171931378107
14:35.5;0.020102381405942504;-0.36578925185998046;-0.5496566745673791;0.6509999999999999;0.004041754727689579
14:35.5;0.02031186245754629;-0.3925200162489072;-0.5594703927934953;0.6509999999999999;0.004460552586854242
14:35.5;0.02008238442557982;-0.41704182670419354;-0.5801884680529763;0.695;0.004859191142103671
14:35.5;0.018932866184727837;-0.43921653025560636;-0.6117115781497133;0.738;0.005086765800836833
14:35.5;0.016464144510124557;-0.4590337739037049;-0.6534315591858106;0.7929999999999999;0.00493837329874898
14:35.5;0.012397827471719094;-0.47654913266778626;-0.7043195877110513;0.856;0.0041612426255256
14:35.6;0.006596059453019779;-0.49181716217768134;-0.7630362734354478;0.922;0.0024753318224756057
14:35.6;-0.000936493892746571;-0.504833617753479;-0.828043061566436;0.986;0.0003914768990718326
14:35.6;-0.010063528627145372;-0.5154961840487521;-0.8976981935494699;1.0490000000000002;0.004656998439088036
14:35.6;-0.020534495019330454;-0.5235866275071994;-0.9703279149254224;1.102;0.010432564990740129
14:35.6;-0.032002670427171365;-0.528772665567073;-1.044271169881594;1.215;0.01767130016429042
14:35.6;-0.044040192049124224;-0.5306270576026314;-1.1178993315258556;1.215;0.02612409727775934
14:35.6;-0.05614912887943965;-0.5286635555884365;-1.1896124329882036;1.29;0.03531245322030332
14:35.6;-0.06777073284445415;-0.5223912430841561;-1.2578164481729344;1.361;0.04453027116269246
14:35.6;-0.07829799355654833;-0.511387341365149;-1.3208916012123766;1.402;0.052889295891987945
14:35.6;-0.08709828959825688;-0.4953829992372914;-1.3771630194144782;1.415;0.05942046922771168
14:35.7;-0.09355183391674599;-0.4743499159043048;-1.4248861055072952;1.435;0.06323117976862531
14:35.7;-0.09710764730539098;-0.44857248230363134;-1.4622651503726718;1.479;0.06369600440645719
14:35.7;-0.0973542048652014;-0.41869103158697984;-1.487526732333982;1.5319999999999998;0.06063357168626074
14:35.7;-0.09409866866210723;-0.38570385464154794;-1.4990594264749757;1.577;0.054407191447709495
14:35.7;-0.08744486804287324;-0.3509200086111244;-1.4956105859890478;1.6230000000000002;0.04589453653626905
14:35.7;-0.07785371176520581;-0.3158656169184284;-1.476509171486002;1.6230000000000002;0.036309295781662684
14:35.7;-0.0661639208500623;-0.2821587293568668;-1.4418697577337996;1.604;0.026917874082555675
14:35.7;-0.053552284090342336;-0.2513710478927621;-1.3927319297002707;1.5530000000000002;0.018748252193325043
14:35.7;-0.041423442625433016;-0.22488977123635648;-1.3310994646349537;1.462;0.012400134644773148
14:35.7;-0.031236418210093042;-0.20379060141807773;-1.2598592270128273;1.3359999999999999;0.008019871334029668
14:35.8;-0.024293114877252303;-0.18873587777153691;-1.1825785511141877;1.196;0.005422101796365665
14:35.8;-0.021527000914701472;-0.17991325543181252;-1.1032018965115906;1.061;0.004272693017853657
14:35.8;-0.02333413629654959;-0.1770270161141227;-1.025687745483282;0.943;0.004236882755377473
14:35.8;-0.02948292376905825;-0.17934684812652754;-0.9536377901889849;0.8540000000000001;0.0050425214110119045
14:35.8;-0.03912424084140094;-0.18580908728498077;-0.8899698960483426;0.7609999999999999;0.006469760293622528
14:35.8;-0.050901379030050216;-0.19515459196954962;-0.8366775126541017;0.7609999999999999;0.008311251412376385
14:35.8;-0.06313644365635557;-0.20607977907916916;-0.794704089320282;0.753;0.010340009630062564
14:35.8;-0.07405799734442545;-0.21737818256809835;-0.7639414056120261;0.759;0.012298381663469988
14:35.8;-0.08203508983029466;-0.22805774651998076;-0.743340206827585;0.7759999999999999;0.013906956967948674
14:35.8;-0.08578594071692494;-0.23742587605691753;-0.7311092412654514;0.805;0.014891088360107387
14:35.9;-0.08453284707061873;-0.24513655509762639;-0.7249751554363327;0.833;0.015023001088220049
14:35.9;-0.07808291779054118;-0.25119517097712823;-0.7224735477442041;0.853;0.014170633650841709
14:35.9;-0.06682656308444913;-0.25592031990411457;-0.7212385121878893;0.865;0.012334819666445436
14:35.9;-0.051658530606572245;-0.25986758622390166;-0.7192574197268202;0.861;0.009655583234726994
14:35.9;-0.033838048094077894;-0.26372649005716947;-0.7150622280985625;0.8170000000000001;0.006381207925687127
14:35.9;-0.014814433555284225;-0.26820698704307483;-0.7078391602079828;0.8170000000000001;0.0028124818184288797
14:35.9;0.003951034181257424;-0.27393398012219644;-0.6974526317989295;0.782;0.0007548686892416092
14:35.9;0.02114128564770563;-0.2813651211099741;-0.6843910647995931;0.748;0.004071045769164406
14:35.9;0.03570340463215201;-0.29073972831749045;-0.6696496238793088;0.713;0.006951229725410577
14:35.9;0.04692698174046557;-0.3020592445861864;-0.654570876797091;0.687;0.009278364564217888
14:36.0;0.05447959224201979;-0.3150954761490768;-0.6406689511082101;0.67;0.01099789815444626
14:36.0;0.05840137625674247;-0.3294213419321623;-0.6294628697529985;0.665;0.012110021968367564
14:36.0;0.05906444048374528;-0.3444582902082661;-0.6223398504517452;0.6779999999999999;0.012661651242375355
14:36.0;0.05710541361565774;-0.3595346424930354;-0.6204608751522067;0.703;0.012738914570941187
14:36.0;0.053340185960916685;-0.3739499201599047;-0.6247099071116795;0.753;0.012460812571170637
14:36.0;0.04866959424735699;-0.38704063723457216;-0.6356767509226111;0.753;0.011974313371961552
14:36.0;0.04398469705698213;-0.39824302952233315;-0.6536563320939807;0.779;0.011449835858719015
14:36.0;0.040079536105643035;-0.40714882846576056;-0.6786489451332295;0.7979999999999999;0.011074421628686082
14:36.0;0.037577268617752596;-0.4135504238411358;-0.7103555350487051;0.815;0.011038992756763297
14:36.0;0.03687379725793803;-0.41747007789714075;-0.7481725848023509;0.836;0.011517149566081202
14:36.1;0.03810210706202419;-0.4191663768556825;-0.791198260800834;0.862;0.012636324082166184
14:36.1;0.04111939995868546;-0.41911262894720047;-0.8382645660404137;0.899;0.014446366368134395
14:36.1;0.04551791418129976;-0.4179461514645781;-0.8880086886553478;0.963;0.01689351019793632
14:36.1;0.050659632014369654;-0.4163926566369373;-0.9389889832533029;1.05;0.019807314143885348
14:36.1;0.05573411735065169;-0.4151747699717555;-0.9898356115380378;1.207;0.022904201506859304
14:36.1;0.05983676108221156;-0.41491686942560213;-1.0394042258159208;1.207;0.025805581394761794
14:36.1;0.06206292113126007;-0.41605928683610865;-1.0868850337013534;1.24;0.028065387421099
14:36.1;0.06161318136084704;-0.4187933798038951;-1.1318265083398416;1.2409999999999999;0.029204737228942255
14:36.1;0.0579044000407734;-0.42302555428993327;-1.1740623117600015;1.23;0.028758704372800342
14:36.1;0.05067670404616124;-0.4283735351956983;-1.2135614361664273;1.225;0.026344669872487892
14:36.2;0.04007881926099049;-0.43419282393316316;-1.250241557466491;1.2309999999999999;0.021756623211048702
14:36.2;0.02670962346797021;-0.4396283359853316;-1.2837931394893576;1.253;0.015074693579215422
14:36.2;0.01159792630192764;-0.44368820254463737;-1.313556941767743;1.301;0.0067593841624326795
14:36.2;-0.0038863396690137658;-0.4453399300232016;-1.3384822917996357;1.3519999999999999;0.0023165678348836113
14:36.2;-0.01818306502961359;-0.44362660342299054;-1.3571743331740806;1.411;0.010947635058222356
14:36.2;-0.029735048663652557;-0.43779210941877794;-1.3680222777351811;1.411;0.01780859892610802
14:36.2;-0.03719148230043356;-0.42739685041081826;-1.3693918778600658;1.456;0.02176719926522592
14:36.2;-0.03958717845860242;-0.412404507735582;-1.3598630218172822;1.501;0.022201029652672066
14:36.2;-0.03647057298758734;-0.39322309733445937;-1.3384898725946288;1.526;0.019195379194779802
14:36.2;-0.027963948928412603;-0.3706861488791331;-1.3050506452813324;1.5290000000000001;0.013527957320437808
14:36.3;-0.014748278544502507;-0.3459660022862192;-1.2602420437304107;1.4909999999999999;0.0064302627451414815
14:36.3;0.00202478710929187;-0.32042563654526984;-1.2057691947207267;1.403;0.0007822954552156447
14:36.3;0.02087964902770209;-0.29543432265060887;-1.1442913518356432;1.262;0.0070586355457543815
14:36.3;0.04019837859584601;-0.27218607907155196;-1.07920822116446;1.104;0.011808090979565967
14:36.3;0.05840871053456138;-0.2515613738266122;-1.0143070651283659;0.965;0.014903594545255836
14:36.3;0.0741510259580967;-0.234060318258632;-0.953325858297748;0.774;0.0165457450720071
14:36.3;0.08640258668372693;-0.21981354981185253;-0.8995122356633951;0.774;0.017083949518381686
14:36.3;0.09454607109164972;-0.20865471995609533;-0.8552628396542855;0.7390000000000001;0.016872183973594506
14:36.3;0.09837973163019274;-0.20022647290559692;-0.8219057181895051;0.743;0.01619008513802987
14:36.3;0.09807549782874628;-0.19409163377518784;-0.799648527522095;0.772;0.015221816384204697
14:36.4;0.09409782749705947;-0.18982711086764337;-0.7876796292134868;0.81;0.014069784596257346
14:36.4;0.08710109154421249;-0.18708645804441829;-0.7843870406530642;0.851;0.01278192780739819
14:36.4;0.07782624503107288;-0.18562743178706703;-0.7876472676739094;0.889;0.01137889274755643
14:36.4;0.067015421813746;-0.1853099224949729;-0.7951313572591199;0.915;0.009874436260936892
