Time;AccX;AccY;AccZ;Acc-old;Acc-trns
54:09.8;-0.030722674885021214;-0.3606333751425926;-0.728873572865006;0.816;0.008075643627355918
54:09.8;-0.021467548577136945;-0.3580655682785334;-0.768547256758303;0.9059999999999999;0.005907661353036084
54:09.8;-0.012344241666718927;-0.35611702276500073;-0.8071464926877316;0.968;0.0035482116157122346
54:09.8;-0.0036223274063729126;-0.3549822537287133;-0.8440551092605502;0.968;0.0010853383457112035
54:09.8;0.004476304485556378;-0.35480599866920154;-0.8788937266736337;0.968;0.0013958763162717313
54:09.8;0.01178828333830291;-0.3556604702958899;-0.9115388978768029;0.987;0.0038217420442937925
54:09.8;0.01820367969433957;-0.3575180629353695;-0.9420920686654609;0.996;0.00613127112922503
54:09.8;0.023649961725274532;-0.3602223518173344;-0.9708182691971372;1.018;0.008270638523706055
54:09.8;0.028070029599983143;-0.3634628948849019;-0.9980735346240847;1.047;0.010182759620173199
54:09.9;0.0313994716357666;-0.3667617946401701;-1.0242334511334645;1.064;0.011795202058316554
54:09.9;0.03354993374069706;-0.36948057642056;-1.049629153131926;1.083;0.013011254264358308
54:09.9;0.03440748344179764;-0.3708540692317517;-1.0744940487765293;1.113;0.01371071087373728
54:09.9;0.03385300643089977;-0.3700532764718604;-1.0989238863334336;1.181;0.01376667661948657
54:09.9;0.03180306339494429;-0.3662719327769932;-1.122850446297305;1.181;0.013079601459437123
54:09.9;0.028258398963673947;-0.35882430971228146;-1.1460250489742043;1.181;0.011620465366566083
54:09.9;0.023342754996040656;-0.34723933992155925;-1.1680089576383599;1.202;0.009467323279696467
54:09.9;0.017320090108720067;-0.33133927061832297;-1.188174738272584;1.2209999999999999;0.0068187281086623565
54:09.9;0.010586752776427942;-0.31129505876665936;-1.2057268658064835;1.232;0.003973598074095969
54:09.9;0.0036389391209493507;-0.28765083096018434;-1.219747482538328;1.2409999999999999;0.001276763190481575
54:10.0;-0.0029841512663764946;-0.261307729304375;-1.2292693921271212;1.26;0.0009585618886048047
54:10.0;-0.008777748490614594;-0.23346019879933946;-1.2333746340329355;1.285;0.002527499021737713
54:10.0;-0.013356585079762994;-0.20548873005746354;-1.231309625609814;1.3090000000000002;0.003379486513045415
54:10.0;-0.01652547058403811;-0.1788269604711822;-1.2225976238895293;1.307;0.0036130201006511985
54:10.0;-0.01831271690212733;-0.1548286197501399;-1.2071231843657877;1.255;0.0034225958156287478
54:10.0;-0.018954938875802563;-0.13465664243133477;-1.1851675257202845;1.255;0.003025031579470612
54:10.0;-0.018838328913620507;-0.11920599184870247;-1.1573861861108672;1.169;0.0025990746627666253
54:10.0;-0.018412587237785973;-0.10906085860399405;-1.1247336890312427;1.101;0.002258569367854573
54:10.0;-0.018095719000790895;-0.10448226229236685;-1.0883514218546277;1.047;0.002057726071857565
54:10.0;-0.018186857729204815;-0.10542324731188005;-1.049444166239165;1.004;0.002012117770370092
54:10.1;-0.018803671363516204;-0.11156964299062208;-1.0091725046817965;0.9740000000000001;0.002117162071881393
54:10.1;-0.019857364026262574;-0.1224012607027919;-0.9685800795797798;0.9590000000000001;0.0023541981884659916
54:10.1;-0.021069570264482786;-0.13726383321171406;-0.9285614789871299;0.9470000000000001;0.002685483347917238
54:10.1;-0.022024612790985373;-0.15543916603206373;-0.8898647869237055;0.883;0.003046440925255788
54:10.1;-0.022242406132769288;-0.17620089793867352;-0.8531176855191477;0.883;0.0033434807638488815
54:10.1;-0.021254696501058348;-0.19884686293297799;-0.8188676692362635;0.883;0.0034608866555041608
54:10.1;-0.01867057213550745;-0.2227071813809289;-0.7876271049452469;0.862;0.0032750090261887957
54:10.1;-0.014223433801797001;-0.24713679666460764;-0.7599082514075114;0.8320000000000001;0.0026711792305991436
54:10.1;-0.0077969246698741225;-0.2715057510074931;-0.736231204891167;0.79;0.0015585351175199406
54:10.1;0.0005697047773179749;-0.2951977138873041;-0.7170968507075314;0.758;0.00012059815573279253
54:10.2;0.010694541527697669;-0.31762115542859576;-0.7029316661608799;0.745;0.0023877271664266776
54:10.2;0.02228035846480952;-0.33823233067595704;-0.6940218353990998;0.737;0.005230105225067201
54:10.2;0.03495079480649895;-0.35656616238321176;-0.6904566156236364;0.74;0.00860465730325602
54:10.2;0.04828878812184765;-0.3722699765423562;-0.6920964960978498;0.807;0.012441449145618485
54:10.2;0.061870783753982125;-0.3851342212265412;-0.6985723646179566;0.807;0.01664597079261922
54:10.2;0.07529148530507201;-0.39511277766125275;-0.7093109947834447;0.807;0.021101028844317436
54:10.2;0.08817734019189566;-0.4023263789511885;-0.723576932985363;0.833;0.025669665914086006
54:10.2;0.10019224835171034;-0.40704787574824564;-0.7405240513367768;0.856;0.030200823382526734
54:10.2;0.11104192013868941;-0.4096730625379701;-0.759254044806699;0.882;0.034539137294128636
54:10.2;0.12048113963722373;-0.41068190175648095;-0.7788779908163846;0.904;0.03853843400293714
54:10.3;0.12832366368814732;-0.41059452974550187;-0.7985742658159545;0.9129999999999999;0.04207607497743996
54:10.3;0.1344517055577685;-0.4099268360559082;-0.817636484506831;0.9229999999999999;0.04506433104190866
54:10.3;0.138822276695981;-0.4091511413124811;-0.8355087002006024;0.941;0.04745630342476527
54:10.3;0.14146950797598604;-0.4086668942321874;-0.8518085305649414;0.9840000000000001;0.049246376998418634
54:10.3;0.14250276349069144;-0.40878316514030066;-0.8663387861278409;0.9840000000000001;0.05046660000410562
54:10.3;0.1420992734550391;-0.4097102731256996;-0.8790856062549581;0.9840000000000001;0.05117995270561377
54:10.3;0.140489274777696;-0.41155564900872893;-0.8902013298186182;0.99;0.05147068836723163
54:10.3;0.13793306663630056;-0.4143203267338042;-0.899974864204992;0.993;0.05143218944022459
54:10.3;0.1346925219127983;-0.4178949178784051;-0.9087962106060813;0.996;0.05115370346977169
54:10.3;0.1310026919958638;-0.42205574975541005;-0.9171217418971637;1.005;0.050708064083883564
54:10.4;0.1270504609222085;-0.426463482057964;-0.9254445713422459;1.012;0.050142791249082656
54:10.4;0.12296581562307478;-0.43066794374430645;-0.934271987261238;1.026;0.04947664800522426
54:10.4;0.11882740115538973;-0.4341229325230748;-0.9441100204770586;1.047;0.048702576145175175
54:10.4;0.11467919359400584;-0.43621280285633607;-0.9554530737787615;1.093;0.04779609330988869
54:10.4;0.11055223742829397;-0.4362898824628964;-0.9687724112509422;1.093;0.04672662792294316
54:10.4;0.10648615134802641;-0.433719749759635;-0.9844927605485074;1.093;0.045468942783211105
54:10.4;0.10254739137477734;-0.4279309814379427;-1.0029477188276563;1.093;0.04401256118696677
54:10.4;0.09884220325745868;-0.4184663719959335;-1.0243139195425184;1.102;0.04236781389746744
54:10.4;0.09552262417897792;-0.40503271576631467;-1.0485335001984402;1.111;0.04056753871649264
54:10.4;0.09278567729060877;-0.3875459179257376;-1.0752381421058943;1.1;0.0386641770446845
54:10.5;0.09086732438742573;-0.36616740474084464;-1.1036891542457274;1.093;0.03672266552802835
54:10.5;0.09003101777958016;-0.34132608123429037;-1.1327520658360326;1.112;0.034809396774558465
54:10.5;0.09054666835644044;-0.31371790925995735;-1.1609284968173892;1.1340000000000001;0.032977464309305496
54:10.5;0.09265375664087665;-0.2842749658709089;-1.1864635835850958;1.2790000000000001;0.031250434593754775
54:10.5;0.09650707117651848;-0.2541022169100192;-1.2075266929401933;1.2790000000000001;0.02961176741755282
54:10.5;0.10211498564267514;-0.22439236258920905;-1.2224341550632196;1.2790000000000001;0.02801063971662121
54:10.5;0.1092891163909997;-0.19633417308983594;-1.2298690409343946;1.347;0.02638953158871574
54:10.5;0.11762330017807941;-0.17102242985138594;-1.2290621785334659;1.3780000000000001;0.02472408837703751
54:10.5;0.1265127627668916;-0.14937319101853433;-1.219907776820519;1.368;0.02305334759830773
54:10.5;0.135215307697461;-0.13205427607087114;-1.2029858782427902;1.29;0.021480226610039566
54:10.6;0.1429446444327304;-0.11944387001070111;-1.1794725943519069;1.172;0.020138151752446938
54:10.6;0.14897521395571686;-0.11162253565401702;-1.150949473078255;1.067;0.019139128580435087
54:10.6;0.15273499770393892;-0.10839622891732671;-1.119159738201381;1.016;0.01852869421933795
54:10.6;0.15386862855879785;-0.10934757149295517;-1.0857775480499474;1.036;0.01826838190613207
54:10.6;0.15226335678440048;-0.11391108285207237;-1.0522444747238577;1.036;0.01825063729810231
54:10.6;0.148040600063401;-0.12145758583585382;-1.019693471222163;1.036;0.018334755379318245
54:10.6;0.14152090827880137;-0.1313647181098558;-0.9889472367903305;1.036;0.018385373913106563
54:10.6;0.13316832086548555;-0.1430574112515969;-0.9605614322996172;0.9940000000000001;0.01829938232085749
54:10.6;0.1235180706182178;-0.15601744693998054;-0.9348836315722869;0.958;0.018016118183985907
54:10.7;0.1130966818449424;-0.1697716499573917;-0.9121087590858223;0.9390000000000001;0.017513044817569566
54:10.7;0.10235151476429086;-0.18387143101409742;-0.8923234469809009;0.9209999999999999;0.016793098498424055
54:10.7;0.09160722867254134;-0.1978748164239071;-0.8755389405423188;0.9;0.015870687359878472
54:10.7;0.08105659896987366;-0.21133804514507423;-0.8617141775378749;0.889;0.014761459577747368
54:10.7;0.07077982787771014;-0.22381962320151338;-0.8507714023715972;0.879;0.013477847735321817
54:10.7;0.06077929117136801;-0.23489590353337506;-0.8426077566031376;0.879;0.01202974790974926
54:10.7;0.051018497243865514;-0.2441839706661242;-0.8371060287101328;0.879;0.010428582554201182
54:10.7;0.04145898923613568;-0.25136740623794246;-0.8341450975277516;0.8959999999999999;0.00869299190864648
54:10.7;0.03209081199591276;-0.2562231643326768;-0.8336067862109127;0.89;0.006854256271174686
54:10.7;0.02295226306069913;-0.2586481290693524;-0.8353738565674922;0.88;0.004959246937201847
54:10.8;0.014136306350394548;-0.2586807977533882;-0.8393163780533777;0.873;0.003069204580780783
54:10.8;0.005783811988427955;-0.25651193415952356;-0.8452696722250286;0.8690000000000001;0.0012540562862153938
54:10.8;-0.0019338280305926205;-0.25248045331785524;-0.8530120508880152;0.867;0.00041648635635738775
54:10.8;-0.008838535488377259;-0.24705479351158183;-0.8622519799824945;0.8640000000000001;0.001882815630877117
54:10.8;-0.014770917331374612;-0.2408028891421294;-0.8726326289360151;0.924;0.0031038491688212795
54:10.8;-0.0196124003578333;-0.23435522952279284;-0.8837562456313666;0.924;0.004061981070672408
54:10.8;-0.02330036441017908;-0.22836611167681029;-0.8952217665023049;0.924;0.004763487213379219
54:10.8;-0.025834492779917142;-0.2234772496336669;-0.9066641017349556;0.941;0.005234553920439006
54:10.8;-0.02727468594649491;-0.22028489766916687;-0.9177877254270753;0.9570000000000001;0.005514253499275547
54:10.8;-0.02773165931517501;-0.2193093998756852;-0.9283930816112964;0.966;0.005646313634580835
54:10.9;-0.027351060788071774;-0.22096671406175156;-0.9383948185649209;0.973;0.005671352393386708
54:10.9;-0.02629253361509749;-0.22554300435881444;-0.9478295553127561;0.985;0.00562072122498645
54:10.9;-0.02470729202302366;-0.2331737269260504;-0.9568517870050173;0.993;0.005512510566033261
54:10.9;-0.022720098494177915;-0.24382849617828745;-0.9657181473337023;0.992;0.0053498925860965664
54:10.9;-0.02042183562407249;-0.2573032660163162;-0.97476126011374;1.02;0.005121985395218126
54:10.9;-0.017875694761437737;-0.27322010727636165;-0.9843553495080338;1.02;0.004807590779241062
54:10.9;-0.015134775385704647;-0.2910315205557368;-0.9948765293777544;1.02;0.004382129359660722
54:10.9;-0.012265367229683527;-0.31002584766813046;-1.0066615485721522;1.031;0.0038279119495241974
54:10.9;-0.009369898574119778;-0.3293357939020019;-1.0199703371049624;1.051;0.003147468310366165
54:10.9;-0.006604278677558055;-0.34795705243567315;-1.0349583215658589;1.08;0.0023783397518162995
54:11.0;-0.00418451139285579;-0.36478265448780667;-1.0516621782900377;1.107;0.001605296243032523
54:11.0;-0.002377990134396665;-0.37865362996205987;-1.0699984883703462;1.14;0.0009634636570278551
54:11.0;-0.001476810469943841;-0.38842334595773725;-1.0897708897286789;1.167;0.0006251227298585408
54:11.0;-0.0017538367632847973;-0.39303312330478446;-1.1106790980056729;1.176;0.0007656088074137447
54:11.0;-0.0034073460766007343;-0.3915973727036129;-1.1323237217842432;1.2229999999999999;0.0015108683418178497
54:11.0;-0.006505927412570402;-0.3834939955231273;-1.1542037634629765;1.2229999999999999;0.002879720035726581
54:11.0;-0.010948532078820317;-0.3684513289088029;-1.1757068203746928;1.2229999999999999;0.004742802717234838
54:11.0;-0.01645250376061591;-0.34662013159614724;-1.1960956184403506;1.232;0.006821057036113827
54:11.0;-0.02257619197566947;-0.3186184424292529;-1.2144998570978167;1.235;0.008736129591290647
54:11.0;-0.028774507612238355;-0.2855375198706901;-1.229925658478477;1.251;0.010105317088168008
54:11.1;-0.034476507782847714;-0.2488999833159992;-1.2412918909289066;1.27;0.010651776720108167
54:11.1;-0.039165966638500534;-0.21056832136434267;-1.2474945761286826;1.272;0.010288227301203516
54:11.1;-0.0424429141807092;-0.17261075738325202;-1.2474921674887631;1.281;0.009139256812161543
54:11.1;-0.04404947090370358;-0.13713762220617867;-1.2403993149790125;1.2919999999999998;0.007493053424753653
54:11.1;-0.04385649322030959;-0.106124274241506;-1.225575415449068;1.218;0.005704120300128511
54:11.1;-0.04182315653325079;-0.08124074017167941;-1.202697362294913;1.218;0.004086457978766931
54:11.1;-0.03795115276387766;-0.06371359476732893;-1.1718131348419234;1.218;0.002833449278704132
54:11.1;-0.032253284858164956;-0.054242569844201206;-1.1333767074188965;1.1740000000000002;0.00198284374718231
54:11.1;-0.02474623903627509;-0.05297996438095964;-1.0882600083318517;1.126;0.0014267685758103874
54:11.1;-0.015467514572316638;-0.05956713486508699;-1.0377329675124405;1.072;0.0009561210047078618
54:11.2;-0.004510675527959518;-0.07321711964807616;-0.9834060594467026;1.0070000000000001;0.00032477837708998626
54:11.2;0.007930677264076133;-0.09283072038870942;-0.9271366958285677;0.945;0.0006825677551941998
54:11.2;0.021522729700950316;-0.1171307782978672;-0.8709057106355301;0.882;0.0021955307234782593
54:11.2;0.03576816759065305;-0.14479788715813835;-0.8166730740042063;0.816;0.004229676511888084
54:11.2;0.05000988189886867;-0.17459187666385678;-0.7662255288632982;0.695;0.006690159619944411
54:11.2;0.06346507693700965;-0.2054449740736804;-0.7210366957501009;0.695;0.009401295423452923
54:11.2;0.07528521254201678;-0.23651427216609028;-0.6821683958649619;0.695;0.012146709045344928
54:11.2;0.08463397570672829;-0.2671881075920948;-0.6502359863926314;0.6920000000000001;0.014703911080159868
54:11.2;0.09077795121105474;-0.2970536305337429;-0.6254378575260944;0.7120000000000001;0.0168655072182979
54:11.2;0.09318431501173025;-0.32584122077960936;-0.6076287792007294;0.722;0.018449609419108788
54:11.3;0.09161283115219195;-0.3533597786325858;-0.5964118035105187;0.708;0.01930721570511918
54:11.3;0.08618326764907001;-0.37943234155070826;-0.5912296063406336;0.6940000000000001;0.019333633248963995
54:11.3;0.07740027097841459;-0.403841474030862;-0.5914464635582587;0.711;0.018487102065357048
54:11.3;0.06612419836417484;-0.42629677626986306;-0.596420598851115;0.746;0.016812221491686232
54:11.3;0.05348638260610221;-0.4464354013044649;-0.605566977295851;0.81;0.014459858288853792
54:11.3;0.04076166641655809;-0.4638557424640399;-0.618403895870556;0.81;0.011692492093066623
54:11.3;0.029225455189005198;-0.47816970654523444;-0.6345726807382833;0.81;0.008867980185258785
54:11.3;0.020024613834259304;-0.489054332645553;-0.6538248631941795;0.81;0.006402988061016334
54:11.3;0.014077682867679993;-0.4962937251667028;-0.6759813522143087;0.836;0.004722855708506519
54:11.3;0.012004248536597057;-0.4998139388055868;-0.7008754494649546;0.847;0.004205176121575607
54:11.4;0.014079021368700508;-0.4997143149217365;-0.728293659694519;0.8640000000000001;0.005123901680533864
54:11.4;0.020211769002076833;-0.4962921774880175;-0.7579282406531312;0.8909999999999999;0.007602734865578232
54:11.4;0.02996051097427859;-0.49005266959018057;-0.7893543332431343;0.9359999999999999;0.011589480597547535
54:11.4;0.04258414182140382;-0.48169496926232885;-0.8220391028451317;0.968;0.01686213207979112
54:11.4;0.057130471367267434;-0.4720692025902817;-0.8553798502563656;1.016;0.023069197718156884
54:11.4;0.0725435391190872;-0.4621055808603868;-0.8887569974107433;1.016;0.029793600216009682
54:11.4;0.08776932523286851;-0.452727113137629;-0.9215830442146691;1.016;0.036619612113601964
54:11.4;0.1018452169517885;-0.44476142100247545;-0.9533356986521049;1.044;0.0431830787958997
54:11.4;0.11396925104484686;-0.4388620677242592;-0.9835779796322165;1.075;0.04919540457141332
54:11.4;0.12354987540133507;-0.4354443044800349;-1.0119754122381923;1.1179999999999999;0.05444335583828244
54:11.5;0.13023487152249033;-0.4346403609599551;-1.03831444194907;1.145;0.058774133258482734
54:11.5;0.13391689458207925;-0.43628008716461436;-1.062516963665566;1.157;0.06207784520046799
54:11.5;0.13471580975671718;-0.43989985704952805;-1.0846435674120065;1.1840000000000002;0.0642775673004059
54:11.5;0.13294149476317685;-0.4447796154179213;-1.1048820748822057;1.193;0.06533130906686763
54:11.5;0.12904388026559827;-0.4500071071934243;-1.1235215046781333;1.258;0.06524363896278691
54:11.5;0.12355978529548085;-0.45456590879315234;-1.14091073700105;1.258;0.06408046786075926
54:11.5;0.11706583641743631;-0.45743787775863276;-1.15739825705736;1.258;0.061979079172460864
54:11.5;0.11014190273983009;-0.4577069179760956;-1.1732506241700977;1.253;0.05914674446273912
54:11.5;0.10334339326326561;-0.4546531069267674;-1.1885556126822314;1.2409999999999999;0.05584475473631399
54:11.5;0.0971778525502343;-0.4478286123896465;-1.2031270081494123;1.229;0.05235891177423825
54:11.6;0.09208278027578234;-0.4371063147048874;-1.216435584858376;1.22;0.04896148939188693
54:11.6;0.08840499025006858;-0.42269326736557084;-1.2275922293256176;1.2229999999999999;0.04587290479957243
54:11.6;0.0863833268332629;-0.40510622215060393;-1.2354042839950097;1.255;0.04323226032513707
54:11.6;0.08613589675160238;-0.38511205115261166;-1.2385145631779928;1.2990000000000002;0.041083970257607155
54:11.6;0.08765336231602702;-0.3636401956743534;-1.2356132923059577;1.401;0.039384291247035935
54:11.6;0.09080107763409614;-0.34167977405331185;-1.2256875991057057;1.401;0.038026825007804146
54:11.6;0.09533124771756435;-0.32018016183054243;-1.2082505289290675;1.401;0.036879641518809035
54:11.6;0.100902991967493;-0.2999724579723406;-1.1834879613836162;1.347;0.03582195387890051
54:11.6;0.10710762520484364;-0.2817181384373563;-1.152282638601996;1.239;0.034769161607118834
54:11.6;0.11349812811246894;-0.26588261282545655;-1.1161081576880305;1.125;0.03368099549422533
54:11.7;0.11962246497269133;-0.25273226555378475;-1.076819247858319;1.0490000000000002;0.03255489115934385
54:11.7;0.12505902860965531;-0.2423546346975022;-1.0363891655405637;0.985;0.03141154113771207
54:11.7;0.12944958271045665;-0.23469567529460042;-0.9966527702216487;0.915;0.030279564181928054
54:11.7;0.13252335723605316;-0.22960222040984185;-0.9591051997660806;0.897;0.02918332411979128
54:11.7;0.1341082877218369;-0.22685939061767232;-0.9247887303325029;0.929;0.028135517487009515
54:11.7;0.13413003202763998;-0.22621909882513394;-0.8942775812718327;0.929;0.02713486340985438
54:11.7;0.13260221307771014;-0.22742017212232685;-0.867744733452708;0.929;0.02616807300510629
54:11.7;0.1296111040617065;-0.23020138186095956;-0.8450769799498938;0.93;0.025214270518529276
54:11.7;0.12529639569559356;-0.23430833926761258;-0.8260020105060126;0.915;0.024249759087920895
54:11.7;0.1198285843293634;-0.2394955891570617;-0.8101990983597405;0.894;0.023251431903304056
54:11.8;0.1133835492552153;-0.24552634566149556;-0.7973753065011172;0.87;0.02219785088565717
54:11.8;0.10611594106581643;-0.252173028198374;-0.7872999156608965;0.8440000000000001;0.021067813658947537
54:11.8;0.09813474644479199;-0.25922100706509427;-0.7797999308245201;0.821;0.019837009007880577
54:11.8;0.08948618596787349;-0.2664763493911624;-0.7747271349761122;0.804;0.018474106195879504
54:11.8;0.08014998949863636;-0.2737770315281179;-0.7719113946838594;0.7959999999999999;0.016938226341407916
54:11.8;0.07005396469444926;-0.2810056429473118;-0.7711160406071147;0.794;0.015179850613931413
54:11.8;0.059108085127680045;-0.2880995674466013;-0.7720097301745994;0.794;0.013146564316361646
54:11.8;0.04725412660473263;-0.29505374363471704;-0.7741657023041898;0.812;0.010793810690181342
54:11.8;0.03452180813286597;-0.30191344191512404;-0.7770934155572913;0.843;0.008099332212380154
54:11.8;0.02107843498498362;-0.30875893151870926;-0.7802987350834891;0.865;0.005078305164205515
54:11.9;0.0072578577500709346;-0.315686948030705;-0.7833592840257455;0.873;0.0017948413790269684
54:11.9;-0.006441600433868124;-0.3227939917540702;-0.7859963561010739;0.884;0.0016343300182285964
54:11.9;-0.019392132975460073;-0.3301654280342979;-0.7881262410989488;0.898;0.00504606643762097
54:11.9;-0.030897393743540467;-0.33787354514819806;-0.7898784149290231;0.9079999999999999;0.00824586617173201
54:11.9;-0.04026760910301866;-0.34598576833633665;-0.7915728269007838;0.86;0.011028208198240809
54:11.9;-0.04689621810704167;-0.3545794834211623;-0.7936568723548161;0.86;0.013197273135536872
54:11.9;-0.050326029751515344;-0.36375490960241663;-0.7966158753963841;0.86;0.014583121385369137
54:11.9;-0.05029546293430472;-0.3736375923242464;-0.8008795748148558;0.861;0.015050349752883689
54:11.9;-0.04676077793748326;-0.3843677194744791;-0.8067437234006575;0.866;0.014499874051575283
54:11.9;-0.03989528164134447;-0.396078678206065;-0.8143173153661917;0.8690000000000001;0.012867573834033698
54:12.0;-0.030068489060630327;-0.40886898782856307;-0.8235011161132565;0.877;0.01012418257994304
54:12.0;-0.017807890924643747;-0.4227722151328221;-0.834001713718184;0.907;0.00627893326724651
54:12.0;-0.0037455355943541505;-0.437729827001447;-0.8453831146077603;0.935;0.0013860332162512724
54:12.0;0.01144718434511404;-0.4535710510581967;-0.8571531886729261;0.965;0.004450434872515679
54:12.0;0.027130622866587892;-0.47000201372868644;-0.8688763941627256;1.001;0.011079431620767575
54:12.0;0.04276553898696123;-0.48660483389025766;-0.8802987347119027;1.102;0.018318944480437242
54:12.0;0.05796840598002663;-0.502845199583742;-0.8914641243737691;1.102;0.025985407818925634
54:12.0;0.072540087414967;-0.5180842856715955;-0.9027944317583821;1.102;0.033928711431098275
54:12.0;0.0864574384413702;-0.5315916511562954;-0.9151071257631793;1.115;0.04205837150274454
54:12.0;0.09982764800168938;-0.5425612769098637;-0.9295574998830672;1.117;0.05034726607476672
54:12.1;0.11281621343349064;-0.550137080976241;-0.947507096120089;1.1079999999999999;0.05880644268828611
54:12.1;0.12556452311712712;-0.5534528539760611;-0.97032972446846;1.0979999999999999;0.06743213625361025
54:12.1;0.1381126385378914;-0.5516881371028847;-0.999174571761947;1.0959999999999999;0.0761322106746714
54:12.1;0.1503404120363689;-0.5441394419444088;-1.0347140082397293;1.095;0.08464596719967198
54:12.1;0.16193622433320437;-0.5303030499568112;-1.0769103290129542;1.0979999999999999;0.09247996921384045
54:12.1;0.17239656125309138;-0.5099598137606399;-1.1248402261149943;1.129;0.09889068648134994
54:12.1;0.18105318736214104;-0.4832483164665401;-1.1766161035380405;1.129;0.10294643517485792
54:12.1;0.18712206434830822;-0.4507139151205454;-1.2294371072129682;1.213;0.10368890387669408
54:12.1;0.1897711248196298;-0.4133240429065788;-1.2797894374570888;1.3430000000000002;0.10038280384029086
54:12.1;0.18820829393256114;-0.37244195309546363;-1.3237903810758063;1.501;0.09279329031783577
54:12.2;0.18178935669534363;-0.3297551463249203;-1.3576309458692042;1.6019999999999999;0.08138451198577352
54:12.2;0.1701346175705068;-0.28716131684237;-1.3780340374723414;1.645;0.06732534231024291
54:12.2;0.15323085369494838;-0.2466190822393796;-1.3826332824211456;1.6269999999999998;0.05224923129007981
54:12.2;0.1314928960371896;-0.20997602066547102;-1.3701980654219676;1.5230000000000001;0.03783165508288933
54:12.2;0.10577192842375761;-0.17879984113445305;-1.3406726542035527;1.246;0.025354806597181784
54:12.2;0.07731628493458918;-0.15424915269591302;-1.2950527086948382;1.246;0.015444761618168556
54:12.2;0.0477002819235941;-0.13700914658047997;-1.2351717916019116;1.246;0.008072310746256162
54:12.2;0.018730618426184856;-0.12729130043044037;-1.1634769164180614;1.148;0.0027740137615201036
54:12.2;-0.007672444767070461;-0.12487918144130886;-1.082832435231673;1.053;0.0010374927492045414
54:12.2;-0.02962372322917948;-0.12920131543695434;-0.9963538406202997;0.986;0.003813468611398467
54:12.3;-0.04544331851331498;-0.13941697009524154;-0.9072661935564245;0.9209999999999999;0.005748048276678063
54:12.3;-0.05382452002853164;-0.1545050840894362;-0.8187856239154535;0.857;0.006809153886087482
54:12.3;-0.05396873040985266;-0.1733500959346759;-0.7340180902735465;0.7979999999999999;0.006867094935286601
54:12.3;-0.04566130928944267;-0.19482122828618112;-0.6558629048814519;0.708;0.005834420219058127
54:12.3;-0.02927480615530145;-0.21784361817145892;-0.5869081764320642;0.62;0.003742906941293153
54:12.3;-0.005701539261546998;-0.24146049842402034;-0.5293140154968043;0.523;0.000728704758822196
54:12.3;0.023767155486395738;-0.2648845407740686;-0.4846954038999375;0.512;0.0030514251516549104
54:12.3;0.05758495403385831;-0.28753318463219113;-0.45403090460810497;0.512;0.007517655395677541
54:12.3;0.0940854810868336;-0.30904127571306433;-0.4376228396664162;0.539;0.012724451704390717
54:12.3;0.13158801722783736;-0.3292481623379004;-0.43511837487623783;0.539;0.018851552698082294
54:12.4;0.16847076563319544;-0.3481620093596743;-0.44558422165116596;0.597;0.026135796116361187
54:12.4;0.20321957533411797;-0.36590709770394964;-0.4676202249202354;0.6409999999999999;0.03477199910398993
54:12.4;0.23446448017282867;-0.3826610870994162;-0.49949433441917274;0.6629999999999999;0.04481484789976822
54:12.4;0.2610152973678936;-0.39859085659537596;-0.5392811717185847;0.69;0.05610590223940693
54:12.4;0.28190227807378976;-0.4137976645892598;-0.5849914191198639;0.851;0.06823954405696059
54:12.4;0.29642151051396437;-0.428281188699839;-0.6346830649911887;0.851;0.08057413016205768
54:12.4;0.3041793965324376;-0.44192467032272065;-0.6865421796388342;0.8959999999999999;0.09228800652019618
54:12.4;0.30512861641981087;-0.4544961602552942;-0.7389218272562813;0.8959999999999999;0.10247351980083963
54:12.4;0.2995903215216112;-0.4656611824640317;-0.7903425027083655;0.9520000000000001;0.11025877259102432
54:12.4;0.28825875800472023;-0.4750069138889366;-0.8394735882866464;1.004;0.11494483968186443
54:12.5;0.2721815213476654;-0.4820800558135856;-0.8851173165953237;1.047;0.11613914895302073
54:12.5;0.25270539568492806;-0.4864380842367343;-0.9262068087757618;1.085;0.11385446151839086
54:12.5;0.23138038074833223;-0.48770885892287713;-0.9618194963340458;1.113;0.10853773437209248
54:12.5;0.2098234779503089;-0.48564937434948074;-0.9912024717190892;1.141;0.1010041670212031
54:12.5;0.18955497983113664;-0.4801921562321163;-1.0138045068225978;1.192;0.09227933955328324
54:12.5;0.17183038752560495;-0.4714687144871382;-1.0293059378222962;1.16;0.08338680365640871
54:12.5;0.15749759221967394;-0.4598050205039452;-1.0376335253879825;1.16;0.07514353517169985
54:12.5;0.14690546858899822;-0.44569117139854203;-1.0389500348752265;1.16;0.06802470328503131
54:12.5;0.13987619717753172;-0.4297302452448135;-1.0336182279001234;1.101;0.06212979167102545
54:12.5;0.13574025984493748;-0.41257246346329807;-1.0221472428716563;1.072;0.057242998647468304
54:12.6;0.13342720946604866;-0.394847318995545;-1.005132068038453;1.064;0.052953750608539255
54:12.6;0.13160114889261892;-0.37711152300702466;-0.9831967703663859;1.055;0.04879439380434795
54:12.6;0.12882294710829584;-0.3598224391520356;-0.9569486746450002;1.069;0.04435781230018283
54:12.6;0.12371762507020785;-0.3433307065507301;-0.9269416684593018;1.058;0.03937282958127819
54:12.6;0.11512962616147478;-0.3278767982887266;-0.893637801252213;0.868;0.03373333749429696
54:12.6;0.10225593206780569;-0.31357969600400054;-0.8573610878533432;0.868;0.027491612587919562
54:12.6;0.08475065254730316;-0.3004167639406601;-0.8182575533185461;0.868;0.02083326016672684
54:12.6;0.06279308664564132;-0.28820253283424585;-0.7762873238671819;0.759;0.014048569990229291
54:12.6;0.03710588900929025;-0.2765781014915223;-0.7312650270960718;0.6579999999999999;0.007504736289175277
54:12.6;0.008906504932467323;-0.26502832440202223;-0.682954546771415;0.746;0.001612097870377333
54:12.7;-0.02021673226200069;-0.2529423233913615;-0.6312199341245442;0.846;0.00322784869188599
54:12.7;-0.048491544410451656;-0.23970927283504617;-0.5762124277721731;0.785;0.006697819994597359
54:12.7;-0.07418223119399966;-0.22481361774175831;-0.5185378698042996;0.711;0.008647747196509107
54:12.7;-0.09581339090970166;-0.2078953786261931;-0.45933799832573635;0.655;0.009149627625039156
54:12.7;-0.11237205409849035;-0.18876877179928894;-0.40024767513257414;0.387;0.008490187622487471
54:12.7;-0.12346513159337631;-0.16741451502902216;-0.34323846938963337;0.387;0.007094689436880279
54:12.7;-0.12941381210325056;-0.14396320286806272;-0.29040098914568285;0.387;0.005410410556223669
54:12.7;-0.13127867401987744;-0.11867656775745908;-0.24372623683045216;0.31;0.003797182249668776
54:12.7;-0.1308185530902376;-0.09192189685951879;-0.2049180371911891;0.26899999999999996;0.002464157746501555
54:12.7;-0.13038536230587883;-0.06413160681186582;-0.17524355815437515;0.243;0.00146535557827488
54:12.8;-0.13275179376975768;-0.03574715235533115;-0.15542981472404724;0.18600000000000003;0.0007375919677563877
54:12.8;-0.14087050349839436;-0.007156089999269761;-0.1456202350956389;0.121;0.00014679713802163245
54:12.8;-0.15757970476957708;0.02136679717524953;-0.14540145869682033;0.051;0.0004895628714883219
54:12.8;-0.18529551436126898;0.04971115170702211;-0.1539061459600567;0.07400000000000001;0.0014176685141098534
54:12.8;-0.22574512216431197;0.07798008463402648;-0.16999686060662875;0.46;0.002992560769755933
54:12.8;-0.279779194911487;0.10653373209363537;-0.1925186096177828;0.46;0.005738194622556409
54:12.8;-0.34726895188287527;0.13600393832355387;-0.2205644529205352;0.46;0.010417247005440096
54:12.8;-0.4270783834969582;0.16724891344012732;-0.2536708711277131;0.578;0.0181193033334916
54:12.8;-0.5171140859698966;0.20123680319633247;-0.2918789913641004;0.765;0.03037362413280196
54:12.8;-0.6144623166841111;0.23888333243918525;-0.33563195209330804;0.639;0.04926567093104779
54:12.9;-0.7156066552282454;0.28089860404392325;-0.38551103621448635;0.815;0.07749269541863361
54:12.9;-0.8166983604159063;0.32769286467205505;-0.44187211434398804;1.033;0.118256566026177
54:12.9;-0.9138417214016354;0.3793438473433604;-0.5044979343468311;1.104;0.1748893722049432
54:12.9;-1.0033605241437522;0.43558649767353474;-0.5723635353485643;1.08;0.2501516528960773
54:12.9;-1.0820292165481944;0.49579497036196957;-0.6435492299427431;1.453;0.34524140811894855
54:12.9;-1.1472686379642556;0.5589662528865658;-0.7152954211490136;1.453;0.4587078318958064
54:12.9;-1.197303214574769;0.6237378146297627;-0.784174499712102;1.453;0.5856240967175066
54:12.9;-1.2312701943773052;0.6884692977655151;-0.8463468832941183;1.631;0.7174412503641799
54:12.9;-1.2492815280511413;0.7514002560780184;-0.8978815799080206;1.959;0.8428508309828409
54:12.9;-1.252443755863244;0.8108556136557838;-0.9351253914827502;2.076;0.9496675734169022
54:13.0;-1.2428225216589783;0.8654271383353042;-0.9550669541067086;1.9569999999999999;1.027243597136103
54:13.0;-1.223325246742497;0.9140679163640087;-0.9556024002254487;1.861;1.068556858509113
54:13.0;-1.1974952564270573;0.9560973763681022;-0.9356281824339514;1.8159999999999998;1.0712213580801806
54:13.0;-1.169240175700496;0.9911585447034933;-0.8949576709256302;1.774;1.0371685846402694
54:13.0;-1.1425221726903338;1.0191648642333395;-0.8341254640426924;1.6019999999999999;0.9712710841280309
54:13.0;-1.1210274737979427;1.040251717425777;-0.7541728883758438;1.6019999999999999;0.8794792831044453
54:13.0;-1.1078369497740859;1.0547345983086784;-0.6565002216464264;1.6019999999999999;0.7671034138669156
54:13.0;-1.105131745509914;1.06307356073716;-0.5428297604376502;1.5119999999999998;0.6377361288777958
54:13.0;-1.1139669894747812;1.0658479412746051;-0.415266374442638;1.506;0.4930538318368892
54:13.0;-1.1341403215116006;1.0637478556723807;-0.2764045311864021;1.535;0.33346529880644143
54:13.1;-1.1641779071801537;1.0575816859402944;-0.12942777675451378;1.5490000000000002;0.15935319156276762
54:13.1;-1.2014467407188776;1.048286672799833;0.021836572675279154;1.5830000000000002;0.027502303062745648
54:13.1;-1.2423798923668923;1.0369250515754915;0.1729227574629958;1.595;0.22276857820493484
54:13.1;-1.2827883009017582;1.0246549384911896;0.31879078054942994;1.636;0.41902350098988783
54:13.1;-1.3182330439206889;1.0126754110145848;0.4539487246276538;1.7990000000000002;0.6059953044048568
54:13.1;-1.3444316928748012;1.002150988381459;0.5726409325514458;1.7990000000000002;0.7715326140207934
54:13.1;-1.3576620487241533;0.9941234743430725;0.6691104209014119;1.7990000000000002;0.9030874371964644
54:13.1;-1.3551214678064956;0.9894204468714141;0.7379499078572239;1.7990000000000002;0.9894320847346525
54:13.1;-1.3352149467928416;0.9885661465093207;0.7745801821285093;1.84;1.0224057905187376
54:13.1;-1.29776395788271;0.9916961035246974;0.7759012024826234;1.936;0.9985751180478335
54:13.2;-1.2441264416379505;0.9984824205875259;0.7410991428383825;2.414;0.9206217993330684
54:13.2;-1.1771900363068522;1.008092016045347;0.6724487759964316;2.873;0.7980056389233829
54:13.2;-1.1011632938061449;1.0192099858251062;0.5757758481482658;2.204;0.6462028066913201
54:13.2;-1.0210957902117248;1.0301530835014332;0.46018561251543577;1.354;0.4840623323614926
54:13.2;-0.9421503259989585;1.039077869114345;0.33688544694731976;1.4380000000000002;0.32979992168123184
54:13.2;-0.868784573413543;1.0442576410881288;0.21736974763960332;1.4380000000000002;0.19720542762016305
54:13.2;-0.8040715889637073;1.0443661455371263;0.11156026186054456;1.4380000000000002;0.09368218839525362
54:13.2;-0.7493442593163491;1.0386899316817106;0.026453548757629498;1.429;0.02058975825429789
54:13.2;-0.7042307857503397;1.0272148966517773;-0.0344686452636879;1.27;0.024934492304299317
54:13.2;-0.6670348548428509;1.0105779068004108;-0.07109486008679086;1.28;0.047924383104379124
54:13.3;-0.6353381379596756;0.9899146177769221;-0.08600541492300551;1.349;0.054091429470068474
54:13.3;-0.6066611710354525;0.9666561620348931;-0.08354100528255684;1.317;0.048991182238262064
54:13.3;-0.5790195149079036;0.9423228411850323;-0.06888157439990743;1.235;0.037583392924450953
54:13.3;-0.551259388586738;0.9183425719500592;-0.04728815384871291;1.1520000000000001;0.023939389777116453
54:13.3;-0.5231295437055662;0.8959080290957219;-0.023539716766102087;0.937;0.011032499317300402
54:13.3;-0.4951238799001517;0.875883480428537;-0.0015426518140358918;0.937;0.0006690030882285946
54:13.3;-0.46819426153494476;0.858768234491809;0.015903437977119125;0.937;0.006394301022799035
54:13.3;-0.44344931215098665;0.8447138947056816;0.02718531962562071;0.927;0.010183288950471037
54:13.3;-0.4219127465245226;0.8335822636439778;0.031809044511029914;0.935;0.011187208582724165
54:13.3;-0.4043608283385796;0.8250245212103204;0.030212986918141622;0.915;0.010079282018223595
54:13.4;-0.3912307368425731;0.8185631409865527;0.02350113711267195;0.904;0.007526170085798981
54:13.4;-0.38258329556895787;0.8136656650363094;0.013139836632918076;0.9129999999999999;0.0040903640205605515
54:13.4;-0.3781038223322683;0.8098069789083859;0.000661750384896246;0.9179999999999999;0.00020262208759200522
54:13.4;-0.37713133828804446;0.8065176346026313;-0.012579160354975711;0.9159999999999999;0.003826116093111323
54:13.4;-0.3787114129237166;0.8034138792384022;-0.025567746971100053;0.882;0.007779293966191508
54:13.4;-0.38166712324292473;0.8002082665565952;-0.03769095421973605;0.882;0.011511314452783094
54:13.4;-0.3846809727638226;0.7967072477163724;-0.04871520389154898;0.882;0.014930144058283032
54:13.4;-0.38638299678147037;0.79280566363855;-0.05870065437543846;0.872;0.017981573526904167
54:13.4;-0.38544585872849824;0.7884841769304757;-0.06787512601421067;0.871;0.020628469878512495
54:13.4;-0.3806929564863595;0.7838094990473335;-0.07648688730580391;0.877;0.022822980090125268
54:13.5;-0.3712263191192325;0.7789335193501818;-0.08465354440427246;0.885;0.024478471658310342
54:13.5;-0.3565742795232853;0.7740860889366491;-0.09222231937318762;0.8909999999999999;0.025455129842732307
54:13.5;-0.3368455280097691;0.7695567552997581;-0.098654932285555;0.892;0.025573504348321206
54:13.5;-0.3128617366873475;0.7656637231705714;-0.10295142041430187;0.873;0.024661691773123374
54:13.5;-0.2862322104581911;0.7627133612619947;-0.10363118537665762;0.851;0.022624048584055968
54:13.5;-0.2593363823637958;0.7609588728530822;-0.09879025072117589;0.797;0.01949569497106712
54:13.5;-0.23519615799980864;0.7605694341251501;-0.08624512675174656;0.797;0.015427787767545238
54:13.5;-0.2172441455647938;0.7616193187960186;-0.0637579758539165;0.7759999999999999;0.010549224971097995
54:13.5;-0.20901227097933756;0.7641014561119018;-0.029324593677166222;0.78;0.004683330583681231
54:13.5;-0.2137737250600646;0.7679639509676907;0.018499355005818438;0.7879999999999999;0.0030370486294122056
54:13.6;-0.23417515609971712;0.7731628773410845;0.08026256848260782;0.809;0.01453198247709537
54:13.6;-0.27189549318996453;0.779720957606796;0.1553081545401462;0.836;0.03292573478757822
54:13.6;-0.3273610577709552;0.7877795427733632;0.24153147262259578;0.86;0.06228815159818028
54:13.6;-0.39953999351755415;0.7976302454794506;0.3352483697569295;0.909;0.10683868810273436
54:13.6;-0.4858379275764908;0.809714131530178;0.43120971337436265;0.8690000000000001;0.16963351825002249
54:13.6;-0.5821163170508857;0.8245830826761122;0.5227968819874631;1.036;0.25094421143066675
54:13.6;-0.6828483537252031;0.8428261588001551;0.602443524815402;1.036;0.3467197764085794
54:13.6;-0.7814232136685861;0.8649653319447351;0.6623273642427031;1.077;0.4476697077805427
54:13.6;-0.8706215290083498;0.8913248803311646;0.6953300156520638;1.818;0.5395807022932437
54:13.6;-0.9432885119694098;0.9218903241457748;0.6961438448309595;2.479;0.6053726409306478
54:13.7;-0.9931712220915347;0.9561894984433803;0.6622343388961819;1.876;0.6288973912317168
54:13.7;-1.0157737524792882;0.9932320700377644;0.5943145893328293;1.892;0.5996034346021657
54:13.7;-1.0090187001411948;1.0315311905242643;0.49619609482786037;1.945;0.5164578956801201
54:13.7;-0.9735420854935992;1.0692097618561653;0.3741640898503984;1.7009999999999998;0.3894751468411169
54:13.7;-0.9125498518299826;1.1041746698293453;0.23611677686601368;1.374;0.23791467185337947
54:13.7;-0.8312879368665951;1.1343322139246823;0.090651075273515;1.374;0.08548003750727164
54:13.7;-0.7362918629173998;1.157813800838548;-0.05375913499524452;1.374;0.04582906479965315
54:13.7;-0.6346061549322041;1.1731830436837918;-0.18938104827656538;1.42;0.14099592903261643
54:13.7;-0.5330833422428459;1.1796017219774282;-0.3096185786156653;1.422;0.19469622113053092
54:13.7;-0.437793895352802;1.1769291684853327;-0.40925840400432456;1.28;0.21087137702198913
54:13.8;-0.35357060295192116;1.1657271819510322;-0.4846630241802432;1.33;0.1997620380945359
54:13.8;-0.28372455742682945;1.1471667259573086;-0.5339600582589135;1.535;0.17379298423069978
54:13.8;-0.22995374537140661;1.1228647789004274;-0.5571855950572402;1.4809999999999999;0.14386919946555168
54:13.8;-0.19243298023839078;1.0946807974929944;-0.5562673303722366;1.28;0.11717920854041951
54:13.8;-0.17005162221253778;1.0644888848826863;-0.5347521501398281;1.01;0.09679979770902986
54:13.8;-0.1607510460248468;1.0339518086788668;-0.49729294647224737;1.01;0.08265448117965826
54:13.8;-0.16190148036067653;1.0043419779365257;-0.44902453025814676;1.01;0.07301338813352405
54:13.8;-0.17065946679206415;0.9764468461575179;-0.3949848444135677;0.986;0.06582023423045473
54:13.8;-0.18426771667745384;0.9505665635164453;-0.33967384591719135;0.975;0.059496839536099876
54:13.8;-0.20028206494488004;0.9265881825738292;-0.2867707896303502;0.985;0.05321863480860848
54:13.9;-0.21672180914470845;0.9041125170767971;-0.23900037997486065;1.003;0.04682994964134736
54:13.9;-0.23214336134630154;0.8826074447478739;-0.1981272854761908;1.008;0.04059458858358504
54:13.9;-0.24564140776211538;0.8615590817379754;-0.16504437970927854;0.973;0.03492909892326505
54:13.9;-0.25679163961796797;0.8405931367825552;-0.13991060877395592;0.935;0.03020072483065056
54:13.9;-0.2655624578142074;0.8195475877071008;-0.1223000555319453;0.845;0.02661751515337694
54:13.9;-0.27222697859347755;0.798495082874713;-0.11134234313878817;0.845;0.024202697105275665
54:13.9;-0.27729177447893555;0.7777314959848749;-0.1058545938198701;0.845;0.02282844785304714
54:13.9;-0.2814382237211746;0.7577515580088302;-0.10447371584330284;0.8590000000000001;0.022280091021187394
54:13.9;-0.2854642360525107;0.739219578615023;-0.10579115798926335;0.845;0.022324129743931786
54:13.9;-0.2902161434031132;0.7229282562482481;-0.10848054876555081;0.8109999999999999;0.02275981040267109
54:14.0;-0.29650503863013067;0.7097358000010164;-0.11140438433748572;0.7759999999999999;0.023443965465764997
54:14.0;-0.30501107132698446;0.700479409688626;-0.11369018175930787;0.738;0.0242903592731341
54:14.0;-0.31619142244249077;0.69587372576238;-0.11477125795699979;0.7120000000000001;0.025253039914422307
54:14.0;-0.3302142643412206;0.6964112612261152;-0.1143888467268811;0.706;0.026305423393962572
54:14.0;-0.3469383214592508;0.7022845437507056;-0.11255429266706587;0.7759999999999999;0.027423788216394178
54:14.0;-0.36594599371226105;0.7133440011518246;-0.1094770732396599;0.7759999999999999;0.028578484115089748
54:14.0;-0.3866212982472335;0.7290947181118523;-0.10547563834435268;0.7759999999999999;0.029731847001807796
54:14.0;-0.4082545893640734;0.7487284596736513;-0.1008940140352723;0.856;0.03084045789099878
54:14.0;-0.43015869933024203;0.7711876058572867;-0.09604040416841755;0.924;0.03185977691594058
54:14.0;-0.4517817327429521;0.7952562617737132;-0.09115204731783855;0.9740000000000001;0.032749312827363035
54:14.1;-0.47279439617480495;0.8196669858380199;-0.08638374233604168;1.003;0.03347663354269682
54:14.1;-0.4931281428376087;0.8432072282190546;-0.08181459024626705;1.023;0.0340192605032142
54:14.1;-0.5129526954552858;0.8648126741694163;-0.0774627016963855;1.026;0.034363073576048085
54:14.1;-0.5326010812744306;0.8836408178279661;-0.0732918121199991;1.03;0.03449318298790832
54:14.1;-0.5524669575885846;0.8991223886161492;-0.0691957787882932;1.068;0.03437199358393716
54:14.1;-0.5729037091874555;0.9109902343911462;-0.06496366794017791;1.068;0.03390516742668311
54:14.1;-0.5941460165099761;0.9192866088973157;-0.06025095141574809;1.068;0.032908495875836094
54:14.1;-0.6162631837840896;0.9243519274060817;-0.05459058586495422;1.1079999999999999;0.031097203063799587
54:14.1;-0.6391474421508113;0.9268000648381327;-0.047462740414407435;1.136;0.028115118655685663
54:14.1;-0.6625337183690776;0.9274850113882682;-0.038415781695275854;1.162;0.02360611727914649
54:14.2;-0.6860374280126552;0.9274612101348512;-0.027209551999884365;1.181;0.017312706087169793
54:14.2;-0.7091928069663851;0.9279369798523357;-0.013945150665307753;1.188;0.0091771116480474
54:14.2;-0.7314796371177548;0.9302185586330926;0.0008418447988181247;1.196;0.0005728214517219899
54:14.2;-0.7523342491845436;0.9356425077838347;0.016126268489234732;1.217;0.011351536855274826
54:14.2;-0.7711468407891723;0.9454953447073648;0.03037216056142819;1.236;0.022144820567699765
54:14.2;-0.787251917943667;0.9609187979012164;0.041560067241093145;1.236;0.0314395743922757
54:14.2;-0.7999222838344562;0.9827986752377051;0.04729924665179167;1.236;0.03718489687384131
54:14.2;-0.8083788407493996;1.0116396669243068;0.04506320681816846;1.236;0.03685215433801024
54:14.2;-0.8118277281954973;1.0474371670211278;0.03256791566229297;1.296;0.027693753716061777
54:14.2;-0.8095295007902179;1.0895649781994137;0.008269628191884353;1.39;0.007294101443351245
54:14.3;-0.8008899418401044;1.1367011309558606;-0.02811217835222723;1.396;0.02559255416176443
54:14.3;-0.7855473384994096;1.1868141406507433;-0.0752054067578029;1.389;0.07011390216223448
54:14.3;-0.7634301305792325;1.2372298072510133;-0.12988012687298175;1.403;0.1226767819446216
54:14.3;-0.7347728785095607;1.2847914237248506;-0.18749262370656944;1.423;0.17699864143876148
54:14.3;-0.7000967991700012;1.3261107061472783;-0.24244024563896935;1.676;0.2250829449253197
54:14.3;-0.6601739319954756;1.357882310218342;-0.28890792797142345;1.676;0.2589881907224691
54:14.3;-0.6159941872033555;1.3772106140079758;-0.3216414911636244;1.676;0.27286575964676896
54:14.3;-0.568739623600687;1.3818948044040145;-0.3365966036531883;1.6540000000000001;0.26454417286599774
54:14.3;-0.5197511348472755;1.3706423965357066;-0.33138462773214933;1.649;0.23607606957523544
54:14.3;-0.47046638785662087;1.3432042391436108;-0.30551075733845867;1.614;0.19306216033027884
54:14.4;-0.4223191677951502;1.3004244919548886;-0.26043184230658245;1.51;0.14302765448336877
54:14.4;-0.3766103519284881;1.244192038046939;-0.19945711097051924;1.4;0.09346073570965957
54:14.4;-0.3343791653366256;1.177286683477946;-0.12749371405165966;1.32;0.050189193142073374
54:14.4;-0.29631277112025795;1.103129472610949;-0.05061575834068664;1.219;0.016544841307357935
54:14.4;-0.26272615353253687;1.0254580764279202;0.024563108172652788;0.973;0.0066176613393330065
54:14.4;-0.23361987064316303;0.94796516275296;0.09167047289878957;0.973;0.02030166365533518
54:14.4;-0.20879041146444774;0.8739657039003892;0.1453575127784585;0.973;0.02652420792368347
54:14.4;-0.18794806866337052;0.8061626230976595;0.1818834015346125;0.882;0.027558374247605922
54:14.4;-0.17080265327731445;0.7465369496748311;0.19938200117107754;0.8140000000000001;0.025423297020211157
54:14.5;-0.15709834518733778;0.6963396947313433;0.19781992452212485;0.731;0.021640275975364782
54:14.5;-0.14659901454643548;0.6561478535646751;0.17873243987498566;0.6709999999999999;0.01719238576590387
54:14.5;-0.13903809934961875;0.6259565563432061;0.14483872613464324;0.6409999999999999;0.012605576474675195
54:14.5;-0.13405534508909508;0.6052907625732671;0.09962191592579182;0.627;0.008083567532954668
54:14.5;-0.1311491295947696;0.5933248778975884;0.04693579150672485;0.619;0.00365226361890228
54:14.5;-0.12967437088295647;0.5889992331518917;-0.009318781224172143;0.63;0.00071175085090052
54:14.5;-0.12890469328652043;0.5911240352975898;-0.06542033513880505;0.63;0.004984942035544898
54:14.5;-0.12815475979413815;0.5984659369780817;-0.1179496081371599;0.63;0.009046293623677626
54:14.5;-0.12694078363420971;0.6098170366437374;-0.1638270822911668;0.648;0.012681961338157353
54:14.5;-0.12515469926832465;0.6240492867841693;-0.20030217740825373;0.6659999999999999;0.01564414103492726
54:14.5;-0.12322935314513729;0.6401591023008693;-0.22493476351881087;0.705;0.017744291948830846
54:14.6;-0.12226754748209244;0.6573066974853119;-0.23560095821994856;0.748;0.018934607669830336
54:14.6;-0.12410210169952209;0.6748513539541738;-0.23054152656660756;0.77;0.019307961518118248
54:14.6;-0.1312553024830456;0.6923791487797931;-0.20845722665205652;0.79;0.0189442664404565
54:14.6;-0.14677611410910754;0.7097173338205499;-0.1686425657834329;0.792;0.017567420588872597
54:14.6;-0.17395140021182454;0.7269305855463414;-0.1111405933842495;0.7759999999999999;0.014053793963437337
54:14.6;-0.2159097168509194;0.7442967012369234;-0.03690306422141673;0.7759999999999999;0.005930355264741251
54:14.6;-0.27515616949756166;0.7622622223529727;0.052049650353985656;0.7759999999999999;0.010916953691782303
54:14.6;-0.3530885788726937;0.7813828859524375;0.15247622049321152;0.79;0.042067788641901124
54:14.6;-0.4495499990573902;0.8022579994750271;0.2598011958023484;0.845;0.0936986218116369
54:14.7;-0.5624760526289272;0.8254668164777711;0.36810071188407634;0.885;0.17091111753837104
54:14.7;-0.6876984113831319;0.851508298191511;0.4702587435422329;0.934;0.2753745401319034
54:14.7;-0.8189643805329687;0.8807410576659648;0.5583596757931408;1.015;0.40274235207408426
54:14.7;-0.9482289187806121;0.9133228170632433;0.6243594892405935;1.139;0.5407197347096575
54:14.7;-1.06627224070751;0.9491523639590524;0.6610169985107107;2.214;0.6689854380509095
54:14.7;-1.1636614758034496;0.9878163078407313;0.6629371548764665;2.323;0.7620355084165721
54:14.7;-1.2319540872835966;1.0285446739339585;0.6274426995571947;2.323;0.795045077390226
54:14.7;-1.264877799403984;1.0701916213862972;0.5550082871948283;2.323;0.7512934188224244
54:14.7;-1.259176291899914;1.1112711110086653;0.449168480011412;2.059;0.6285152721092238
54:14.7;-1.2149420200636531;1.1500682981016956;0.31597781880445747;1.903;0.4415051581759077
54:14.8;-1.135441430074627;1.1848084867647741;0.16319975237318546;1.713;0.21954946774096537
54:14.8;-1.0265534685185451;1.2138322106122026;-0.0005397242691144795;1.494;0.0006725308014038424
54:14.8;-0.8959803872088191;1.2357397198106692;-0.16643040586579474;1.479;0.18427150449077462
54:14.8;-0.7523782986478141;1.2495107698775345;-0.32591768343692185;1.528;0.30639677442650687
54:14.8;-0.6045156257070855;1.2546129217558044;-0.4709755342624734;1.504;0.3572034417351224
54:14.8;-0.4605274960568387;1.251075643044944;-0.5943697010485736;1.568;0.3424489165709275
54:14.8;-0.32731941402885917;1.2394904868493435;-0.6900470138869707;1.568;0.27995849086757807
54:14.8;-0.21017614285906777;1.2209318538706722;-0.75363822797322;1.568;0.19339166920588935
54:14.8;-0.11260827822229133;1.1968316478723946;-0.7829179454636435;1.568;0.10551631863244172
54:14.8;-0.03640957380177502;1.1688378756971303;-0.7780752999834292;1.662;0.033112464095287356
54:14.9;0.018147740001102385;1.1386608745110813;-0.7417429183583243;1.4709999999999999;0.015327465786761769
54:14.9;0.052049023670266974;1.1079033751165315;-0.6787755296081509;1.242;0.03914178707813734
54:14.9;0.06724305096317346;1.0778905579675073;-0.5957849427189018;1.115;0.04318287974292954
54:14.9;0.06633448435774394;1.0495380611910985;-0.5004851958523593;1.07;0.034844062661380966
54:14.9;0.052279729725057913;1.0232919056703995;-0.4009476246063416;1.07;0.021449665178918227
54:14.9;0.028112103926948722;0.9991468476319438;-0.30486255556027364;0.976;0.008563016049849317
54:14.9;-0.003275672381629922;0.9767254948994697;-0.2188751020080614;0.976;0.000700276164725567
54:14.9;-0.039276131102116175;0.955394680039135;-0.14804988412064127;0.976;0.005555454454761611
54:14.9;-0.07764466546937851;0.9344002414524426;-0.09551253931673431;0.9490000000000001;0.006929548784881826
54:14.9;-0.11653324337896467;0.913007082252098;-0.06229586370763502;0.9540000000000001;0.006628010563746106
54:15.0;-0.15450705722312771;0.8906374079346002;-0.0474101813325071;0.976;0.006524103909536376
54:15.0;-0.19055835080047048;0.8670016607231779;-0.04815926900468141;1.026;0.00795660505131613
54:15.0;-0.224109706361485;0.8422059802183491;-0.06068315234233842;1.043;0.0114537347327979
54:15.0;-0.2549845328871035;0.8168057973802719;-0.08062576803037776;0.99;0.016792158064170837
54:15.0;-0.28332830957156646;0.7917781890879095;-0.103772212564346;0.9009999999999999;0.023279550011607482
54:15.0;-0.30948487627264226;0.7684101265575011;-0.12652924058865864;0.7879999999999999;0.030090084830233316
54:15.0;-0.3338501952512834;0.7481290747188347;-0.14620597571346272;0.7879999999999999;0.03651684861941486
54:15.0;-0.3567308117396574;0.7323183916688671;-0.16112266934551014;0.7879999999999999;0.04209177222958314
54:15.0;-0.3782303033929671;0.7221539433378673;-0.17059620201913397;0.8340000000000001;0.04659673278510757
54:15.0;-0.3981834631275821;0.7184761956042875;-0.1748325345671104;0.8079999999999999;0.05001702504931493
54:15.1;-0.4161549890038216;0.7216935219041313;-0.17473249610347008;0.7609999999999999;0.05247852179614312
54:15.1;-0.43151074832642927;0.7317128216954114;-0.17161990485842266;0.77;0.05418760294682894
54:15.1;-0.4435528697348386;0.747908111781005;-0.1669345203591468;0.83;0.05537832180367794
54:15.1;-0.4516903640329853;0.7691483557108023;-0.16196134635959106;0.912;0.05626810899943928
54:15.1;-0.45560355543858677;0.7938990471655851;-0.15765582520277668;0.98;0.0570246209752351
54:15.1;-0.45535986270844975;0.8203907659424498;-0.15458053187019644;1.05;0.057747117135968584
54:15.1;-0.45145385408253963;0.8468242663707602;-0.1529299063242283;1.05;0.058465421095948815
54:15.1;-0.44477146808406415;0.8715677949001808;-0.15260431200084076;1.05;0.059156830759434974
54:15.1;-0.4364984759013126;0.8933084097852797;-0.1532988862643885;1.055;0.05977549123669106
54:15.1;-0.42799429868990657;0.9111419622476725;-0.1545854867428817;1.041;0.06028270752902309
54:15.2;-0.4206466303793272;0.9246069903591555;-0.15597724369703891;1.026;0.060664668454513154
54:15.2;-0.41572448413031055;0.9336750348652663;-0.1569704406734833;1.025;0.06092832333864881
54:15.2;-0.4142524670765553;0.9387096758002899;-0.15706131563182296;1.022;0.061075302822035195
54:15.2;-0.4169274237016091;0.9404045810865622;-0.15574079925021495;1.021;0.06106292409081099
54:15.2;-0.4240892112686035;0.9397079245596563;-0.15247957197957657;1.0170000000000001;0.060766157889230614
54:15.2;-0.43574421634710175;0.9377388187172379;-0.1467248177535444;1.046;0.05995385381308499
54:15.2;-0.45162642268631914;0.9357020764738413;-0.13792967085187882;1.046;0.05828739360805057
54:15.2;-0.4712711415647395;0.9348082969912543;-0.12562345589190438;1.046;0.05534318401269849
54:15.2;-0.49407853075688274;0.9362045774213427;-0.1095153532820223;1.0659999999999998;0.05065726653233529
54:15.2;-0.5193569080641757;0.9409175069574917;-0.0896174996697512;1.094;0.043793563439999725
54:15.3;-0.5463463328324368;0.9498061411443813;-0.0663747036005604;1.126;0.03444336709443022
54:15.3;-0.5742238092173119;0.9635194008150912;-0.04078696680658458;1.148;0.022566440897845094
54:15.3;-0.6020902911848014;0.9824516340116123;-0.014500000629149782;1.141;0.008577106932914582
54:15.3;-0.6289445039956723;1.0066948646674767;0.010180360868176308;1.1420000000000001;0.006445748445315941
54:15.3;-0.6536591899899971;1.035995589726706;0.030408678138258226;1.165;0.020592393087045326
54:15.3;-0.6749843123863462;1.069729346746781;0.0431033463523819;1.325;0.031122793973053033
54:15.3;-0.6915971331598497;1.106899304858182;0.04542299111166164;1.325;0.03477258907012056
54:15.3;-0.7021992019245675;1.1461522686268115;0.03531626161361659;1.325;0.02842348824256614
54:15.3;-0.7056430089128921;1.185804269594579;0.011996924246933398;1.389;0.010038480263144519
54:15.3;-0.7010676126842648;1.2238809586434511;-0.023767389345611116;1.432;0.02039297388352886
54:15.4;-0.688020779830526;1.2581882199903303;-0.06959470995873021;1.422;0.06024533158905373
54:15.4;-0.6665406190232698;1.2864266116012324;-0.12165725832155964;1.431;0.1043156962148994
54:15.4;-0.6371771255904173;1.3063550303880853;-0.17506156958033586;1.5019999999999998;0.14571766933022978
54:15.4;-0.6009544115813967;1.315995128947281;-0.2244005716958658;1.601;0.17746788291153104
54:15.4;-0.5592879903202336;1.3138455763159937;-0.2644093534674552;1.673;0.19429276603731208
54:15.4;-0.5138692693825684;1.2990569887035917;-0.2906315490646932;1.4609999999999999;0.19400977275920084
54:15.4;-0.46652655497394796;1.2715281274742125;-0.2999935695149913;1.4609999999999999;0.1779566764846728
54:15.4;-0.41907986748407455;1.231921340768109;-0.29120095407683044;1.4609999999999999;0.15033931603277953
54:15.4;-0.3732103938698017;1.1816225362374606;-0.26490871591028536;1.368;0.11682310450226112
54:15.4;-0.3303543306367159;1.1226635781848644;-0.22365030738484887;1.272;0.08294670470861769
54:15.5;-0.2916250456190713;1.0576060318116218;-0.17152731819947123;1.147;0.05290321144698258
54:15.5;-0.25777505666326167;0.9893816767045668;-0.11368279935697466;1.024;0.02899342443473504
54:15.5;-0.22920753894035886;0.9210945518000415;-0.05562637877068242;0.9620000000000001;0.011743942067383158
54:15.5;-0.2060275352171515;0.8558014969026567;-0.002538767999818949;0.866;0.0004476322048895774
54:15.5;-0.1881081250376106;0.796297317206872;0.04129367382966156;0.8170000000000001;0.006185379209371169
54:15.5;-0.17515203321936196;0.7449295728490112;0.0728166601208584;0.6940000000000001;0.009500821397043795
54:15.5;-0.16674257034770268;0.7034583879134471;0.09031646407811865;0.6940000000000001;0.010593801491996645
54:15.5;-0.1623824765990295;0.6729688837039411;0.0933634547683463;0.6940000000000001;0.010202604661765455
54:15.5;-0.16151590575736335;0.653838034338653;0.08266097127678222;0.649;0.008729431903316312
54:15.5;-0.16352812191176622;0.6457499068961368;0.05984401383582288;0.626;0.006319424300962431
54:15.6;-0.1677241286424447;0.6477504291663424;0.02725085292470766;0.619;0.0029606246690591503
54:15.6;-0.1732985405136201;0.6583384033081496;-0.012313992874718674;0.638;0.0014048921730912228
54:15.6;-0.17931889344671667;0.6755937861047332;-0.055803165591940734;0.6829999999999999;0.006760371043135432
54:15.6;-0.1847475840385268;0.6973408759976737;-0.1001140679477071;0.7440000000000001;0.012897899815828347
54:15.6;-0.18852154353785128;0.7213357420550686;-0.1422270647689227;0.795;0.01934107843627197
54:15.6;-0.18969536830459657;0.7454585906834391;-0.17929374964644107;0.88;0.025353936652694066
54:15.6;-0.18763436405274092;0.7678866709014605;-0.20868642223266332;0.88;0.030067941887234783
54:15.6;-0.18222371271363672;0.7872251120511482;-0.22802865281386894;0.88;0.03271095712350685
54:15.6;-0.1740515992331778;0.8025831428498934;-0.2352320582244796;0.898;0.032859773107174146
54:15.6;-0.16453142279676813;0.8135969919157403;-0.22856316602829807;0.917;0.03059598439448765
54:15.7;-0.15593657799538402;0.8204094653406511;-0.20675426626648405;0.925;0.026450454658306168
54:15.7;-0.1513224253413591;0.8236163867941292;-0.1691547642208123;0.9279999999999999;0.021082033851878894
54:15.7;-0.1543142957615382;0.8241867214157852;-0.11589953078478468;0.8859999999999999;0.014740541989069229
54:15.7;-0.16875718850281904;0.8233619503873536;-0.048056016232486856;0.833;0.006677299254999425
54:15.7;-0.19824901876488568;0.8225430873562534;0.03228946683599848;0.813;0.0052653904009360855
54:15.7;-0.2456045126899844;0.8231774722634375;0.12203066648671926;0.846;0.024671684466526303
54:15.7;-0.312312541712839;0.8266556842948487;0.21712351281465514;0.846;0.05605584943396883
54:15.7;-0.39805575750006017;0.834221049700009;0.3127303944035323;0.846;0.10384728496783546
54:15.7;-0.5003634943094675;0.8468881335461842;0.40341733990955597;0.884;0.17094886661556455
54:15.7;-0.6144690549845697;0.865366194735367;0.4834345898518825;0.9470000000000001;0.2570618703659757
54:15.8;-0.7334380189251962;0.8899834203304725;0.5471403159201322;1.064;0.35714457003671624
54:15.8;-0.8486214735013874;0.9206057640191524;0.5896002770221289;1.689;0.46062275188011403
54:15.8;-0.9504527075009657;0.9565510260887411;0.6072843459743237;1.9669999999999999;0.5521165181479751
54:15.8;-1.0295252540211475;0.9965259437025399;0.598632451959445;1.837;0.6141661411651339
54:15.8;-1.0777796822740608;1.038644564125535;0.5642402109273734;2.045;0.6316274240122873
54:15.8;-1.08955830052774;1.0805724759008801;0.5066101618440957;1.89;0.5964558075224271
54:15.8;-1.0623211653841673;1.1197738593629598;0.4296532441853359;1.89;0.5110980859718871
54:15.8;-0.9969284315015254;1.1537847848306149;0.33817031925625757;1.89;0.38897731743813263
54:15.8;-0.897493956093016;1.1804511750556101;0.23741456564928567;1.591;0.25152833809589786
54:15.8;-0.7708610274358617;1.1981184472597717;0.13272331868598275;1.406;0.1225809765860431
54:15.9;-0.6257911632121168;1.2057834523370947;0.029200596925994474;1.39;0.02203385439485201
54:15.9;-0.4720150640495663;1.203207685932752;-0.06853108770356674;1.371;0.0389210081828394
54:15.9;-0.31931488345580844;1.1909676326813163;-0.15649475317788616;1.318;0.05951396728143468
54:15.9;-0.17675656843579773;1.17040997180945;-0.23148280917713474;1.206;0.047888619642797114
54:15.9;-0.05210726379821927;1.143498482774722;-0.2912210218798913;1.4069999999999998;0.01735228142983055
54:15.9;0.048594434079053804;1.1125728959982224;-0.33458436907071665;1.236;0.01808925381071164
54:15.9;0.12135979787974667;1.0800638853989488;-0.36175246030023767;1.236;0.04741718661161179
54:15.9;0.16446074203803762;1.0482128018481423;-0.3741548691559044;1.236;0.06450050371829996
54:15.9;0.17848241971291617;1.018833072964674;-0.3741446406626747;0.983;0.06803588026930846
54:15.9;0.16617471567393666;0.9931357355270262;-0.3644729771852386;0.932;0.060150450985283044
54:16.0;0.13208908670452027;0.9716404512597926;-0.34775636081661476;0.899;0.04463212932657039
54:16.0;0.08201795703048398;0.954195713304421;-0.3261559532068009;1.055;0.025525350744525357
54:16.0;0.02230084110140542;0.9401109042696919;-0.30135895130150275;1.185;0.0063180699407999405
54:16.0;-0.04089083001511156;0.9283633070530012;-0.2747507416981157;1.194;0.010429962969229078
54:16.0;-0.10216996294940497;0.9178184048866777;-0.24757256190583662;1.1;0.0232157388062104
54:16.0;-0.15736604956275435;0.9074105882903741;-0.2209231024894816;0.955;0.031546851306297315
54:16.0;-0.2037397018256127;0.8962647390810001;-0.19560619188286815;0.955;0.035718612079346956
54:16.0;-0.23999152305025495;0.883771848359312;-0.1719532938188333;0.955;0.036470907053644655
54:16.0;-0.2661063152596525;0.8696414766262733;-0.1497808577083113;0.966;0.03466185007009045
54:16.0;-0.2830836074691286;0.8539404972616548;-0.12855864561986588;1.026;0.031077324304154056
54:16.1;-0.29260537094713734;0.8371096141836651;-0.1077304593796445;1.0170000000000001;0.026387797045658835
54:16.1;-0.29668995919736635;0.8199416789112749;-0.08703574024842177;0.9109999999999999;0.02117305077896545
54:16.1;-0.29737743946195583;0.8035119252572686;-0.06668573226630078;0.81;0.015934310248860585
54:16.1;-0.29648312160442997;0.7890652213271236;-0.04734302362942873;0.8;0.01107564093684671
54:16.1;-0.29544207007316636;0.7778787222013749;-0.029962977163336884;0.84;0.006886034480614522
54:16.1;-0.2952479972391885;0.7711193500133673;-0.015594285977728793;0.7829999999999999;0.0035503736023918156
54:16.1;-0.29647046623006923;0.7697075308110014;-0.005196330246025376;0.7829999999999999;0.0011857794411772179
54:16.1;-0.29932363397516293;0.7741954987909889;0.0005153962317380096;0.7829999999999999;0.00011943535097005804
54:16.1;-0.30376191947778264;0.7846729093951543;0.001191438976171035;0.778;0.0002839839468181658
54:16.1;-0.3095860479318847;0.8007159899314219;-0.0030777564555213178;0.794;0.0007629465830633185
54:16.2;-0.3165461104893972;0.821396281233275;-0.011755177575044969;0.86;0.003056461346681012
54:16.2;-0.3244262909466354;0.8453592049390052;-0.023925117469719766;0.93;0.006561624993533525
54:16.2;-0.333097016350282;0.870966428116212;-0.03842081488463142;0.976;0.01114650536989631
54:16.2;-0.3425276283165304;0.8964764233467882;-0.053980951129272516;1.008;0.016575819631502453
54:16.2;-0.352762641786032;0.9202298227681545;-0.06940311141265422;1.032;0.02252982564628803
54:16.2;-0.36387316529745795;0.9408129738439527;-0.08366688478264403;1.067;0.028642236429455587
54:16.2;-0.3758993340655906;0.9571841149824681;-0.09600632682959027;1.067;0.03454354407851397
54:16.2;-0.38879936483467564;0.9687538654265778;-0.10592712672768057;1.067;0.03989754629855453
54:16.2;-0.4024185939011429;0.9754169397564986;-0.11318116014520634;1.0759999999999998;0.04442653826161305
54:16.2;-0.41648904829168615;0.9775379418628564;-0.11771757201363243;1.0759999999999998;0.047926807962294406
54:16.3;-0.43066487282977234;0.9758985986192549;-0.11962719269489283;1.077;0.050277544094404956
54:16.3;-0.44458955904469527;0.9716157204404291;-0.11909467128822364;1.084;0.051445349536423275
54:16.3;-0.45797939028544227;0.9660405647643052;-0.11636989930511547;1.095;0.05148514690301338
54:16.3;-0.47069892057625073;0.9606509446607436;-0.11176257241552685;1.0979999999999999;0.05053650524368531
54:16.3;-0.48280334692230387;0.9569454985209258;-0.10565319445270976;1.094;0.04881351800636139
54:16.3;-0.49453058303144354;0.9563455648523321;-0.09850875671551375;1.085;0.04658894120163179
54:16.3;-0.5062403287377321;0.9601058749102631;-0.09089628207159654;1.085;0.04417962104078841
54:16.3;-0.5183128174443328;0.9692320741480791;-0.0834962952113367;1.085;0.0419456503359452
54:16.3;-0.5310288309087323;0.9844029388273421;-0.07712070450488552;1.077;0.040314566153003974
54:16.3;-0.5444532754189678;1.0058995136236546;-0.0727313332795164;1.084;0.039832426364210284
54:16.4;-0.558343547587419;1.0335499444068283;-0.07143817719685355;1.127;0.04122525344127752
54:16.4;-0.5721049144400019;1.066702157957044;-0.07443680272170784;1.166;0.045426216115824085
54:16.4;-0.5848133508822635;1.10423274281983;-0.08284157852771745;1.217;0.05349661034788394
54:16.4;-0.595314938602569;1.1445915172112122;-0.09741151348678459;1.31;0.06637546776722206
54:16.4;-0.6023882748828664;1.1858748909030339;-0.1182408782348107;1.367;0.08446621439588288
54:16.4;-0.6049309290193519;1.2259213502322144;-0.14453647508444267;1.413;0.10718792345817771
54:16.4;-0.60212187234332;1.2624242945712993;-0.1745707070262457;1.413;0.13269700411312438
54:16.4;-0.593528857323813;1.2930569632560545;-0.20581114740639617;1.413;0.15795318604028702
54:16.4;-0.5791549617732504;1.3156076178958322;-0.23517122460830506;1.413;0.17918652271242355
54:16.4;-0.5594283557397115;1.3281329699546316;-0.2593400717431825;1.504;0.19268843977628602
54:16.5;-0.5351371076532611;1.3291383651094424;-0.2751800834680846;1.577;0.1957276847986214
54:16.5;-0.5073146787248133;1.317771181684074;-0.2801720506520968;1.6280000000000001;0.18730192593161166
54:16.5;-0.4770946379990675;1.2939837654622428;-0.27284497282332437;1.6440000000000001;0.16844158506304768
54:16.5;-0.44556328539146994;1.2586103546014893;-0.2530902733961522;1.558;0.14193063731866126
54:16.5;-0.41363926129610823;1.21331592615069;-0.2222587321987168;1.44;0.11154612420640096
54:16.5;-0.38200316898445885;1.1604059458451836;-0.18298362043227612;1.0170000000000001;0.08111275028340853
54:16.5;-0.3510901742409341;1.1025322837604852;-0.13876082800026415;1.0170000000000001;0.05371268630281737
54:16.5;-0.32114273189167686;1.042377689402708;-0.09341049241956553;1.0170000000000001;0.03126935091807505
54:16.5;-0.2923033244194968;0.982407281377428;-0.050573852684499744;1.0170000000000001;0.014522833775570402
54:16.5;-0.2647172551942084;0.9247261051204313;-0.013338926505968183;0.963;0.003265248576130492
54:16.6;-0.23861470402297996;0.8710261628451719;0.01599060981574518;0.9079999999999999;0.0033234827480877953
54:16.6;-0.2143468063783254;0.8225893112938553;0.036002331349508;0.861;0.0063479091682516345
54:16.6;-0.1923638213934032;0.7803219476596754;0.04617812464765366;0.84;0.00693160026839173
54:16.6;-0.17314304546980147;0.744804310475874;0.04681436751896681;0.7929999999999999;0.006037072534646035
54:16.6;-0.15708990795540426;0.7163369379727856;0.03888164387111388;0.736;0.004375324309630433
54:16.6;-0.14443920902891785;0.6949706018299063;0.023845080936389665;0.6890000000000001;0.0023935931654918284
54:16.6;-0.1351774505895605;0.6805181006880937;0.003467364816107818;0.662;0.0003189653232848409
54:16.6;-0.12899996172506556;0.6725587376021048;-0.02037902455848952;0.662;0.001768085218350245
54:16.6;-0.12531172530843487;0.6704502672921755;-0.04586243273364051;0.669;0.003853145115118063
54:16.6;-0.12327636747186971;0.6733579269261547;-0.07128559932540571;0.684;0.00591735481448642
54:16.7;-0.12191183658181316;0.6803017994702679;-0.09511746165368827;0.693;0.007888741869906511
54:16.7;-0.12022538299039877;0.690218256095079;-0.1159725050210972;0.7020000000000001;0.009623601903994876
54:16.7;-0.11737679256023201;0.7020302964199662;-0.1325561035307943;0.72;0.010922896589551428
54:16.7;-0.11285743394699013;0.7147227799828569;-0.14359999002477145;0.7509999999999999;0.01158303065006211
54:16.7;-0.10667062595204632;0.7274186159217809;-0.14781407322616044;0.769;0.011469514626147651
54:16.7;-0.09949254126289889;0.7394501355573447;-0.1438777432330534;0.831;0.010585052927219413
54:16.7;-0.092782939766434;0.7504171244278112;-0.1304853116311829;0.831;0.009085158153641831
54:16.7;-0.08880818878268515;0.7602209871459056;-0.106447983499621;0.831;0.007186713078281735
54:16.7;-0.09054296023137237;0.7690664607234172;-0.07084274150562292;0.8190000000000001;0.004933031863912728
54:16.7;-0.10143317961533449;0.7774294741446118;-0.023190202611023503;0.799;0.0018287131348402996
54:16.8;-0.1250269290070941;0.7859975774822965;0.03636040976228039;0.792;0.0035731688579946886
54:16.8;-0.16450643961354255;0.7955928897514528;0.10686075057940041;0.792;0.013985951457642937
54:16.8;-0.22217612095584155;0.8070871369370801;0.1864269104475163;0.797;0.03342923267640324
54:16.8;-0.2989733177654758;0.8213169701710266;0.27215867387279935;0.812;0.06682906845100207
54:16.8;-0.39407209802664656;0.8390070772061938;0.36014325113367734;0.8220000000000001;0.11907390352165437
54:16.8;-0.5046473078037287;0.8607075259447993;0.44557682564214657;1.053;0.19353795879218752
54:16.8;-0.6258465920366123;0.8867457464004007;0.5230298613172941;1.053;0.29026421021154614
54:16.8;-0.7509848949465673;0.9171826846420634;0.5868663618557398;1.053;0.4042278821335939
54:16.8;-0.8719642379380877;0.9517595053971122;0.6318159162682458;1.358;0.5243441880173807
54:16.8;-0.9799395799773302;0.9898342865584369;0.6536646425977174;2.095;0.6340401887076629
54:16.9;-1.0662366983078444;1.0303273142437428;0.6499261074647085;2.06;0.7139911395862343
54:16.9;-1.1234348877240872;1.0717074895866867;0.6202462471934675;2.023;0.7467725016476923
54:16.9;-1.1464105510472065;1.1120525691688004;0.5663675644068837;2.312;0.7220443364094918
54:16.9;-1.1330872575178919;1.1491890924196897;0.49171526102323937;2.131;0.6402779388170696
54:16.9;-1.0846841378526855;1.180881871552495;0.40081825240286567;1.839;0.5134016201758901
54:16.9;-1.005381359704931;1.205043950296022;0.29873379080704915;1.432;0.3619245687664056
54:16.9;-0.901507375706235;1.2199622160789303;0.19056027730665928;1.432;0.2095791335641594
54:16.9;-0.7805250435321769;1.2245234929445872;0.08109868431916267;1.432;0.07751179109891825
54:16.9;-0.6501209982513614;1.2183942116662196;-0.02530191947162249;1.432;0.02004174304764837
54:16.9;-0.5175584825154562;1.2021071424424101;-0.12474254966996046;1.409;0.07760991806790607
54:17.0;-0.38928790924427215;1.1770337199557883;-0.2137097700131748;1.294;0.09792288430370347
54:17.0;-0.2707458563291066;1.145241107808577;-0.2890800774134198;1.091;0.08963485274855078
54:17.0;-0.16627922489615246;1.1092580566588692;-0.348305300934853;1.306;0.06424371802533717
54:17.0;-0.07913614732723684;1.071801899122715;-0.38977497653601867;1.545;0.033060040366290934
54:17.0;-0.011467916838998561;1.0355153093721943;-0.4131821539781258;1.3559999999999999;0.004906622141800237
54:17.0;0.03568434457441569;1.0027253990187524;-0.4196476711192904;0.8490000000000001;0.015015664543280426
54:17.0;0.06239715855468678;0.9752248298200351;-0.4114891993557563;0.8490000000000001;0.025039635571132833
54:17.0;0.06981921058952606;0.9541042858338612;-0.3917580215419877;0.8490000000000001;0.02609688540981104
54:17.0;0.060038880611884754;0.9396848714833438;-0.3637873071596837;1.014;0.020524016897985723
54:17.0;0.03586478663025889;0.9315702080281125;-0.3309063526473055;1.147;0.011055768780485887
54:17.1;0.0005509554673553346;0.9287883657572934;-0.2962947988770606;1.097;0.0001516202791109431
54:17.1;-0.04248612175326094;0.9299672088486818;-0.26284461394546993;0.94;0.010385174704428938
54:17.1;-0.08991848902794748;0.9334990791678272;-0.23293331694202188;0.9209999999999999;0.019552149325258096
54:17.1;-0.13870907950190514;0.9376847011479876;-0.2081438981247976;0.9670000000000001;0.02707231557046157
54:17.1;-0.18626870860482647;0.9408690158514759;-0.18907629030318823;1.02;0.033136462503376464
54:17.1;-0.2305733700629549;0.9415770442633289;-0.1753851027045412;1.0979999999999999;0.038076560442645534
54:17.1;-0.2702353580314527;0.9386402774929241;-0.1660585942650815;1.0979999999999999;0.04212139203836826
54:17.1;-0.30451188463505463;0.9312961738560582;-0.15982357397937325;1.0979999999999999;0.04532448770064389
54:17.1;-0.33324170518752605;0.919248361380379;-0.1555157767027286;1.0979999999999999;0.0476394420256778
54:17.1;-0.35671979047017305;0.9026814390556478;-0.15230374863469426;1.023;0.049042467114546996
54:17.2;-0.37553684268597415;0.8822281656199219;-0.1497320454533996;0.93;0.04960760117576156
54:17.2;-0.390417168600328;0.8588946464640144;-0.14761384625750149;0.893;0.0494989401083527
54:17.2;-0.4020856933551657;0.8339605078004061;-0.1458526772738691;0.9059999999999999;0.04890784321015493
54:17.2;-0.4111820397694823;0.8088748500819026;-0.14429125184359945;0.946;0.04799052160339697
54:17.2;-0.41822098020332416;0.7851571340466128;-0.14264956164207387;0.9640000000000001;0.04684172047027824
54:17.2;-0.4235861585119421;0.7642941524393443;-0.1405479251256564;0.826;0.045501607064892605
54:17.2;-0.4275432658683094;0.7476217719957143;-0.13756925862609254;0.826;0.043972727802120457
54:17.2;-0.43026375219116675;0.7361997968795103;-0.1333226742203434;0.826;0.04223130188080937
54:17.2;-0.43185456473886286;0.7307055494024084;-0.12749948884750845;0.826;0.04023355089262741
54:17.2;-0.4323923958738228;0.7313659729783357;-0.11992670064594324;0.823;0.03792527026392054
54:17.3;-0.43196147159246306;0.7379331777670578;-0.11061854886566151;0.833;0.0352606249877416
54:17.3;-0.4306910912532535;0.7497038231606616;-0.0998183530664091;0.848;0.0322304236553566
54:17.3;-0.4287863184559076;0.7655847461267047;-0.08801744252743725;0.87;0.028893685196659916
54:17.3;-0.42654651878453675;0.7842045880089247;-0.07593793403175904;0.9059999999999999;0.0254012189642301
54:17.3;-0.4243704461630783;0.8040633085812493;-0.06447241462601754;0.925;0.021999322772127926
54:17.3;-0.42274919638051;0.8237035854823223;-0.05458287646413047;1.006;0.019006850815330486
54:17.3;-0.422248712323648;0.8418816149117454;-0.047171225663453234;1.006;0.01676858899357162
54:17.3;-0.42348297901941057;0.8577104776678036;-0.04294321078508533;1.006;0.01559808158606398
54:17.3;-0.42707841496994076;0.8707531328782685;-0.042290109211189295;1.013;0.015726840223540338
54:17.3;-0.43363018615823284;0.881055961284848;-0.04520561708932744;1.01;0.017270917237749615
54:17.4;-0.44365255078593363;0.8891273804272039;-0.05124907524190661;1.0170000000000001;0.02021589626944772
54:17.4;-0.4575261564824955;0.8958715986804442;-0.05956597821091501;1.018;0.024415182468620407
54:17.4;-0.475444253261059;0.9024883374313843;-0.0689750123020468;1.008;0.02959599786927083
54:17.4;-0.49735946490174915;0.9103500260095407;-0.07812244051177591;1.013;0.035371591278800026
54:17.4;-0.5229360843299987;0.9208687155283652;-0.08569474820476647;1.032;0.04126677562925416
54:17.4;-0.5515170476831621;0.9353635845041277;-0.09067219639656282;1.126;0.046774971895027634
54:17.4;-0.5821127866437571;0.954935482399955;-0.09259062744504462;1.126;0.05146929231022126
54:17.4;-0.613411741673912;0.9803509265848976;-0.09175459473274228;1.126;0.05517743016867822
54:17.4;-0.6438111597153414;1.0119398642836233;-0.08933434283692074;1.126;0.0582011615541526
54:17.4;-0.6714772147078405;1.0495186630557984;-0.08729720418537257;1.2329999999999999;0.061520772644888796
54:17.5;-0.6944532512537395;1.092351519335197;-0.0881497775324746;1.317;0.06686928094068768
54:17.5;-0.7108297251390642;1.1391512703270799;-0.09448985333309971;1.347;0.07651245803548146
54:17.5;-0.7189683697756947;1.1881063603151156;-0.10841646430191107;1.4180000000000001;0.0926105247867928
54:17.5;-0.7177453928516345;1.2369267287409393;-0.13092912232999415;1.4809999999999999;0.11623867328485996
54:17.5;-0.7067547786497349;1.2829257605686377;-0.16150055236817493;1.514;0.14643479761736766
54:17.5;-0.686406456872557;1.323169022126735;-0.1979712385155464;1.5619999999999998;0.17980376645000978
54:17.5;-0.6578818046250625;1.3547021010102627;-0.23680165263522712;1.5619999999999998;0.21104565162914196
54:17.5;-0.6229635899152588;1.3748323995223588;-0.27359646043745395;1.5619999999999998;0.2343273046940277
54:17.5;-0.5837936099432364;1.3814185666675052;-0.3037610670711195;1.665;0.2449721622448198
54:17.5;-0.5426047215948814;1.3731270505708273;-0.3231779462663268;1.715;0.24078864795381616
54:17.6;-0.5014598444183905;1.3496211460454317;-0.3288224232480471;1.7009999999999998;0.22254070592557568
54:17.6;-0.4620348945747813;1.3116439834350526;-0.31922812308466203;1.614;0.1934603157427815
54:17.6;-0.42548305279811083;1.2609655305916223;-0.2947088515250786;1.449;0.15811703488810427
54:17.6;-0.3923979609407919;1.2001925764501642;-0.25728835774570447;1.286;0.12117075475191658
54:17.6;-0.3628679967731361;1.1324729711835557;-0.21035923035932028;1.157;0.08644464315183938
54:17.6;-0.33659696603467865;1.0611473412082908;-0.15815124472748407;0.9229999999999999;0.056488299576325895
54:17.6;-0.31306005332770087;0.9894129943992089;-0.1051266997372109;0.9229999999999999;0.03256254159978741
54:17.6;-0.29166577557035944;0.9200654856780247;-0.055429876460859485;0.9229999999999999;0.01487469678192734
54:17.6;-0.271900296460005;0.8553609796600137;-0.012486493556125307;0.9229999999999999;0.0029040200664995023
54:17.6;-0.25343438444123395;0.7969971140246106;0.021213696376722983;0.8740000000000001;0.004284879710305539
54:17.7;-0.23617718654866057;0.7461714584053877;0.0441730457577805;0.8420000000000001;0.0077845573568143915
54:17.7;-0.2202700907918504;0.7036678433467527;0.055826927886903424;0.7859999999999999;0.008653005210705094
54:17.7;-0.2060267192640839;0.6699330861746629;0.05641750256986915;0.722;0.0077869759118576725
54:17.7;-0.19383461110195932;0.645124439284952;0.04683982552863643;0.6729999999999999;0.005857200497288515
54:17.7;-0.18403723614169468;0.6291256263008094;0.028484590887402378;0.635;0.003298018325115891
54:17.7;-0.17681503995360753;0.6215426225724585;0.0030865818752809616;0.606;0.00033920943310065434
54:17.7;-0.17208632295144502;0.6216957496122163;-0.027415882402385794;0.606;0.0029330973780899642
54:17.7;-0.16945201893087228;0.62862347623597;-0.06099593571633028;0.606;0.006497379615264418
54:17.7;-0.16820578241987774;0.6411092153745682;-0.09560883184614251;0.633;0.010310291710309559
54:17.7;-0.16741931963778997;0.6577372569462283;-0.1292129498234915;0.677;0.014228661796020406
54:17.8;-0.16609766711765947;0.6769776260344916;-0.15975397518853315;0.721;0.01796344058664195
54:17.8;-0.16338510411108506;0.6972920545165547;-0.1851351007147013;0.764;0.021091911598110615
54:17.8;-0.158791600175543;0.7172472377270591;-0.20320020494716343;0.782;0.023143047739167893
54:17.8;-0.15240390066664755;0.7356210880169675;-0.2117574890837932;0.818;0.023740454655787988
54:17.8;-0.14504483744137286;0.7514921597759369;-0.20866698623795366;0.8440000000000001;0.022744713634583042
54:17.8;-0.13834801480224004;0.7643066661450757;-0.19200517221572053;0.875;0.020302686424261092
54:17.8;-0.13472311103358603;0.7739186593661399;-0.16029913071460675;0.875;0.01671354549931642
54:17.8;-0.13719965608248888;0.7805991384820716;-0.11279520652788193;0.875;0.012080133509572126
54:17.8;-0.14914968309386498;0.7850121463325848;-0.04971002284936279;0.84;0.005820263867092331
54:17.8;-0.17390013210650473;0.7881604272638458;0.027584543817926906;0.812;0.003780770743955739
54:17.9;-0.2142611908256706;0.7913071933011089;0.11647317718906429;0.8079999999999999;0.019747610398454168
54:17.9;-0.2720201232436589;0.7958812388093556;0.21311673483090895;0.8170000000000001;0.046138859388745276
54:17.9;-0.34747309038208635;0.803370028816387;0.3125789760235672;0.8270000000000001;0.08725625443772303
54:17.9;-0.43908038753090406;0.8152025557843638;0.40906342085046177;0.8320000000000001;0.14641993755557609
54:17.9;-0.5433280182003354;0.8326238707406897;0.4962827585728423;0.878;0.22451230383817242
54:17.9;-0.6548527580779049;0.8565657305531876;0.5679970631632612;1.508;0.3186034295370966
54:17.9;-0.7668318723812473;0.8875209623536499;0.61870999716721;1.508;0.42108125472627256
54:17.9;-0.8715763001078994;0.9254344927782642;0.6443905701737809;1.508;0.5197569093932941
54:17.9;-0.9612491660307902;0.9696328370979987;0.6430000199155301;1.8980000000000001;0.5993137986810668
54:17.9;-1.0286543872970455;1.0188203002181206;0.6146455795378298;1.723;0.6441571549910917
54:18.0;-1.0680330806620928;1.0711596033098756;0.5613212158838683;1.8219999999999998;0.6421704947106236
54:18.0;-1.075762304991432;1.1244184734267557;0.4863664767140705;1.964;0.5883122990536606
54:18.0;-1.0508313461774852;1.176129794353588;0.39389065384107325;1.94;0.4868149952468451
54:18.0;-0.9949877244469284;1.2237284494620753;0.2883529555252322;1.74;0.3510970549650721
54:18.0;-0.9124867777696675;1.2646828496774876;0.17432197466232013;1.555;0.20116867065608374
54:18.0;-0.8094641800948965;1.2966647165452856;0.05635995356700328;1.4969999999999999;0.059155612506380045
54:18.0;-0.6930714783643541;1.3177661475903437;-0.0609955204420888;1.4969999999999999;0.05570758284727612
54:18.0;-0.570597758132005;1.3267194611058402;-0.17319176322289015;1.4969999999999999;0.1311101741797177
54:18.0;-0.44877211970070735;1.3230565628306548;-0.27567443676799486;1.406;0.1636819444377636
54:18.0;-0.3333205982354772;1.3071733343027598;-0.36409505465410236;1.449;0.15863905444857077
54:18.1;-0.2287410986504598;1.280306656904717;-0.4347735080780022;1.88;0.12732722667834073
54:18.1;-0.13822523259070904;1.2444418675799804;-0.48529422666028005;1.879;0.08347704518600486
54:18.1;-0.06367314810892394;1.20214246467407;-0.51494574858933;1.4;0.03941610789805947
54:18.1;-0.00577478813305983;1.156282753795547;-0.5247404428326375;1.014;0.003503843022727642
54:18.1;0.03584653988171391;1.109707657754751;-0.5170030711084971;0.9179999999999999;0.020565958128334363
54:18.1;0.06241818763530057;1.0649029434521786;-0.49478609693148506;1.111;0.03288809132045928
54:18.1;0.07572970382375249;1.0237650677549706;-0.46141599903615554;1.111;0.035773317260038615
54:18.1;0.0778126972890631;0.9875075942598001;-0.4202792290339371;1.111;0.03229452052591447
54:18.1;0.07066244217862626;0.9566837597920561;-0.3747409272864491;1.111;0.02533309033956056
54:18.1;0.05606099405705735;0.931281126146191;-0.3280407259530462;1.006;0.017126529225272566
54:18.2;0.035518944570814344;0.9108488703197936;-0.28309010974831694;0.9329999999999999;0.00915864178781833
54:18.2;0.010313133196084992;0.8946313532607598;-0.24219515001453462;0.894;0.0022346020007343453
54:18.2;-0.018430098164714612;0.881695514765939;-0.2068042336751712;0.8809999999999999;0.0033605139710460724
54:18.2;-0.04966524980890929;0.8710516303127448;-0.17740491243396986;0.9009999999999999;0.0076747133519381155
54:18.2;-0.08241144135110216;0.8617702041356198;-0.1536413371771553;0.983;0.010911565459066805
54:18.2;-0.11578924542984556;0.8530899469487941;-0.1346192176785678;0.971;0.013297503407213699
54:18.2;-0.1490737548944668;0.8445023854522036;-0.11927869472520237;0.971;0.015016369606894352
54:18.2;-0.18171851633001515;0.8357979086537274;-0.10670155123381764;0.971;0.01620582689716463
54:18.2;-0.21332688198719724;0.8270645307717407;-0.09626959031676213;0.852;0.016985334558803952
54:18.3;-0.24357950421216362;0.8186395652041941;-0.08766391967984487;0.8170000000000001;0.017480520409567962
54:18.3;-0.27214732482848053;0.8110261370771672;-0.0807639209734079;0.83;0.017826099048572592
54:18.3;-0.2986209622546827;0.8047959920272229;-0.07553918308481712;0.847;0.018154252823391302
54:18.3;-0.32247658490301495;0.8004973993900697;-0.07199576332249077;0.836;0.018585106402694694
54:18.3;-0.3430884259184035;0.7985755390617113;-0.07016877747267647;0.8320000000000001;0.01922498372083681
54:18.3;-0.35979492186453116;0.7993068659312258;-0.07011566171870946;0.807;0.020164321350955194
54:18.3;-0.37201995164517543;0.8027527477516643;-0.07188036217526242;0.924;0.021466354120341705
54:18.3;-0.3794315084792102;0.8087416858920236;-0.07543412565642009;0.924;0.02314787253957847
54:18.3;-0.38209449451980754;0.8168855105990586;-0.08061938117796841;0.924;0.02516352237176238
54:18.3;-0.38056591094531644;0.8266273485537967;-0.08712269475897538;0.9520000000000001;0.027407596599326355
54:18.4;-0.37589897008490486;0.8373151939745992;-0.09448998785990276;0.976;0.029740338070129622
54:18.4;-0.36955046569440153;0.848291475021898;-0.10217983597998224;0.987;0.03203200013684332
54:18.4;-0.3632074657897671;0.8589821701634417;-0.10963277896784782;0.971;0.034204192264113954
54:18.4;-0.358565345332326;0.8689655288798701;-0.11632491799316877;0.945;0.036244625542427654
54:18.4;-0.35710046092475933;0.8780069112713387;-0.12178364996195896;0.9129999999999999;0.03818364039956646
54:18.4;-0.35988425351645414;0.8860592473775014;-0.12556896548911436;0.9059999999999999;0.040041277367529673
54:18.4;-0.3674780956522694;0.8932399879242865;-0.12724480118671477;0.971;0.04176761351689555
54:18.4;-0.37992540234204986;0.8997992769456249;-0.12636622372683964;0.971;0.04319912789134877
54:18.4;-0.396824730036044;0.9060902957802537;-0.12249626151025748;0.971;0.044044637826109914
54:18.4;-0.4174482175894664;0.9125470861081271;-0.11525547962467483;1.014;0.04390555547785515
54:18.5;-0.44087500857132494;0.9196721486427875;-0.10440130486185115;1.06;0.04233060176369362
54:18.5;-0.4661190256320141;0.9280334592934006;-0.08992841926674909;1.095;0.03890070069416411
54:18.5;-0.49223043630323365;0.938265240526843;-0.07217674305555964;1.114;0.03333430251883924
54:18.5;-0.5183522170659168;0.9510615523425422;-0.05193370489679613;1.125;0.025602530457139675
54:18.5;-0.5437255122551037;0.9671512339077761;-0.030519185196345618;1.145;0.01604896522202304
54:18.5;-0.5676520923330569;0.9872474842546619;-0.009832637094206773;1.17;0.005510338636001785
54:18.5;-0.5894318435448397;1.0119717243705566;0.007678464154772485;1.159;0.004580114484172775
54:18.5;-0.6082980469762461;1.0417560039380567;0.019175929924126568;1.159;0.012151751175955183
54:18.5;-0.6233753250354771;1.0767318272299737;0.02173274791465598;1.159;0.014587195409257658
54:18.5;-0.6336837864549776;1.116618496979061;0.012757785001821972;1.24;0.009027192259423536
54:18.6;-0.6382043584650211;1.1606289910807939;-0.009507821872279108;1.305;0.007042619371702481
54:18.6;-0.6360029807296226;1.207411255700561;-0.04550651937500578;1.351;0.03494523701036214
54:18.6;-0.6263906811020928;1.2550395213546564;-0.09401001303005488;1.391;0.07390550738970965
54:18.6;-0.6090809576977256;1.3010695445183438;-0.15200719422877587;1.412;0.12045911711408078
54:18.6;-0.5843001854409763;1.3426718923571006;-0.214893748543608;1.464;0.16858918191587188
54:18.6;-0.5528135447884338;1.3768507609667469;-0.2769534678237375;1.548;0.21080084711660318
54:18.6;-0.5158506918714788;1.400737083044836;-0.33205887912246823;1.716;0.23993618057280294
54:18.6;-0.474950348388161;1.41191690536285;-0.3744696160688296;1.716;0.25111573940005877
54:18.6;-0.43177546442122516;1.408734537552279;-0.39958199240405956;1.716;0.24304854762901335
54:18.6;-0.3879528333057085;1.3905122283213915;-0.40450295329889874;1.716;0.21821039587008267
54:18.7;-0.3449582376749992;1.3576508919725816;-0.3883814260556127;1.6280000000000001;0.1818917836753779
54:18.7;-0.3040363053779703;1.3116002507553755;-0.35248592978828847;1.4980000000000002;0.14056225743036763
54:18.7;-0.26614428098900605;1.2547053810095674;-0.3000393527912641;1.3619999999999999;0.10019293962687202
54:18.7;-0.23192860715445598;1.1899555467216327;-0.23582659126391817;1.209;0.06508453871269534
54:18.7;-0.20175055461844643;1.1206759752378566;-0.1656087166183275;1.085;0.03744363392702914
54:18.7;-0.17575842637299868;1.0502068324142375;-0.09542124654383416;1.005;0.017613111346497314
54:18.7;-0.1539751326858461;0.9816110221854839;-0.03088231332494289;0.867;0.00466766671096943
54:18.7;-0.1363614149633252;0.9174494544358348;0.02335878909609765;0.867;0.0029222944368753273
54:18.7;-0.12283584368179369;0.8596528169795316;0.06395961918262143;0.867;0.006753891398993149
54:18.7;-0.11325718230647998;0.8094948757079866;0.08901226314590942;0.843;0.00816074297437895
54:18.8;-0.10738128219373982;0.76764286581566;0.09800734433539929;0.8009999999999999;0.008078791966476907
54:18.8;-0.10480398621372594;0.7342456149363754;0.09168867871526;0.752;0.007055615037893195
54:18.8;-0.10490593103156107;0.7090271936496076;0.07184590669059811;0.708;0.005343981728334171
54:18.8;-0.10681841079855228;0.691372402462714;0.04108020856350364;0.6779999999999999;0.0030338268601330437
54:18.8;-0.10942728701650854;0.680406105775044;0.0025637316009620285;0.6709999999999999;0.00019088262154261807
54:18.8;-0.11142892929128297;0.6750744550808121;-0.04019732536896073;0.684;0.0030237563203071704
54:18.8;-0.11144788913442494;0.6742328645803253;-0.08358865419128952;0.7290000000000001;0.006281004404931683
54:18.8;-0.10821429888144453;0.6767379233552112;-0.12409097407289899;0.7290000000000001;0.009087519546692737
54:18.8;-0.10078188179987886;0.6815345290465012;-0.15844434996793988;0.7290000000000001;0.010882961280703436
54:18.8;-0.08875746138436348;0.6877295968487961;-0.1837647432377375;0.74;0.011217208157528902
54:18.9;-0.07251406560513651;0.6946482009017606;-0.19762264638059532;0.753;0.009954601544191895
54:18.9;-0.053360284297498436;0.7018719079430331;-0.1981098828808011;0.7609999999999999;0.007419628083499214
54:18.9;-0.033632102802096095;0.7092603695578973;-0.1839216882521776;0.773;0.004387252807901436
54:18.9;-0.016669661430630995;0.7169574511676968;-0.15446675343056684;0.792;0.0018460998222278172
54:18.9;-0.006649262505479719;0.7253824290322572;-0.10999476218613005;0.8009999999999999;0.0005305331372961463
54:18.9;-0.008259064737138147;0.7352040871907867;-0.05170794131907576;0.805;0.00031397569488164005
54:18.9;-0.02623090418839433;0.7472923537305934;0.01818770117669107;0.787;0.0003565181217618324
54:18.9;-0.06476772521001568;0.7626413152815744;0.09652049507587535;0.787;0.00476758575810885
54:18.9;-0.12692961340903786;0.7822604906496545;0.17927455244654683;0.787;0.01780053274520541
54:18.9;-0.21405167258454247;0.8070377270384691;0.2617713402889252;0.816;0.045220416675198355
54:19.0;-0.32526461461936623;0.837585008397234;0.3389052043241426;0.83;0.09233023749664614
54:19.0;-0.45718494427779466;0.8740854784968248;0.4054445813484729;0.851;0.16202324494590278
54:19.0;-0.6038388846930827;0.9161651101508073;0.4564111241228745;0.9009999999999999;0.252493990439929
54:19.0;-0.7568766582801086;0.9628151513754131;0.4875490363983988;1.044;0.35529273763639957
54:19.0;-0.9061188421731005;1.0123906247542247;0.49588250572832976;1.62;0.45489594255560917
54:19.0;-1.0404466161578336;1.0627069281555666;0.4802711140081956;2.369;0.5310308851370523
54:19.0;-1.1489798376621314;1.1112488992771863;0.4417247988932815;2.227;0.563995362829978
54:19.0;-1.2223760651635078;1.1554760126864567;0.3832277005408842;2.227;0.5412808531558198
54:19.0;-1.2539935647172784;1.193149611002474;0.30908527874481523;2.227;0.46245399181100283
54:19.0;-1.2406803146582823;1.2225780223719926;0.22410061544884646;2.082;0.3399221971288265
54:19.1;-1.183070753239214;1.242723080984338;0.1328827001901596;1.8969999999999998;0.19536804346688502
54:19.1;-1.0853966908418031;1.2531949219786533;0.03939884684807421;1.726;0.05359084814608117
54:19.1;-0.954897461589582;1.2542027824889952;-0.05322404067445669;1.5530000000000002;0.0637429767909168
54:19.1;-0.800959710258306;1.2465104936366045;-0.14265574573793824;1.496;0.14242816471818068
54:19.1;-0.6341303602377586;1.2314023261481368;-0.22711344168777833;1.4880000000000002;0.17734598251932623
54:19.1;-0.4651177150750837;1.2106293969084156;-0.3050146885533462;1.4340000000000002;0.17174925046898312
54:19.1;-0.3038516572159117;1.1862927613506828;-0.37469320609203677;1.186;0.13506079703659435
54:19.1;-0.15866693619498093;1.1606419389528704;-0.43430603344651575;1.186;0.07997984494781005
54:19.1;-0.03570625389123706;1.1358216753466774;-0.4819420142575892;1.186;0.019545610023354785
54:19.1;0.061361679138502656;1.113634181347701;-0.5158406662060616;1.186;0.0352496950804833
54:19.2;0.13128912054845704;1.0953647201214074;-0.5346379584897685;1.17;0.07688600187174388
54:19.2;0.1749275419147421;1.081680344491722;-0.537615683136714;1.22;0.10172531910601017
54:19.2;0.19474150048652494;1.0725972454649215;-0.5249441911107104;1.304;0.10964992110878474
54:19.2;0.19426320139807202;1.067515502437029;-0.49786811050490115;1.315;0.10324738045581291
54:19.2;0.17757625833200044;1.0653192206527988;-0.4587479689553829;1.224;0.0867838310459399
54:19.2;0.14888455914090568;1.0645315277909995;-0.410889653701328;1.084;0.06512284922250917
54:19.2;0.11218232633633288;1.0635047293347994;-0.3581802170546978;1.159;0.042733204643367474
54:19.2;0.0710156774584662;1.0606201566478117;-0.3046409678536929;1.159;0.022945758442042663
54:19.2;0.02832467580469133;1.0544694327550619;-0.25401806648886566;1.159;0.007586885827444383
54:19.2;-0.01363841644685961;1.0439907099539003;-0.20945804107980803;1.104;0.002982343197403342
54:19.3;-0.05332245787022037;1.0285440363835603;-0.17325440242451207;1.043;0.009502050389022769
54:19.3;-0.0898362954544856;1.0079275768346179;-0.14666056067416378;1.005;0.013279890784750788
54:19.3;-0.1228655045408937;0.9823522396818888;-0.12980880959851196;0.986;0.01566756031669284
54:19.3;-0.15255625190584066;0.9523975120768117;-0.12178469752764806;1.003;0.017694609562208398
54:19.3;-0.1793756496078871;0.9189633132163728;-0.12085431024834298;0.977;0.01992158114775393
54:19.3;-0.20395823258635112;0.8832185826425069;-0.12477840502520862;0.93;0.02247754458537359
54:19.3;-0.22695019119375703;0.8465393967304682;-0.1311363582978382;0.845;0.02519421587707144
54:19.3;-0.24886761908299743;0.810434238747011;-0.13762047471891095;0.845;0.02775678906747872
54:19.3;-0.26998657716870206;0.7764646391536846;-0.14229348237858994;0.845;0.029829698478208166
54:19.3;-0.2902798276564284;0.7461699473783097;-0.1438046240092574;0.884;0.031147805991541818
54:19.4;-0.3094113707915408;0.7209917725766872;-0.14154615177444269;0.863;0.03157654763328554
54:19.4;-0.32679410812451437;0.7021833477848152;-0.13571521330125622;0.7959999999999999;0.03114248597213114
54:19.4;-0.34170596477186366;0.690696338664124;-0.12724304095516206;0.728;0.030031273788803048
54:19.4;-0.35344803125699925;0.6870581268000491;-0.11758532037321981;0.7120000000000001;0.028554341860815888
54:19.4;-0.36151610005407186;0.6912727578686264;-0.10842338640650998;0.736;0.027095679903133673
54:19.4;-0.3657463183182267;0.7027870405423122;-0.10136215690796187;0.785;0.026054308490247795
54:19.4;-0.36639501791894175;0.7205513314919988;-0.09769780024974806;0.897;0.025792846291737167
54:19.4;-0.3641312762110276;0.7431699376850375;-0.09827927208471698;0.897;0.026595493164201855
54:19.4;-0.3599524520785156;0.7690956923600261;-0.10344464568281708;0.897;0.02863739644418253
54:19.4;-0.3550541376602848;0.7968105359954282;-0.11300303845297772;0.9059999999999999;0.03196978879562182
54:19.5;-0.3506840846575093;0.8249581693975039;-0.12624756739149642;0.907;0.036523383437220586
54:19.5;-0.3480006462863499;0.8524257948641059;-0.14200164737407614;0.919;0.04212403999322269
54:19.5;-0.3479549421573396;0.8783850901881681;-0.15870782567165825;0.9470000000000001;0.04850721118252893
54:19.5;-0.35121565030081053;0.9023031585267978;-0.1745634661509851;0.981;0.055319684471084526
54:19.5;-0.35814747696546284;0.9239322676589309;-0.18769414493619005;1.028;0.06210874531595522
54:19.5;-0.36884110851480295;0.9432844515285197;-0.19634067938327068;1.065;0.06831125809890154
54:19.5;-0.3831794834242793;0.9605943769875728;-0.19902747621387998;1.0759999999999998;0.07325804482009407
54:19.5;-0.4009171434682123;0.9762728815012743;-0.1946852505935452;1.091;0.07620068995986688
54:19.5;-0.42174861714309514;0.9908540903920743;-0.18272295436824054;1.091;0.07635834069069318
54:19.5;-0.4453474236129388;1.0049397590216675;-0.16307116421165058;1.114;0.07298206456143909
54:19.6;-0.4713665097636078;1.0191448716584026;-0.13622897990297908;1.147;0.06544314333907383
54:19.6;-0.4994000343064998;1.0340476926437858;-0.10332858747042424;1.172;0.05335923938202799
54:19.6;-0.5289138428474097;1.0501443867189812;-0.06620152746060112;1.169;0.0367707051932787
54:19.6;-0.5591605766711704;1.0678060669236071;-0.027406890506579375;1.155;0.016363970688221822
54:19.6;-0.5891066386182011;1.0872397552635558;0.00983092903976196;1.173;0.006296711599276621
54:19.6;-0.6174074688703448;1.1084611893194918;0.04182676448011994;1.2229999999999999;0.028625075547183073
54:19.6;-0.6424648957963659;1.1312859623302955;0.06480764388338194;1.3940000000000001;0.04710294202269023
54:19.6;-0.6625746554801799;1.1553341725216297;0.07541893897341041;1.3940000000000001;0.05773283134788133
54:19.6;-0.6761305704058722;1.180035942743455;0.07125820668499513;1.3940000000000001;0.05685395699584755
54:19.6;-0.6818288456301607;1.2046314582453799;0.05130972466890099;1.432;0.04214336942970782
54:19.7;-0.6788293916788772;1.2281725432851989;0.016192548794732607;1.4340000000000002;0.013500045635019541
54:19.7;-0.6668543612192773;1.2495407808896926;-0.031814390644967015;1.411;0.026509713845959168
54:19.7;-0.6462144994860637;1.2674972488661618;-0.08897464820042666;1.411;0.07287691889678714
54:19.7;-0.6177626298763305;1.280772626267221;-0.15049399770969468;1.4709999999999999;0.11907287752149051
54:19.7;-0.5827903445255155;1.2881913586107385;-0.2110459490785134;1.507;0.15844179354586982
54:19.7;-0.54289680065457;1.288802599500846;-0.2653379342971217;1.521;0.18565345227488814
54:19.7;-0.4998557886130626;1.2819794852195978;-0.30865737513021896;1.4480000000000002;0.19778914808623127
54:19.7;-0.45549551515842895;1.2674623105253535;-0.33735699578147943;1.4480000000000002;0.19476408716948992
54:19.7;-0.4115962722013216;1.2453523235119452;-0.3492293110529224;1.4480000000000002;0.1790087893071115
54:19.7;-0.3698028953309033;1.2160816310293416;-0.3437133781086588;1.382;0.15457151791461052
54:19.8;-0.3315406829774756;1.1803775805080394;-0.3219000968784821;1.301;0.1259734105203781
54:19.8;-0.29792704707888945;1.1392254270334252;-0.2863372109769903;1.226;0.09718458673750659
54:19.8;-0.2696899074668361;1.093827077795831;-0.24066289822823422;1.151;0.07099414069665294
54:19.8;-0.24712146445141084;1.0455514106674044;-0.1891221586981973;1.078;0.04886504214331346
54:19.8;-0.23009504065503728;0.9958698422206683;-0.13604445534699472;1.0270000000000001;0.031173867516949606
54:19.8;-0.21814832381890195;0.9462749578089777;-0.08537341572988247;0.983;0.017623488725804156
54:19.8;-0.21060272505509936;0.898189812873198;-0.04032707762429892;0.856;0.007628319291482226
54:19.8;-0.2066747857189984;0.8528842591204014;-0.003224833195026624;0.856;0.0005684402879193695
54:19.8;-0.2055534145200242;0.8114161535756804;0.02453800702192744;0.856;0.004092678510521973
54:19.8;-0.2064427244296481;0.7746051194899258;0.04242111889153888;0.815;0.006783628623476186
54:19.9;-0.2085800231883938;0.7430298909815002;0.05062593993763456;0.7759999999999999;0.007846068512116078
54:19.9;-0.21123581256751203;0.7170332238043471;0.04996610740372737;0.733;0.007568021305859012
54:19.9;-0.2137009002189371;0.696726651639875;0.04173042526289249;0.701;0.006213289449249123
54:19.9;-0.215268858538978;0.6819988244602668;0.027542220236981402;0.6859999999999999;0.00404355896705981
54:19.9;-0.21522760759687418;0.6725348748668812;0.009224163121820792;0.6829999999999999;0.001335179829016688
54:19.9;-0.21287685181686083;0.6678510315758575;-0.011317928082925647;0.685;0.0016090701194542358
54:19.9;-0.2075842107014896;0.6673434811026308;-0.03218161510599109;0.718;0.00445811816847379
54:19.9;-0.19888271811021702;0.6703457262417944;-0.051521158908344175;0.718;0.006868810185060924
54:19.9;-0.18660053980498162;0.6761854895189555;-0.06757129445623165;0.718;0.008525914661767487
54:19.9;-0.17100583494663404;0.6842327191927081;-0.07865167399690882;0.731;0.009202858353094347
54:20.0;-0.15294642231626157;0.6939348846189821;-0.08316790808350205;0.74;0.00882701410818905
54:20.0;-0.13396015320032384;0.7048408542895006;-0.07962877255731213;0.75;0.007518595592071842
54:20.0;-0.11632656451615435;0.7166169524835003;-0.06669853806299637;0.7659999999999999;0.005560096060644263
54:20.0;-0.10302944923858487;0.729058327760935;-0.04329563180263941;0.77;0.0032521287813237357
54:20.0;-0.09760691476363682;0.7420970241075855;-0.008733378119693184;0.774;0.0006325917725911233
54:20.0;-0.10387891865495284;0.7558068484125702;0.03711956337932659;0.772;0.0029143459382677812
54:20.0;-0.12556097286078657;0.7704043719543343;0.09369146873492883;0.8390000000000001;0.009063030840018395
54:20.0;-0.1657949368280969;0.7862421513727321;0.1595959015290541;0.8390000000000001;0.020804118607773026
54:20.0;-0.22664744936268896;0.8037844090982871;0.23255723195565026;0.8390000000000001;0.042366273302903164
54:20.0;-0.30863665739809737;0.8235547206552845;0.3093675319876679;0.8390000000000001;0.0786347844135891
54:20.1;-0.4103500633751362;0.8460546081002839;0.3858928925976904;0.853;0.13397373955845304
54:20.1;-0.5282180865774614;0.871664403551582;0.45717645296776954;0.884;0.21049725289188584
54:20.1;-0.6565089274588404;0.900545124110922;0.5176899946314591;0.9620000000000001;0.3060665631160553
54:20.1;-0.7876018856262125;0.9325607923084627;0.5617656845175523;1.157;0.41260938923652196
54:20.1;-0.9125714415263066;0.967234901844462;0.5841986525386207;1.656;0.5156551788484419
54:20.1;-1.0220658076179194;1.003747742830637;0.5809282436244544;2.141;0.595972105155118
54:20.1;-1.1073842058275185;1.0409807605499177;0.5495983917785864;2.0540000000000003;0.6335581488782842
54:20.1;-1.1615665305906215;1.0776080476502616;0.489799368710121;2.0540000000000003;0.6130884533280913
54:20.1;-1.180267285840846;1.1122074735539558;0.4029843320803924;2.0540000000000003;0.5289983774187725
54:20.1;-1.1622358644296578;1.1433435963668859;0.29224659279054416;1.909;0.38834748156888244
54:20.2;-1.109332965649361;1.1696019594041378;0.16212247310410086;1.705;0.21035034382074405
54:20.2;-1.0261148027624871;1.1896063588385557;0.01843505180974737;1.4780000000000002;0.022503164361512274
54:20.2;-0.9190948995984927;1.2020697728641614;-0.13188364409709002;1.3659999999999999;0.14570718614435305
54:20.2;-0.7958496284902823;1.2059044645273012;-0.28103248642679235;1.3659999999999999;0.2697121100736527
54:20.2;-0.6641484478306859;1.2003787842521116;-0.42065524178293084;1.359;0.33535885488957606
54:20.2;-0.5312499054304477;1.1852819217417647;-0.5422755974343904;1.3780000000000001;0.3414605910308418
54:20.2;-0.4034308752351371;1.1610511153626768;-0.6379688465707151;1.919;0.2988270751825429
54:20.2;-0.285747699540545;1.1288301214443912;-0.7013354630164955;1.919;0.22622319502809995
54:20.2;-0.18198762255625808;1.0904506002451646;-0.728595559022147;1.919;0.14458870472257032
54:20.2;-0.09474897541725665;1.048336780174944;-0.7194089566360479;1.919;0.07145805413668042
54:20.3;-0.02557485949741709;1.0053248382612612;-0.6770873522200185;1.506;0.017408621003790373
54:20.3;0.024929010723271933;0.964389244275178;-0.6081032381398284;0.91;0.014619574021636467
54:20.3;0.05701967547394211;0.9283026932854078;-0.5210229479533958;0.78;0.027578535710942723
54:20.3;0.07175737964047355;0.8993031583815854;-0.4251670856629972;0.805;0.02743672852438657
54:20.3;0.0709076344156332;0.8788523187677526;-0.3293828809077525;0.799;0.02052626462546168
54:20.3;0.05677372078881557;0.8675304488205174;-0.24119984577488607;0.9440000000000001;0.011879799476245248
54:20.3;0.03197628865637083;0.8650601421808171;-0.1663884465974646;0.8740000000000001;0.004602539508395859
54:20.3;-0.000769597401784394;0.8704208302422974;-0.10876738329229942;0.8740000000000001;7.286039963247283e-05
54:20.3;-0.038833560965869006;0.8820123473665263;-0.07013163760994921;0.8740000000000001;0.0024021264278142177
54:20.3;-0.07978947141878939;0.8978384623943434;-0.05029097398506119;0.91;0.0036027476274286775
54:20.4;-0.1214885103372496;0.9156987336744982;-0.04726328222159167;0.9470000000000001;0.005257892452789611
54:20.4;-0.16210799775838614;0.93338632502738;-0.05765167474426866;1.0090000000000001;0.008723239639175302
54:20.4;-0.2001893749550802;0.9488845623419371;-0.07719448658041435;1.09;0.014663602783869375
54:20.4;-0.23466334999208607;0.960543752683047;-0.1014161887621982;1.159;0.02285965668107329
54:20.4;-0.26485135985835767;0.9672144810353194;-0.12624809536903364;1.16;0.03234073100469381
54:20.4;-0.29043704883502286;0.9683186983951072;-0.1484821127238535;1.077;0.04175845978711808
54:20.4;-0.3114135317675203;0.9638524108954847;-0.16598277187286922;1.028;0.04982083830351352
54:20.4;-0.3280183327589024;0.9543292083386021;-0.17767577440189122;1.028;0.055619175933549606
54:20.4;-0.34066299852708576;0.940684914456553;-0.18339727713039766;1.028;0.058770857539987176
54:20.4;-0.3498583028466126;0.924162107816644;-0.18369188780284063;1.034;0.05939232411513545
54:20.5;-0.3561381924629856;0.9061816180028619;-0.17960491642401588;0.9940000000000001;0.057963155330062716
54:20.5;-0.35999229143298916;0.8881999530730267;-0.17247011080172547;0.92;0.05514647909587917
54:20.5;-0.3618197085171436;0.871556321189567;-0.16368287536738685;0.856;0.05161678160563571
54:20.5;-0.3619142171196111;0.8573268059890549;-0.15447781796060764;0.828;0.04793118577422855
54:20.5;-0.36048429090459055;0.8462150852402608;-0.14576707157965832;0.852;0.04446584359062096
54:20.5;-0.357702427181519;0.8385086630967793;-0.13809186397189802;0.922;0.04141880195826189
54:20.5;-0.3537691501081773;0.8341137117122449;-0.13168260038096966;0.961;0.038857388799345895
54:20.5;-0.3489728689951703;0.8326562730806626;-0.12656629066350913;0.961;0.0367769301087189
54:20.5;-0.3437304416102127;0.8336164092703551;-0.12266046650183136;0.961;0.03514704868523627
54:20.5;-0.3386006219312099;0.8364582565148649;-0.1198328648653056;0.961;0.033939697408747804
54:20.6;-0.3342669700008121;0.8407322930086862;-0.11793240790098997;0.9540000000000001;0.03314243092513291
54:20.6;-0.3314890256940427;0.8461419738692334;-0.11679858390995515;0.935;0.032760458536221206
54:20.6;-0.3310260389702807;0.8525753978832845;-0.1162554791388381;0.9179999999999999;0.03281016271093832
54:20.6;-0.3335467253556805;0.8601065790960454;-0.11610005209196535;0.9159999999999999;0.033307448535799145
54:20.6;-0.3395458779016643;0.8689739143272914;-0.11609413560811299;0.929;0.03425433055526741
54:20.6;-0.3492892650719518;0.8795440402618797;-0.11596481419502488;0.941;0.03562616418756318
54:20.6;-0.3628006183509642;0.8922664949131804;-0.11541394423607175;0.99;0.03736120604068986
54:20.6;-0.37988898170149965;0.9076208657161214;-0.1141382636621118;1.023;0.03935432161745566
54:20.6;-0.400196406465923;0.9260557522508233;-0.11186329025476822;1.023;0.04145700343103319
54:20.6;-0.42323833611253925;0.9479192519414567;-0.10839136526634699;1.023;0.04348615691995433
54:20.7;-0.4484201044937455;0.9733848265742231;-0.10365825016260095;1.0590000000000002;0.04524530507801784
54:20.7;-0.47503151482426337;1.0023817475844448;-0.09778936656133505;1.087;0.04656367032554701
54:20.7;-0.5022313245370471;1.0345407878306965;-0.0911467977761607;1.112;0.047357942915478526
54:20.7;-0.5290332130615212;1.069163664757922;-0.08436000595965178;1.138;0.04771596714676785
54:20.7;-0.554302492521125;1.1052239657398473;-0.07833632046740187;1.165;0.0479910545917836
54:20.7;-0.5767730079850053;1.1414093537528052;-0.07424613342632597;1.204;0.04887876189591315
54:20.7;-0.5950948050594546;1.1762139427230074;-0.07346704802964489;1.416;0.05142390728918609
54:20.7;-0.6079193218610769;1.2080756326638542;-0.077462068571197;1.416;0.056889112934667016
54:20.7;-0.6140178957417732;1.2355280668595663;-0.08757699132619487;1.416;0.06643908849571793
54:20.7;-0.6124199972283282;1.2573257140707415;-0.10476686166959491;1.474;0.08067167890966613
54:20.8;-0.6025548120738394;1.272517200629882;-0.12928714298094476;1.4909999999999999;0.09913238592988341
54:20.8;-0.5843744402728662;1.2804654250892635;-0.1604168234023991;1.464;0.12003529954709034
54:20.8;-0.5584277520532438;1.2808252473677972;-0.19631182668540254;1.415;0.1404117128039651
54:20.8;-0.5258556047620747;1.2734962185263894;-0.23407935550682232;1.389;0.15675712146124954
54:20.8;-0.48829633459055144;1.258571845125112;-0.27009635229945134;1.375;0.16598933895978643
54:20.8;-0.4477135055989546;1.236303662422322;-0.300505778800794;1.355;0.16633290755286279
54:20.8;-0.4061757989177686;1.2070897618700362;-0.3217735506631875;1.3259999999999998;0.1577625627903788
54:20.8;-0.365631157229977;1.1714890796390791;-0.33119545896630204;1.3259999999999998;0.14186191401261294
54:20.8;-0.3277201959455896;1.1302563805868855;-0.3272763410858639;1.3259999999999998;0.12122572340771567
54:20.8;-0.29365880961832247;1.0843852858352945;-0.3099339032410904;1.3030000000000002;0.09869513277874097
54:20.9;-0.26419353317156263;1.0351369478743468;-0.28050333648567594;1.2;0.07671106721526956
54:20.9;-0.2396175896696048;0.9840283279935284;-0.24154036263640608;1.068;0.05695292193914449
54:20.9;-0.21983723875029218;0.9327652154670683;-0.19644646560372195;0.943;0.04028263044382049
54:20.9;-0.204481149679342;0.8831266679655733;-0.14897775843445993;0.883;0.026902814257123563
54:20.9;-0.19303810117827253;0.8368254768561415;-0.10273707820893731;0.845;0.016596065534128797
54:20.9;-0.18499541167387903;0.795374381226464;-0.06075940583767275;0.8009999999999999;0.008940176104411156
54:20.9;-0.17994474864959925;0.7599814692936742;-0.02526704773319325;0.743;0.0034553868875809852
54:20.9;-0.17763202126360217;0.7314873186162795;0.0023923284209491917;0.743;0.0003108485592388696
54:20.9;-0.17794916613886302;0.7103454910606909;0.021669284138595344;0.743;0.0027391142649904874
54:20.9;-0.18088109416909728;0.6966379994501325;0.032664806868310164;0.733;0.004116048006288589
54:21.0;-0.18642251377972244;0.6901106277892844;0.035965292622352076;0.715;0.004627012509635336
54:21.0;-0.19447630583742145;0.6902136334499153;0.032490144278271876;0.695;0.004361158488863052
54:21.0;-0.20474736067157917;0.6961415800239354;0.023363431162064543;0.675;0.003330063465523929
54:21.0;-0.21665190559936998;0.7068763474961245;0.009809607108291377;0.703;0.0015023031467811018
54:21.0;-0.22926741046629412;0.7212426091798864;-0.00693026028503136;0.721;0.001145969997562294
54:21.0;-0.24134864076506463;0.7379820297269839;-0.025659149842537136;0.755;0.004570175805686809
54:21.0;-0.2514274096380393;0.7558441714476876;-0.04525228462262158;0.8640000000000001;0.008599741550349637
54:21.0;-0.2579935474331581;0.7736828869172809;-0.06464755102716467;0.8640000000000001;0.012903986872868685
54:21.0;-0.25972898747691414;0.7905402402336548;-0.08280593048257337;0.8640000000000001;0.01700222838123406
54:21.0;-0.25575462384999126;0.805701683859773;-0.09866102157425709;0.889;0.0203302806289885
54:21.1;-0.24585742013051537;0.8187172240746378;-0.11108035055061233;0.897;0.022359108780432502
54:21.1;-0.23067495144627967;0.8293940817297796;-0.11885966314100083;0.9;0.022740282994862606
54:21.1;-0.211813015636782;0.8377706933884196;-0.12076696751336681;0.9;0.02143018738793196
54:21.1;-0.19186778116574163;0.8440827943459197;-0.11564366210341616;0.9129999999999999;0.018728756233685653
54:21.1;-0.1743278555808494;0.8487308936440231;-0.10255496491371845;0.922;0.015173769724793201
54:21.1;-0.1633447232799234;0.8522524882309761;-0.08096505323790283;0.917;0.011271221723390859
54:21.1;-0.1633791174599432;0.8552943887408799;-0.05090149459981684;0.887;0.00711283448946406
54:21.1;-0.1787520490924735;0.8585766945538996;-0.013077373729049229;0.887;0.0020070151924281823
54:21.1;-0.2131456388631524;0.862842229832425;0.03104422822362526;0.887;0.005709376867202263
54:21.1;-0.2691031889448799;0.8687902982265743;0.0792484549062492;0.872;0.018527832268319836
54:21.2;-0.3475723745270787;0.876998796422991;0.12864013372805608;0.8590000000000001;0.03921215684635995
54:21.2;-0.4475323910389988;0.8878446891867617;0.17580439037386222;0.855;0.06985398578221506
54:21.2;-0.5657519946033351;0.9014394446378777;0.21706235500824222;0.893;0.11069988305172977
54:21.2;-0.6967354896022369;0.9175991731824067;0.2488102186231055;0.9570000000000001;0.15907032161551024
54:21.2;-0.8329203091070821;0.935863869297441;0.267916412855511;1.1159999999999999;0.20884085006261982
54:21.2;-0.9651853338484894;0.9555673422022977;0.27212480713503995;1.7069999999999999;0.25098059647067317
54:21.2;-1.0836911356548273;0.9759466741694328;0.2603479626755578;1.943;0.275350451455109
54:21.2;-1.1789715101850935;0.9962686363545792;0.23270907681221434;1.943;0.27333364460037457
54:21.2;-1.2430668103167681;1.0159364207342119;0.1903181517521773;1.943;0.24034838722261628
54:21.2;-1.2704529486673297;1.0345359492920467;0.13494840511999612;1.97;0.1773666357230598
54:21.3;-1.25861417337161;1.0518051613283352;0.06879845159912602;1.892;0.09107655179750032
54:21.3;-1.2082234792424291;1.067550013584644;-0.005603951530788579;1.7590000000000001;0.007228195191887758
54:21.3;-1.1229542884133001;1.0815543751805787;-0.08541453539833033;1.574;0.10373903873555176
54:21.3;-1.0089831733331882;1.0935242120351827;-0.1674879323936431;1.429;0.18479739644030696
54:21.3;-0.8742794508700162;1.1030858667554384;-0.24844936158403796;1.3519999999999999;0.23960588254654744
54:21.3;-0.727791342540802;1.1098413725413077;-0.32483997946859544;1.2919999999999998;0.2623839524672821
54:21.3;-0.578624770481578;1.1134690528646551;-0.3933551467794264;1.4780000000000002;0.253431158877137
54:21.3;-0.4352950883910843;1.1138404239693889;-0.451181442276292;1.4780000000000002;0.21875499103264456
54:21.3;-0.30512392056226467;1.1111117607493686;-0.49634915714370104;1.4780000000000002;0.1682756548258172
54:21.3;-0.19382444000316126;1.1057503250011842;-0.5279383360016043;1.364;0.11314850309730096
54:21.4;-0.10526415141039046;1.0984723592609127;-0.5460297040198402;1.11;0.06313728403567907
54:21.4;-0.041368719311981786;1.090098451171911;-0.5514381146083728;1.03;0.0248676404500116
54:21.4;-0.0021587006612391307;1.0813656950036563;-0.5453772628024898;1.062;0.0012730985997375442
54:21.4;0.014061984769074571;1.072758001543838;-0.5292098013470949;1.1540000000000001;0.007983186308688163
54:21.4;0.010369698999278585;1.0644074471998362;-0.5043444325431672;1.192;0.005566744462803502
54:21.4;-0.009213903994034347;1.056087202689752;-0.4722281694174409;1.18;0.004595104081775883
54:21.4;-0.0401870281422026;1.0472837178990133;-0.4343417760666201;1.12;0.018280237990519938
54:21.4;-0.07800468062282283;1.0373175775121188;-0.39215488026304135;1.12;0.03173145775809448
54:21.4;-0.11844598149812147;1.0254813647882224;-0.34706508663338265;1.12;0.04215596461823916
54:21.5;-0.1578896345832476;1.011171700398962;-0.3003652935117097;1.135;0.04795437948180567
54:21.5;-0.19349711805013683;0.9940002192646025;-0.25325426941343987;1.107;0.048709958182637444
54:21.5;-0.22331463920794883;0.9738715959231182;-0.20687219967563242;1.078;0.04499052131728856
54:21.5;-0.246302383905933;0.9510207327717282;-0.16233408515333905;1.05;0.03802492079055047
54:21.5;-0.26229583510925647;0.9260074835417862;-0.12074255488717155;1.0070000000000001;0.029326906347355002
54:21.5;-0.2719057900671454;0.8996723531189255;-0.08317311866593599;0.966;0.02034631747192829
54:21.5;-0.2763670865035289;0.8730591391541885;-0.050633111498716535;0.9390000000000001;0.012217000719743704
54:21.5;-0.27734874717203817;0.847312607047718;-0.023998501918219475;0.826;0.0056396741098148195
54:21.5;-0.27674265567757017;0.8235635657487764;-0.003934154851808768;0.826;0.0008966535651863759
54:21.5;-0.2764534975010157;0.8028187144797317;0.009190287090360565;0.826;0.002039711078596099
54:21.6;-0.2782132055768463;0.7858709232756769;0.015370350376207353;0.799;0.0033605683145819763
54:21.6;-0.28343554536483107;0.773235793127204;0.015005001680573872;0.784;0.0032885338116716402
54:21.6;-0.29311671007311385;0.7651135426408032;0.008888028629474106;0.78;0.0019932965335052043
54:21.6;-0.30778134650285294;0.7613767521570961;-0.0018588585762630756;0.789;0.0004356003868175857
54:21.6;-0.327470276451602;0.7615862040707022;-0.01590632798826034;0.8;0.003966988012447257
54:21.6;-0.3517655981626651;0.7650345549288109;-0.03186361495311361;0.8170000000000001;0.008574907843543401
54:21.6;-0.37985007049590763;0.7708151127997043;-0.048413434291818776;0.8320000000000001;0.014175171549304819
54:21.6;-0.4105977448113183;0.7779123302292075;-0.06440800370219608;0.9390000000000001;0.02057249917527769
54:21.6;-0.4426872056483167;0.7853078444103281;-0.07891811453844035;0.9390000000000001;0.0274355459505538
54:21.6;-0.474719293035298;0.7920901219008076;-0.09124479572161105;0.9390000000000001;0.034309910305202966
54:21.7;-0.5053207390818248;0.7975534789534585;-0.1009114913027839;0.98;0.0406693808547519
54:21.7;-0.5332284747746556;0.8012765754276289;-0.1076532800367105;1.0070000000000001;0.04599631572805083
54:21.7;-0.5573604660592888;0.8031748749719764;-0.1114127651215654;1.0290000000000001;0.04987480699006441
54:21.7;-0.576876626642634;0.8035220839374109;-0.11234444800424365;1.035;0.05207537128641322
54:21.7;-0.5912263801154661;0.8029365668264138;-0.11082335190674;1.043;0.0526097601629243
54:21.7;-0.600177262407741;0.8023325404134896;-0.1074502249022325;1.044;0.05174176908437855
54:21.7;-0.6038206171954682;0.8028397139791796;-0.1030440826476219;1.034;0.049952800671941036
54:21.7;-0.602552936560021;0.8056976498664973;-0.09861273571801889;0.9990000000000001;0.04787406569066821
54:21.7;-0.597035041472789;0.8121337841849617;-0.0952954144780764;0.9990000000000001;0.046206109420189254
54:21.7;-0.5881357278998891;0.8232366710801045;-0.09427920736151822;0.9990000000000001;0.04564762568128201
54:21.7;-0.5768675493012931;0.8398367213637344;-0.09669719112138052;1.001;0.04684732827724542
54:21.8;-0.5643182209360698;0.8624050397075838;-0.10351703735789412;1.008;0.05037872743139833
54:21.8;-0.5515766865317839;0.8909780519957498;-0.11542955156870717;1.031;0.056727012986653974
54:21.8;-0.5396527290077666;0.9251120606261276;-0.13275127132787998;1.041;0.06627464488933636
54:21.8;-0.5293922745271716;0.9638687787451811;-0.15535901679877032;1.047;0.07927421978825332
54:21.8;-0.5213951305740906;1.0058332515861979;-0.18267018784736147;1.069;0.09579892484639185
54:21.8;-0.5159466265925691;1.0491699072592855;-0.21367091430336757;1.119;0.11566341506999446
54:21.8;-0.5129773854532713;1.0917237964114175;-0.24698139203315342;1.276;0.13831689481132312
54:21.8;-0.5120632769879427;1.1311637503549887;-0.28093876711967275;1.276;0.16272743636240963
54:21.8;-0.512470304734188;1.1651480850616545;-0.3136756063343031;1.276;0.18729689469396255
54:21.8;-0.5132416814158457;1.1914914059056863;-0.34318070907112824;1.319;0.20986291479073213
54:21.9;-0.5133203257073513;1.2083266999549223;-0.3673461341626183;1.3780000000000001;0.2278496191619202
54:21.9;-0.5116959128578412;1.2142676260546592;-0.38401736746329884;1.422;0.23860373107160002
54:21.9;-0.50755799955109;1.2085673924180447;-0.39106697482912656;1.45;0.23988754034413573
54:21.9;-0.500429449801184;1.1912544070177862;-0.3865114269389208;1.474;0.23041445340142994
54:21.9;-0.49025264211695146;1.1632149435116246;-0.36868865423943;1.459;0.21025178368337755
54:21.9;-0.4774053673165483;1.126191542674875;-0.3365064999458853;1.412;0.18092268170414938
54:21.9;-0.46263435933672914;1.0826747246749355;-0.2897534935336921;1.212;0.14513246222789797
54:21.9;-0.4469158680318325;1.0356914191496167;-0.2294271848449184;1.212;0.10619425661648309
54:21.9;-0.4312791239051182;0.9885270454071373;-0.15799009021958288;1.212;0.06735608549238446
54:21.9;-0.41663867091445606;0.9444282368600259;-0.07943769074508604;1.119;0.031257565590221845
54:22.0;-0.4036676832388527;0.9063118341288825;0.0009287046459053635;1.043;0.0003397654787495355
54:22.0;-0.3927267519827023;0.8764886844950784;0.07708961700660416;1.1059999999999999;0.026535830689953507
54:22.0;-0.38385242732151775;0.8564222075026872;0.14320801093462276;1.1059999999999999;0.04707816473338291
54:22.0;-0.37679781278331187;0.8465613279513313;0.19461183558975226;1.1059999999999999;0.06207776143079731
54:22.0;-0.37110552642380723;0.8462883718107791;0.228528130659467;0.978;0.07177206843904198
54:22.0;-0.36619230247683215;0.8540065465440609;0.2443480533706641;0.915;0.07641511910831593
54:22.0;-0.36143165035391606;0.8673710835361383;0.24341554782125868;1.083;0.07630964532732407
54:22.0;-0.3562278726650484;0.8836354797154339;0.22848912001170638;1.083;0.07192279690916047
54:22.0;-0.3500794905984834;0.9000398354488719;0.20308487000232575;1.083;0.06398909518981766
54:22.0;-0.34263187910743553;0.9141514352604736;0.17087985918154058;1.0859999999999999;0.05352254931522009
54:22.1;-0.3337161680457807;0.9241006068246129;0.13526955711812158;1.067;0.04171541530423411
54:22.1;-0.32336657840408073;0.9287019750067588;0.09909411744895799;1.0490000000000002;0.0297590713436463
54:22.1;-0.3118066185116338;0.9274767529142802;0.06450804430481688;1.0190000000000001;0.01865530001957648
54:22.1;-0.2993996706360253;0.9205979516877869;0.032953589271187377;0.9790000000000001;0.009082889839157294
