Time;AccX;AccY;AccZ;Acc-old;Acc-trns
24:10.1;-0.0015412489331209397;-0.23999438573054285;-1.109824795920443;1.137;0.0004105143045399297
24:10.1;-0.025219477087594096;-0.25318831656691393;-1.117394358686275;1.185;0.007134872440909899
24:10.1;-0.04774066698185164;-0.26459320646023476;-1.12560240961427;1.178;0.0142184477262822
24:10.1;-0.06821045468028752;-0.2726868383971396;-1.1344403550088165;1.156;0.02110069636975978
24:10.1;-0.08576371831068774;-0.2763264726606781;-1.143760980502413;1.156;0.027105746441069962
24:10.1;-0.09964703043908865;-0.27487918443332543;-1.1532336901722688;1.156;0.031588102293263816
24:10.1;-0.10932810221614594;-0.26829141261233447;-1.1623238222329055;1.202;0.0340930394068972
24:10.1;-0.1145985557976695;-0.2570831394119436;-1.1703118813869264;1.226;0.034478975549676286
24:10.1;-0.11564369679460537;-0.24226701226109792;-1.176352448204011;1.234;0.03295745824028692
24:10.1;-0.11305583491389046;-0.22520556389281582;-1.1795583989888967;1.23;0.030032504086352062
24:10.2;-0.10777699816631364;-0.20742846678335142;-1.179091455668242;1.208;0.0263597891983317
24:10.2;-0.1009770968006603;-0.19043634265105058;-1.1742449700723046;1.177;0.022580389076530063
24:10.2;-0.09389095021893;-0.1755201918670144;-1.1645142057082007;1.17;0.01919091182833751
24:10.2;-0.08764457120705245;-0.16362564957245318;-1.1496566276854554;1.1909999999999998;0.016487110611551364
24:10.2;-0.08310156970093771;-0.15528222520548615;-1.1297439739341149;1.1909999999999998;0.014578438416485786
24:10.2;-0.08075683954864378;-0.15059878688910203;-1.1051988809459499;1.1909999999999998;0.013441298452881507
24:10.2;-0.08069524702284656;-0.14931100578758835;-1.0767991568169741;1.153;0.01297401761244539
24:10.2;-0.08261848635996569;-0.15086388190778033;-1.0456311514840693;1.095;0.013032898884215762
24:10.2;-0.08592747849843187;-0.1545162259748527;-1.0129833662611345;1.008;0.013449572301713375
24:10.2;-0.0898363923931011;-0.1594548502598581;-0.9801900947278146;0.927;0.014041074605165243
24:10.3;-0.09349301020758966;-0.16490457916270657;-0.9484555503187014;0.865;0.014622742789885885
24:10.3;-0.09608779512952711;-0.17022026707376808;-0.9187022005736398;0.84;0.015026376013105922
24:10.3;-0.0969432567231916;-0.1749493305363559;-0.8914855241304307;0.872;0.015119735222487937
24:10.3;-0.09558058659846934;-0.17885627901269652;-0.8669988580729193;0.9229999999999999;0.01482150853076938
24:10.3;-0.0917621333047445;-0.18190655701099595;-0.8451609082598335;0.9229999999999999;0.014107538906957305
24:10.3;-0.08550822110967853;-0.18421800376499678;-0.825748784643757;0.9229999999999999;0.013007321854485053
24:10.3;-0.07708645908664752;-0.18599756072652684;-0.8085282481848796;0.89;0.011592591797110474
24:10.3;-0.06697239546731494;-0.18748079889582223;-0.7933439330584375;0.851;0.009961256734122174
24:10.3;-0.055784187090907114;-0.18888613954250796;-0.7801536388207161;0.8059999999999999;0.008220369473457992
24:10.3;-0.044200582897601655;-0.19039006154406726;-0.7690107786683542;0.765;0.006471496162168561
24:10.4;-0.032876893105817095;-0.19212348657697764;-0.7600137532587242;0.741;0.004800568603198504
24:10.4;-0.02237431250699539;-0.19418308080810676;-0.75324853086445;0.7440000000000001;0.0032726486342406725
24:10.4;-0.013114252252837945;-0.1966471278262344;-0.7487489641436245;0.763;0.0019309337579337623
24:10.4;-0.005362821328412144;-0.19958532917221497;-0.7464883699188289;0.792;0.0007989967053353228
24:10.4;0.0007575278624037739;-0.20305638666898107;-0.7463997916792735;0.792;0.00011481186572756822
24:10.4;0.0052395571877480365;-0.20709562424794103;-0.7484093793007964;0.792;0.0008120910593276325
24:10.4;0.008159199138111027;-0.21170154826322662;-0.7524648186332117;0.794;0.001299743836014137
24:10.4;0.00964980941514355;-0.21683043421506212;-0.7585478730193185;0.792;0.0015871646074737213
24:10.4;0.009885749670645674;-0.22240387113867657;-0.7666692410951571;0.79;0.0016856212237054062
24:10.4;0.009071749430591015;-0.22832959155551866;-0.776850302775187;0.7979999999999999;0.0016091279752012304
24:10.5;0.007431158681100913;-0.23453144677660664;-0.7891000982484584;0.813;0.001375275528271406
24:10.5;0.00518759408912343;-0.2409800602423537;-0.8033969883978175;0.835;0.0010043319869664723
24:10.5;0.0025392906442658187;-0.2477136918934096;-0.8196820500152459;0.8540000000000001;0.0005155939934660876
24:10.5;-0.00036947748672315603;-0.2548413850168978;-0.8378660981078676;0.902;7.889192547329828e-05
24:10.5;-0.0034722097142527624;-0.26252610000273974;-0.8578462191111208;0.902;0.0007819660105665341
24:10.5;-0.006790430051515656;-0.27095018692650963;-0.8795242716789743;0.902;0.0016182088193038568
24:10.5;-0.010423479227709528;-0.28026761051077553;-0.9028229516240668;0.9359999999999999;0.002637474122888258
24:10.5;-0.014515740181512487;-0.2905481369829242;-0.9277020922132446;0.9840000000000001;0.003912603303040483
24:10.5;-0.019204781633782298;-0.3017188953734437;-0.9541789392967264;1.037;0.005528937861415843
24:10.5;-0.024558625855310098;-0.31350875895806785;-0.9823474037964692;1.073;0.007563430897413612
24:10.6;-0.030514292260828753;-0.3254026157927044;-1.0123812680531963;1.09;0.01005236946162958
24:10.6;-0.036832892123386696;-0.336616774000975;-1.0445050397413431;1.087;0.012950368144187433
24:10.6;-0.04308723574442346;-0.34611161227807125;-1.0789259457973395;1.079;0.016090014680265604
24:10.6;-0.04869304274222698;-0.35265811035021166;-1.1157356403679677;1.189;0.019159408445133936
24:10.6;-0.052981596829195496;-0.3549641887878066;-1.1547995709545178;1.189;0.021717818434945968
24:10.6;-0.05529442950577326;-0.3518461641161187;-1.195650357573804;1.189;0.02326153663076454
24:10.6;-0.055072877127894056;-0.3424157515887954;-1.2373984783514012;1.234;0.023334638532670007
24:10.6;-0.051923850857306345;-0.3262528428099566;-1.2786779199387377;1.268;0.02166119262026414
24:10.6;-0.045658235907512;-0.30353693538070176;-1.3176490531145086;1.2930000000000001;0.018261246841772605
24:10.6;-0.03630904625520241;-0.27510865492633596;-1.352077319569232;1.3259999999999998;0.013505809589592233
24:10.7;-0.024139763327225523;-0.24243811506247426;-1.3794966732598224;1.39;0.008073364563597873
24:10.7;-0.009647968476277333;-0.2074943714696429;-1.397453069710867;1.4709999999999999;0.0027975601193282137
24:10.7;0.006443287012281285;-0.17253146579079684;-1.40380329699249;1.55;0.0015605656640628087
24:10.7;0.023224624260798837;-0.1398241480730754;-1.3970222254859725;1.518;0.004536638706539623
24:10.7;0.039682624332127485;-0.11139928903652835;-1.3764608723679719;1.518;0.006084805145306114
24:10.7;0.05481493948074569;-0.08881310920714854;-1.342507026733969;1.518;0.006535707097584931
24:10.7;0.06775040849969051;-0.0730114546428482;-1.2966195114028103;1.41;0.006413800864634199
24:10.7;0.07784998579107998;-0.06428410388817417;-1.2412243536921825;1.284;0.006211727850460785
24:10.7;0.08477416378014281;-0.06230215574206705;-1.1794812119084512;1.158;0.006229563484577226
24:10.7;0.08850552257246044;-0.0662194761004909;-1.114955384979782;1.04;0.006534518631239828
24:10.8;0.08931976627848347;-0.07481856374505294;-1.051251501070209;0.948;0.0070252789604506
24:10.8;0.08771061279348812;-0.08668022269245085;-0.9916680078872453;0.89;0.007539429184351175
24:10.8;0.08428592001410658;-0.10035439248846596;-0.9389195904831604;0.856;0.007941815957281311
24:10.8;0.07965853170219328;-0.11450988194695035;-0.8949551102498299;0.835;0.00816350223950748
24:10.8;0.07435438404436705;-0.1280462150176766;-0.8608779128595514;0.835;0.008196244234804431
24:10.8;0.0687529983445446;-0.1401600364606744;-0.8369585232851179;0.835;0.00806528615856839
24:10.8;0.06306525958758098;-0.15036781264784863;-0.8227192748761051;0.8340000000000001;0.0078018346566046505
24:10.8;0.05734517339392669;-0.1584929896178149;-0.8170666887402325;0.8370000000000001;0.007426162233751202
24:10.8;0.05152716789638479;-0.1646282629260469;-0.8184498469812306;0.847;0.006942769396654532
24:10.8;0.045477306381809114;-0.16908256324193846;-0.8250287698165699;0.8640000000000001;0.006343992337399058
24:10.9;0.039046261226093934;-0.17231929047502978;-0.8348417273538896;0.883;0.00561716913972754
24:10.9;0.03211498545416665;-0.17488943905310497;-0.8459623332669912;0.904;0.004751408177510958
24:10.9;0.024628585799726557;-0.1773625114001219;-0.8566369923346726;0.9179999999999999;0.003741951284363899
24:10.9;0.01661697815533663;-0.18025982558754458;-0.8653932491625196;0.902;0.0025921760783765317
24:10.9;0.008202546600882172;-0.18399691097444593;-0.8711127211196348;0.902;0.001314720982741174
24:10.9;-0.00040351434807744236;-0.1888417422194503;-0.8730691107954379;0.902;6.652817400077472e-05
24:10.9;-0.00891454689348098;-0.19489371920627027;-0.870937978356181;0.8959999999999999;0.001513158236690041
24:10.9;-0.016992011872059103;-0.20208582057220228;-0.8647863295984702;0.8909999999999999;0.0029695419219542894
24:10.9;-0.024280478541668135;-0.2102089184010433;-0.8550480581534635;0.8959999999999999;0.0043641423158148245
24:10.9;-0.03045173125854696;-0.2189530035580036;-0.8424884863977895;0.9009999999999999;0.00561729031712053
24:11.0;-0.035251116924221976;-0.22795744034408835;-0.8281572267384669;0.894;0.006654868064838304
24:11.0;-0.03853780216777824;-0.23686272986296456;-0.8133241525177455;0.871;0.0074241603357916445
24:11.0;-0.040312818628273704;-0.24535801900777737;-0.7993926028626646;0.847;0.007906850845783159
24:11.0;-0.04073171913110801;-0.253219612816281;-0.7877896590655019;0.7979999999999999;0.008125317805250543
24:11.0;-0.040099880134253627;-0.2603356829283213;-0.779843244152093;0.7979999999999999;0.00814111870882273
24:11.0;-0.03884847732672404;-0.2667127244601064;-0.7766637959121594;0.7979999999999999;0.008047311229486985
24:11.0;-0.037489574362078074;-0.2724618488052503;-0.7790481898812867;0.784;0.007957571174235038
24:11.0;-0.036550478167233454;-0.27776736833729926;-0.7874168455513213;0.785;0.00799427325089028
24:11.0;-0.03649130270443112;-0.28284376792159865;-0.8017896043473809;0.8140000000000001;0.008275541153187288
24:11.0;-0.037615707930301764;-0.28788839244160935;-0.8218038285625547;0.853;0.008899416949239288
24:11.1;-0.039991009368787724;-0.2930372743602306;-0.8467732651725127;0.892;0.009923214284658715
24:11.1;-0.043396946539719;-0.29833162875761093;-0.8757778736695383;0.929;0.011338417409100453
24:11.1;-0.04732015285236033;-0.30370027244161124;-0.9077697637132426;0.973;0.013045689369749492
24:11.1;-0.05100311018442845;-0.3089569930462765;-0.941681005722497;1.063;0.014838790402513364
24:11.1;-0.05354207753695581;-0.31380662288232264;-0.976519505922532;1.063;0.0164073425941781
24:11.1;-0.054012775313256114;-0.3178550141912194;-1.0114376862934873;1.063;0.017364596309397972
24:11.1;-0.05159643333245857;-0.3206240268747147;-1.0457640638463033;1.0959999999999999;0.017300133708830514
24:11.1;-0.04568599037338159;-0.3215766377503781;-1.0790015078362294;1.145;0.015852201555964177
24:11.1;-0.035962264596353745;-0.32015719846139096;-1.1108036123108698;1.192;0.012789323903609762
24:11.2;-0.02243468216216823;-0.3158493982117404;-1.1409341210555295;1.219;0.00808463734431185
24:11.2;-0.005444494451388092;-0.3082513155251186;-1.1692043388099485;1.2209999999999999;0.001962243578745364
24:11.2;0.014365819383350678;-0.29716254328471403;-1.1953835756812585;1.195;0.005103072670294036
24:11.2;0.03610846756251221;-0.2826705535983223;-1.2190911212948616;1.166;0.012443019885252399
24:11.2;0.058722599305080336;-0.26521467738151056;-1.2396973578313104;1.2;0.019307164706873044
24:11.2;0.08105432672775352;-0.24560523917069904;-1.2562718520132783;1.2;0.025009065188928162
24:11.2;0.10193408921641368;-0.2249852153988026;-1.267609295292325;1.2;0.029070924417777838
24:11.2;0.12024264377220027;-0.2047318628384372;-1.2723482332278433;1.262;0.03132203320671656
24:11.2;0.13496634252057496;-0.18630102738878085;-1.2691813896239883;1.351;0.03191276426783355
24:11.2;0.14525129934813194;-0.1710285076085013;-1.2571336181096564;1.436;0.031229855341496315
24:11.3;0.15046605549237443;-0.15992489658026457;-1.2358516113183466;1.474;0.02973862898056577
24:11.3;0.15027385042672384;-0.15351539851563784;-1.2058258832221573;1.449;0.027817619380998887
24:11.3;0.14470262345508578;-0.15176808223242225;-1.1684686288723698;1.36;0.02566101958892524
24:11.3;0.1341889310308735;-0.15412704800605995;-1.1260018299831136;1.226;0.023288131783525783
24:11.3;0.11956969390145772;-0.15963672089682213;-1.0811592340004816;0.884;0.020636858088200635
24:11.3;0.10201071253213793;-0.1671211510518665;-1.0367650397487334;0.884;0.017674923525750907
24:11.3;0.08288693897864104;-0.17537265511905667;-0.9952998618654249;0.884;0.014467780873389293
24:11.3;0.06364373981430052;-0.18331079758375327;-0.9585637748842484;0.836;0.011183165476338786
24:11.3;0.04566069151345739;-0.19009150458297105;-0.9274949853714571;0.8290000000000001;0.008050387082191088
24:11.3;0.030128419189600127;-0.19516346146530875;-0.9021499329118461;0.866;0.005304611453433739
24:11.4;0.01794912148740681;-0.19827751195243087;-0.8818256345557152;0.92;0.0031383355560984324
24:11.4;0.00967385338354049;-0.19945901401508648;-0.8652900127738218;0.968;0.001669609318282754
24:11.4;0.005484767711736885;-0.1989566705430005;-0.8510677005060314;0.991;0.0009287115622564121
24:11.4;0.005220764599612413;-0.19718223042590563;-0.8377182810339027;0.982;0.0008623823896005658
24:11.4;0.008435915662858045;-0.19465220253511167;-0.8240521562548252;0.852;0.0013531509650794604
24:11.4;0.01447451141027041;-0.19193709069525633;-0.8092572416335688;0.852;0.002248274915518895
24:11.4;0.022545849925557474;-0.1896182857100866;-0.792945234369878;0.852;0.0033899244634777777
24:11.4;0.03178655123296716;-0.18824962995402295;-0.7751453010201813;0.809;0.004638319496208564
24:11.4;0.04130632863731514;-0.18832060268518047;-0.7562668815200753;0.7809999999999999;0.0058828735506870075
24:11.4;0.05022142682878588;-0.19021995377132017;-0.7370410180428383;0.774;0.007041039440092356
24:11.5;0.05768739401352284;-0.1942009455678338;-0.7184459352478151;0.741;0.008048711350413124
24:11.5;0.06294592051104798;-0.20035310911335086;-0.7016218127035582;0.727;0.008848440962648823
24:11.5;0.06539159415842886;-0.20859046598620753;-0.6877772828297515;0.7290000000000001;0.009381325534541303
24:11.5;0.06464643634977651;-0.21866646021491368;-0.6780893517275626;0.706;0.009585476095315749
24:11.5;0.06061846624685573;-0.23021758601938794;-0.6736000117726344;0.703;0.009400382505633178
24:11.5;0.05352514561767046;-0.242826584968841;-0.6751157374707311;0.703;0.00877470089410777
24:11.5;0.04387742898095776;-0.2560893657954781;-0.683119111940177;0.703;0.0076758972484336436
24:11.5;0.03243104074981816;-0.2696709031428251;-0.6977026925396217;0.7120000000000001;0.006101904053858711
24:11.5;0.02011238268094649;-0.28334281011693024;-0.7185341040273575;0.7290000000000001;0.004094709599462918
24:11.5;0.007925037796022466;-0.29700135626647073;-0.7448606350898275;0.768;0.0017532134658062935
24:11.6;-0.0031543397519450504;-0.3106658121526171;-0.775559849327409;0.8240000000000001;0.0007600064004942943
24:11.6;-0.012278585027989843;-0.32445852554374444;-0.809236047901038;0.873;0.0032239086887502835
24:11.6;-0.018818125029027608;-0.33857171508543765;-0.844352688612667;0.919;0.00537961150633016
24:11.6;-0.022422365236665638;-0.3532267276704555;-0.8793852015201609;0.9620000000000001;0.00696488794145337
24:11.6;-0.023044864022745977;-0.36862892421937976;-0.9129788623742332;1.061;0.007755758570569928
24:11.6;-0.02092937449640855;-0.38491955666734634;-0.9440961140131591;1.061;0.007605756828100789
24:11.6;-0.016561636113385222;-0.402126549473737;-0.9721345787109583;1.111;0.006474293400767674
24:11.6;-0.010596024169312934;-0.42011798906280645;-0.9969974431110098;1.149;0.0044382142427775995
24:11.6;-0.003766419181173282;-0.43856404189858206;-1.0191036882376596;1.165;0.001683371797843725
24:11.6;0.003209029881153077;-0.4569139702783019;-1.0393311070966043;1.163;0.001523919842478871
24:11.7;0.009717562121036307;-0.47439510255912837;-1.058890746721876;1.151;0.004881448094230891
24:11.7;0.015323215595367494;-0.4900400265747287;-1.0791421900803424;1.147;0.008103266810537765
24:11.7;0.019810045141003138;-0.5027457102500794;-1.1013723070795132;1.148;0.010969024111956402
24:11.7;0.023193660548786334;-0.5113636979951148;-1.126568817259614;1.158;0.013361552325799641
24:11.7;0.025704929614409327;-0.5148152169145791;-1.1552208232679104;1.237;0.015287370915178086
24:11.7;0.027752661207228062;-0.5122187913738921;-1.1871714271759701;1.237;0.016876157759423277
24:11.7;0.029868491698237076;-0.5030114112647779;-1.2215370207331686;1.237;0.018352606931857557
24:11.7;0.032632864692880834;-0.4870421324616942;-1.2567029144188013;1.2690000000000001;0.019973508317047636
24:11.7;0.03658416711083524;-0.4646222430347501;-1.2904071351631412;1.3230000000000002;0.021934105348862736
24:11.7;0.042124269272856785;-0.43652492426239287;-1.319921042058616;1.39;0.024271095457407348
24:11.8;0.04944362172365066;-0.4039348153723525;-1.3423184597501017;1.455;0.02680878456308078
24:11.8;0.05848697212212045;-0.3683533171941791;-1.3548021881504266;1.504;0.029187682479824957
24:11.8;0.0689660845724194;-0.3314703299480246;-1.3550400613696902;1.524;0.03097650145679697
24:11.8;0.08040924666055278;-0.2950184761245624;-1.3414576116006134;1.506;0.03182234375106882
24:11.8;0.09222910257499789;-0.2606299700029224;-1.3134416763402774;1.443;0.03157207526519728
24:11.8;0.10379169729472394;-0.22971532902522557;-1.2714274979357296;1.3619999999999999;0.03031406592775447
24:11.8;0.11447563400075002;-0.20337620837485723;-1.2168657530504314;1.2770000000000001;0.028330606533442017
24:11.8;0.12371633650227908;-0.18235567064889122;-1.1520868056296798;1.185;0.025991510958689977
24:11.8;0.13103527002473095;-0.16702288720162126;-1.080090489821546;1.088;0.023638740704957865
24:11.8;0.13605794102042196;-0.15738727919238857;-1.0042912335460448;0.996;0.02150568072006991
24:11.9;0.13852652723574843;-0.1531375767381191;-0.9282454397294684;0.9079999999999999;0.019691442957144464
24:11.9;0.1383113938414354;-0.15370121217195806;-0.8553844236090103;0.828;0.018184300020322314
24:11.9;0.13542127798989817;-0.15831787640790332;-0.7887727077285163;0.7559999999999999;0.016910978563310322
24:11.9;0.130007814589512;-0.16611938341139615;-0.7309082324919276;0.696;0.015785292070567454
24:11.9;0.12235911021140769;-0.1762077686254097;-0.6835778942783888;0.6579999999999999;0.014738367170934605
24:11.9;0.11287944834578881;-0.1877247342497606;-0.6477778042825894;0.638;0.013726582973036337
24:11.9;0.10205621722271685;-0.19990715337779613;-0.6237017487783327;0.63;0.012724618298376334
24:11.9;0.09041885122531398;-0.212125319819285;-0.6107940231379078;0.631;0.011715107382864581
24:11.9;0.07849640359296672;-0.22390381597217301;-0.6078563268531486;0.642;0.010683466589045504
24:11.9;0.06677946850060004;-0.23492851435468812;-0.6131947129759318;0.6659999999999999;0.009620044747069591
24:12.0;0.05568890170739104;-0.24504429441914874;-0.6247918025371487;0.6920000000000001;0.008526063652032458
24:12.0;0.04555004744873243;-0.2542449856898026;-0.6404904942076544;0.713;0.007417437893759036
24:12.0;0.03657013531604569;-0.26265323264106444;-0.6581770930642993;0.738;0.006321964908024415
24:12.0;0.02881980297279682;-0.2704882586435944;-0.6759532795556288;0.765;0.005269338579292793
24:12.0;0.022224393675207316;-0.27802363399973046;-0.6922866941991014;0.813;0.004277574888276738
24:12.0;0.016571794185458975;-0.2855403703400308;-0.7061285607686926;0.813;0.0033413412105241453
24:12.0;0.011539835995383876;-0.2932806141849976;-0.7169856799599947;0.82;0.002426573640136383
24:12.0;0.006740813625331176;-0.30140648925141855;-0.7249371616634532;0.82;0.0014728729326767634
24:12.0;0.0017765103096218722;-0.30996972639453496;-0.7305933448757896;0.8190000000000001;0.00040231175657439935
24:12.0;-0.003705140783643342;-0.31889892919917967;-0.7350008385776027;0.8140000000000001;0.0008684515807348167
24:12.1;-0.009961035418691774;-0.3280094382340642;-0.7395015933568391;0.8059999999999999;0.0024161836367974456
24:12.1;-0.01711895303485209;-0.33703536360974257;-0.7455577100225594;0.7959999999999999;0.004301638773104213
24:12.1;-0.025162266911943572;-0.34567728169851963;-0.7545585986287303;0.787;0.006563168821024338
24:12.1;-0.033932494032841744;-0.35365577504250745;-0.7676319086545593;0.777;0.009211907210150846
24:12.1;-0.043145838127334565;-0.3607614056655784;-0.7854826520627964;0.807;0.012226314920813485
24:12.1;-0.05241899572700815;-0.3668933433834476;-0.8082847079383312;0.807;0.015545077478548395
24:12.1;-0.06130043622093964;-0.37207929320732536;-0.835644776806141;0.861;0.019059906661372996
24:12.1;-0.06930569773921355;-0.3764701572364318;-0.8666506616720937;0.927;0.022612239073813857
24:12.1;-0.0759572392655082;-0.38030683749545097;-0.9000022503059694;0.9940000000000001;0.02599841670967346
24:12.1;-0.08082825914118219;-0.3838633590876394;-0.9342057630882539;1.056;0.028985608809765712
24:12.2;-0.08358583783381046;-0.38737717303711716;-0.967797014795231;1.11;0.03133653720009691
24:12.2;-0.08402563381810467;-0.3909807023241171;-0.9995548160909956;1.1520000000000001;0.0328377759629903
24:12.2;-0.08209090528233896;-0.3946461791601629;-1.0286707525178966;1.183;0.03332570452948574
24:12.2;-0.07787164120152511;-0.3981507128457561;-1.0548514919090652;1.198;0.03270530073357262
24:12.2;-0.07158273482333545;-0.4010644593360003;-1.0783409425634065;1.196;0.030958403744423425
24:12.2;-0.06352436054696257;-0.40276378292733134;-1.0998606773256419;1.196;0.028140278324068842
24:12.2;-0.054033817732234514;-0.40247224869846454;-1.1204770781133104;1.196;0.024367140655094235
24:12.2;-0.043440844445981196;-0.3993324614866915;-1.1414111824637685;1.195;0.019800447110580533
24:12.2;-0.03203470347821769;-0.39250870956412015;-1.1638117885834844;1.1909999999999998;0.014633653192205819
24:12.2;-0.020047919208151122;-0.38131318946961806;-1.1885158194789387;1.181;0.009085651986985556
24:12.3;-0.007662786309214163;-0.3653393855674297;-1.2158245044696139;1.168;0.0034037221497690644
24:12.3;0.004953252285334508;-0.3445790647555092;-1.2453296206707396;1.166;0.0021255124570623506
24:12.3;0.017584557596025605;-0.3194964974990101;-1.2758280989676443;1.183;0.007167863245947544
24:12.3;0.02989166645384591;-0.29103483916823203;-1.3053613210444392;1.2209999999999999;0.011356012140549128
24:12.3;0.041352116768163756;-0.2605386753808816;-1.3314004514386657;1.4509999999999998;0.014344276436613266
24:12.3;0.05124851590568947;-0.22960045178843838;-1.3511630935189867;1.4509999999999998;0.015898706999380653
24:12.3;0.05871833511564011;-0.19986888317382526;-1.3620001058054192;1.4509999999999998;0.015984389741341375
24:12.3;0.06285963059063476;-0.17286689642913297;-1.361771382939;1.516;0.014797483446875585
24:12.3;0.06287662438957685;-0.14984668471730433;-1.3491495579759782;1.5290000000000001;0.012711489769500928
24:12.3;0.05824131606428387;-0.13168799067470616;-1.323816872152903;1.4869999999999999;0.01015325428573314
24:12.4;0.04883564964840502;-0.11884204592579002;-1.2865307434347397;1.403;0.0074666751653824776
24:12.4;0.035034761425113664;-0.11132549649797498;-1.239045211181222;1.294;0.004832601214071477
24:12.4;0.01770400869177763;-0.10876386311741966;-1.1838994671635972;1.1840000000000002;0.0022796651698864857
24:12.4;-0.0018949404693527215;-0.11047587251789011;-1.124108666154158;1.088;0.00023532675547259367
24:12.4;-0.0222700419364763;-0.11558393074056236;-1.0628062394813358;0.892;0.002735725949811965
24:12.4;-0.04189938324370154;-0.12313298950738813;-1.002894780931975;0.892;0.0051741310604364096
24:12.4;-0.05942108557638462;-0.13220012290277847;-0.9467646186604163;0.892;0.007437285618769885
24:12.4;-0.07377643720707279;-0.14198184410780446;-0.8961221215216136;0.8590000000000001;0.009386802699812498
24:12.4;-0.08429155535719994;-0.15185426663400411;-0.8519336493262993;0.8370000000000001;0.010904778247752529
24:12.4;-0.09070091610002826;-0.16140701700049082;-0.8144626814954103;0.818;0.011923541693872705
24:12.5;-0.09312251898483291;-0.17045284832049254;-0.7833728565115817;0.802;0.012434476257619216
24:12.5;-0.09199524626206221;-0.17901455320516094;-0.7578756077631197;0.797;0.01248106528115544
24:12.5;-0.08799014773154144;-0.1872918317414237;-0.7369042491149023;0.7979999999999999;0.012144061131731363
24:12.5;-0.0819088167890733;-0.19561282881862702;-0.719295937383097;0.7909999999999999;0.011524858273568474
24:12.5;-0.07458227363575316;-0.2043769229758081;-0.7039624285123524;0.765;0.010730425800063805
24:12.5;-0.06678288902000014;-0.21399555190794003;-0.6900334632614256;0.765;0.009861434655290895
24:12.5;-0.059160061558946;-0.22483573166808926;-0.676963019371043;0.765;0.009004485316311381
24:12.5;-0.05220623791483889;-0.23716904754242082;-0.6645933810739784;0.7490000000000001;0.008228798340083741
24:12.5;-0.04625296961469653;-0.25112967795163205;-0.6531727968766501;0.723;0.007586924287434408
24:12.5;-0.041489835231260416;-0.26668623944246467;-0.6433247228463982;0.706;0.007118238892465477
24:12.6;-0.037995257935121304;-0.28363115364282215;-0.6359734171479426;0.698;0.006853655829140461
24:12.6;-0.03576798579948154;-0.301588844022518;-0.632237206473046;0.693;0.006820085309569131
24:12.6;-0.03475041504274715;-0.3200424586438538;-0.6333025713503;0.691;0.007043343114419388
24:12.6;-0.03483945548160405;-0.33837826276851063;-0.6402908535601741;0.7;0.007548334077596397
24:12.6;-0.035886513988611236;-0.35594549148328597;-0.654127882055737;0.7559999999999999;0.008355595949689019
24:12.6;-0.037693114566794125;-0.3721248945799606;-0.6754249385153474;0.7559999999999999;0.009473879161830694
24:12.6;-0.04001002475464068;-0.3863936457639394;-0.7043772075476464;0.7559999999999999;0.01088940349485975
24:12.6;-0.042545563153207386;-0.39837500307655865;-0.7406868737048784;0.784;0.01255396763397328
24:12.6;-0.044985215428637586;-0.4078692156764415;-0.7835233595379998;0.831;0.014376152835099644
24:12.6;-0.047021177751157765;-0.41486843149953057;-0.8315362569859844;0.889;0.01622127856678635
24:12.7;-0.04838771583410104;-0.41955708020761406;-0.8829316569247324;0.955;0.017924756486090612
24:12.7;-0.048896984642596855;-0.4222954622516968;-0.9356121078530588;1.03;0.019319430774347477
24:12.7;-0.04846967266615558;-0.42358382256904037;-0.987369222682709;1.105;0.020271647126190968
24:12.7;-0.04715459522443696;-0.4240064343258096;-1.03610869456199;1.17;0.020715803670347286
24:12.7;-0.0451317277047027;-0.42415781750508164;-1.0800804625839666;1.3;0.020675953426580393
24:12.7;-0.04269541145323002;-0.4245572113660631;-1.1180794819442164;1.3;0.02026702965499858
24:12.7;-0.040218099706061626;-0.4255633545708385;-1.1495771548403804;1.3;0.019675414696522724
24:12.7;-0.03809761502229098;-0.42730453196347545;-1.1747517535459102;1.308;0.01912411690391114
24:12.7;-0.03669223295673541;-0.42963512696037526;-1.1944104149588253;1.2919999999999998;0.018829010857914497
24:12.7;-0.036250802683518865;-0.4321240947377573;-1.209818689871818;1.264;0.018951622609582462
24:12.8;-0.036848949458762256;-0.43407795003223876;-1.2224654604972576;1.238;0.019553721879947975
24:12.8;-0.03834260251478069;-0.43459982835918;-1.2337970418848938;1.227;0.020559609543358705
24:12.8;-0.04034635986333052;-0.4326835111106325;-1.2449581556642666;1.226;0.021733489299385515
24:12.8;-0.04224152231265413;-0.42733575467179774;-1.2565764274270028;1.2209999999999999;0.022682854168650853
24:12.8;-0.04321924600550705;-0.4177129458359956;-1.268621721281244;1.222;0.022902730584009264
24:12.8;-0.04236407129416791;-0.4032522135432307;-1.2803652342799066;1.258;0.02187299851613279
24:12.8;-0.03877674608551783;-0.38377588779561855;-1.2904542733484559;1.327;0.01920399870493263
24:12.8;-0.031722800636666056;-0.35955145731358756;-1.2971015120062397;1.399;0.014794712864910858
24:12.8;-0.020780508809472988;-0.3312948657719419;-1.2983622677877205;1.44;0.008938543711811167
24:12.8;-0.005955193866393133;-0.30011349040321644;-1.2924499349558547;1.452;0.002309910489372884
24:12.9;0.012269836227667258;-0.26739712739087107;-1.2780300400008484;1.4340000000000002;0.0041931129907550714
24:12.9;0.03296165937748554;-0.23467675526684623;-1.2544407059138296;1.392;0.009703519437732178
24:12.9;0.05484126338884368;-0.2034758831122032;-1.2218056982522982;1.328;0.013633976449001883
24:12.9;0.07643964681972291;-0.1751763138190964;-1.1810281139830114;1.2409999999999999;0.015814457233700025
24:12.9;0.09627420971844669;-0.150912394590932;-1.133673839947667;1.147;0.016471114940325802
24:12.9;0.11301404937942786;-0.13149985139935327;-1.0817717805116975;1.054;0.0160765681714998
24:12.9;0.12561133586318152;-0.11739989287714028;-1.0275697519802982;0.977;0.015153321817820378
24:12.9;0.1333874343364657;-0.10871651300197954;-0.9732882531021023;0.9129999999999999;0.014114058565738849
24:12.9;0.13607254427588514;-0.10522357802741501;-0.9209087708767159;0.866;0.013185608599347764
24:12.9;0.13380341980564725;-0.10641722884948288;-0.8720215816940065;0.833;0.012416705837081182
24:13.0;0.12708502305423988;-0.11158774267169642;-0.8277441340758122;0.81;0.011738347875651626
24:13.0;0.11672139818753277;-0.11990327855725945;-0.7887082302192835;0.792;0.011038191195566203
24:13.0;0.10372167313192655;-0.13049649809778197;-0.7551042566125843;0.7809999999999999;0.010220574062126939
24:13.0;0.08918983184081956;-0.1425447949848383;-0.7267645004362953;0.768;0.009239754121482799
24:13.0;0.07421058377793752;-0.1553362012312057;-0.7032654531991512;0.736;0.008106955928866625
24:13.0;0.05974624303086634;-0.16831530703042333;-0.6840314291455099;0.736;0.0068787618099243305
24:13.0;0.04655858467830946;-0.18110604436443103;-0.6684276613596466;0.718;0.005636209514495484
24:13.0;0.03516399121466408;-0.19351108594093683;-0.6558365854170576;0.6990000000000001;0.004462720140147692
24:13.0;0.025822635871133443;-0.2054904737491417;-0.64571482374287;0.682;0.003426360235989958
24:13.0;0.018557277071532916;-0.21712402179506365;-0.6376324714074351;0.667;0.002569168285329663
24:13.1;0.013194898934921723;-0.22856329534766387;-0.6313005015861644;0.6629999999999999;0.0019039199800529108
24:13.1;0.009422684958190587;-0.23997976437736734;-0.6265936139857521;0.672;0.0014168871380902239
24:13.1;0.0068482592436457275;-0.2515155436062876;-0.6235731852699862;0.688;0.0010740696710476278
24:13.1;0.005054510585803238;-0.2632424930770317;-0.6225087904440176;0.705;0.0008282865212426957
24:13.1;0.0036427701545736313;-0.2751350305743407;-0.6238894384746378;0.728;0.0006252954842854176
24:13.1;0.0022630283008430387;-0.287060577434512;-0.6284108790550539;0.728;0.00040823217818015316
24:13.1;0.000632981077084448;-0.2987885720135061;-0.6369258967625582;0.728;0.00012046021026818596
24:13.1;-0.001452213739492212;-0.3100167700157859;-0.650350838589389;0.72;0.0002927948496348033
24:13.1;-0.004118551360621638;-0.3204128975968603;-0.6695321664802976;0.713;0.0008835394030791301
24:13.1;-0.007419188874863707;-0.32966779879738156;-0.6950890476807469;0.715;0.00170009582618365
24:13.2;-0.011346073486497034;-0.3375519993236976;-0.7272587871451647;0.728;0.0027853210034591755
24:13.2;-0.015845143193972358;-0.3439638499287288;-0.7657779450522241;0.757;0.0041736096108366426
24:13.2;-0.020833411346604745;-0.3489568393684042;-0.8098309584800789;0.8;0.0058874397898652665
24:13.2;-0.026216607930725618;-0.3527371424459589;-0.8580897352674756;0.863;0.007935246065412604
24:13.2;-0.03190610155501113;-0.3556294440014511;-0.9088508275072891;1.103;0.010312502360186753
24:13.2;-0.037833143478399237;-0.35801768549673696;-0.9602474884761959;1.103;0.013006489299864836
24:13.2;-0.04395733073309853;-0.36027410229250506;-1.0104818870795678;1.103;0.01600268624299947
24:13.2;-0.05026654039891487;-0.36269095958833536;-1.0580184844976086;1.167;0.019288967514209707
24:13.2;-0.0567679938944172;-0.36542475713291095;-1.1017108586755346;1.2109999999999999;0.022854364208656688
24:13.2;-0.06347203400710888;-0.3684567351562686;-1.1408649258263408;1.2429999999999999;0.02668106396280492
24:13.3;-0.07037025551827723;-0.3715700559279686;-1.1752470531532762;1.265;0.030729748557174787
24:13.3;-0.0774093364257831;-0.37434394176079766;-1.2050410739994286;1.2770000000000001;0.03491933816338762
24:13.3;-0.08446254844410445;-0.37616765154437987;-1.2307593064718727;1.286;0.03910378128958036
24:13.3;-0.09130246058566134;-0.3762803770755218;-1.253117161212153;1.2919999999999998;0.04305124645569936
24:13.3;-0.09758044141168137;-0.37384330571881946;-1.2728843605411553;1.31;0.04643456026501674
24:13.3;-0.10282080960707163;-0.3680434399528316;-1.290727837391842;1.31;0.04884439976612155
24:13.3;-0.10643926176625577;-0.3582164215387763;-1.307062683917128;1.31;0.04983606697036855
24:13.3;-0.10779489417003715;-0.34396672475229373;-1.3219285672548584;1.294;0.04901427797464574
24:13.3;-0.10627993818134462;-0.32526471790965916;-1.334910452267057;1.298;0.046146671753736206
24:13.3;-0.10143969328626808;-0.30250607369100024;-1.3451234491766433;1.33;0.04127662405880269
24:13.4;-0.09310032050680363;-0.27652303522649835;-1.3512776247599032;1.364;0.03478780899100037
24:13.4;-0.08147187763478297;-0.2485399952087264;-1.351825652479793;1.401;0.027373144777660063
24:13.4;-0.06719403086964011;-0.22007142833460328;-1.3451773334509323;1.435;0.0198917914554452
24:13.4;-0.051301503884357405;-0.19276960663542417;-1.329947650129402;1.4569999999999999;0.013152345355101363
24:13.4;-0.035103203447814556;-0.16824105636568595;-1.3051950937005863;1.365;0.007708221223376034
24:13.4;-0.01999412994854658;-0.1478613735248177;-1.2706101028817542;1.365;0.0037563802695753487
24:13.4;-0.00724568669128318;-0.13262277398131897;-1.2266286775209778;1.365;0.001178720325161376
24:13.4;0.0021730947284539655;-0.12304134717081096;-1.1744593326041939;1.2690000000000001;0.00031402752700934473
24:13.4;0.007710436827454045;-0.11913377271072648;-1.116014896642534;1.1540000000000001;0.0010251416298686007
24:13.4;0.009274183361430497;-0.12045824658729876;-1.0537484500380643;1.045;0.0011771970475149263
24:13.5;0.0072057055080183546;-0.1262066891573588;-0.9904135153891133;0.953;0.0009006902071580869
24:13.5;0.002196155287618401;-0.13533014088061604;-0.9287876092722324;0.871;0.00027604125435221527
24:13.5;-0.004836977417344915;-0.1466753630148431;-0.8714021227955779;0.8029999999999999;0.0006182296718038577
24:13.5;-0.012889556587585416;-0.159111902990948;-0.8203141551061197;0.755;0.001682367434449206
24:13.5;-0.021001991442547576;-0.1716355441455432;-0.7769457586801156;0.715;0.0028006472311822433
24:13.5;-0.028361523539956992;-0.18344152649355347;-0.7420060534601853;0.715;0.003860420923737931
24:13.5;-0.034364962208604626;-0.1939656065244314;-0.7155010356331553;0.715;0.004769258541163356
24:13.5;-0.03864189888071083;-0.20289411438185276;-0.6968236390137522;0.73;0.0054632463466029145
24:13.5;-0.04104522532634672;-0.21014765940153862;-0.6849045248996871;0.747;0.0059076837258608995
24:13.5;-0.04161860641164647;-0.21584571872820105;-0.6783960429294008;0.76;0.006094165985133638
24:13.6;-0.04055112545489997;-0.2202597052304004;-0.6758596928916981;0.763;0.006036629370998116
24:13.6;-0.038128058800314564;-0.2237614196440977;-0.6759308464407198;0.757;0.005766763880516432
24:13.6;-0.034684744261353685;-0.2267728713169814;-0.6774426120679539;0.747;0.005328464866203108
24:13.6;-0.03056898689982567;-0.22972193097921856;-0.6795015288458036;0.733;0.00477170890788685
24:13.6;-0.026115405187219776;-0.23300633873741297;-0.6815180954760147;0.725;0.004147075058563148
24:13.6;-0.021631386266305033;-0.236966648842215;-0.6832023836709288;0.725;0.003502038790332003
24:13.6;-0.01739022199776354;-0.24186701418318182;-0.6845376241969198;0.725;0.002879248124740639
24:13.6;-0.013625074040073112;-0.24788236318784035;-0.6857426238590136;0.726;0.002316037802259362
24:13.6;-0.010518827912111983;-0.2550918583885181;-0.6872295574801662;0.728;0.0018440206405303705
24:13.6;-0.008188993607319074;-0.26347969341860955;-0.6895602519171801;0.738;0.0014878183170876599
24:13.7;-0.006671719764715591;-0.27294399868153946;-0.6934022625899136;0.747;0.0012626895909080252
24:13.7;-0.0059121144333108624;-0.28331363082925826;-0.6994847994234865;0.7509999999999999;0.0011716248721813035
24:13.7;-0.0057675738901388105;-0.2943713642349858;-0.7085542919010236;0.755;0.0012029895663646472
24:13.7;-0.006026949999660664;-0.3058803868445626;-0.7213314458750538;0.7659999999999999;0.0013297931289385982
24:13.7;-0.006443042457335932;-0.31760964151141013;-0.7384740638573799;0.851;0.001511192946172544
24:13.7;-0.006771596277125581;-0.32935284486759697;-0.7605469326654752;0.851;0.0016962056121743087
24:13.7;-0.00680866195788132;-0.3409363012462447;-0.7879918474412284;0.851;0.0018291812544946585
24:13.7;-0.006420040946590923;-0.3522134415027842;-0.8210885035178619;0.8759999999999999;0.0018566656184962808
24:13.7;-0.005559952614477254;-0.36304919920633694;-0.8599062624570342;0.914;0.001735752043470283
24:13.7;-0.004278656819650895;-0.3733010457769457;-0.9042565059353888;0.965;0.0014443029652503033
24:13.8;-0.0027190639803707263;-0.3828029205937343;-0.9536552536273735;1.011;0.0009926269791992928
24:13.8;-0.0011011696170116297;-0.3913548574307893;-1.0073005257942542;1.053;0.0004340942260355774
24:13.8;0.0003071599782902718;-0.3987178655624849;-1.0640669276621617;1.091;0.00013031645851186872
24:13.8;0.001232918413558371;-0.4046125888852279;-1.1225228854622256;1.13;0.0005599753808268953
24:13.8;0.0014510836756055122;-0.4087216141807253;-1.1809785928364205;1.3159999999999998;0.0007004257223049977
24:13.8;0.0008406957726473566;-0.41069741525168846;-1.2375652976353317;1.3159999999999998;0.00042729612670639806
24:13.8;-0.0005677924629514858;-0.4101790605514018;-1.2903303009614906;1.3159999999999998;0.0003005135129276584
24:13.8;-0.0025658144578062933;-0.4068206284132026;-1.3373280082097037;1.3869999999999998;0.0013959380799852187
24:13.8;-0.004767573540054649;-0.4003332631962312;-1.3767034472146815;1.452;0.00262760135560559
24:13.8;-0.006639460574786854;-0.39054047335882797;-1.4067761873172044;1.4869999999999999;0.0036477398111648615
24:13.9;-0.007556469708868819;-0.37744074934715016;-1.4261254458508827;1.4880000000000002;0.004067480320959684
24:13.9;-0.006883701702229107;-0.3612635317686183;-1.4336696158382145;1.473;0.003565293167863099
24:13.9;-0.004076447369984505;-0.342499820815749;-1.428738721698;1.4769999999999999;0.001994779991426827
24:13.9;0.0012185862477331196;-0.32189113538954595;-1.4111460907474527;1.495;0.0005535250328175069
24:13.9;0.009087096373950249;-0.3003676830987917;-1.3812631164935842;1.444;0.0037701163545174046
24:13.9;0.01931734283099;-0.27893975045093106;-1.3400891472806842;1.444;0.007220902575752636
24:13.9;0.031420742955334174;-0.2585663462400996;-1.289295879161505;1.444;0.010474686723909924
24:13.9;0.04469334710775713;-0.24003586626758214;-1.2312172848848435;1.36;0.013208506775872712
24:13.9;0.05830662371806067;-0.2238825885801528;-1.16875525835699;1.242;0.015256741628188767
24:13.9;0.07141528656117782;-0.2103463389839803;-1.1051846061646586;1.111;0.016602021347058862
24:14.0;0.08326413578747269;-0.19937654570847832;-1.0438691615315865;0.998;0.017329184030400922
24:14.0;0.0932735792162708;-0.19067895856876405;-0.9879297528962702;0.9;0.017570635873133896
24:14.0;0.10108998501164583;-0.18379574729962353;-0.9399200048705946;0.83;0.017463628477087823
24:14.0;0.10659692089000747;-0.1782014367929563;-0.9015652036396061;0.7929999999999999;0.01712588419133621
24:14.0;0.10989114380612075;-0.17339367595998664;-0.8736070444281825;0.82;0.016646083733919285
24:14.0;0.11123248630856743;-0.1689619226242597;-0.8557753409817511;0.82;0.01608348860780828
24:14.0;0.11098013425950651;-0.1646273616933107;-0.846881559463618;0.82;0.01547283664584237
24:14.0;0.10952766512302249;-0.16025633104903175;-0.8450103840642008;0.862;0.014832046254335452
24:14.0;0.1072454552382198;-0.15585218280158844;-0.8477802203827388;0.909;0.014170170180822672
24:14.0;0.10443530327939729;-0.15153110631062255;-0.8526418845807169;0.9520000000000001;0.013493225831297443
24:14.1;0.10130073146513302;-0.14749015542290286;-0.8571787199704282;0.985;0.01280698778857666
24:14.1;0.09793564927875643;-0.14397752522677051;-0.859366804620233;0.9940000000000001;0.01211752948460658
24:14.1;0.09433169200655177;-0.14127256978698916;-0.8577581878625175;0.976;0.011430897800394252
24:14.1;0.09040085554667605;-0.1396771087553238;-0.8515633405320756;0.938;0.010752630803672959
24:14.1;0.08600740506988318;-0.1395131842804377;-0.8406289595680694;0.7979999999999999;0.010086847231381315
24:14.1;0.08100330349054329;-0.14111859113943362;-0.8253325156755105;0.7979999999999999;0.009434435465285893
24:14.1;0.07526336054525719;-0.144832070558196;-0.8064371602656938;0.7979999999999999;0.008790607252630414
24:14.1;0.06871718413684828;-0.15096413502137965;-0.7849530022324169;0.767;0.008142969210630766
24:14.1;0.06137417855521515;-0.15975459210621915;-0.7620308177488165;0.753;0.007471564990113341
24:14.1;0.05333686258399283;-0.17132264077404685;-0.7388925486514129;0.7490000000000001;0.006751861307497174
24:14.2;0.044798223958497946;-0.18561947548551133;-0.7167930391982698;0.7490000000000001;0.005960437205300378
24:14.2;0.03602142003694316;-0.20239543905844426;-0.6970027528193591;0.748;0.005081548142973699
24:14.2;0.02730484984987787;-0.22119259504297448;-0.6807962378007322;0.742;0.0041117577871588535
24:14.2;0.01894113383579515;-0.24136939605523586;-0.6694293948563517;0.7340000000000001;0.0030605040248251744
24:14.2;0.011181842853928882;-0.2621579055068394;-0.6640928753075788;0.728;0.0019467275009885856
24:14.2;0.00421750767778003;-0.28274510982739315;-0.6658382553805996;0.728;0.0007939985840828732
24:14.2;-0.0018253615137306326;-0.3023604104529849;-0.6754842923493718;0.728;0.00037281130235671504
24:14.2;-0.006876283691150402;-0.32035056490699554;-0.6935169463518444;0.7390000000000001;0.0015276939463584693
24:14.2;-0.010910408449086709;-0.3362334180239976;-0.7199975935311148;0.754;0.002641270797913353
24:14.2;-0.013941823442704808;-0.34973035493616933;-0.7544939313921479;0.7759999999999999;0.0036788210108840125
24:14.3;-0.016021940976499578;-0.3607772803219647;-0.7960499974503834;0.816;0.004601449426497394
24:14.3;-0.01723964609750726;-0.36951210738090534;-0.8432116187586997;0.872;0.005371475526354426
24:14.3;-0.01771802006070629;-0.37623878143359996;-0.894117714226478;0.943;0.005960373119003702
24:14.3;-0.017604645357827478;-0.3813714404571528;-0.9466569269427055;1.016;0.006355768422759928
24:14.3;-0.017056403572156743;-0.38536464740928666;-0.998675077126844;1.205;0.006564226316797443
24:14.3;-0.016222010431604414;-0.3886370436571608;-1.048201217873118;1.205;0.006608357509662337
24:14.3;-0.015225383208423536;-0.39149723850321116;-1.093644805508551;1.205;0.0065188836502884226
24:14.3;-0.014151495685547206;-0.39408126092573004;-1.133921975838565;1.252;0.006323700596880353
24:14.3;-0.013034931865668455;-0.39630964819347964;-1.1684968107856089;1.2790000000000001;0.0060363017574761235
24:14.3;-0.011850572596489316;-0.3978711657673349;-1.1973467019285473;1.281;0.00564549105735509
24:14.4;-0.010506001816927991;-0.39824052073889715;-1.2208649704379666;1.28;0.005107996037376539
24:14.4;-0.008836488724813242;-0.3967369341366159;-1.2397131599409263;1.284;0.00434613859924678
24:14.4;-0.006606771950165625;-0.3926253626817756;-1.2546401384059616;1.29;0.003254519246506645
24:14.4;-0.003530191996692176;-0.38525077466703134;-1.2662905796328716;1.273;0.001722166840008912
24:14.4;0.0006798769752333597;-0.3741822282262223;-1.2750286181756418;1.242;0.0003243645793317225
24:14.4;0.006220657837195948;-0.35933704438823794;-1.2808053008092612;1.242;0.0028630004849596003
24:14.4;0.013091569185503912;-0.3410603823871566;-1.2830993158180033;1.242;0.005729058451796856
24:14.4;0.02100456264028087;-0.32014456662313984;-1.280954840243785;1.264;0.008613776472560375
24:14.4;0.02934735263250118;-0.29777878356479953;-1.2731265316244171;1.304;0.011125876908215905
24:14.4;0.037217526772100135;-0.2754277707844509;-1.2583209559778454;1.354;0.0128987215010706
24:14.5;0.04353014866897053;-0.25465286937667997;-1.2354988675969634;1.3980000000000001;0.013695600405595632
24:14.5;0.0471856702404433;-0.236904766865094;-1.204180207878262;1.4240000000000002;0.01346094074565991
24:14.5;0.047267869416577284;-0.22332570723256406;-1.1646817825775506;1.4040000000000001;0.012294532732764778
24:14.5;0.04322931012846707;-0.21459753456800149;-1.1182211915878952;1.3330000000000002;0.010373629945840818
24:14.5;0.035020710034075184;-0.21086229861734254;-1.066844325869366;0.958;0.007878162510936027
24:14.5;0.023135003898418518;-0.21172515793764118;-1.0131844458782873;0.958;0.00496284322918827
24:14.5;0.00856243538479392;-0.21632962341185907;-0.96012188840259;0.958;0.0017784418603043074
24:14.5;-0.007328187232007156;-0.2234842235495354;-0.9104346712530005;0.87;0.0014910500285407597
24:14.5;-0.02296321586421277;-0.23182138954503162;-0.8664954032596269;0.81;0.004612670964495708
24:14.5;-0.03677037277641257;-0.2399721959829589;-0.8300311495101725;0.782;0.007324084554020282
24:14.6;-0.0473834571305642;-0.2467363930601564;-0.8019579656499634;0.773;0.00937586965612632
24:14.6;-0.053806660254370385;-0.2512226286038843;-0.7823085207721251;0.7709999999999999;0.010574816803444418
24:14.6;-0.055510611748988116;-0.252936865105734;-0.7702650968394598;0.779;0.010815045829158335
24:14.6;-0.05245089917592737;-0.25180743907330067;-0.764295301169141;0.7959999999999999;0.010094450519362799
24:14.6;-0.04501658979702448;-0.24814862084843614;-0.7623728556761891;0.853;0.00851631825908482
24:14.6;-0.033929612935070914;-0.24257730622531723;-0.7622521319359583;0.853;0.0062737574151185945
24:14.6;-0.020124296850133675;-0.23590583746608293;-0.7617552607101529;0.853;0.003616386710732913
24:14.6;-0.004633856072871083;-0.22903299400297067;-0.7590322335170808;0.866;0.0008055654106055479
24:14.6;0.01150237480579643;-0.22284608375120318;-0.7527673781922457;0.8640000000000001;0.0019295378920365775
24:14.6;0.027308814877393114;-0.21813934441242375;-0.7423179198522948;0.85;0.004422082103661491
24:14.7;0.04192187065903974;-0.2155524553282227;-0.7277756643481642;0.828;0.006576444468832258
24:14.7;0.05461795802406504;-0.21553281321470358;-0.7099468147122353;0.795;0.00835746702773399
24:14.7;0.06482427219807857;-0.21832228248938115;-0.690251884408904;0.748;0.009768847131248534
24:14.7;0.07211757266681228;-0.22396560635335463;-0.6705562178248513;0.7020000000000001;0.010830727397157701
24:14.7;0.07621804013513298;-0.23233589195506507;-0.6529505842280867;0.636;0.011562570614927515
24:14.7;0.07698511703902912;-0.2431714388646007;-0.6395102989709344;0.636;0.011972004788071698
24:14.7;0.07441915648704259;-0.25611705206199653;-0.632066527563281;0.625;0.012047197481438386
24:14.7;0.06866799090564837;-0.2707638821797941;-0.6320192632726513;0.633;0.011751015215434334
24:14.7;0.060033198082957824;-0.2866845552766693;-0.6402097769499082;0.6559999999999999;0.011018388429541292
24:14.7;0.048968202210096894;-0.30346162383640374;-0.6568595208767983;0.682;0.00976091287890093
24:14.8;0.03606115939108232;-0.3207070535157831;-0.6815757806236187;0.7170000000000001;0.00788247036912086
24:14.8;0.02200024281159057;-0.33807153197737094;-0.7134194162113856;0.767;0.005306168052530979
24:14.8;0.007524353103850075;-0.35524505560052994;-0.7510257187636309;0.8270000000000001;0.0020074836627665326
24:14.8;-0.006634804263605834;-0.37195206101872436;-0.7927657095521438;0.882;0.001956410303611251
24:14.8;-0.01981236214362053;-0.38794423330746647;-0.8369306020405116;1.042;0.006432725305124227
24:14.8;-0.0314630052933566;-0.40299226623698575;-0.8819140081414726;1.042;0.011182094444029383
24:14.8;-0.041196018159679486;-0.4168753311037978;-0.9263589192607893;1.042;0.015908920973048198
24:14.8;-0.04878405713182753;-0.42936698122326267;-0.969243386383873;1.092;0.020302027214188556
24:14.8;-0.054144889391199116;-0.44021940705016394;-1.0099015340231476;1.125;0.02407164041491588
24:14.8;-0.05730390915124953;-0.4491496958025119;-1.047994378952944;1.149;0.026973314290333606
24:14.9;-0.05834982732783968;-0.45583010686313785;-1.0834463552306273;1.169;0.02881708147394198
24:14.9;-0.05739598661064115;-0.4598831816197711;-1.116359512961115;1.185;0.029466810517139973
24:14.9;-0.05455599976360986;-0.4608834992005075;-1.1469175665904139;1.194;0.028838049501870102
24:14.9;-0.04993611205230522;-0.4583689109565223;-1.175294453099785;1.21;0.02690150431060708
24:14.9;-0.04364053563269363;-0.4518640338495422;-1.2015821155605402;1.3030000000000002;0.02369470483217873
24:14.9;-0.03578303730060794;-0.44091870409158157;-1.2257447768967487;1.3030000000000002;0.019339078433712395
24:14.9;-0.026499088121393597;-0.4251641174894873;-1.2475931996442204;1.3030000000000002;0.014055960645917598
24:14.9;-0.015955239119913103;-0.4043867788967752;-1.2667658824532229;1.3219999999999998;0.008173284637652137
24:14.9;-0.0043542349334620535;-0.37861293090932496;-1.282712932617257;1.306;0.002114641610408447
24:14.9;0.008063078732400215;-0.34818705144138545;-1.2946919089006843;1.287;0.003634795240822219
24:15.0;0.02101619733056397;-0.3138241734194208;-1.3017921094181248;1.3;0.008585827644278251
24:15.0;0.03418303717979145;-0.27661983983880295;-1.3030032845507622;1.327;0.012320816327397954
24:15.0;0.04720046611036528;-0.23800849365337035;-1.2973356382608738;1.3530000000000002;0.014574413652508495
24:15.0;0.05967035621979917;-0.19966606958411576;-1.2839809886596587;1.376;0.01529753631439043
24:15.0;0.07117203204054375;-0.1633594495376568;-1.2624880764060484;1.329;0.014678474139339044
24:15.0;0.08128042196194042;-0.1307620648627401;-1.232917552712552;1.329;0.013103935749671138
24:15.0;0.08958923564581033;-0.10327496424857077;-1.19594582412349;1.329;0.011065279576797397
24:15.0;0.0957398617503855;-0.08189421110198696;-1.152894226251799;1.246;0.009039313814416248
24:15.0;0.09945724542648696;-0.06714270830217349;-1.1056669555990857;1.1440000000000001;0.007383454659440202
24:15.0;0.10059039312282358;-0.05906054336989732;-1.056595178210438;1.048;0.0062771508871441095
24:15.1;0.09914901043219525;-0.05724039800108282;-1.0082077147449977;0.963;0.005721910298579112
24:15.1;0.09532530310991044;-0.06089755960245439;-0.9629675089426545;0.893;0.005590101816497921
24:15.1;0.08949287836533788;-0.06896728936941358;-0.9230173334456465;0.846;0.005696937966776921
24:15.1;0.08217867298112319;-0.08022247482164496;-0.8899709211813497;0.816;0.005867201402115689
24:15.1;0.07400702231412014;-0.09340183233956935;-0.864773643442491;0.812;0.005977653973824236
24:15.1;0.06562147980675956;-0.10733451669954101;-0.847643437437845;0.812;0.00597033401698752
24:15.1;0.057600251047944376;-0.12104377712232499;-0.8380901946964692;0.812;0.005843292185260166
24:15.1;0.050385510332444754;-0.13381547614256986;-0.8350030345372029;0.831;0.00562989194155722
24:15.1;0.04424014805958073;-0.1452271399961011;-0.8367909263498036;0.851;0.0053762730659986935
24:15.1;0.039236232547194494;-0.155141810145565;-0.8415607947297342;0.877;0.005122732156840324
24:15.2;0.03527425071201962;-0.16367326364096588;-0.8473159349015091;0.904;0.004891937655743197
24:15.2;0.03212770321840347;-0.17112854359169397;-0.852156077983909;0.924;0.004685126047340687
24:15.2;0.02950259575839117;-0.1779342139138179;-0.8544597967061787;0.9329999999999999;0.00448550480427198
24:15.2;0.02709928065139473;-0.18455475036833793;-0.8530310705048213;0.935;0.004266265125286152
24:15.2;0.0246659811532119;-0.1914135442490702;-0.8471959711839999;0.885;0.003999953493966286
24:15.2;0.02203737218742548;-0.1988267468557862;-0.8368439153290009;0.885;0.0036667312172446237
24:15.2;0.019155858472987394;-0.20695684144461723;-0.8224183568476788;0.885;0.003260424911940743
24:15.2;0.016075748775594242;-0.2157893932525566;-0.8048664567145704;0.8540000000000001;0.0027920624814025915
24:15.2;0.012951037530001415;-0.22513509241806007;-0.7855538100373236;0.8240000000000001;0.002290465191731756
24:15.2;0.010008436298390237;-0.23465743169394776;-0.7661476593166889;0.797;0.0017993391169749
24:15.3;0.007510405828504201;-0.24392212806650623;-0.7484759318019709;0.778;0.00137117360615458
24:15.3;0.005716310114138513;-0.2524601514466959;-0.7343743405266493;0.762;0.0010598053655558716
24:15.3;0.004850277165949388;-0.2598346414118997;-0.7255344924495273;0.7440000000000001;0.0009143693752324373
24:15.3;0.005081184210358636;-0.26570278055253077;-0.7233645324936914;0.73;0.0009766034407868137
24:15.3;0.006515236105727252;-0.2698653186025081;-0.7288733742971535;0.7559999999999999;0.001281531601062556
24:15.3;0.009196836628898886;-0.2722982869536575;-0.7425885964981684;0.7559999999999999;0.001859651893827319
24:15.3;0.013110394395097874;-0.27316379960037285;-0.7645146595338783;0.7559999999999999;0.0027379449950239725
24:15.3;0.018176305782474058;-0.272799425588069;-0.794135427243525;0.8009999999999999;0.0039377092208177904
24:15.3;0.024239059885463;-0.2716875752688861;-0.8304648927999336;0.8590000000000001;0.005468986196818839
24:15.3;0.03105162526511022;-0.27040780866574426;-0.8721464736690143;0.9159999999999999;0.007323066775780841
24:15.4;0.03826469943076339;-0.26957680601116757;-0.9175911131927857;0.983;0.009465205088123145
24:15.4;0.04543011968747168;-0.2697824719220793;-0.9651343078839881;1.058;0.011828927350388612
24:15.4;0.052024817435638214;-0.27151840731964566;-1.0131876110073015;1.117;0.014311979749620628
24:15.4;0.05749721679597792;-0.27512246281770464;-1.0603604810860652;1.153;0.01677360481299039
24:15.4;0.061333441812450686;-0.2807212698071345;-1.1055331209630477;1.186;0.019034628906674844
24:15.4;0.06313490830903498;-0.2881842009401505;-1.1478710177669202;1.186;0.020884919836574027
24:15.4;0.06269221651361746;-0.29709355107492497;-1.1867857537440125;1.186;0.022104422548951806
24:15.4;0.06003833106611573;-0.3067396795190507;-1.2218607240990402;1.204;0.02250195623728449
24:15.4;0.055470217088080344;-0.3161499147734017;-1.2527694272782879;1.248;0.021969697687508907
24:15.4;0.04953696706473788;-0.3241587279134532;-1.279211957882009;1.317;0.02054138123792301
24:15.5;0.04299630127070201;-0.329522039927807;-1.3008814372152135;1.36;0.018431185979523684
24:15.5;0.03673842312698109;-0.33106828575460706;-1.3174553355050904;1.3559999999999999;0.016024112763194126
24:15.5;0.03167275766933572;-0.3278658652629873;-1.3285999800057673;1.3530000000000002;0.01379673502086746
24:15.5;0.028579337537860426;-0.3193764349917435;-1.333984498457194;1.3619999999999999;0.012176032802945352
24:15.5;0.02794541187136346;-0.30555965925919565;-1.3333124680634814;1.396;0.011385142537353943
24:15.5;0.02982717462577113;-0.2869037119546318;-1.3263794118862953;1.396;0.011350527784982717
24:15.5;0.033780273432613486;-0.26437884700972814;-1.313149245133314;1.396;0.011727459807872868
24:15.5;0.03888867145808621;-0.23933071743998072;-1.2938281717829503;1.374;0.012041986961816154
24:15.5;0.04389887851327419;-0.2133310496607948;-1.2689129588219459;1.3419999999999999;0.011883362032926198
24:15.5;0.0474413440513236;-0.18800049975302094;-1.239197466221267;1.2990000000000002;0.011052397728472909
24:15.6;0.048296174611938573;-0.16482612783136602;-1.2057291349377928;1.239;0.009598172355531556
24:15.6;0.04564513090846798;-0.14500275246282437;-1.1697164434187424;1.169;0.007741966686027516
24:15.6;0.03925320291045406;-0.12932232752694567;-1.1324001728394653;1.1079999999999999;0.005748420621231667
24:15.6;0.02953836497542881;-0.11812385795288823;-1.094911331652993;1.057;0.0038203488829052622
24:15.6;0.017512081151035575;-0.11130602837917025;-1.0581421348783024;0.9690000000000001;0.0020625308626003153
24:15.6;0.004605498732289526;-0.1083954862859077;-1.0226543254204365;0.9690000000000001;0.0005105246599630095
24:15.6;-0.007570289238998653;-0.10865461838217354;-0.9886435985669142;0.9690000000000001;0.0008132057156449343
24:15.6;-0.017470048516080635;-0.11120866472101307;-0.9559675225405951;0.9570000000000001;0.0018572735564062926
24:15.6;-0.023824625111214418;-0.11517519776435498;-0.9242281701368934;0.9520000000000001;0.00253608755997732
24:15.6;-0.02579646011697702;-0.11978239249373991;-0.8928893254461132;0.9420000000000001;0.002758993827504141
24:15.7;-0.023069371609408893;-0.1244623300983831;-0.8614062600639715;0.925;0.0024733280093567015
24:15.7;-0.015864814130327354;-0.12890709971073616;-0.8293482432380089;0.898;0.0016960894575055708
24:15.7;-0.004885550550958803;-0.13308197206051184;-0.7964963047229209;0.86;0.0005178649334911493
24:15.7;0.00880058060412728;-0.13719785346973168;-0.7629025885449428;0.826;0.0009211444295025758
24:15.7;0.02391406613180097;-0.141650968110015;-0.7289046909045379;0.703;0.002469128646408629
24:15.7;0.03912565503474908;-0.14694134926032998;-0.6951001625249528;0.703;0.003996253548381471
24:15.7;0.05319900689691981;-0.15358400720274473;-0.6622988546015208;0.703;0.0054113238243844106
24:15.7;0.06509561598054825;-0.16202641214239258;-0.6314714243965724;0.664;0.006660261156012834
24:15.7;0.07403748756558642;-0.1725823846019636;-0.6036987958246343;0.632;0.0077138013007437105
24:15.7;0.07953280126188841;-0.18538747358318391;-0.5801169503702395;0.606;0.008553467715197846
24:15.8;0.081372491526698;-0.2003769566162595;-0.5618544162205994;0.5870000000000001;0.009161133010280691
24:15.8;0.07960553802884446;-0.21728576432845834;-0.5499668020513271;0.5770000000000001;0.009512858366552883
24:15.8;0.07450042283645228;-0.23566943630988796;-0.5453749922483992;0.5760000000000001;0.009575406512966683
24:15.8;0.06649888945966949;-0.2549451588068415;-0.5488127359934261;0.5870000000000001;0.009304335100210415
24:15.8;0.056166175249636296;-0.2744500951413197;-0.5607873678883745;0.674;0.008644431927037698
24:15.8;0.04414147239835543;-0.2935091990284103;-0.5815523162710053;0.674;0.007534550058556667
24:15.8;0.031093423519108123;-0.31149919726942366;-0.6110831593383579;0.674;0.005918692667198977
24:15.8;0.017684169851913147;-0.3278967707335635;-0.6490489610314032;0.711;0.0037635637442820368
24:15.8;0.0045407694186443675;-0.34230825695182654;-0.6947805512020181;0.753;0.0010799271924434794
24:15.8;-0.00777035036378811;-0.3544858248775787;-0.7472468274819487;0.7929999999999999;0.00205827573767657
24:15.9;-0.018768627180564726;-0.36433491680948693;-0.805051619643164;0.833;0.0055049962876180915
24:15.9;-0.02808350071694509;-0.37191386564277723;-0.866462645088241;0.884;0.009049893271483296
24:15.9;-0.035474770396682155;-0.37742352189179995;-0.9294852188604018;0.9590000000000001;0.012444889475461718
24:15.9;-0.04084666940963975;-0.38118325989608753;-0.9919921039520009;1.047;0.015445383126659327
24:15.9;-0.044253852087112994;-0.38359038599161477;-1.051909424857529;1.285;0.01785653297336015
24:15.9;-0.04589682431719303;-0.3850639662495609;-1.107432542706859;1.285;0.019571891442770953
24:15.9;-0.04610243423539498;-0.3859805094707552;-1.157217452489048;1.285;0.02059226918848975
24:15.9;-0.04528475753033043;-0.386612846346362;-1.20049242458219;1.3319999999999999;0.021017824012481937
24:15.9;-0.043885578094134584;-0.3870816552580409;-1.2370672735850252;1.35;0.02101443563127342
24:15.9;-0.04230084676470643;-0.38732484694588637;-1.2672496836801768;1.339;0.020762832981118865
24:16.0;-0.04080598391226849;-0.3870879005085762;-1.2916886939065926;1.301;0.020402872175675966
24:16.0;-0.03949444768348369;-0.38593833812004574;-1.311170517546023;1.274;0.019985413691966183
24:16.0;-0.03824058773107258;-0.3833075671037599;-1.3264028207766514;1.2830000000000001;0.01944228872434307
24:16.0;-0.03669465186048476;-0.3785606036619746;-1.3378304349469443;1.3030000000000002;0.018584002657060287
24:16.0;-0.034318217180110265;-0.37108750535591717;-1.3455184573714583;1.339;0.017135260440755282
24:16.0;-0.030465419273855977;-0.36040306628489266;-1.3491210341408126;1.339;0.014813120308467497
24:16.0;-0.024501868216361813;-0.34623872202932326;-1.3479366950483809;1.339;0.011435214938709653
24:16.0;-0.015938476984169364;-0.3286126387263691;-1.3410416228052042;1.402;0.007023819459881881
24:16.0;-0.0045542901587978125;-0.30786624353078806;-1.3274865145356307;1.443;0.001861285041531961
24:16.0;0.009514256352525837;-0.28465756350407984;-1.3065305811132222;1.4509999999999998;0.0035384833471121145
24:16.1;0.02573781309946596;-0.2599079352826242;-1.277869665830465;1.44;0.00854826039337743
24:16.1;0.04322533422032123;-0.23470971312227173;-1.2418081500097355;1.402;0.012598647600723765
24:16.1;0.0608193558116513;-0.21021257333748844;-1.1993323110210403;1.3330000000000002;0.015333455553556257
24:16.1;0.07723648158512202;-0.1875090493641543;-1.1520606826696362;1.2429999999999999;0.016684764041617582
24:16.1;0.0912261652638651;-0.16753668019395782;-1.1020715412232962;0.9690000000000001;0.016843762637057162
24:16.1;0.1017207843078438;-0.15100852434138673;-1.0516417918787202;0.9690000000000001;0.01615395989143056
24:16.1;0.10795394853033692;-0.13837726687737684;-1.0029646356258717;0.9690000000000001;0.014982659177099261
24:16.1;0.10953169158692143;-0.1298308130685405;-0.9579148860494617;0.9109999999999999;0.013622113484858873
24:16.1;0.10645232600956653;-0.12531118930007243;-0.9178947709575745;0.872;0.012244411114339056
24:16.1;0.09908093298176801;-0.12454656664708398;-0.8837579582731709;0.848;0.010905741139490442
24:16.2;0.08809014647600809;-0.12708852383728558;-0.8558008695777469;0.835;0.009580901844092026
24:16.2;0.07437993557096144;-0.13235096836628849;-0.833812844832178;0.833;0.008208267517388327
24:16.2;0.058986938991585906;-0.13965100003019493;-0.8171743615773792;0.8390000000000001;0.006731543278754962
24:16.2;0.04299111402728354;-0.14825418022898348;-0.8049871088639357;0.85;0.00513067579252852
24:16.2;0.02742636459077262;-0.157426362833156;-0.7962159554856097;0.856;0.0034377681438091004
24:16.2;0.013202767130299817;-0.16649032755470164;-0.7898224437228588;0.856;0.0017361347967637015
24:16.2;0.0010487605539052465;-0.1748795759216856;-0.7848728056069219;0.856;0.00014395101039788995
24:16.2;-0.008521382263025921;-0.18217986790559745;-0.7806091528351637;0.836;0.001211836613800615
24:16.2;-0.015215886470307203;-0.18815369068090324;-0.7764790231095015;0.807;0.0022230013597128945
24:16.3;-0.018955045525615277;-0.19274777510450042;-0.7721267432529855;0.782;0.002820998143701609
24:16.3;-0.01984746593835563;-0.19608447935758455;-0.7673596408121905;0.763;0.0029863949221730106
24:16.3;-0.018157175184158197;-0.19843697130568586;-0.7621086033586415;0.7559999999999999;0.0027459191003286563
24:16.3;-0.014264973037344295;-0.20018870837501535;-0.7564020038279244;0.7609999999999999;0.00216004701159223
24:16.3;-0.008625878446971571;-0.2017796803777838;-0.7503649307266086;0.775;0.001306030418786988
24:16.3;-0.0017231706339771113;-0.20364461405544584;-0.7442445328303279;0.807;0.00026116613761472193
24:16.3;0.005978509943585147;-0.20615130860855235;-0.7384500030487693;0.807;0.0009101231232180183
24:16.3;0.01407401162260929;-0.20954901524266353;-0.733586647150386;0.807;0.0021634902743357626
24:16.3;0.022244373543277327;-0.21393584933518547;-0.7304623681178677;0.804;0.003476174680522582
24:16.3;0.03026582424124281;-0.2192511077712007;-0.730051810350795;0.785;0.004844489113454168
24:16.4;0.0380026066791067;-0.22529448164342925;-0.7334138081693198;0.765;0.006279325894416137
24:16.4;0.0453873091388348;-0.2317697659610444;-0.7415687347662216;0.752;0.007800862610303305
24:16.4;0.05239332138667208;-0.2383458217903567;-0.7553528020820061;0.748;0.009432641274761823
24:16.4;0.05900461910129113;-0.24472365023103368;-0.7752738340897473;0.7440000000000001;0.011194819085938803
24:16.4;0.06518728066030932;-0.25069704904424983;-0.8013960026337098;0.754;0.013096620953867717
24:16.4;0.07086550322037494;-0.2561956158900846;-0.8332788025067003;0.889;0.015128536005080389
24:16.4;0.0759038420717365;-0.2613020281778312;-0.8699837835295715;0.889;0.017255108620772754
24:16.4;0.08009729671542219;-0.2662396391357023;-0.9101431632452054;0.889;0.01940887155666063
24:16.4;0.08317132408288277;-0.27133066995964095;-0.9520750591907968;0.9670000000000001;0.021485412248352726
24:16.4;0.08479395131911611;-0.27692941868943854;-0.9939375556747551;1.057;0.023339581695423564
24:16.5;0.08460070401507704;-0.28333952622080316;-1.0339167163191314;1.1320000000000001;0.024783731618882688
24:16.5;0.08223053607148617;-0.2907290152641245;-1.0704290223078587;1.187;0.025590535522774325
24:16.5;0.07736950580284468;-0.2990588708504286;-1.1023035467681301;1.228;0.02550514029847264
24:16.5;0.0697994487097258;-0.30803858797045913;-1.1289092749039749;1.253;0.024272592095494417
24:16.5;0.059449828711755644;-0.31711761386612675;-1.150204270969191;1.2590000000000001;0.021684327036082127
24:16.5;0.04645029008373483;-0.3255175323937263;-1.1666973350453442;1.232;0.017640911492524836
24:16.5;0.031178033800611633;-0.33230411686675493;-1.179327663698039;1.232;0.012218529205463654
24:16.5;0.014288595531626579;-0.33648980416380003;-1.1892824662273125;1.232;0.005718030509039233
24:16.5;-0.0032861004096481268;-0.33715189271183416;-1.1977802802297666;1.204;0.0013270387065360397
24:16.5;-0.02038882868799298;-0.33355314629076016;-1.2058477030049435;1.167;0.008200678362423304
24:16.6;-0.03574702924216059;-0.3252527277515357;-1.2141181581772391;1.147;0.0141163317905253
24:16.6;-0.048136325199400073;-0.31219321257948385;-1.222686570668027;1.16;0.018374330825085078
24:16.6;-0.05657193095720989;-0.2947485047333969;-1.231054300745636;1.199;0.02052720516261931
24:16.6;-0.060485508046015185;-0.2737193877763236;-1.2381865202179099;1.255;0.020499485654054687
24:16.6;-0.059839443002089675;-0.25026773020281157;-1.2426814645455297;1.3130000000000002;0.0186102504506356
24:16.6;-0.055140075420933;-0.22579054767426085;-1.243024390880944;1.376;0.015475787699416765
24:16.6;-0.04733992797926192;-0.20175309303555386;-1.2378754292966616;1.376;0.011822919622734563
24:16.6;-0.0376583134102114;-0.17951677990481898;-1.226328251594739;1.376;0.008290345849198572
24:16.6;-0.027371494786088222;-0.16019702860850746;-1.2080833699070264;1.331;0.0052972427800792215
24:16.6;-0.017614245577984536;-0.1445675350718783;-1.1835035616430716;1.251;0.003013730354892618
24:16.7;-0.0092174560383166;-0.13301096688556335;-1.1535479204814372;1.16;0.001414275982053449
24:16.7;-0.0026007479111338602;-0.1255132462931494;-1.1196071070988547;1.0759999999999998;0.0003654714593235662
24:16.7;0.002263924680977512;-0.12170052046451264;-1.0832816485104388;1.011;0.00029846663938700027
24:16.7;0.0058113055828096965;-0.12091556939443139;-1.0461528067245662;0.97;0.0007351078541703406
24:16.7;0.008771449295680845;-0.12232476556732211;-1.00958937968502;0.951;0.0010832545521447508
24:16.7;0.012008625660629477;-0.12504151536263733;-0.9746179146475223;0.929;0.001463463600795261
24:16.7;0.016342865022060005;-0.12824877348400235;-0.941865804210709;0.929;0.0019741058874388896
24:16.7;0.022390543940262072;-0.13130230406460716;-0.9115722691258931;0.929;0.0026799586690256106
24:16.7;0.03045347870667846;-0.13379965814624467;-0.8836520899189444;0.9109999999999999;0.0036005862785962357
24:16.7;0.040471581267030744;-0.13560730853337064;-0.8577909353777758;0.885;0.0047077644169327415
24:16.8;0.05203876135950979;-0.13684642246459922;-0.8335514857033793;0.8590000000000001;0.005935985467084645
24:16.8;0.06446989307915665;-0.13784401683291192;-0.8104760525271865;0.8390000000000001;0.007202529690098424
24:16.8;0.07690043060579932;-0.13906078192983223;-0.7881787202168382;0.828;0.008428652404830443
24:16.8;0.08839961278719517;-0.14100886794199702;-0.7664233272791852;0.8190000000000001;0.0095535658927172
24:16.8;0.09808119321140793;-0.14417193134047818;-0.7451824822422571;0.813;0.01053729391502604
24:16.8;0.10520000133918944;-0.14893693660547236;-0.7246706102907634;0.753;0.01135425936688402
24:16.8;0.10922648203419187;-0.15554342912611022;-0.7053458801446884;0.753;0.011983446722145633
24:16.8;0.109893936860437;-0.1640521641921951;-0.6878822567474886;0.753;0.012401373948232002
24:16.8;0.10721544803720232;-0.17433345645958484;-0.6731163351122741;0.716;0.012581378726655169
24:16.8;0.10147029713568301;-0.18607679051095366;-0.6619711011591797;0.6809999999999999;0.0124988532550229
24:16.9;0.09316303866336369;-0.19882340453413974;-0.6553593122197121;0.662;0.012139215640645594
24:16.9;0.08296202442284686;-0.21201992890147137;-0.6540771865440986;0.6559999999999999;0.011504957728484358
24:16.9;0.07162711553250682;-0.22508574209532814;-0.6587060705608252;0.6629999999999999;0.010619818975359725
24:16.9;0.059936915051914015;-0.23748332551384999;-0.6695389892461955;0.6829999999999999;0.009530229962746445
24:16.9;0.0486236785789972;-0.24878108058361248;-0.686542971672832;0.7040000000000001;0.00830487092999095
24:16.9;0.03832042020685913;-0.2587004808090764;-0.7093606383386608;0.7909999999999999;0.0070322545850001516
24:16.9;0.02952182942730112;-0.2671421328997373;-0.7373457420068471;0.7909999999999999;0.005815095244790412
24:16.9;0.022559581001099914;-0.27418798435898767;-0.7696193466924737;0.7909999999999999;0.004760531296686605
24:16.9;0.017591785849158628;-0.28008016844665223;-0.8051345206355508;0.8390000000000001;0.003966986624862266
24:16.9;0.014604367885783778;-0.28518021123296533;-0.8427483692924392;0.887;0.0035099430628972453
24:17.0;0.013421257228065876;-0.289914095460099;-0.8813067302800581;0.935;0.003429174754048674
24:17.0;0.013722492188556125;-0.29470903469482435;-0.9197412955065896;0.985;0.003719564794559185
24:17.0;0.015072828029819345;-0.29992800538705117;-0.9571701157263216;1.041;0.004327139479848355
24:17.0;0.016964755911386357;-0.3058084096168104;-0.9929877638437571;1.092;0.005151585788874229
24:17.0;0.018877019764685008;-0.31241112881403466;-1.0269295373221394;1.129;0.00605620506580399
24:17.0;0.02034384409246686;-0.3195856009931097;-1.0590937421264384;1.1740000000000002;0.006885803493383993
24:17.0;0.021024294156921454;-0.3269556234547523;-1.0899086854376405;1.1740000000000002;0.007492044514787147
24:17.0;0.02075842687381951;-0.3339295461794478;-1.1200376773465572;1.1740000000000002;0.00776393548701121
24:17.0;0.019598537653094626;-0.3397379694685887;-1.1502264447823405;1.172;0.0076586302473921055
24:17.0;0.017808782088753607;-0.34350145167463625;-1.1811107514934276;1.167;0.0072252589973698
24:17.1;0.015831917326920436;-0.34432766206383997;-1.2130129669626362;1.178;0.006612578954702211
24:17.1;0.014226257987279013;-0.3414309332294142;-1.2457615747569215;1.202;0.006051018438787636
24:17.1;0.013579176201085988;-0.3342589707839114;-1.2785669437891483;1.224;0.005803366083254935
24:17.1;0.014406132019805163;-0.32260371464971943;-1.309981904514962;1.236;0.006088103833098997
24:17.1;0.01704849820837019;-0.3066692693388968;-1.3379698393011887;1.265;0.006995241466441668
24:17.1;0.021589992924080828;-0.28707505210397827;-1.360093672164292;1.48;0.00842979032253835
24:17.1;0.027813241953058666;-0.26479065278445507;-1.373814250693068;1.48;0.010117711255698682
24:17.1;0.03520819359017886;-0.24102204588040477;-1.376847822116435;1.48;0.011683862947591309
24:17.1;0.04303056003888624;-0.21707739893565076;-1.3675116333511899;1.508;0.012773874267312508
24:17.1;0.05040151611574614;-0.1942307432291314;-1.3450020025000486;1.51;0.013166929296146138
24:17.2;0.05643501186015028;-0.17359310433141512;-1.309573031976427;1.474;0.012829531971359992
24:17.2;0.06037067669479915;-0.1560038818388139;-1.2625931843585405;1.402;0.011891178256822907
24:17.2;0.061685885705797465;-0.14195875149130072;-1.2064632441110894;1.2990000000000002;0.01056481925103809
24:17.2;0.060166702426347494;-0.13158595497095366;-1.1443956217246436;1.18;0.009060286561665734
24:17.2;0.05592888377749582;-0.12467432089478084;-1.0800766414599996;1.058;0.0075312616645308765
24:17.2;0.04938953373150914;-0.12074729608127985;-1.017254227909543;0.802;0.006066550874839565
24:17.2;0.04119763020789615;-0.1191682093734084;-0.9593143999333192;0.802;0.004709703991656373
24:17.2;0.032139337328512575;-0.11925540977098713;-0.9089242787937619;0.802;0.0034837157437075327
24:17.2;0.023036265177727503;-0.12038619606311127;-0.8678055233035425;0.7809999999999999;0.0024066402236881364
24:17.2;0.014648788884971899;-0.12207522709615513;-0.8366591744879633;0.78;0.0014961593076929466
24:17.3;0.007590971206966589;-0.12402039772656061;-0.815224193837687;0.7959999999999999;0.0007674808075840918
24:17.3;0.0022646326015446296;-0.12611454853512902;-0.8024380238042723;0.8240000000000001;0.0002291788017139925
24:17.3;-0.0011783242880704125;-0.1284271885430137;-0.7966653724288181;0.8540000000000001;0.00012055847496647729
24:17.3;-0.0028401241101793442;-0.1311657521228795;-0.7959586435955138;0.872;0.0002965160975891463
24:17.3;-0.003049829931033979;-0.13462737578690315;-0.7983126989529878;0.887;0.000327779690219535
24:17.3;-0.002311942898405058;-0.1391498203143687;-0.8018822544362305;0.865;0.00025797068448388054
24:17.3;-0.001239976018649035;-0.14506616270114464;-0.8051419595083118;0.865;0.00014482777858016148
24:17.3;-0.0004830821384276059;-0.15266394010274248;-0.8069834287822913;0.865;5.9514400560588435e-05
24:17.3;-0.0006514404271191904;-0.16214781333194125;-0.8067541260946406;0.843;8.52171485318372e-05
24:17.3;-0.0022439794656920154;-0.17360630242810438;-0.8042473658104798;0.825;0.00031330982416768305
24:17.4;-0.005582399003203784;-0.18698494145016636;-0.7996548040471622;0.8140000000000001;0.0008346993166020243
24:17.4;-0.010758624737441854;-0.20206847136647502;-0.7934953249707596;0.8079999999999999;0.0017250420577900687
24:17.4;-0.01760582675503148;-0.21847499965162728;-0.7865341654352555;0.805;0.003025350964973793
24:17.4;-0.02570253222627048;-0.2356662441519843;-0.7797018604727844;0.807;0.0047228251067902415
24:17.4;-0.034414320731360554;-0.25297845722849704;-0.7740170122983642;0.8079999999999999;0.006738655396714749
24:17.4;-0.042969715895537976;-0.2696762016117718;-0.7705129495217314;0.83;0.008928634533398027
24:17.4;-0.05055811227559288;-0.2850241161669661;-0.7701669938505075;0.83;0.011098323003499822
24:17.4;-0.05643105748041408;-0.2983630722817358;-0.7738317647238028;0.83;0.013028961841969156
24:17.4;-0.05998904859879413;-0.30917550712509817;-0.7821693400370878;0.841;0.014507007790724061
24:17.4;-0.06084406759884572;-0.3171325049123118;-0.7955903724570729;0.85;0.01535141870492619
24:17.5;-0.05885542211796992;-0.3221223012159756;-0.8142019594369908;0.856;0.015436165102576681
24:17.5;-0.054138410422393715;-0.3242598717047739;-0.8377706713090622;0.8690000000000001;0.01470699210152028
24:17.5;-0.04704549594514057;-0.32387526890098356;-0.8657097300437687;0.89;0.013190708908380491
24:17.5;-0.038121996823981937;-0.3214794870791541;-0.8970998386390694;0.915;0.010994353233359289
24:17.5;-0.02804231289967375;-0.3177099744257592;-0.9307506778940813;0.94;0.008292357969663518
24:17.5;-0.01753594829661499;-0.3132613691373916;-0.9653045183572103;1.084;0.005302741262884259
24:17.5;-0.0073139913686675675;-0.30881006991023413;-0.9993718453632803;1.084;0.002257215414344566
24:17.5;0.0019935126676889014;-0.3049429680772057;-1.0316737565131986;1.084;0.0006271623892998239
24:17.5;0.009881971963117832;-0.30209900654327293;-1.0611628338845112;1.139;0.0031679253949414778
24:17.5;0.015997122904014102;-0.3005276634417775;-1.087108478560914;1.182;0.0052263587705014495
24:17.6;0.02014383880382857;-0.3002649773881171;-1.1091444511408293;1.2009999999999998;0.006708648348142184
24:17.6;0.022283465654400474;-0.30112739333437133;-1.1272741633573438;1.202;0.007564192172212454
24:17.6;0.02252407309656121;-0.3027246144231954;-1.1418268064679458;1.192;0.007785650378240248
24:17.6;0.021108157884502324;-0.3044929205790695;-1.153364883768645;1.183;0.007413004404409984
24:17.6;0.0184012882485716;-0.30574980409320535;-1.1625548763882096;1.182;0.006540754942087951
24:17.6;0.014881119307702641;-0.30576848278958446;-1.170020235689537;1.1440000000000001;0.005323799485299256
24:17.6;0.011120367063792205;-0.3038656495363667;-1.1762000607826801;1.1440000000000001;0.0039744947565471065
24:17.6;0.007753961068536003;-0.29948983861445894;-1.1812398305130345;1.1440000000000001;0.002743113582638261
24:17.6;0.005422463725254067;-0.2922962557961034;-1.1849394093974677;1.155;0.00187808849120163
24:17.6;0.004690431900360069;-0.28219812114409976;-1.1867745064391426;1.197;0.001570851609374732
24:17.7;0.005948645146441864;-0.26938982041949605;-1.1859926160326062;1.2409999999999999;0.0019005584421781963
24:17.7;0.009320070977655939;-0.25433977692695486;-1.1817671929825473;1.275;0.0028013375013253975
24:17.7;0.014595279684937162;-0.23775253807173408;-1.1733783969815563;1.287;0.004071699059492766
24:17.7;0.0212203039375016;-0.2205028439469816;-1.160380632088768;1.28;0.00542958037629046
24:17.7;0.028349597087904858;-0.20354847909812454;-1.1427195943226711;1.252;0.006594083268407035
24:17.7;0.034961132739525;-0.18783130600599762;-1.1207741869635084;1.104;0.007359894575796541
24:17.7;0.04001305695351398;-0.1741782064842486;-1.095320873088772;1.104;0.007633732026951921
24:17.7;0.04260869592113234;-0.16321627986431023;-1.0674424628921098;1.104;0.007423456916737193
24:17.7;0.042137606153859045;-0.1553148287624247;-1.0384115140859962;1.052;0.006795982890510734
24:17.7;0.03837313907849159;-0.15055881476075283;-1.009565466697299;1.0070000000000001;0.005832678002756797
24:17.8;0.031519021365447285;-0.1487517135379205;-0.9821776067023514;0.966;0.004604947995802404
24:17.8;0.02220167579599376;-0.14944488716864518;-0.9573294889895753;0.9279999999999999;0.0031763492965058444
24:17.8;0.011406368743615572;-0.15199210861560916;-0.9357970768056614;0.893;0.001622370839136771
24:17.8;0.00036003589397622907;-0.15562725667623598;-0.9179649273611671;0.868;5.143485863976561e-05
24:17.8;-0.009627096558031461;-0.15955972367035454;-0.9037816831404198;0.863;0.001388296211514863
24:17.8;-0.017338187765348113;-0.16307688628518346;-0.8927672697616919;0.905;0.002524261668520128
24:17.8;-0.021814732558728366;-0.16563818362764193;-0.8840748686817532;0.905;0.0031944742937295473
24:17.8;-0.022480782724644842;-0.1669440784308355;-0.876599344899683;0.905;0.003289906755146991
24:17.8;-0.019206737734163277;-0.16696752457899636;-0.8691153760938863;0.9129999999999999;0.002787167363907394
24:17.8;-0.012306242285345022;-0.16594402471625105;-0.8604275598073939;0.914;0.0017571198817464646
24:17.9;-0.002472511029917166;-0.16432519001828194;-0.8495168315468489;0.91;0.0003451551587565606
24:17.9;0.009329174105778958;-0.16270687226920072;-0.8356682978463109;0.898;0.0012684782407322527
24:17.9;0.02198991400744813;-0.16174525998349346;-0.8185668701197498;0.887;0.002911449468403805
24:17.9;0.034384024321110485;-0.16207374112953077;-0.7983503047135508;0.8690000000000001;0.004449004630236847
24:17.9;0.04547766731497975;-0.1642316922582285;-0.7756126748420097;0.8420000000000001;0.005792953545258417
24:17.9;0.054410720472833116;-0.16861387661108707;-0.7513554670008882;0.737;0.0068932374809476055
24:17.9;0.060549870341244434;-0.1754438500995566;-0.7268929647831498;0.737;0.007721858381065224
24:17.9;0.06351467356681186;-0.18476718764088032;-0.7037314593083375;0.737;0.008258589596796304
24:17.9;0.0631800996258297;-0.19645659103629276;-0.6834446582946005;0.705;0.0084830155608963
24:17.9;0.05966019130223992;-0.21022452715347598;-0.6675560791194237;0.6809999999999999;0.008372512046828519
24:18.0;0.05327823474226698;-0.22564429205145098;-0.6574290066544786;0.6659999999999999;0.007903565208812578
24:18.0;0.04452828081474465;-0.24218142024272396;-0.6541664541259138;0.662;0.007054480205156314
24:18.0;0.03403054015072365;-0.25923525033573563;-0.6585295942994025;0.667;0.005809492497740751
24:18.0;0.022480852885245272;-0.27618816401189017;-0.6708849984206802;0.6859999999999999;0.004165488381091438
24:18.0;0.010594425169094856;-0.292458332874999;-0.6911892249065892;0.715;0.0021415999943354366
24:18.0;-0.0009534385655493005;-0.3075504389877166;-0.7190146515147484;0.8490000000000001;0.00021083698937627576
24:18.0;-0.011582970389865383;-0.32109719683733706;-0.7536100149764551;0.8490000000000001;0.0028028710742849395
24:18.0;-0.020852295002320307;-0.3328834680429079;-0.793976298826084;0.8490000000000001;0.0055112945970028195
24:18.0;-0.028478436300997088;-0.34284735761324214;-0.8389381208813023;0.9009999999999999;0.008191187643902772
24:18.0;-0.03433536943849049;-0.35105898128838836;-0.8872064528880558;0.951;0.010694155747286303
24:18.1;-0.03843340641637176;-0.357682635921703;-0.9374414618026917;1.005;0.012886972259923678
24:18.1;-0.04088567371121039;-0.3629291389438811;-0.9883217783721521;1.067;0.014665313868199114
24:18.1;-0.04186676413579685;-0.36700450713693067;-1.038617346613297;1.127;0.015958657910730943
24:18.1;-0.041569265098391796;-0.3700610432667897;-1.0872568952602975;1.175;0.016725452880560817
24:18.1;-0.040166084915922697;-0.3721571305632879;-1.1333789666360679;1.218;0.016941856360314228
24:18.1;-0.03778756880476835;-0.3732317599366496;-1.1763564645242663;1.286;0.016590767875903138
24:18.1;-0.03451856645216497;-0.373098069849464;-1.2157872837054071;1.286;0.015657894056152227
24:18.1;-0.03041211105670527;-0.3714571482337711;-1.2514473997587772;1.286;0.01413734603598593
24:18.1;-0.025509575184124854;-0.3679308962567205;-1.2832112133821694;1.301;0.012043913582475238
24:18.1;-0.019856877674832595;-0.3621118620911676;-1.3109556911757754;1.327;0.009426310156991972
24:18.2;-0.01351046442986271;-0.35362702050303346;-1.3344704364428615;1.354;0.006375653073974471
24:18.2;-0.0065329764646268025;-0.34220919204025974;-1.3533910376250384;1.3619999999999999;0.003025701361676861
24:18.2;0.0010138822821417787;-0.32776430205184526;-1.3671654147859233;1.3559999999999999;0.0004543287799021371
24:18.2;0.00906794671434881;-0.3104192449539437;-1.375060016181795;1.3659999999999999;0.003870608549442196
24:18.2;0.017551682596880544;-0.2905383295547601;-1.3762125661175812;1.3969999999999998;0.007017908650008193
24:18.2;0.026351343691302303;-0.2687049084558434;-1.3697330371678809;1.415;0.009698717196961658
24:18.2;0.03530336754083082;-0.24567436688017488;-1.3548421921858358;1.415;0.01175072580786755
24:18.2;0.04419451918862337;-0.22231160609558273;-1.3310243907690535;1.415;0.01307725413286036
24:18.2;0.05277365686537375;-0.19952541639763138;-1.2981666510863816;1.381;0.013669287031022435
24:18.2;0.0607715335451418;-0.17820388788177768;-1.2566597334896343;1.3359999999999999;0.013609277510463973
24:18.3;0.06792606461114638;-0.1591503953622009;-1.207444551056823;1.2790000000000001;0.01305303106761741
24:18.3;0.07400814329965591;-0.14302392317828486;-1.1519954679654911;1.205;0.01219379715084912
24:18.3;0.07884089364904587;-0.13029172201754396;-1.09224047812947;1.1159999999999999;0.011219839119727017
24:18.3;0.08230784801160869;-0.12120054346341502;-1.0304268367219749;1.028;0.01027928660657245
24:18.3;0.08435134141704623;-0.11576867796483727;-0.9689486127551252;0.955;0.009462018929771578
24:18.3;0.08496648519723304;-0.11379811564075455;-0.9101585711276159;0.8109999999999999;0.008800346804678689
24:18.3;0.08419561435109066;-0.11490381770004242;-0.8561914354040406;0.8109999999999999;0.0082831363014935
24:18.3;0.08212479489895824;-0.11855530269803788;-0.8088265869283005;0.8109999999999999;0.007875002496994354
24:18.3;0.07888124449548653;-0.12412601538504768;-0.7694066063453522;0.778;0.0075334251726397695
24:18.3;0.07462948406571147;-0.1309477296511508;-0.7388055408877988;0.7509999999999999;0.007220022587409491
24:18.4;0.06956378191123926;-0.13836777979040413;-0.7174268126459945;0.728;0.006905510039276087
24:18.4;0.06389482573258716;-0.1458055071796764;-0.7052148086097145;0.7120000000000001;0.006569934521551301
24:18.4;0.05783049710205375;-0.15280282241746035;-0.7016750066836659;0.705;0.006200465695185129
24:18.4;0.051553963710882084;-0.1590630990907006;-0.7059045373042121;0.698;0.005788652440295984
24:18.4;0.04520500773140764;-0.16447239234978736;-0.7166387226385008;0.698;0.005328191537066661
24:18.4;0.03887058044276405;-0.1690979755651527;-0.732320723644019;0.775;0.004813497586254884
24:18.4;0.032587833500633226;-0.1731628717076338;-0.7511975283691394;0.775;0.004239009779753006
24:18.4;0.026358725084618437;-0.17700064363621026;-0.7714359892331488;0.775;0.0035991433291653846
24:18.4;0.020171742148678586;-0.18099863956868714;-0.79124762039718;0.813;0.0028888908647371828
24:18.4;0.014024744045046727;-0.18553828914376125;-0.8090157399973356;0.85;0.002105161713252168
24:18.5;0.007943355861761085;-0.1909399721740387;-0.8234223199692063;0.882;0.0012488880476051677
24:18.5;0.001990998841780823;-0.19741900383189168;-0.8335666165946389;0.9109999999999999;0.0003276425345328492
24:18.5;-0.003730800650946927;-0.2050575730128413;-0.8390603055944831;0.932;0.0006419054051747947
24:18.5;-0.009090405386552806;-0.21379504454963855;-0.8400814398948346;0.938;0.001632684521759558
24:18.5;-0.01393936807663164;-0.22343694868772926;-0.8373716369799724;0.9279999999999999;0.0026080524702605276
24:18.5;-0.018128229333574337;-0.23368096972077154;-0.8321673414633641;0.855;0.003525245774335591
24:18.5;-0.021522761799435776;-0.24415510593112982;-0.8260690483001343;0.855;0.004340903787894144
24:18.5;-0.024018961113820916;-0.2544600133902706;-0.8208681620095977;0.855;0.005017035525792935
24:18.5;-0.02555569168526361;-0.26420835507894175;-0.818357581566025;0.835;0.0055255727016722675
24:18.5;-0.02612512002333315;-0.27305916069554403;-0.8201454348659786;0.8240000000000001;0.005850674233436346
24:18.6;-0.025781724119748817;-0.2807488284236346;-0.8274841651096557;0.816;0.005989486650299502
24:18.6;-0.024649895972943238;-0.28711876706911;-0.8411284105804452;0.815;0.005953042368624472
24:18.6;-0.02292859255445345;-0.29213590768575;-0.8612396716570209;0.8270000000000001;0.005768811719669696
24:18.6;-0.02089030495534697;-0.2959002243589348;-0.8873569258662007;0.858;0.0054851488518311
24:18.6;-0.01887145839673082;-0.2986337417482777;-0.9184485137065388;0.907;0.005176058254304071
24:18.6;-0.0172522982401196;-0.3006482314758339;-0.9530493462471721;1.105;0.004943345878625553
24:18.6;-0.01642650600165494;-0.30229420504214294;-0.9894641535355465;1.105;0.004913320378318909
24:18.6;-0.016763729178440125;-0.3039000641221978;-1.0259902668303744;1.105;0.005226905744316931
24:18.6;-0.01856978953845317;-0.3057129484114183;-1.0611084198863632;1.155;0.006023939145379445
24:18.6;-0.02204845986743663;-0.30785044335680034;-1.093614623701559;1.192;0.007423049400194418
24:18.7;-0.027267189803653568;-0.3102686897032631;-1.122691051907644;1.214;0.009498140599472725
24:18.7;-0.03412873760058809;-0.3127507354552018;-1.1479191354499694;1.217;0.012252645245836937
24:18.7;-0.042351289393276044;-0.31491862779431246;-1.1692367656327163;1.215;0.015594356214038176
24:18.7;-0.05146144025029477;-0.31627192072828414;-1.1868468086315596;1.216;0.019316891437132746
24:18.7;-0.06080790694909554;-0.3162515119156329;-1.2010926786546736;1.213;0.023097723868843296
24:18.7;-0.06960662328450637;-0.3143200391830188;-1.212322606104452;1.203;0.026524111168942103
24:18.7;-0.07702263782805684;-0.31004329883232745;-1.2207664681003785;1.203;0.02915233384329694
24:18.7;-0.08227917690553296;-0.3031576236179041;-1.226448086937338;1.203;0.03059198112933605
24:18.7;-0.08477258250447989;-0.2936140540848084;-1.229151445948995;1.2229999999999999;0.030594097729885875
24:18.7;-0.0841733719428703;-0.28159441206476016;-1.2284511651332106;1.249;0.029117672308553718
24:18.8;-0.08049838525001295;-0.2674960426461595;-1.223806157076457;1.2819999999999998;0.02635221736081763
24:18.8;-0.07413825961091407;-0.25188556806462564;-1.2147014301540229;1.3130000000000002;0.02268376892937908
24:18.8;-0.0658261618910995;-0.23542855626509593;-1.2008089433510507;1.3259999999999998;0.018609366395114898
24:18.8;-0.05654454582053043;-0.2188077657139441;-1.1821287087341845;1.3119999999999998;0.014625752372049303
24:18.8;-0.04738153720511276;-0.20264436197489205;-1.1590706321838082;1.2790000000000001;0.011128934177227781
24:18.8;-0.03936036559845439;-0.18743438117717948;-1.1324495588242494;1.088;0.008354630504170712
24:18.8;-0.033272375772340226;-0.1735090963976878;-1.1033927508992973;1.088;0.006369952394805021
24:18.8;-0.029545849654871094;-0.16102436821131838;-1.0731907122870386;1.088;0.005105814036555126
24:18.8;-0.02817629244270348;-0.14997958457244098;-1.0431338023786012;1.024;0.004408146417943318
24:18.8;-0.02873045030211849;-0.14026100405670275;-1.0143611343203933;0.9690000000000001;0.0040876337569569
24:18.9;-0.030423023044426015;-0.13169958023432288;-0.987731800798975;0.927;0.003957544378468836
24:18.9;-0.03225419211060295;-0.12413159108187614;-0.9637297381345733;0.91;0.0038585466102850846
24:18.9;-0.033184669863381644;-0.11745145906716475;-0.9424186566627413;0.91;0.0036731595473980883
24:18.9;-0.0323142416499828;-0.11164910306191449;-0.9234580311936292;0.92;0.0033317036875621076
24:18.9;-0.029026394095363676;-0.10682713399492481;-0.9061781169710447;0.93;0.002809882987481955
24:18.9;-0.023070473301542303;-0.1031950873366147;-0.8896995094491793;0.9079999999999999;0.002118160565716524
24:18.9;-0.014572859146876619;-0.10104114241030335;-0.8730760595471212;0.9079999999999999;0.0012855681221781961
24:18.9;-0.003990537472346569;-0.10068785006902224;-0.8554400788925287;0.9079999999999999;0.0003437146591973748
24:18.9;0.007970176491411443;-0.10244245902156195;-0.8361322916186301;0.89;0.0006826890381762662
24:18.9;0.020452554547274716;-0.106550681702982;-0.8148023093575077;0.865;0.001775644594010957
24:19.0;0.03255490693034902;-0.11315914995463888;-0.7914692871188606;0.8370000000000001;0.0029156823057738582
24:19.0;0.04342980743508782;-0.12229048561223184;-0.7665383116297962;0.81;0.004071125018010414
24:19.0;0.052362328581516536;-0.13383423270988262;-0.7407738955051458;0.782;0.00519124869146595
24:19.0;0.05881683329834071;-0.14755477085299962;-0.7152351996938662;0.752;0.006207314845748097
24:19.0;0.0624507008949233;-0.16311458689955313;-0.6911787515396607;0.7170000000000001;0.007040775486200153
24:19.0;0.06310244062183175;-0.18010884421382584;-0.669936421392685;0.644;0.007614033533372759
24:19.0;0.06076720866992298;-0.19810405610153742;-0.6527825714339677;0.644;0.007858347071410058
24:19.0;0.055572476441930474;-0.21667072637691556;-0.6408120627934447;0.644;0.007715972446138982
24:19.0;0.047761367352683236;-0.23540220938242004;-0.6348503409259834;0.645;0.007137705801062294
24:19.0;0.03768434829343354;-0.25392063093814793;-0.6354053651277286;0.6559999999999999;0.006080088140839573
24:19.1;0.025794652052266977;-0.27187757110551874;-0.6426595656878896;0.6779999999999999;0.004506963402907659
24:19.1;0.012640371923290965;-0.28895689181026896;-0.6564957309637224;0.7140000000000001;0.002397865482515378
24:19.1;-0.0011537375243029432;-0.30488279538017066;-0.6765495561635281;0.75;0.0002379795007393426
24:19.1;-0.014920118518450265;-0.3194322799449235;-0.7022795126276752;0.784;0.0033470413158211867
24:19.1;-0.02800026798835904;-0.33244889737794714;-0.7330434428521789;0.816;0.006823650869202448
24:19.1;-0.0398114285971003;-0.34385398904290215;-0.7681719416994991;0.924;0.010515750397737661
24:19.1;-0.049916750522106285;-0.35365135475900883;-0.8070277855091428;0.924;0.014246563544085752
24:19.1;-0.05808058022249012;-0.36192119281608925;-0.8490384244063024;0.924;0.017847291053465778
24:19.1;-0.06429175760813095;-0.36880080156946166;-0.8936938502800659;0.961;0.02119024238510862
24:19.1;-0.06874834988868507;-0.37445325262863777;-0.9405171221417176;1.003;0.024211772932598324
24:19.2;-0.07180926470546818;-0.37902810037492346;-0.9890253534563136;1.043;0.02691902423304466
24:19.2;-0.07392469979562001;-0.3826189371362162;-1.0386961677372322;1.09;0.029379510783873148
24:19.2;-0.07555802062224659;-0.38522324703963806;-1.088946412247412;1.1420000000000001;0.03169564311894272
24:19.2;-0.07710913088769326;-0.3867111698833859;-1.1391242853260004;1.199;0.03396750402149445
24:19.2;-0.07884679829652083;-0.3868099366083204;-1.18851249117419;1.252;0.03624811568781795
24:19.2;-0.08085635928690588;-0.38510953720490904;-1.2363361985974657;1.349;0.03849772284840038
24:19.2;-0.08300890485809008;-0.3810934919045832;-1.281764722457527;1.349;0.04054754186772764
24:19.2;-0.08495725071702531;-0.37419644652391454;-1.3238937568565223;1.349;0.04208751100992976
24:19.2;-0.08616288106332745;-0.363886982930041;-1.3617037498375522;1.359;0.04269424773687858
24:19.2;-0.08595712465454988;-0.34976858543897826;-1.3940091722581118;1.3559999999999999;0.0419110278118352
24:19.3;-0.08363777206299487;-0.3316842443170853;-1.419429649107154;1.3730000000000002;0.03937686804374048
24:19.3;-0.0785954861366926;-0.309804512214129;-1.4364165874859451;1.4340000000000002;0.03497564683465963
24:19.3;-0.07045124582728488;-0.28467921653183587;-1.4433569539563489;1.4980000000000002;0.02894797495765363
24:19.3;-0.059172839633156615;-0.2572379950120787;-1.4387519725920204;1.551;0.02189996692955406
24:19.3;-0.04513472357411668;-0.22873086304765577;-1.4214404162894738;1.58;0.014674530504473236
24:19.3;-0.029096821267005073;-0.20060931615043678;-1.390817378743958;1.4280000000000002;0.008118330965055435
24:19.3;-0.01210411155102761;-0.1743655588803741;-1.34700259143406;1.4280000000000002;0.0028429030855158426
24:19.3;0.0046608106064314255;-0.1513657629292467;-1.290934764647551;1.4280000000000002;0.0009107378922216876
24:19.3;0.020028614358485096;-0.13271468666285813;-1.224386380039951;1.31;0.003254530758760673
24:19.3;0.032968737639617204;-0.11916991069562714;-1.1498939160724442;1.186;0.004517796957117284
24:19.4;0.042679497161466795;-0.11110448992835434;-1.0706012157430016;1.07;0.005076666521069567
24:19.4;0.048639443676955524;-0.10851032220284092;-0.9900321582854308;0.968;0.0052252726157281885
24:19.4;0.05061949371089991;-0.1110341838158522;-0.9118259860245352;0.879;0.005124912637923141
24:19.4;0.04866238285408022;-0.11803757348183928;-0.8394696412481041;0.7979999999999999;0.004821904882078623
24:19.4;0.04304245164229108;-0.1286712992177954;-0.7760523247299607;0.735;0.00429803245480835
24:19.4;0.03421955011940989;-0.14195640624214595;-0.7240589973337301;0.645;0.0035172500657435187
24:19.4;0.022796633302059714;-0.15686292799300303;-0.685216243063411;0.645;0.002450296727636352
24:19.4;0.009484471422961957;-0.1723779910999955;-0.6604028182894907;0.645;0.0010797018994669549
24:19.4;-0.00492905319013049;-0.18755857985280222;-0.6496305580786974;0.6409999999999999;0.0006005744966698798
24:19.4;-0.01961163474707287;-0.2015714707126057;-0.6520890095924678;0.657;0.0025778030984176213
24:19.5;-0.03372790448725091;-0.21372731725445565;-0.6662394276710092;0.691;0.004802636577635368
24:19.5;-0.046492162675141536;-0.22351377886896012;-0.6899444900571401;0.727;0.007169654048159505
24:19.5;-0.05722958088746209;-0.23062690601969763;-0.7206230297046604;0.76;0.009511273614906215
24:19.5;-0.065438272862385;-0.23499522144525442;-0.755421147329821;0.799;0.011616625743299651
24:19.5;-0.0708419453985524;-0.23678887301507634;-0.7913938834809658;0.8420000000000001;0.013275303502477364
24:19.5;-0.07342270614071664;-0.23640711618666524;-0.8256931502293205;0.94;0.014332092891843309
24:19.5;-0.07342636378438236;-0.23444173583707656;-0.8557527186657974;0.94;0.014731102028256542
24:19.5;-0.07133731663809917;-0.23162058326067894;-0.8794524988690248;0.94;0.014531361515713591
24:19.5;-0.0678243029683884;-0.22873928404337496;-0.8952447464897934;0.9590000000000001;0.013888900856283116
24:19.5;-0.06366094131320704;-0.2265879733496461;-0.9022369953343469;0.968;0.01301459152483822
24:19.6;-0.05962878734788143;-0.225878043276766;-0.9002357965525979;0.97;0.012125126332774953
24:19.6;-0.05641645416907626;-0.22717494283610715;-0.8897531965289739;0.9620000000000001;0.011403437095100832
24:19.6;-0.054532190178866936;-0.23084485517295836;-0.871972343074553;0.941;0.010976802515929735
24:19.6;-0.05424579480043042;-0.2370229883845095;-0.8486675012010058;0.909;0.010911742728428339
24:19.6;-0.055569834947122074;-0.24560952923440857;-0.8220769463295322;0.87;0.011220101583335789
24:19.6;-0.0582821691973539;-0.25629599578947926;-0.7947335129099031;0.792;0.0118713211926743
24:19.6;-0.061982794909673636;-0.26861770970305726;-0.7692676201650114;0.792;0.012808056948154255
24:19.6;-0.06617028578508483;-0.282019054373841;-0.7482070925324837;0.792;0.013962503117747459
24:19.6;-0.07032165948500262;-0.295915786491784;-0.7337964420908198;0.772;0.015269782358255622
24:19.6;-0.07396482581464324;-0.3097461394621849;-0.7278453744616574;0.759;0.016675169895065338
24:19.7;-0.07673770767437431;-0.32301013864806344;-0.7316079080961729;0.757;0.018134407355254976
24:19.7;-0.07842905792512393;-0.33529730046805495;-0.7456973501266171;0.769;0.019609641545531166
24:19.7;-0.07899699831136262;-0.34630098636787615;-0.7700484681911511;0.7959999999999999;0.021066014526829022
24:19.7;-0.07856498913668326;-0.3558179335094946;-0.8039377948147591;0.835;0.022473946057463702
24:19.7;-0.07739876880231569;-0.3637333513760359;-0.8460675554222403;0.882;0.02381892833418436
24:19.7;-0.07586922008630416;-0.36999397277531876;-0.894709932509848;1.079;0.025115540436001258
24:19.7;-0.0744055148504916;-0.3745732623800528;-0.9478921438534776;1.079;0.026418053996978854
24:19.7;-0.07344184602760884;-0.3774344282023233;-1.0035837464285162;1.079;0.02781882075316665
24:19.7;-0.07336013173220443;-0.3784974868035042;-1.059847910427478;1.151;0.02942840000754469
24:19.7;-0.07443064074080667;-0.3776166006959197;-1.114943560943926;1.214;0.03133687749177305
24:19.8;-0.07675399568180256;-0.37457427090201734;-1.1673853888949381;1.272;0.03356241394900595
24:19.8;-0.08021217949135097;-0.3690990301887623;-1.215965489204022;1.318;0.03600016325922729
24:19.8;-0.08444156500558939;-0.36090959527214295;-1.2597314812566507;1.3219999999999998;0.03839128820765012
24:19.8;-0.08884466501846859;-0.3497796021561725;-1.2979200387084657;1.295;0.04033423007462772
24:19.8;-0.09265484226823328;-0.33560820950800685;-1.329861403695768;1.2819999999999998;0.04135300544947016
24:19.8;-0.09505560183978078;-0.31848032366431045;-1.3548880879158434;1.3719999999999999;0.04101698617580916
24:19.8;-0.09533524500809958;-0.29870660346548744;-1.3722836401854337;1.3719999999999999;0.03907888793269043
24:19.8;-0.09303984207788539;-0.27684027055379273;-1.3812905124018775;1.3719999999999999;0.03557814152715443
24:19.8;-0.0880856633014708;-0.253668103473635;-1.3811766831193077;1.405;0.030861734374206754
24:19.8;-0.0808060221508061;-0.23016958405628166;-1.3713525575589607;1.4340000000000002;0.025505907593291258
24:19.9;-0.0719240953027808;-0.207440136308498;-1.3515234107341523;1.455;0.020164653783236123
24:19.9;-0.062455722844174236;-0.18658396843272462;-1.3218489463065883;1.453;0.015403818546680142
24:19.9;-0.05355711705047065;-0.16859232626720846;-1.283069005952382;1.421;0.011585239291789881
24:19.9;-0.04634254041594957;-0.1542284358891378;-1.2365537549722116;1.358;0.008838067052714286
24:19.9;-0.0417036256491273;-0.14394051649271586;-1.1842484755500726;1.27;0.007108855795338967
24:19.9;-0.0401629649673189;-0.13781931491461255;-1.128505724710293;0.982;0.006246541357037401
24:19.9;-0.041787389597035395;-0.13560639293402857;-1.0718326154419406;0.982;0.006073686542307541
24:19.9;-0.04617183448611902;-0.13674669538986986;-1.0166162614776688;0.982;0.006418758298575737
24:19.9;-0.052491521495944486;-0.14047132508582022;-0.9648934912692653;0.915;0.0071146938571625806
24:19.9;-0.05961428604913958;-0.14589749637548743;-0.9181952947107305;0.872;0.007986072516403368
24:20.0;-0.06626007657783367;-0.15213585260278056;-0.8774627514791056;0.84;0.008845292436388553
24:20.0;-0.07118541584159913;-0.15839479613114757;-0.8430261724360643;0.8240000000000001;0.009505456823942384
24:20.0;-0.07336238214461613;-0.16406945189667366;-0.8146456266132073;0.823;0.009805503125642719
24:20.0;-0.07212119747143719;-0.168803019412612;-0.791610082619793;0.83;0.009637279548527205
24:20.0;-0.0672322787678106;-0.17251109310478768;-0.772884662313469;0.8440000000000001;0.008964158923677175
24:20.0;-0.05891496796015707;-0.1753650098093001;-0.7572864676843554;0.821;0.007823998994609466
24:20.0;-0.047776881761418054;-0.17773852832530318;-0.7436633938074205;0.821;0.006315035343278522
24:20.0;-0.03470640697211788;-0.18013054747865156;-0.7310505108759987;0.821;0.004570296847028975
24:20.0;-0.02074785494053902;-0.18307975424988307;-0.7187840817418426;0.79;0.0027303100919647705
24:20.0;-0.006979518137580256;-0.18708374940740358;-0.7065611253719127;0.753;0.0009225953140340615
24:20.1;0.005595707483679625;-0.192530717091229;-0.6944424050227552;0.7190000000000001;0.0007481544517725094
24:20.1;0.016138987033237854;-0.19964987102401083;-0.68280819362286;0.701;0.002200108153915698
24:20.1;0.02403478562008186;-0.20848567047775352;-0.6722841831974662;0.6920000000000001;0.0033687544572699557
24:20.1;0.028916076186193313;-0.21889800501663687;-0.6636551680020563;0.693;0.00420071912977259
24:20.1;0.030657971438938305;-0.23058704977924613;-0.6577780949901788;0.698;0.004650051200593002
24:20.1;0.02934889867241712;-0.24313821426879056;-0.6554986506358181;0.7040000000000001;0.004677532713710181
24:20.1;0.02525216855341057;-0.25607879478943973;-0.6575711137771901;0.7040000000000001;0.0042522131249349135
24:20.1;0.018769687099688938;-0.2689345835581746;-0.6645812929153639;0.7040000000000001;0.003354685401990221
24:20.1;0.010414100495535044;-0.2812763511780613;-0.676875064253043;0.711;0.001982729640590817
24:20.1;0.0007886744586086856;-0.292753297672126;-0.6944978130938093;0.718;0.00016035055028790302
24:20.2;-0.009431288196350961;-0.3031159279438724;-0.7171527748154319;0.7340000000000001;0.002050177472407246
24:20.2;-0.01952370107839467;-0.31222976153196835;-0.7441891913671644;0.7559999999999999;0.004536488403726786
24:20.2;-0.02875760052577675;-0.32007780412072506;-0.7746326198418737;0.7959999999999999;0.007130237348772053
24:20.2;-0.03644433413491933;-0.32674882533077076;-0.8072668340732394;0.858;0.009613049196817177
24:20.2;-0.041997128940029514;-0.3324110217512755;-0.8407678487359198;0.9229999999999999;0.011737378580189929
24:20.2;-0.04499096655886477;-0.33727454167950116;-0.8738761046336544;1.054;0.013260464838598314
24:20.2;-0.04521358560626873;-0.34154880043571606;-0.9055757650613934;1.054;0.013984485900113232
24:20.2;-0.042697912079611516;-0.34540023706664175;-0.9352392697811847;1.054;0.01379278619188049
24:20.2;-0.0377270585104251;-0.3489145349638584;-0.9627031412637083;1.065;0.012672561164279667
24:20.2;-0.03080674376241798;-0.35206608618979146;-0.9882656118735911;1.075;0.010718738417188683
24:20.3;-0.022605863679111573;-0.3546967554999832;-1.0126180631407637;1.0859999999999999;0.008119400990538197
24:20.3;-0.013872370537607173;-0.3565058610156925;-1.0367283711285777;1.095;0.005127224552048409
24:20.3;-0.0053373145201096855;-0.3570543549877673;-1.0616917198467184;1.104;0.0020232780067315236
24:20.3;0.002377136541509833;-0.35578779817051853;-1.088562273087404;1.113;0.0009206582654835588
24:20.3;0.008831838045824702;-0.35208292660820506;-1.1181792116284488;1.129;0.0034770222997282632
24:20.3;0.013819223274961094;-0.3453197217621917;-1.1510015355919168;1.173;0.005492637264979247
24:20.3;0.01738357596201418;-0.334974041089173;-1.1869659188286457;1.173;0.0069117579630883046
24:20.3;0.019810216815129372;-0.3207168261287747;-1.2253817253382282;1.173;0.007785425861224137
24:20.3;0.02157921836670347;-0.30250033174809765;-1.2648806999932989;1.188;0.00825678794708742
24:20.3;0.023283068133937972;-0.28061383973694265;-1.3034445547682452;1.237;0.008516121669664577
24:20.4;0.02551775759567508;-0.2556984364163577;-1.3385322714243724;1.3259999999999998;0.008733723252357498
24:20.4;0.02876750902610326;-0.2287175423965689;-1.367312781389764;1.423;0.008996417617650236
24:20.4;0.033308007972187005;-0.2008853364248667;-1.3869810152301298;1.5130000000000001;0.009280415338144965
24:20.4;0.03914877574809956;-0.1735608528320869;-1.3951075396708024;1.5719999999999998;0.009479330093363741
24:20.4;0.04602520395616768;-0.14812174296152114;-1.389955613729343;1.581;0.009475790871897616
24:20.4;0.05343919261223697;-0.1258353569521466;-1.370703244050322;1.381;0.009217348624965706
24:20.4;0.06073611949132736;-0.10774438163150317;-1.3375375206159856;1.381;0.008752812948872486
24:20.4;0.06719795161908117;-0.09458104266009067;-1.2916324246199002;1.381;0.008209166627430969
24:20.4;0.0721332741363868;-0.08671747506884307;-1.2350446737182958;1.284;0.007725470464652569
24:20.4;0.07495426931634848;-0.08415140544600926;-1.170550628982078;1.19;0.007383256411582671
24:20.5;0.07523877178386677;-0.08652138749379643;-1.1014315069490792;1.099;0.007170057991744568
24:20.5;0.07277636419572976;-0.09314675725690563;-1.031218279874269;1.01;0.006990507375585601
24:20.5;0.06759469044475575;-0.10309009637924803;-0.9634184253564079;0.924;0.00671343018749355
24:20.5;0.05996124138587598;-0.11524065248243641;-0.9012490981307884;0.852;0.006227606556703378
24:20.5;0.050357672942110146;-0.12841548091464144;-0.8473979805238475;0.7979999999999999;0.005479872578506332
24:20.5;0.03942695501981879;-0.1414714293005083;-0.803829545379007;0.7140000000000001;0.004483590534730065
24:20.5;0.027899159737253976;-0.1534157178051652;-0.7716529258409547;0.7140000000000001;0.003302805408247897
24:20.5;0.01650871291365968;-0.16349847068182927;-0.7510666769436586;0.7140000000000001;0.0020272411060726077
24:20.5;0.005917655703449417;-0.17127262888901887;-0.7413893513833496;0.722;0.0007514221651108613
24:20.5;-0.003346755489166481;-0.17661551584552296;-0.741171762826259;0.746;0.0004380984369299576
24:20.6;-0.010937394920990415;-0.17971429950362047;-0.7483752469704633;0.784;0.001471011075228619
24:20.6;-0.016712055677167135;-0.1810202047802684;-0.7605946755448991;0.82;0.0023009660273427385
24:20.6;-0.020732116315395895;-0.18117700756045163;-0.7753019421636045;0.85;0.0029121758156342905
24:20.6;-0.023231564981862653;-0.18093148438237874;-0.7900837541259756;0.872;0.003320976059509839
24:20.6;-0.024558467209463784;-0.1810364957691769;-0.8028492699566057;0.8809999999999999;0.003569450870001792
24:20.6;-0.025097620087310576;-0.1821591541861313;-0.8119892376529637;0.873;0.0037122209298366456
24:20.6;-0.025188817486652325;-0.18480527423177834;-0.8164774552193922;0.873;0.0038007240463415345
24:20.6;-0.025057671596247975;-0.1892670958229616;-0.8159148213257669;0.873;0.0038695517008223495
24:20.6;-0.024773292982362798;-0.1955969561917679;-0.8105219943057613;0.861;0.0039274497343142626
24:20.6;-0.02424007760869087;-0.20360732213833663;-0.8010874792165688;0.8420000000000001;0.0039537330394923
24:20.7;-0.023222998178537235;-0.212896015440788;-0.7888775358047242;0.821;0.0039002766282312655
24:20.7;-0.021399651356593146;-0.22289313335758124;-0.7755159525197006;0.805;0.0036990833998780197
24:20.7;-0.018427871775730752;-0.23292402725984654;-0.7628441612781677;0.79;0.0032743514986477637
24:20.7;-0.014015040455212988;-0.2422815335283421;-0.7527728669867294;0.779;0.0025561046273798608
24:20.7;-0.007975301618231689;-0.25030010499531957;-0.7471352708909461;0.772;0.001491445498112296
24:20.7;-0.0002646864143990812;-0.25642440634017727;-0.7475502538552884;0.784;5.0737773199763884e-05
24:20.7;0.009008112651646345;-0.2602654709689128;-0.7553016729230264;0.784;0.0017708052871491496
24:20.7;0.019588805099653835;-0.26163899212798436;-0.7712373775761702;0.784;0.003952742123556774
24:20.7;0.031092953109061492;-0.2605828711002013;-0.7956908815198274;0.8009999999999999;0.006446919061868559
24:20.7;0.043025333008544726;-0.2573538518635367;-0.8284310707340417;0.8240000000000001;0.00917299785901797
24:20.8;0.05480420127062034;-0.2524046580002322;-0.8686479560585375;0.861;0.012015864438784917
24:20.8;0.06579136145428806;-0.24634343872494674;-0.9149821702612518;0.903;0.014829363279032563
24:20.8;0.07532596581030153;-0.23987745923187348;-0.9656032588034403;0.9540000000000001;0.01744748653161466
24:20.8;0.08275907771118231;-0.2337436995776893;-1.0183385098071893;1.0170000000000001;0.019699160705324622
24:20.8;0.08748817199959474;-0.22863065911349584;-1.0708500353692871;1.087;0.021419654733063363
24:20.8;0.08899342783205141;-0.22509789592447457;-1.1208500575382363;1.2930000000000001;0.022453129909805573
24:20.8;0.08687775942557012;-0.2235021340889648;-1.1663279792355732;1.2930000000000001;0.022647015658549027
24:20.8;0.0809097352592024;-0.22394014838630547;-1.2057441171722183;1.2930000000000001;0.02184680304740752
24:20.8;0.07106559370973219;-0.22621766684844735;-1.238146144659614;1.3259999999999998;0.019904799953481992
24:20.8;0.0575654770216936;-0.229850907900843;-1.2631909279362439;1.337;0.016713881908147175
24:20.9;0.04089877421024517;-0.23410537317481897;-1.2810803782526727;1.329;0.012265861396818555
24:20.9;0.021831829689184564;-0.23807355364076782;-1.2924285977189578;1.298;0.006717502680826013
24:20.9;0.0013878760843819495;-0.2407854903208584;-1.2980813299823388;1.258;0.00043379336856822577
24:20.9;-0.019212761017524168;-0.24133632511372385;-1.29891776088592;1.236;0.0060227402227409285
24:20.9;-0.038659951486600334;-0.2390103184577083;-1.2956726590312293;1.228;0.011972180329790675
24:20.9;-0.055704597614954436;-0.2333827472744871;-1.288815004501415;1.265;0.016755229190553684
24:20.9;-0.06933105077515443;-0.22438563524009225;-1.2785060013946201;1.265;0.019889579618901136
24:20.9;-0.07891217439057006;-0.21232815199667804;-1.2646404100329283;1.265;0.02118939931116042
24:20.9;-0.08430667119304874;-0.19786678465107074;-1.2469595539436547;1.298;0.020801143271661108
24:20.9;-0.08587556604026574;-0.18192458170398484;-1.2252147930893158;1.321;0.01914137931321613
24:21.0;-0.08441496497848042;-0.16556737621843742;-1.1993507612066687;1.321;0.016762563120199338
24:21.0;-0.08101490603591682;-0.14985794135737857;-1.1696674125384734;1.3019999999999998;0.01420061278064404
24:21.0;-0.07686485445698972;-0.13571698483022931;-1.1369177594521187;1.252;0.011860174045143683
24:21.0;-0.07303889126422407;-0.12381612176885283;-1.1023093852332522;1.173;0.009968616156627842
24:21.0;-0.07030200138812802;-0.11451754690337022;-1.0673985462901299;1.094;0.008593425816587856
24:21.0;-0.06897673195139319;-0.10786568645412609;-1.0338906723393742;0.905;0.007692376685578478
24:21.0;-0.06889564080895078;-0.10362791920797329;-1.0033876677093552;0.905;0.007163698193454099
24:21.0;-0.06944474090629348;-0.10137267717542368;-0.9771419314275969;0.905;0.006878883086256709
24:21.0;-0.0696873741237198;-0.10056811418357596;-0.9558725604454891;0.882;0.006699068236742157
24:21.0;-0.0685500891686804;-0.10068630197857718;-0.9396708209274006;0.888;0.006485659667917461
24:21.1;-0.06504274605182733;-0.10130108859399152;-0.9279953241788713;0.898;0.006114469301096364
24:21.1;-0.05847171806663845;-0.1021672952340427;-0.9197478313706984;0.9179999999999999;0.005494479070462152
24:21.1;-0.04860017791469399;-0.10326799206395729;-0.9134181316292459;0.943;0.004584302001626539
24:21.1;-0.035720408992176864;-0.10482013080114853;-0.9072804357682069;0.9740000000000001;0.0033970556867823965
24:21.1;-0.020623333511512777;-0.1072372663393235;-0.8996148439397539;0.986;0.001989579110464844
24:21.1;-0.0044722963641459345;-0.11105796167138188;-0.8889212365803674;0.938;0.0004415130605333995
24:21.1;0.011389514583183179;-0.11685513091654659;-0.8740963238849163;0.938;0.0011633550919592235
24:21.1;0.025650253025739558;-0.12514260344540185;-0.8545578230938133;0.938;0.0027430788623947562
24:21.1;0.03721116140431287;-0.13629207339630203;-0.8303114403625463;0.9009999999999999;0.004210996159949761
24:21.1;0.045311591935571494;-0.15046961728703123;-0.8019588742991401;0.856;0.005467769957799184
24:21.2;0.0495923832044887;-0.16759750192551043;-0.7706461292977532;0.804;0.006405271187624367
24:21.2;0.05010242527378679;-0.18734341503199498;-0.7379588240772417;0.752;0.006926746783694511
24:21.2;0.04725615283415977;-0.20913586359494132;-0.7057806162588636;0.711;0.006975199011267603
24:21.2;0.04175323481242118;-0.23220287344855925;-0.6761354767083009;0.6859999999999999;0.006555282939711201
24:21.2;0.034475356000130526;-0.2556313974969667;-0.6510328130812325;0.677;0.005737541396362044
24:21.2;0.026376495633950434;-0.27844448645350595;-0.6323281645895639;0.693;0.004644064510400871
24:21.2;0.018381918094994412;-0.29968880863878045;-0.6216047325961379;0.693;0.0034243304227199486
24:21.2;0.011307207090294103;-0.3185181624428132;-0.6200756376980981;0.693;0.002233233924365681
24:21.2;0.005802444110181248;-0.334258509780186;-0.6285043888990899;0.696;0.0012189945203111504
24:21.2;0.0023199813390173277;-0.34645017033578274;-0.6471415911930934;0.7020000000000001;0.0005201451858049968
24:21.3;0.001100189639189342;-0.3548723423890925;-0.6756801178601949;0.72;0.0002638036764639821
24:21.3;0.002169312825429211;-0.3595552483054093;-0.7132375393892306;0.75;0.0005563165874986819
24:21.3;0.00534555480086382;-0.36077966495502006;-0.7583794615117206;0.792;0.0014625859594288378
24:21.3;0.010251698828587797;-0.359058794751547;-0.8091975599806449;0.843;0.00297862597497386
24:21.3;0.016334872224591318;-0.3550961780115443;-0.8634512276049132;0.9059999999999999;0.0050084062734834225
24:21.3;0.022897030665404494;-0.34971698649718946;-0.9187703737600345;1.124;0.00735703591069832
24:21.3;0.029140768903394808;-0.34377809407331106;-0.9728945956254074;1.124;0.009746417191020007
24:21.3;0.03423160029631057;-0.33807010485018885;-1.0238988100591015;1.124;0.011849253999319985
24:21.3;0.03737346026590061;-0.3332255100049206;-1.070354666117517;1.179;0.013329972620270657
24:21.4;0.037892925890037024;-0.3296415730223261;-1.1114070972912535;1.214;0.01388267907349396
24:21.4;0.03532647821254076;-0.32742260227090775;-1.1467731430105779;1.232;0.013264366493065947
24:21.4;0.029501190251310185;-0.326348230478591;-1.1766746284612621;1.239;0.011328624707265027
24:21.4;0.02059559540035239;-0.3258773032264905;-1.2017132110153137;1.235;0.008065462955481838
24:21.4;0.009167036465671928;-0.32519576619797735;-1.222700305150575;1.237;0.0036449691951933655
24:21.4;-0.0038662326759859433;-0.3233112796882913;-1.240461516727447;1.239;0.0015505727205725355
24:21.4;-0.017296061038236124;-0.31918811830027055;-1.255639835579497;1.213;0.006932007295362868
24:21.4;-0.029747412491117658;-0.31190441254867834;-1.2685248879989357;1.213;0.011769816902432924
24:21.4;-0.039837804291721714;-0.30080504656050694;-1.2789382673827696;1.213;0.015326044915798398
24:21.4;-0.04634875732273111;-0.28562340194257885;-1.286203483802647;1.25;0.017027134386173013
24:21.5;-0.04838789254109022;-0.26655211791250033;-1.289218524513981;1.304;0.01662820546826374
24:21.5;-0.04552278120632625;-0.2442510546353868;-1.2866294760600026;1.358;0.01430601682931051
24:21.5;-0.0378626084507451;-0.2197888086499651;-1.2770796839671388;1.4;0.010627573112266595
24:21.5;-0.02606379271158162;-0.19452495385176813;-1.2594876271368698;1.415;0.006385675413600478
24:21.5;-0.011249867273090996;-0.16995159822951744;-1.2332956265054524;1.3980000000000001;0.0023579785120235236
24:21.5;0.005142657937379329;-0.14751982669424762;-1.19863454434592;1.349;0.0009093369144542877
24:21.5;0.0215625714228746;-0.12847756137165317;-1.156368028503226;1.095;0.0032034939736588722
24:21.5;0.036546898557205144;-0.11374207706006782;-1.1080155836665377;1.095;0.004605932308473594
24:21.5;0.04888981258774021;-0.10382385388354025;-1.0555944916111986;1.095;0.005358122437286854
24:21.5;0.057750723677925754;-0.09880870383045269;-1.0014332276334408;0.9990000000000001;0.00571445254168495
24:21.6;0.06269356463310422;-0.09839424380920635;-0.9479848207321545;0.9259999999999999;0.005847820581686158
24:21.6;0.06366554646007722;-0.10196800389364069;-0.8976447920531407;0.877;0.005827374166775801
24:21.6;0.0609321159128542;-0.10870937090266933;-0.8525785533653195;0.83;0.005647388249335529
24:21.6;0.054987706327780904;-0.1176970282916353;-0.8145695720070586;0.789;0.0052718043638298245
24:21.6;0.046461839108222616;-0.1280078365058952;-0.784897558726791;0.755;0.004668162143525118
24:21.6;0.036037019978282764;-0.1387996775490021;-0.7642518706364042;0.727;0.0038227318776233
24:21.6;0.024388277370877766;-0.14937554683084397;-0.7526848937919018;0.7240000000000001;0.0027420403024264912
24:21.6;0.012146306445247456;-0.1592273332218457;-0.7496109230630401;0.7240000000000001;0.0014497655037014386
24:21.6;-0.00011968411677922111;-0.1680572468786123;-0.753854883335327;0.7240000000000001;1.5162873658278446e-05
24:21.6;-0.01190643881401856;-0.17577599065264443;-0.7637522525804249;0.7609999999999999;0.0015984311811766544
24:21.7;-0.02277660051269587;-0.1824796357236657;-0.7772976145870453;0.804;0.0032306554643979912
24:21.7;-0.03236076227912333;-0.18840880944097632;-0.7923329615108118;0.848;0.0048308958172171325
24:21.7;-0.0403636209978648;-0.19389398601315017;-0.8067579144671955;0.887;0.006313899910579841
24:21.7;-0.04657087079675012;-0.1992923251853023;-0.8187365699192433;0.9129999999999999;0.007598871875226398
24:21.7;-0.050850857898607785;-0.20492486093412848;-0.8268738339456077;0.929;0.008616525594535384
24:21.7;-0.053146954268188946;-0.21102467136496683;-0.8303379151456393;0.934;0.009312504229553683
24:21.7;-0.05346183171193646;-0.2177045746723576;-0.8289137287598384;0.866;0.009647631840857478
24:21.7;-0.05183966701373126;-0.2249470708755275;-0.8229849624458884;0.866;0.009596976813024925
24:21.7;-0.048353711348018705;-0.23261275137619825;-0.8134580352341885;0.866;0.009149523674845448
24:21.7;-0.04310427755402778;-0.24046111082109245;-0.8016488880025134;0.835;0.008309012532742216
24:21.8;-0.03622769263719676;-0.24818008427731927;-0.7891490660401219;0.813;0.007095232791113418
24:21.8;-0.02791209243714295;-0.255422153521088;-0.7776816995260191;0.7979999999999999;0.00554437805813038
24:21.8;-0.018412682593851284;-0.26184311924957604;-0.7689584304856207;0.7909999999999999;0.0037073287173669603
24:21.8;-0.008058479686541864;-0.267138405471766;-0.7645491892148394;0.789;0.0016458675280645399
24:21.8;0.0027549590179448695;-0.2710731927016054;-0.765773213536138;0.7909999999999999;0.0005718760180363899
24:21.8;0.013587657936206017;-0.27350489104353837;-0.7736149221685004;0.7979999999999999;0.0028749780979729707
24:21.8;0.02398809238021566;-0.27439782524818207;-0.7886650072306575;0.845;0.005191214204262697
24:21.8;0.03352880622590549;-0.27383032367324034;-0.8110842182096124;0.845;0.007446729555998311
24:21.8;0.041835180674142984;-0.27199399016194686;-0.840584987635626;0.845;0.009564947411566556
24:21.8;0.04860030478710869;-0.2691843363510566;-0.8764290151658216;0.8759999999999999;0.011465830698050513
24:21.9;0.05358482384976209;-0.2657814130634756;-0.9174475823808532;0.915;0.013066151036039742
24:21.9;0.0566056628043194;-0.2622186636645679;-0.9620967830675806;0.9640000000000001;0.014280461485653413
24:21.9;0.05751950270700346;-0.25893873727603023;-1.0085559502275454;1.024;0.015021459956816181
24:21.9;0.05620738826398302;-0.25633746931347373;-1.054868257832873;1.094;0.01519860479684199
24:21.9;0.05256654845142369;-0.25470121609705504;-1.0991128864352726;1.166;0.014715762844265979
24:21.9;0.04651315071288951;-0.2541462470724141;-1.13958970678269;1.227;0.013471252535573802
24:21.9;0.037995643403048854;-0.2545704168873228;-1.174990860256855;1.318;0.011365177562918109
24:21.9;0.027016494106180282;-0.25562735131658054;-1.2045294647815177;1.318;0.008318666981346652
24:21.9;0.013662629594267563;-0.25673306511811556;-1.2279962774917033;1.318;0.004307379636372758
24:21.9;-0.0018536645551169265;-0.2571131828441275;-1.2457256481130345;1.319;0.0005937148291929949
24:22.0;-0.019147252374705295;-0.25589265979851605;-1.2584713790106883;1.295;0.006166058391286595
24:22.0;-0.037619954179597875;-0.25221851036658427;-1.2672114739790217;1.249;0.012023871193724863
24:22.0;-0.05644792234676088;-0.2453950498377985;-1.272913482974884;1.206;0.017632449396052834
24:22.0;-0.0746140289513091;-0.23500793176278126;-1.276301658687301;1.183;0.022379807436136403
24:22.0;-0.09099132875036663;-0.22101726289463233;-1.2776721002666713;1.176;0.02569482208018721
24:22.0;-0.104469896445768;-0.2038032125763082;-1.2767982465009395;1.183;0.027184695160929494
24:22.0;-0.11410798503100789;-0.1841489278385227;-1.2729547853503418;1.31;0.026748424638678745
24:22.0;-0.11927891115061849;-0.16315662829046595;-1.2650615761609711;1.31;0.02461954672900394
24:22.0;-0.11977879836125394;-0.1421151911625635;-1.251915964252782;1.31;0.021310597817570963
24:22.0;-0.11586434832368336;-0.12235028526574779;-1.2324619447846605;1.341;0.017471424983593675
24:22.1;-0.1082061891957001;-0.10507951091695787;-1.206047764459655;1.355;0.013713068741291252
24:22.1;-0.09776529587258602;-0.09128369481670026;-1.1726321965583957;1.328;0.010465012311116722
24:22.1;-0.08562063203037516;-0.08160622615956391;-1.132901572583033;1.2590000000000001;0.007915783427610538
24:22.1;-0.07278978366927759;-0.07629607103057895;-1.0882667542461173;1.163;0.00604377050116364
24:22.1;-0.06008472458730629;-0.0752071141690251;-1.0407310998527493;1.055;0.004702854384620825
24:22.1;-0.04803194782699234;-0.07785710510254971;-0.99264876931613;0.9540000000000001;0.003712137539130652
