Time;AccX;AccY;AccZ;Acc-old;Acc-trns
19:37.6;0.021330677538550807;-0.05366772443597608;-0.8825277990652564;0.888;0.0010102903990874717
19:37.6;0.01811145684327929;-0.07595028805537556;-0.8696528257563034;0.888;0.0011962686543832272
19:37.6;0.014630354873379343;-0.09807486507815964;-0.8565953859680064;0.9209999999999999;0.0012291030902076413
19:37.6;0.010485852314742786;-0.11994781939977929;-0.8433687246114708;0.905;0.0010607513311762231
19:37.6;0.005424636544982644;-0.1414044073283342;-0.8301708414587349;0.8740000000000001;0.0006367970848936773
19:37.6;-0.0006235088224951386;-0.1621949059600771;-0.8174010833836712;0.853;8.266373464048353e-05
19:37.6;-0.007554822190277274;-0.18199260021580696;-0.8056336776685669;0.835;0.001107683253533423
19:37.6;-0.015138223894782652;-0.2004257333454301;-0.7955547448731008;0.82;0.0024137843980633683
19:37.6;-0.02308415230717682;-0.21713031561352356;-0.7878747974624832;0.807;0.003949040640756737
19:37.6;-0.03111742714587468;-0.23181276979096063;-0.7832304231193706;0.8009999999999999;0.005649767629821003
19:37.7;-0.03903633793192216;-0.24430585357525833;-0.7820899583398616;0.7929999999999999;0.007458640096890644
19:37.7;-0.04674316639872136;-0.2546016885412464;-0.7846782741865841;0.7929999999999999;0.009338369114686164
19:37.7;-0.054238025728074776;-0.2628522193074999;-0.7909339400692549;0.7929999999999999;0.011276017288837654
19:37.7;-0.06157775383625236;-0.26933757942513253;-0.8005079104323943;0.8009999999999999;0.01327658632946503
19:37.7;-0.06881283313655523;-0.27441285950425287;-0.812807470788273;0.8270000000000001;0.015348346137899874
19:37.7;-0.07592470039986048;-0.27844974024865304;-0.8270830614985708;0.8759999999999999;0.017485539258509996
19:37.7;-0.08278795366766958;-0.281788372736156;-0.8425481811180715;0.93;0.019655539215665135
19:37.7;-0.08917296947971896;-0.2847074004047716;-0.8585137355862991;0.978;0.021796122136553644
19:37.7;-0.09478746499409468;-0.2874112596710657;-0.87451057262818;1.011;0.023824278163197737
19:37.7;-0.09933977774270476;-0.29002877449312364;-0.8903719147609157;1.018;0.02565285604016108
19:37.8;-0.10260029984339504;-0.29261645587106555;-0.9062542414360981;0.9670000000000001;0.027208050689699795
19:37.8;-0.10444280288083317;-0.29516207458305316;-0.9225914114952453;0.9670000000000001;0.028441236902463533
19:37.8;-0.10485973077363898;-0.29758674344726793;-0.9399971348467789;0.9670000000000001;0.02933248444498166
19:37.8;-0.10395578290039743;-0.29974547832003245;-0.9591436582401623;0.986;0.029887180989353345
19:37.8;-0.1019265358446748;-0.3014269346358799;-0.9806428323069073;1.006;0.03012868518875237
19:37.8;-0.09902681523566442;-0.30235334901910355;-1.0049454536830769;1.023;0.030089161499203
19:37.8;-0.09553273515556485;-0.30218261212016406;-1.032265615701597;1.042;0.02979978594087841
19:37.8;-0.0917023289464325;-0.30051636094269524;-1.062532588381899;1.069;0.02928132639377519
19:37.8;-0.08774018927755788;-0.29691977321917;-1.0953721389208368;1.101;0.02853641271489658
19:37.8;-0.08377044830522522;-0.2909586236159562;-1.1301190113642194;1.15;0.027545220553970087
19:37.9;-0.07982080292062013;-0.282256142315736;-1.1658590384892915;1.263;0.026266701435380593
19:37.9;-0.07582030333421784;-0.2705656450551083;-1.201490771646471;1.263;0.024647825375943656
19:37.9;-0.07161536053024807;-0.25584643613222735;-1.2357875848355062;1.263;0.02264276098405401
19:37.9;-0.06700823505299436;-0.23832533699172714;-1.2674445966975962;1.271;0.02024078627633244
19:37.9;-0.06181687141676336;-0.21852784238341058;-1.2951124329075046;1.2819999999999998;0.01749529507927407
19:37.9;-0.05594591346444252;-0.19726883605979878;-1.3174355691518276;1.307;0.014539726458751496
19:37.9;-0.0494514292414098;-0.1755985841522906;-1.3331140521238432;1.3419999999999999;0.011576230461610616
19:37.9;-0.04258055886649442;-0.15470518115222132;-1.3409965930149261;1.38;0.008833725307611999
19:37.9;-0.03577175810786879;-0.1357831044707457;-1.3401977149483684;1.402;0.006509608834592436
19:38.0;-0.02960882140912549;-0.11988891376862615;-1.330217825370493;1.409;0.004721966580666082
19:38.0;-0.02473164838759619;-0.10781275401265548;-1.3110392095805594;1.331;0.0034957380674052866
19:38.0;-0.021719716781778302;-0.09999103346138527;-1.2831775185357677;1.331;0.002786775328640894
19:38.0;-0.020976533460936118;-0.0964721581963882;-1.2476825319685692;1.331;0.0025248745705166156
19:38.0;-0.02264509371591381;-0.09693306041704428;-1.2060894017730683;1.2690000000000001;0.0026474364762994534
19:38.0;-0.02657267032359518;-0.10073739490609593;-1.1603175602602365;1.19;0.0031060095024143673
19:38.0;-0.032327424695872985;-0.10702460553023699;-1.1125138170478013;1.103;0.0038491085415560053
19:38.0;-0.03925745759056784;-0.11481748561805023;-1.0648489946800563;1.021;0.004799745691698386
19:38.0;-0.04657587123622356;-0.12313445800936032;-1.0192942326932724;0.9470000000000001;0.0058457489118931534
19:38.0;-0.05345391010288321;-0.13109343773087817;-0.9774122122565574;0.8859999999999999;0.0068491738879216685
19:38.1;-0.0591088861328622;-0.13799654060113564;-0.9401987506137891;0.846;0.007669033670154473
19:38.1;-0.06288063156087186;-0.14338829651883797;-0.9080036954542441;0.8590000000000001;0.008186876071832692
19:38.1;-0.06429424623101482;-0.14708401401475346;-0.8805467382446176;0.8590000000000001;0.008327027431464863
19:38.1;-0.06310667647648355;-0.14916860037118465;-0.8570252153257909;0.8590000000000001;0.008067636521033487
19:38.1;-0.05933344979453049;-0.14996844510529114;-0.8362941852219377;0.887;0.007441467097060917
19:38.1;-0.05325187329142221;-0.1500001123517807;-0.8170895519494614;0.904;0.006526737281823694
19:38.1;-0.04537748778170118;-0.14990088532637547;-0.7982603306411481;0.905;0.0054298670244229364
19:38.1;-0.03641228638896126;-0.1503483322708852;-0.7789738467058608;0.89;0.004264512992109705
19:38.1;-0.027168153340047352;-0.15197807603209473;-0.7588609558398421;0.8590000000000001;0.0031333093202533125
19:38.1;-0.018475670680196773;-0.1553096682567604;-0.7380790530266114;0.8190000000000001;0.0021178811484416104
19:38.2;-0.011092596978973667;-0.1606899019971281;-0.7172851147227539;0.7709999999999999;0.0012785379944372924
19:38.2;-0.005625533440930033;-0.16826108590254552;-0.6975261465605158;0.6559999999999999;0.0006602492092180863
19:38.2;-0.0024735406415458995;-0.1779571134472613;-0.6800708925710897;0.6559999999999999;0.0002993564295298449
19:38.2;-0.0017967040894315775;-0.189523003604722;-0.6662207630376509;0.6559999999999999;0.00022685933275490234
19:38.2;-0.0035087469868796935;-0.20255006110465654;-0.6571375060486222;0.644;0.0004670255993265415
19:38.2;-0.00729173059531342;-0.21652194765385716;-0.6537083859713146;0.648;0.0010320876845366924
19:38.2;-0.012631432761384944;-0.23087013525060907;-0.65645341117717;0.6609999999999999;0.0019143629540702381
19:38.2;-0.01887207435410272;-0.24503538877372974;-0.6654743291843666;0.6779999999999999;0.0030773702935716837
19:38.2;-0.02528717453791508;-0.25852873675601956;-0.6804454979014704;0.7;0.004448386102088373
19:38.2;-0.03115918023556518;-0.2709844345432634;-0.7006464349472556;0.726;0.00591601525815269
19:38.3;-0.035855595659192566;-0.28219793818238825;-0.7250357308748714;0.755;0.007336183534708016
19:38.3;-0.03888738899201414;-0.2921430871452245;-0.7523647391178775;0.884;0.008547376452184629
19:38.3;-0.0399406487831532;-0.3009651421194337;-0.7813209589105258;0.884;0.009392058476770335
19:38.3;-0.03888339194764368;-0.3089501408012461;-0.8106771111904196;0.884;0.009738687984463316
19:38.3;-0.03575735904161827;-0.31647510386360167;-0.8394187840803248;0.9279999999999999;0.009499126468130399
19:38.3;-0.030763794641674655;-0.3239467434387475;-0.866837384573637;0.963;0.008638754957148612
19:38.3;-0.0242468621366567;-0.33173797861682763;-0.8925879420510204;0.9890000000000001;0.007179624863090436
19:38.3;-0.0166744465795991;-0.3401311671178416;-0.9167111187277626;1.011;0.0051991261713018756
19:38.3;-0.008614383376957668;-0.34927418461878684;-0.9396155198446302;1.03;0.002827098009314673
19:38.3;-0.0007037147023542445;-0.35915168283125315;-0.9620186898447552;1.0390000000000001;0.00024314091111678012
19:38.4;0.006390727304473733;-0.36957125665417256;-0.98485046941615;1.044;0.002326048518348369
19:38.4;0.012020753733502202;-0.38016352981421586;-1.0091273511279322;1.079;0.00461156281571719
19:38.4;0.015612719159531331;-0.3903949738404192;-1.0358097354295344;1.079;0.00631339197628881
19:38.4;0.016727015016325557;-0.39959183874297877;-1.0656551472657276;1.079;0.007122816292074525
19:38.4;0.015116096572081038;-0.4069744942180384;-1.0990819376761882;1.111;0.006761404536498449
19:38.4;0.010776173113319925;-0.41170404234556485;-1.136060383855118;1.163;0.005040238718741275
19:38.4;0.0039864686408855035;-0.4129440865233166;-1.1760460723183879;1.215;0.0019359936977321028
19:38.4;-0.004673242081076906;-0.409938319096846;-1.2179613285957316;1.2590000000000001;0.0023332984578064457
19:38.4;-0.014338158968394169;-0.40210038325504976;-1.2602211772872307;1.287;0.007265652983552469
19:38.4;-0.023917082068942722;-0.38910668163868845;-1.3007992965458293;1.3030000000000002;0.012105623860422042
19:38.5;-0.03219834273952902;-0.37097648105825615;-1.3373366236568196;1.337;0.015974255794446907
19:38.5;-0.037995359667678474;-0.3481214715905108;-1.3673010995674135;1.459;0.018085292356510192
19:38.5;-0.040308860654012735;-0.3213524181138519;-1.388199605025311;1.459;0.017981835135226026
19:38.5;-0.03847315540491251;-0.29183973924575646;-1.3978234508470302;1.5119999999999998;0.015694755613460898
19:38.5;-0.032257014609730544;-0.26103099293195026;-1.394493339610854;1.531;0.011741746249585336
19:38.5;-0.02190230054740223;-0.23053240365530878;-1.3772672285211502;1.5119999999999998;0.006954083904869518
19:38.5;-0.008096700670355245;-0.2019685797822949;-1.3460783496050752;1.4580000000000002;0.0022012138396070888
19:38.5;0.008112703754923546;-0.17684085894375196;-1.301778844365949;1.3769999999999998;0.0018676067829015582
19:38.5;0.02544985899659542;-0.15640351510056213;-1.2460807068639432;1.2830000000000001;0.00495995871715518
19:38.5;0.042563215330935406;-0.14157010109205267;-1.1814053083546694;1.192;0.007118768799315664
19:38.6;0.05817988926140819;-0.13285575036704766;-1.1106666859100558;1.107;0.00858493462758517
19:38.6;0.07124081884650935;-0.13035706654691132;-1.0370201510743327;0.9009999999999999;0.009630540835142356
19:38.6;0.08100205367324899;-0.13376687209470864;-0.963613231748109;0.9009999999999999;0.010441126479033764
19:38.6;0.08709275261543742;-0.1424163664373852;-0.8933800264726988;0.9009999999999999;0.011080979632908114
19:38.6;0.08952647772142575;-0.1553361506841653;-0.8289063799473125;0.852;0.011527351055579487
19:38.6;0.08866872134917893;-0.1713313176376476;-0.7723600731778362;0.809;0.011733484815552352
19:38.6;0.08516898700170798;-0.18906918533987577;-0.7254559608922254;0.765;0.011681894727945596
19:38.6;0.07986922396024353;-0.20717745717174077;-0.6894283878167274;0.7240000000000001;0.01140804235567458
19:38.6;0.07370131080376377;-0.22434759742699256;-0.66499883911223;0.687;0.010995564289074613
19:38.6;0.06758400997412241;-0.2394357122058739;-0.6523408613661519;0.655;0.010556196493687768
19:38.7;0.062325681231876;-0.25155202154973516;-0.6510550481250762;0.6409999999999999;0.010207339424354336
19:38.7;0.058536687753476487;-0.2601302727724102;-0.6601730105327438;0.728;0.010052563064504865
19:38.7;0.056558002683563945;-0.2649695453658764;-0.6782046633853605;0.728;0.010163675634669087
19:38.7;0.05641818596668552;-0.2662420976597508;-0.7032284444594353;0.728;0.010563121453591175
19:38.7;0.05783267641416239;-0.26446303172173574;-0.7330139393185854;0.773;0.011211158615244271
19:38.7;0.06025289320908028;-0.26042181782492946;-0.7651694172200115;0.8190000000000001;0.012006401857778515
19:38.7;0.06296077374431701;-0.25508182484578185;-0.7973103825610255;0.867;0.012804923591336828
19:38.7;0.06519222468592363;-0.2494604040432147;-0.8272389042738789;0.9109999999999999;0.013453285964917695
19:38.7;0.06626482652310717;-0.24450668859492122;-0.8531149318265886;0.9440000000000001;0.01382233303554112
19:38.7;0.06568418866348924;-0.24099546221940238;-0.8735987373716347;0.9690000000000001;0.013828711066669445
19:38.8;0.06320916423759164;-0.23945301764475752;-0.8879470371536005;0.982;0.013439633480322668
19:38.8;0.05886600601785207;-0.24012503339952643;-0.8960512351771281;0.961;0.012665864907936423
19:38.8;0.052914659147695504;-0.242986929225535;-0.898414280536011;0.961;0.011551424983722325
19:38.8;0.045783741951933896;-0.24778682101606397;-0.8960716131259754;0.961;0.010165581076583309
19:38.8;0.03799553801464915;-0.2541069835020533;-0.8904669618519944;0.938;0.00859739756549982
19:38.8;0.0300958353444618;-0.26143338287993434;-0.8832938633786389;0.907;0.006949805621002842
19:38.8;0.022595524667864946;-0.2692271696920653;-0.8763146538379678;0.878;0.005330910481801933
19:38.8;0.015927935832918304;-0.27699241216280746;-0.8711742261866721;0.8590000000000001;0.0038435486983129
19:38.8;0.0104238924033313;-0.2843338002422784;-0.8692314320480463;0.853;0.0025762845665024737
19:38.8;0.006302881821435831;-0.2909987270946047;-0.8714312591932897;0.858;0.0015983187270114604
19:38.9;0.0036761111521316876;-0.2968988148824845;-0.8782357764315398;0.873;0.0009585355472104761
19:38.9;0.002556938455132316;-0.3021067801111688;-0.8896227682306174;0.961;0.0006872055151862008
19:38.9;0.002875439137331087;-0.3068276167687984;-0.9051471171784673;0.961;0.0007985788408028765
19:38.9;0.004495523955597626;-0.311348355636397;-0.9240448249809848;0.961;0.001293361508320646
19:38.9;0.0072341385835729;-0.3159746173023612;-0.945355213404229;1.002;0.002160896889362363
19:38.9;0.010882198739516657;-0.3209624543045188;-0.9680464715545382;1.044;0.0033811706595504006
19:38.9;0.015226158198782414;-0.326452573303026;-0.9911381062521708;1.0759999999999998;0.004926569432277412
19:38.9;0.02006827576905895;-0.33241352938192836;-1.0138115941739436;1.0979999999999999;0.006763103057349902
19:38.9;0.0252435206167034;-0.33860084311515076;-1.0354965988592542;1.1159999999999999;0.008850883739259295
19:38.9;0.030631564534993258;-0.34453921320744074;-1.0559225642236914;1.137;0.011143969312503417
19:39.0;0.03616381565725171;-0.34953481100597344;-1.075130985710837;1.1640000000000001;0.013590206632849627
19:39.0;0.04182786984563172;-0.35272325032307894;-1.0934466699555792;1.197;0.016132342808846022
19:39.0;0.04767104672892024;-0.3531535061089713;-1.1114064818133425;1.197;0.018710747393160608
19:39.0;0.05379810890058701;-0.3498987716699684;-1.1296452957793761;1.197;0.021264321297385442
19:39.0;0.06035283594894561;-0.34217909544322456;-1.1487444655606676;1.162;0.023723271991437898
19:39.0;0.06747644055854642;-0.3294824502985606;-1.1690583153230922;1.1420000000000001;0.02599085865896469
19:39.0;0.07524412960025048;-0.3116740486225553;-1.190546722446562;1.135;0.027920276123400135
19:39.0;0.08358823253927308;-0.28908043229429786;-1.2126516529270595;1.149;0.02930217790579803
19:39.0;0.09222314043932132;-0.2625284144428627;-1.2342554211111225;1.1840000000000002;0.0298827984760302
19:39.0;0.10059480343888992;-0.23331876753812122;-1.2537451737408;1.2409999999999999;0.029426221131756004
19:39.1;0.1078805454154158;-0.2031243079605065;-1.269185205998824;1.305;0.027811859922748122
19:39.1;0.11305654563630411;-0.17381824775862242;-1.2785729768225544;1.405;0.025125609197746996
19:39.1;0.11502942138107031;-0.14725862141665091;-1.2801321195869753;1.405;0.02168425272257484
19:39.1;0.11280532293656714;-0.1250722929690439;-1.2725835106774666;1.405;0.017954652194609948
19:39.1;0.10566100288687419;-0.10848194025300688;-1.255341445423011;1.379;0.01438911355931184
19:39.1;0.09328839077111592;-0.09819775722650062;-1.228603944472149;1.32;0.011254885360381169
19:39.1;0.07589239832238555;-0.09437342387136091;-1.193330984345333;1.2409999999999999;0.008546905576772866
19:39.1;0.054224655804395346;-0.09661903109922831;-1.1511236719872346;1.1540000000000001;0.0060308908291185565
19:39.1;0.02954268772865311;-0.1040655197977416;-1.1040311753254062;1.074;0.0033942060154398
19:39.1;0.0034981626796598466;-0.11547549240496047;-1.0543199830142027;1.011;0.0004258947268725762
19:39.2;-0.022028807923609176;-0.12939102518441012;-1.0042401810939634;0.956;0.0028624159563769157
19:39.2;-0.04512602705862874;-0.14430184165253487;-0.9558173998623558;0.912;0.006224061933456069
19:39.2;-0.06405177163153672;-0.1588116401100069;-0.9106905899976104;0.884;0.009263696680046372
19:39.2;-0.07741904395966244;-0.1717805232624999;-0.870007628347831;0.86;0.01157030442726745
19:39.2;-0.08433778563020404;-0.18242646454550548;-0.8343835738912818;0.84;0.012837361800783029
19:39.2;-0.08449557934199904;-0.19037559942604138;-0.8039200817620914;0.8190000000000001;0.012931775282622559
19:39.2;-0.07816636844511739;-0.19565862760762026;-0.7782792352967725;0.8059999999999999;0.01190294376729534
19:39.2;-0.06614875557647289;-0.19865836753663962;-0.7568005850398478;0.802;0.009945119361884915
19:39.2;-0.04964724366427645;-0.20002034384739675;-0.7386457428659033;0.7979999999999999;0.0073350910795095875
19:39.2;-0.030118265068192155;-0.2005426426908461;-0.7229509248676635;0.792;0.004366621034211865
19:39.3;-0.009106001940112471;-0.20106214178322931;-0.7089664148595759;0.784;0.0012980269373896087
19:39.3;0.011909351267865959;-0.20235197186396553;-0.6961644200808973;0.77;0.0016776732088023437
19:39.3;0.031634395161649356;-0.20504118687180387;-0.6843024348972415;0.75;0.0044386277878469705
19:39.3;0.04904742349437857;-0.2095632477607159;-0.6734366096552312;0.722;0.0069219433531298715
19:39.3;0.06344334268267217;-0.21613513736817808;-0.6638880482051589;0.6970000000000001;0.009103455708401358
19:39.3;0.07444194209184733;-0.22476399113910817;-0.6561733232908047;0.6779999999999999;0.010979005438763017
19:39.3;0.08196632988025467;-0.2352745646023248;-0.6509164669215983;0.667;0.012552658864698984
19:39.3;0.0861993775380419;-0.24735012232177048;-0.6487612630338;0.669;0.013832515636487434
19:39.3;0.08752470388744059;-0.2605808177915991;-0.650299789166634;0.6829999999999999;0.014831555664515553
19:39.3;0.0864570233363371;-0.27451505022862305;-0.6560271147555301;0.7090000000000001;0.015569986227027767
19:39.4;0.08356710723752409;-0.2887094061712895;-0.6663242231563496;0.7390000000000001;0.016076144603010437
19:39.4;0.07940937193056712;-0.30277249239534415;-0.6814628274510967;0.794;0.01638439267367911
19:39.4;0.07446253135121736;-0.31639787740111486;-0.701618644168573;0.794;0.016529985717429963
19:39.4;0.069092864089508;-0.3293816273192564;-0.726877389338223;0.812;0.016542217483600824
19:39.4;0.063544790428903;-0.34162202943480685;-0.75722338377361;0.83;0.01643803258364497
19:39.4;0.05795675245472113;-0.35310319614011876;-0.792511382462627;0.8540000000000001;0.016218519203606792
19:39.4;0.05239518703440018;-0.36386737806407515;-0.832430791556433;0.8809999999999999;0.015870209239702848
19:39.4;0.0468978456513801;-0.3739813741176552;-0.8764746453964299;0.9179999999999999;0.015372419353635107
19:39.4;0.04151921632852648;-0.38350173362838136;-0.9239255961788094;0.9620000000000001;0.014711382182287855
19:39.4;0.0363723237752975;-0.392442550283399;-0.9738692301110284;1.021;0.01390105565144934
19:39.5;0.031660218876452095;-0.4007486992706317;-1.0252408909520025;1.085;0.013008042695877003
19:39.5;0.02768868925875517;-0.40827672231471546;-1.0769040775945191;1.251;0.012174020768566659
19:39.5;0.024854263124324098;-0.41478518135720976;-1.127743985719798;1.251;0.011626115785018694
19:39.5;0.023609447427571276;-0.419935800490865;-1.1767456209807945;1.251;0.011666788216238372
19:39.5;0.024413495152999808;-0.42330655199587847;-1.2230299290192057;1.298;0.012639271271165447
19:39.5;0.02767722200583564;-0.42441803559870817;-1.2658452186635325;1.335;0.014869519466482791
19:39.5;0.03370917708013319;-0.4227736355763972;-1.3045302299300896;1.367;0.01859131864880735
19:39.5;0.04267152689001324;-0.41791189599481654;-1.3384651173737205;1.3969999999999998;0.023868766400385166
19:39.5;0.0545529170062791;-0.4094674346896734;-1.367019470932831;1.4040000000000001;0.030535992890319566
19:39.5;0.06915888755504507;-0.3972339289427669;-1.389505274778657;1.389;0.03817284549023469
19:39.6;0.086113353285983;-0.38121940214230426;-1.4051480016999542;1.393;0.046128312495695364
19:39.6;0.10486481934338772;-0.361683428967492;-1.413094235819082;1.452;0.05359565085379259
19:39.6;0.124697929537198;-0.33914909031053336;-1.412469826227441;1.452;0.059735028894954426
19:39.6;0.1447573681381647;-0.31438583669413556;-1.4024868803225723;1.465;0.06382670991326878
19:39.6;0.16409273523604792;-0.28836088591569403;-1.3825822458031154;1.4669999999999999;0.0654209250940244
19:39.6;0.1817294757486934;-0.2621601045105578;-1.3525631210886513;1.4669999999999999;0.0644391075537262
19:39.6;0.19676201077935798;-0.23688648136238852;-1.3127333805485975;1.443;0.06118684470223725
19:39.6;0.208453960658916;-0.21355092696980085;-1.2639735624820543;1.389;0.05626646129266086
19:39.6;0.2163241873392721;-0.19297277572432278;-1.207751461060608;1.3090000000000002;0.050417196917482754
19:39.6;0.22020002458166757;-0.17570675343615944;-1.146051281813993;1.217;0.04434144773973922
19:39.7;0.2202264217798187;-0.16200888095438212;-1.0812248174862564;1.124;0.03857662685850833
19:39.7;0.21682756814165854;-0.15184480607650921;-1.0157845388853972;0.902;0.03344383240518581
19:39.7;0.2106280308515711;-0.14493367084836883;-0.9521753764940906;0.902;0.029067146932194345
19:39.7;0.2023533470273221;-0.14081438337752464;-0.892572977613912;0.902;0.025433208087267657
19:39.7;0.1927349844439234;-0.13892099909950015;-0.8387448543488921;0.8440000000000001;0.022457340299083573
19:39.7;0.1824359927753414;-0.13865689447279297;-0.791978728606664;0.799;0.020033900411705254
19:39.7;0.17200169668208354;-0.1394599676408987;-0.7530595318906161;0.762;0.01806390335561676
19:39.7;0.1618338625199248;-0.14085304038832777;-0.722278350572068;0.736;0.016464184459499147
19:39.7;0.15218473511973546;-0.1424766312319387;-0.6994667613890924;0.716;0.01516637578005524
19:39.7;0.14316594696605295;-0.14410479243830066;-0.6840538664754197;0.706;0.014112646278912396
19:39.8;0.13476739768842386;-0.14564653823018583;-0.675142469745408;0.7070000000000001;0.01325196978809105
19:39.8;0.12688301038283453;-0.14713515449004821;-0.6715991467652869;0.711;0.012538051787481711
19:39.8;0.11934212745717805;-0.14870729547990005;-0.6721511293523745;0.711;0.011928696346793914
19:39.8;0.1119456426722927;-0.15057461469768352;-0.6754819764161628;0.711;0.01138604038579069
19:39.8;0.10450436947040918;-0.15299172633788144;-0.680319594667039;0.716;0.010877156425348073
19:39.8;0.09687453533881878;-0.15622413440578634;-0.685513770710193;0.721;0.010374661672126266
19:39.8;0.08898353466876609;-0.16051888175893392;-0.6901032467939094;0.7240000000000001;0.00985711559064198
19:39.8;0.08084011757147737;-0.1660800673957582;-0.6933729432863782;0.732;0.00930917810823239
19:39.8;0.07252758326772592;-0.17305083333404384;-0.6949008065138974;0.743;0.008721671339958255
19:39.8;0.06418411903806094;-0.18150236483119356;-0.6945917398015152;0.75;0.00809169467054892
19:39.9;0.05597782404142712;-0.19142920389554288;-0.6926937461908856;0.752;0.007422760920799624
19:39.9;0.04808393753502756;-0.20274949461941388;-0.6897903063147474;0.7390000000000001;0.006724761581344821
19:39.9;0.04066947805388436;-0.21530848128073166;-0.6867649506320819;0.7390000000000001;0.0060136459958533015
19:39.9;0.033887093578094066;-0.22888351372499657;-0.6847382803476387;0.7390000000000001;0.005310965028741057
19:39.9;0.027876192558565237;-0.2431904673679473;-0.6849807968825712;0.733;0.00464363846103787
19:39.9;0.02276655383223356;-0.25789450089952193;-0.6888055357398198;0.727;0.004044231495584581
19:39.9;0.018678758579899982;-0.2726285030253526;-0.6974459824532184;0.727;0.0035516474111300157
19:39.9;0.01571730099032692;-0.2870194775757049;-0.7119287910846614;0.733;0.0032116328859995596
19:39.9;0.0139556781109709;-0.3007204004175286;-0.7329546520541349;0.743;0.003076032647044067
19:39.9;0.013416824819457267;-0.3134444770063742;-0.7608023669368437;0.765;0.003199500823049154
19:40.0;0.014054967871539585;-0.32499815039817237;-0.7952715910987866;0.802;0.0036326722412082777
19:40.0;0.015744915826244613;-0.33530751586542895;-0.83567694193539;0.948;0.004411863331574481
19:40.0;0.01828229238356368;-0.34443107562540826;-0.8808947129922212;0.948;0.005546984873335114
19:40.0;0.021395294621489067;-0.3525517462485872;-0.9294473025788833;0.948;0.007010773118514665
19:40.0;0.02476733659082026;-0.35994410130221144;-0.9796080079480947;1.014;0.008733065023641011
19:40.0;0.028070067062576247;-0.3669183220129684;-1.0295240423575596;1.093;0.01060350247398514
19:40.0;0.03100506332472006;-0.37374769507033806;-1.0773644362294195;1.175;0.012484575529398944
19:40.0;0.033348889710526554;-0.3805906784910477;-1.1214869992334027;1.247;0.014234223154792322
19:40.0;0.034992689830531984;-0.3874218779665338;-1.160599554658128;1.301;0.015734171109419708
19:40.0;0.03596746567459515;-0.3939876704437794;-1.1938826245733234;1.3259999999999998;0.01691819789098242
19:40.1;0.03645054578443956;-0.3998005753063341;-1.2210461021264245;1.325;0.017794242786435634
19:40.1;0.03675484905727943;-0.40418141803310154;-1.2423069590353755;1.33;0.018455248817299614
19:40.1;0.037305423853015184;-0.40634730226776233;-1.2582936385913615;1.33;0.01907442085020045
19:40.1;0.03860466195565237;-0.40552740144733423;-1.2698983467727882;1.33;0.019880573866711083
19:40.1;0.0411828479475257;-0.4010794519383324;-1.2781044111753679;1.311;0.02111120986083266
19:40.1;0.04553078818924644;-0.39258588891340884;-1.2838134276425792;1.284;0.022947837587892827
19:40.1;0.052016915718385265;-0.37992078226105;-1.2876939296771057;1.278;0.025447803160190748
19:40.1;0.06079907801858288;-0.3632852691621893;-1.2900727761668864;1.285;0.028494365592398277
19:40.1;0.07174786582239696;-0.3432092383954476;-1.2908872406654437;1.2919999999999998;0.03178749208189606
19:40.1;0.08440133853596819;-0.3205158582221829;-1.2897063657956145;1.308;0.03488909463524334
19:40.2;0.09796946325087114;-0.29624795861751274;-1.285817391365435;1.3230000000000002;0.037318604097780934
19:40.2;0.11139959567358236;-0.2715624681397266;-1.27836139843529;1.3419999999999999;0.03867292402191944
19:40.2;0.1234993513740283;-0.24760877724348937;-1.2664940610302955;1.3419999999999999;0.03872878475508348
19:40.2;0.13309448715234132;-0.22541388553612626;-1.2495437973860901;1.3419999999999999;0.03748799517332465
19:40.2;0.1391916593440928;-0.20579374895181676;-1.2271414024746035;1.3230000000000002;0.03515118740271677
19:40.2;0.14112368938126993;-0.18929704976168477;-1.1993013627188605;1.287;0.0320384940570724
19:40.2;0.13866275240414785;-0.17617821664690347;-1.1664433989006844;1.235;0.028495461551730827
19:40.2;0.13208550606893235;-0.16639804238594955;-1.1293523144922135;1.176;0.024821774359720276
19:40.2;0.12217299182195517;-0.15965419498560748;-1.0890840094740293;1.1079999999999999;0.021243052627878033
19:40.2;0.11013502822350109;-0.1554421255069339;-1.046833645427501;1.036;0.01792139722763352
19:40.3;0.09746128492523812;-0.15314093083614508;-1.0037871041248132;0.9740000000000001;0.014981835604175374
19:40.3;0.08571603736579755;-0.15211334520735306;-0.9609794888302061;0.875;0.012529782171568195
19:40.3;0.07631004734412211;-0.15180563419199558;-0.9191858507268131;0.875;0.010648120176249672
19:40.3;0.07029535351088323;-0.15183140483946256;-0.8788674000102157;0.875;0.009380188916400588
19:40.3;0.06822546167885607;-0.1520249136725066;-0.8401845499815963;0.856;0.008714368881334022
19:40.3;0.07010333321726726;-0.15245554364448044;-0.8030678827696184;0.835;0.008582901853598208
19:40.3;0.07541676114376589;-0.15340300594644993;-0.7673235177007811;0.812;0.008877286904588976
19:40.3;0.08324538060625618;-0.15529949307788335;-0.7327480697940505;0.7879999999999999;0.00947294169997537
19:40.3;0.09241457466865848;-0.15864996453646213;-0.6992340117435621;0.76;0.010251867706014198
19:40.3;0.10166741365641277;-0.16394465328718338;-0.6668520030282986;0.735;0.01111497507643155
19:40.4;0.1098272026323725;-0.17157796226630315;-0.6359016614835299;0.705;0.01198288488820154
19:40.4;0.11592919038933606;-0.1817851958418767;-0.6069271638556406;0.643;0.012790510857036438
19:40.4;0.11930859429751337;-0.19460353600045513;-0.5807000609795481;0.643;0.013482621036656468
19:40.4;0.11964134131850401;-0.20985796351275346;-0.5581773285072388;0.619;0.014014542347373806
19:40.4;0.116941394525362;-0.2271695174149721;-0.5404431961833307;0.603;0.014357154623629763
19:40.4;0.11152318493547142;-0.245982894533793;-0.5286389817103494;0.596;0.014502045257297176
19:40.4;0.10394034931733508;-0.265610064833742;-0.5238823617550017;0.598;0.0144631362206578
19:40.4;0.09491290674937954;-0.2852853530893391;-0.5271781454251596;0.603;0.014274540824835489
19:40.4;0.08525343398228431;-0.30422685144840933;-0.5393238196991017;0.612;0.013988109577822278
19:40.4;0.07579903363552933;-0.32169949207330417;-0.5608146133497012;0.631;0.013675189895187508
19:40.5;0.06735170678076921;-0.33707566662573746;-0.5917555632068852;0.6559999999999999;0.013434402549227967
19:40.5;0.06062689720753883;-0.34988909397115675;-0.6317911286599266;0.687;0.013401989441817334
19:40.5;0.05620889389833845;-0.3598767387634248;-0.6800649141510995;0.732;0.01375653903062835
19:40.5;0.054512084183745944;-0.3670028483444571;-0.7352221393476484;0.785;0.014708920410819446
19:40.5;0.055748660507440026;-0.3714595467737879;-0.7954647423910763;0.847;0.016472779929840274
19:40.5;0.05990587099426781;-0.37364059981853925;-0.8586631126042287;0.922;0.019219684485399215
19:40.5;0.06673769680107032;-0.3740891556630774;-0.9225200813542809;1.011;0.02303149672510362
19:40.5;0.07577535162886231;-0.37342527864821684;-0.9847729045165887;1.101;0.02786555932786672
19:40.5;0.08635839323089281;-0.3722626655905558;-1.0434092232063197;1.181;0.033543525613593375
19:40.5;0.09768548566075085;-0.37112490797210346;-1.096866374493943;1.249;0.03976526361849495
19:40.6;0.1088823861787649;-0.3703708975447586;-1.144182557992189;1.298;0.04614129794953403
19:40.6;0.11908353647411735;-0.37013764471779986;-1.1850735508318784;1.3330000000000002;0.05223484208456827
19:40.6;0.12752116386912524;-0.3703071672165039;-1.2199182376743374;1.3459999999999999;0.057606980181463055
19:40.6;0.1336128173082358;-0.37050245206380883;-1.2496482422603141;1.338;0.06186243217813668
19:40.6;0.13703677817861074;-0.37011614322013286;-1.275550388545045;1.318;0.06469530831386483
19:40.6;0.13778524198975547;-0.3683737402721403;-1.2990049038564742;1.296;0.0659328968673618
19:40.6;0.13618639995008477;-0.3644290681419255;-1.3211951098571815;1.2890000000000001;0.06557128697240686
19:40.6;0.1328875276381783;-0.3574832129100543;-1.3428324164181344;1.278;0.06379133496277078
19:40.6;0.12879253656450845;-0.34691088950208937;-1.3639419029662494;1.2670000000000001;0.06094028783764282
19:40.6;0.12495193630171524;-0.3323734775926082;-1.383750001445961;1.275;0.05746811946978677
19:40.7;0.12241290997048199;-0.3138979794217947;-1.400707900211077;1.328;0.05382243231530824
19:40.7;0.12204982874183763;-0.2919061457659604;-1.4126674680056293;1.508;0.05032923822650099
19:40.7;0.1244057430001908;-0.2671874436989552;-1.417193508909609;1.508;0.047107019695781065
19:40.7;0.12957908398940096;-0.24082092547903103;-1.411955563809433;1.5730000000000002;0.04406057451272397
19:40.7;0.13718455132232768;-0.21405953503921987;-1.3951201564991205;1.5959999999999999;0.04096862594756957
19:40.7;0.14640285241480744;-0.1881950917851021;-1.365670259573653;1.556;0.037627354299931165
19:40.7;0.15611366121284082;-0.16442539058335343;-1.323598142292229;1.469;0.03397550652422065
19:40.7;0.16508491235145692;-0.14374396678321127;-1.26994290129903;1.3559999999999999;0.030135694450071544
19:40.7;0.17217644640812121;-0.12686576860918955;-1.2066766095177504;1.2409999999999999;0.026357795818009382
19:40.7;0.17651372230248993;-0.11419269199000438;-1.136474095702628;1.1340000000000001;0.0229074277582051
19:40.8;0.1775982010704933;-0.10581625140620886;-1.0624176596999355;1.045;0.019965776984319974
19:40.8;0.17533991236954938;-0.10155067942313303;-0.987688215451579;0.8490000000000001;0.017586664983837312
19:40.8;0.1700193714567526;-0.10098696277718958;-0.9152884887859002;0.8490000000000001;0.015715265319512946
19:40.8;0.16220364118403804;-0.10355669572708245;-0.8478364374675698;0.8490000000000001;0.014241340197771643
19:40.8;0.1526452690290845;-0.10859588635897806;-0.787447789262977;0.8;0.013053245048340975
19:40.8;0.1421824822436729;-0.11540305492616579;-0.7356956478194041;0.753;0.012071509606922265
19:40.8;0.13164761423604632;-0.12328998699599893;-0.6936159589216628;0.713;0.011257964550696059
19:40.8;0.12178741515372866;-0.13162522737994145;-0.6617324691899071;0.679;0.010607767493964134
19:40.8;0.11319964123166444;-0.13987080653529302;-0.6400888778754579;0.653;0.01013473530818835
19:40.8;0.1062897566467713;-0.14761276608233162;-0.628285331142079;0.635;0.009857624057633253
19:40.9;0.101249644135891;-0.15458529398720472;-0.625521232003546;0.637;0.009790474423108927
19:40.9;0.09805820738881284;-0.16068645091454473;-0.6306484882231825;0.6659999999999999;0.00993689194282349
19:40.9;0.09650195483007053;-0.16598171347081891;-0.642237688999441;0.6659999999999999;0.010287080599624457
19:40.9;0.09621218125495877;-0.1706916149338626;-0.6586557388861087;0.6659999999999999;0.010816848033014574
19:40.9;0.0967147998878387;-0.17516207009402748;-0.6781526830410112;0.696;0.011488424937152205
19:40.9;0.09748904087231443;-0.1798188859047368;-0.6989588345656227;0.733;0.012253007486263687
19:40.9;0.09803052343860083;-0.18511019128553258;-0.7193940339357773;0.762;0.013054447108541858
19:40.9;0.09791208611974327;-0.19144312993633963;-0.7379853807811192;0.792;0.013833237982960694
19:40.9;0.09683393043781861;-0.19912442668782687;-0.7535832614770078;0.825;0.014530593112731043
19:40.9;0.09465472317537639;-0.20831539593193402;-0.7654625153438277;0.852;0.015093417537618834
19:41.0;0.091397712135745;-0.2190089141894473;-0.7733949244763609;0.868;0.01548097945481368
19:41.0;0.08723089696186702;-0.23103101002388982;-0.777679708671965;0.856;0.015672612010583502
19:41.0;0.08242737078569047;-0.24406413344765385;-0.7791227223000231;0.856;0.01567405187108163
19:41.0;0.07731764310398324;-0.25768328519969447;-0.7789631657748713;0.856;0.01551964480791936
19:41.0;0.07224543414169352;-0.2713950384719125;-0.7787537003815085;0.8420000000000001;0.015269064593179022
19:41.0;0.06753268548968654;-0.28467544632026665;-0.780202323686704;0.825;0.014999309610841543
19:41.0;0.06345430885270284;-0.29700864065860494;-0.784986399567556;0.8029999999999999;0.014794228922522887
19:41.0;0.06022178143309226;-0.307927730927454;-0.7945552187798437;0.79;0.014734197421132795
19:41.0;0.05797532562830113;-0.3170561660931413;-0.8099450672717516;0.7909999999999999;0.014887952179740932
19:41.0;0.05678505256126657;-0.32414479897015314;-0.8316351628709505;0.802;0.015307558696287412
19:41.1;0.05666147772064708;-0.32909843607431094;-0.8594716194695833;0.8340000000000001;0.0160267423656473
19:41.1;0.05757439393776427;-0.33198619906432364;-0.8926779567414987;1.003;0.017062560952706095
19:41.1;0.05947532717542943;-0.33303285981956576;-0.9299505910536852;1.003;0.01841975296230826
19:41.1;0.06231438605926107;-0.33259238438346095;-0.9696121299055354;1.003;0.02009549281333238
19:41.1;0.06604189602831909;-0.33110770006027485;-1.0097871790685191;1.065;0.022080996353455645
19:41.1;0.07059136538472442;-0.3290604664011366;-1.0485820983552883;1.143;0.02435733280537657
19:41.1;0.07585047840997206;-0.32691248345165097;-1.0842641986441846;1.2109999999999999;0.026885922795808752
19:41.1;0.08163585487743907;-0.3250392329015996;-1.1154283108379308;1.232;0.02959772921224783
19:41.1;0.08768975351003969;-0.3236599462053579;-1.14112584279309;1.2409999999999999;0.0323870467187399
19:41.1;0.09370924480170305;-0.32277785034230055;-1.1609328776110786;1.244;0.03511504856904907
19:41.2;0.09940338949297643;-0.32214958091150947;-1.1749484064372404;1.239;0.0376250911446649
19:41.2;0.1045599620556217;-0.3212960366671372;-1.1837299302268014;1.2429999999999999;0.03976705354721594
19:41.2;0.10909851455115478;-0.3195535387918602;-1.188183063442466;1.2429999999999999;0.0414234079924716
19:41.2;0.11309314007209974;-0.31615369837324864;-1.1894228903242847;1.2429999999999999;0.04252759479898329
19:41.2;0.11675984359690114;-0.3103168920370863;-1.188621199732443;1.2;0.04306677916578655
19:41.2;0.12041246483168355;-0.30134780147690676;-1.1868517491865984;1.1520000000000001;0.04306614001312304
19:41.2;0.12439593807350431;-0.2887286777588102;-1.1849502875042757;1.1420000000000001;0.04255947403391937
19:41.2;0.12900654927969565;-0.27220982821048567;-1.183412803286922;1.209;0.04155773063180873
19:41.2;0.13440650523144004;-0.2518906042542743;-1.1823518056088522;1.225;0.040029390375163856
19:41.2;0.1405418783527815;-0.2282707998763282;-1.181512414283632;1.21;0.03790481692614912
19:41.3;0.14708601041126348;-0.20224739482585402;-1.1803320817620708;1.177;0.03511223834615008
19:41.3;0.15344284192087843;-0.17504558452753347;-1.178025406824816;1.202;0.03164116393811072
19:41.3;0.15883032680884684;-0.14809752395012932;-1.1736845255438875;1.202;0.027607851213506406
19:41.3;0.16242309774126068;-0.12289876145753802;-1.166391006066935;1.202;0.023283027842629787
19:41.3;0.16350504991297724;-0.10086907481385128;-1.15533295064712;1.217;0.01905444781737122
19:41.3;0.16159173036247174;-0.08322871938732657;-1.1399166570849217;1.22;0.015330822086151073
19:41.3;0.15650756786511077;-0.07089262926512428;-1.1198581516956614;1.2;0.012425087104164002
19:41.3;0.14841724750992147;-0.06438889217950192;-1.0952375111504493;1.159;0.010466552008325218
19:41.3;0.13781400041236752;-0.06381166396193466;-1.0665025449726426;1.1079999999999999;0.009378973419868377
19:41.3;0.12546852432384034;-0.0688166883883947;-1.0344189994111523;1.047;0.00893151328302814
19:41.4;0.11234289661865517;-0.07866409875400844;-0.9999769151521242;0.978;0.008837148704978225
19:41.4;0.09947584712754229;-0.0923091491552081;-0.9642728180522677;0.902;0.008854464860853277
19:41.4;0.08785209398163785;-0.10853168618899589;-0.9283938971208955;0.902;0.008851990615634443
19:41.4;0.07827648970173003;-0.12608062849237534;-0.8933297586470832;0.902;0.008816404510097525
19:41.4;0.07127421436825525;-0.143804635330439;-0.8599245444306264;0.898;0.008813850282326662
19:41.4;0.06702943207983574;-0.16075116919528631;-0.8288618946890941;0.8740000000000001;0.008931036296653302
19:41.4;0.06536720397291121;-0.17622894903549116;-0.8006625843618224;0.828;0.00922330762863981
19:41.4;0.06578191732560276;-0.1898324738094991;-0.7756783021682192;0.775;0.009686317004071925
19:41.4;0.06751266136635037;-0.20142861148433092;-0.7540795661789383;0.7390000000000001;0.010254714173029662
19:41.4;0.06965699756746103;-0.21111009914833445;-0.7358501678779658;0.731;0.010820894282197402
19:41.5;0.07130372903887804;-0.21912565775296702;-0.7208058431823554;0.748;0.011262213976522365
19:41.5;0.0716595694047608;-0.22579791031045857;-0.7086476387787494;0.7709999999999999;0.011466330537677028
19:41.5;0.07014854197427021;-0.23143987882319356;-0.6990446555773645;0.7709999999999999;0.011349108858742393
19:41.5;0.06647448751396635;-0.23628096010311403;-0.6917262754161061;0.7709999999999999;0.010864706468851754
19:41.5;0.06064718384347517;-0.24041340189937355;-0.686559703655712;0.7559999999999999;0.010010312208252352
19:41.5;0.05297483026950613;-0.24376890040490762;-0.6835953734780846;0.753;0.008827688237193364
19:41.5;0.044023374232361884;-0.24613232791007336;-0.683073152139869;0.746;0.007401490768229304
19:41.5;0.03454306468985691;-0.2471951379283186;-0.6853901201029283;0.738;0.0058524623715500625
19:41.5;0.025367224729374922;-0.24664238688442522;-0.6910358967549468;0.742;0.004323557896234094
19:41.5;0.017295713115779366;-0.2442556678607074;-0.7005060716087685;0.752;0.002959341108706862
19:41.6;0.010981874136726676;-0.24000510598120706;-0.7142076290106573;0.755;0.0018824412373663099
19:41.6;0.006843226214597689;-0.2341027300196536;-0.7323704475218176;0.76;0.0011732705949083074
19:41.6;0.005011292224502655;-0.22700038339307507;-0.7549758228294472;0.76;0.0008588342653646977
19:41.6;0.005327065286417577;-0.21933358136368936;-0.7817090245318316;0.76;0.000913352191418453
19:41.6;0.007380316467892466;-0.21182510008664307;-0.8119426268343866;0.778;0.001269339361328741
19:41.6;0.010584387029850026;-0.20516384387113007;-0.8447607548958649;0.807;0.0018344263024488267
19:41.6;0.014271506315323274;-0.1998785746473065;-0.879033704422631;0.877;0.002507503715360178
19:41.6;0.017790834462073277;-0.19623780813423786;-0.9135421907208149;0.956;0.0031893898852950312
19:41.6;0.020595640790304248;-0.19420918369681345;-0.9471349929166286;1.04;0.0037884098216776426
19:41.6;0.02230981108736257;-0.19348967634188008;-0.9788909280528015;1.0979999999999999;0.004225596213033315
19:41.7;0.022761572369688555;-0.19358457837092222;-1.0082514863625816;1.114;0.004442647827058589
19:41.7;0.02197273520218026;-0.19389462561229062;-1.0350960487505798;1.122;0.004409918305646653
19:41.7;0.020104848026633457;-0.19378022043076099;-1.0597446653504188;1.122;0.004128682431419041
19:41.7;0.017382853858539882;-0.19259722754777503;-1.0828878003190825;1.122;0.0036253886530756663
19:41.7;0.014024544072095371;-0.18971644405044058;-1.1054539444741727;1.1079999999999999;0.002941266531012765
19:41.7;0.010194759310935705;-0.18453957779106414;-1.1284343877308782;1.0979999999999999;0.0021229648905510953
19:41.7;0.005989226508619524;-0.17651892136582403;-1.1526906403939676;1.094;0.0012186381503671326
19:41.7;0.0014446503689903329;-0.16518544412869304;-1.1787734634444285;1.105;0.0002812968563066102
19:41.7;-0.003432019142247658;-0.15018954447236088;-1.206781416984072;1.153;0.0006220395742977753
19:41.7;-0.00862445789408112;-0.13135601975631664;-1.2362798143881608;1.1740000000000002;0.0014005498290160505
19:41.8;-0.014067465660917794;-0.10874690044484472;-1.2662901863665974;1.22;0.0019371622274335137
19:41.8;-0.01961435051255756;-0.08271401950749471;-1.2953504999006498;1.31;0.002101553037994194
19:41.8;-0.02501650050471219;-0.05391963077370906;-1.32163730201179;1.31;0.001782730745720947
19:41.8;-0.029921205675648887;-0.023316648722394945;-1.3431321068833382;1.31;0.000937052557110805
19:41.8;-0.03389480328640018;0.007905089767184258;-1.357813340512084;1.381;0.0003638144924218176
19:41.8;-0.03647372082687117;0.03839943382997895;-1.363861967939301;1.4380000000000002;0.0019101844693401849
19:41.8;-0.03723461901647939;0.06676602108761087;-1.359867717741076;1.464;0.003380641152813975
19:41.8;-0.035864216008229664;0.0916608788687426;-1.34500994721652;1.455;0.004421512477133014
19:41.8;-0.03220919511167226;0.11189630819924974;-1.319179753646979;1.4269999999999998;0.0047544425887490116
19:41.8;-0.026296759879055984;0.12651575048216462;-1.2830174805572232;1.3730000000000002;0.004268540538474759
19:41.9;-0.01832760749461476;0.13483970858613162;-1.237855094615342;1.2890000000000001;0.00305909799290481
19:41.9;-0.00864880793828338;0.1364861590911517;-1.185570709302924;1.061;0.0013994981423726452
19:41.9;0.0022843826661770607;0.13137175876421792;-1.1283860514329196;1.061;0.00033863245505553525
19:41.9;0.013948947176239884;0.11970112925880116;-1.0686591285112634;1.061;0.0017843452005293086
19:41.9;0.02579118385763672;0.10195047528416673;-1.0087191711387284;1.003;0.002652349845505293
19:41.9;0.037260845573598864;0.07884759326434833;-0.9507563435486988;0.9590000000000001;0.0027932536795358498
19:41.9;0.0478466255873371;0.05134607140990901;-0.8967483198648647;0.92;0.002203074108242708
19:41.9;0.05711601964999829;0.0205902174036676;-0.848400710982482;0.865;0.0009977457586704775
19:41.9;0.0647577172750693;-0.012132273600762102;-0.8070865596095984;0.789;0.0006340942896792569
19:41.9;0.07061820655233425;-0.04545254286303603;-0.7737806984521375;0.723;0.002483663535540963
19:42.0;0.0747193120317405;-0.07800054607846733;-0.74899836239528;0.6809999999999999;0.004365272664470014
19:42.0;0.0772455664552566;-0.10850419832210945;-0.732759002382742;0.735;0.006141596322286527
19:42.0;0.0785014631804173;-0.13589974419015077;-0.7245950137650684;0.735;0.007730217828159699
19:42.0;0.07885104181692196;-0.15942989992417825;-0.7236104144737677;0.735;0.009096661160084332
19:42.0;0.0786561391841227;-0.1787018469953867;-0.7285796845334518;0.7659999999999999;0.010240914114868542
19:42.0;0.07822522603081858;-0.19369177968766046;-0.7380723016144388;0.7879999999999999;0.011182963919757538
19:42.0;0.07777987224159656;-0.20470066569543963;-0.7505895014181193;0.8079999999999999;0.01195057952001278
19:42.0;0.07744365427027132;-0.212275028553937;-0.7646992763294768;0.8340000000000001;0.012571162047128132
19:42.0;0.07725563475583413;-0.21711110909202788;-0.7791544133386806;0.8590000000000001;0.01306880103256487
19:42.0;0.07720525058930168;-0.2199620228532857;-0.7929793600505894;0.8690000000000001;0.013466552401726927
19:42.1;0.07727839211730522;-0.2215618065009504;-0.8055157239801192;0.858;0.013791992024731347
19:42.1;0.07749883996560727;-0.22257099040613404;-0.8164238927069292;0.848;0.014082490472815597
19:42.1;0.07794944038740312;-0.223542387768997;-0.8256483557066954;0.848;0.014386925925103863
19:42.1;0.07876410105399695;-0.22490426948027656;-0.8333620660382293;0.846;0.0147624944894778
19:42.1;0.08009092284501974;-0.2269581292891685;-0.8399065879069236;0.852;0.015267222280103241
19:42.1;0.08203579459056089;-0.22988828770933606;-0.8457406426016553;0.865;0.015949880584604552
19:42.1;0.08460338274312007;-0.23378061542150053;-0.8514033903189;0.883;0.016839593390867564
19:42.1;0.08765506408627638;-0.2386470534457104;-0.8574926756302128;0.9009999999999999;0.01793756580421688
19:42.1;0.09089810693501421;-0.24445054608556235;-0.8646537058789507;0.922;0.01921268478763631
19:42.1;0.0939098507491575;-0.2511228562570998;-0.8735709004112179;0.935;0.020601343880042595
19:42.2;0.09619032566453357;-0.2585687258686818;-0.884954979360233;0.9420000000000001;0.02201043205915921
19:42.2;0.09723098119365675;-0.2666552477609197;-0.8995183618224616;0.9740000000000001;0.02332194873626914
19:42.2;0.09658712513998825;-0.2751923426948913;-0.9179334984831673;0.9740000000000001;0.024398706574846055
19:42.2;0.09394511253492821;-0.2839146012872613;-0.9407705911362452;0.9740000000000001;0.025092599324822103
19:42.2;0.08917858671685051;-0.2924747866869894;-0.9684155766105733;1.001;0.025258687779003346
19:42.2;0.0823883959262607;-0.3004559527754905;-1.0009765517138276;1.021;0.024778257638819197
19:42.2;0.07391843944711601;-0.30740346767671495;-1.0381924834506184;1.04;0.02359062418651358
19:42.2;0.06433912346094485;-0.3128721628268972;-1.0793598704581873;1.062;0.021727428611619738
19:42.2;0.054395549335763134;-0.31648023354244353;-1.1232938128233645;1.089;0.019337633466701167
19:42.2;0.044926901713395216;-0.31796073373031397;-1.1683408960726769;1.146;0.01668973875657337
19:42.3;0.03677062404959147;-0.3172011185377714;-1.2124592335519342;1.217;0.01414174024497758
19:42.3;0.030666611372885035;-0.3142609775864759;-1.253370740440128;1.385;0.012079133988429719
19:42.3;0.02717480794844227;-0.30936239508894414;-1.2887687768847447;1.385;0.010834503413304697
19:42.3;0.026617394866001183;-0.302857974735909;-1.3165404112053585;1.385;0.010613014448860614
19:42.3;0.02905369005549389;-0.29518963372573676;-1.334959642597183;1.405;0.011449078628890186
19:42.3;0.03429001325533095;-0.28684953086994985;-1.3428302776285783;1.419;0.01320817826999956
19:42.3;0.04191902687787138;-0.27834869283862823;-1.339578653932374;1.422;0.015630346180219044
19:42.3;0.05137690399230188;-0.27019501937150864;-1.3252995503194285;1.411;0.01839752152222126
19:42.3;0.06200588785570387;-0.2628784810246504;-1.3007533532075364;1.386;0.021202297365858987
19:42.3;0.07311543818638433;-0.25685722881748846;-1.2673107444943972;1.34;0.02380038578834585
19:42.4;0.08404276084696645;-0.2525369991278602;-1.2268439158947937;1.274;0.026038420711595067
19:42.4;0.0942163334145803;-0.250238154199259;-1.1815694486858896;1.198;0.027857297356002682
19:42.4;0.10322155774769753;-0.2501495487310083;-1.1338574399742471;1.074;0.029277135768312285
19:42.4;0.11085929984814544;-0.2522763947528725;-1.0860324687759242;1.074;0.030373270416948782
19:42.4;0.11718208176876341;-0.25639725306118366;-1.0401974348952259;1.041;0.03125290239222343
19:42.4;0.12249405267694477;-0.2620469804735544;-0.9981019910091969;1.033;0.03203827206616067
19:42.4;0.12730877713828326;-0.2685361511065878;-0.9610569818190865;0.9840000000000001;0.0328556637011865
19:42.4;0.13226715727878616;-0.2750074669608948;-0.9298842583846109;0.855;0.033824033935099175
19:42.4;0.13802280789107518;-0.280520683176223;-0.9049003081052929;0.9109999999999999;0.035036158493034146
19:42.4;0.1451089111397268;-0.284153721585236;-0.8859475350680214;0.98;0.03653048480310215
19:42.5;0.1538145734204075;-0.2851109940090284;-0.8724788345804323;0.987;0.03826188392295233
19:42.5;0.16410876849788378;-0.28283369242339634;-0.8636707006322955;0.951;0.04008769786449825
19:42.5;0.1756349698633858;-0.27710127417001185;-0.8585268861833256;0.951;0.041783365090624795
19:42.5;0.1877647052978066;-0.26810243061063666;-0.8559548837585582;0.951;0.043088917676047764
19:42.5;0.19967772461576347;-0.2564510154060432;-0.8548218941510419;0.915;0.04377333935798949
19:42.5;0.21044592939929524;-0.243132620090224;-0.8540028496011103;0.9059999999999999;0.04369614055611608
19:42.5;0.21911702243825185;-0.22938526832673453;-0.8524287097316008;0.907;0.04284495677443853
19:42.5;0.22480166383999767;-0.21653579595056516;-0.8491387410586495;0.904;0.0413340421045608
19:42.5;0.22676497838983228;-0.20582491161562858;-0.8433357680867226;0.894;0.0393617538179102
19:42.5;0.22451572642521977;-0.19825476439759518;-0.8344404778589404;0.888;0.03714204082755789
19:42.6;0.21787810350331074;-0.1944848662806782;-0.822142502031429;0.897;0.03483746130462043
19:42.6;0.20702679796237677;-0.1947890200466024;-0.8064480304522463;0.892;0.03252126448250678
19:42.6;0.192470941264398;-0.19907064229604104;-0.7877204733813993;0.892;0.030181757203716592
19:42.6;0.174985867931192;-0.20692173797992344;-0.766703385764258;0.873;0.027761087473292187
19:42.6;0.15550422704659564;-0.21770685966502398;-0.7445103135219974;0.8240000000000001;0.025204903005519873
19:42.6;0.1349849048585407;-0.23065620909615736;-0.7225700221126707;0.772;0.0224972945487419
19:42.6;0.11428243005140425;-0.24495556905141092;-0.7025276551391031;0.736;0.019666641855507073
19:42.6;0.09404107218977732;-0.25982263665390853;-0.6861162839075633;0.728;0.016764564821373933
19:42.6;0.0746328691675053;-0.2745611954923506;-0.6750203686395464;0.706;0.013832037982312157
19:42.6;0.056148427540838104;-0.28858803163855573;-0.6707503407683544;0.6920000000000001;0.010868680347886826
19:42.7;0.03843857455415256;-0.30143351543685154;-0.6745412830431314;0.71;0.00781569038882327
19:42.7;0.021196691085936966;-0.31272358880836587;-0.6872825768154249;0.77;0.0045557936645213345
19:42.7;0.004066015301782128;-0.32215373428486827;-0.7094773823840557;0.77;0.0009293316619063853
19:42.7;-0.013246692901864511;-0.32946300592157884;-0.7412227303928626;0.77;0.003234914850316794
19:42.7;-0.030870105671914262;-0.3344131048353751;-0.7822017999797738;0.8190000000000001;0.008074956940984897
19:42.7;-0.04869725196922921;-0.33677716822809767;-0.8316893471559573;0.898;0.013639807274013578
19:42.7;-0.06635698459142604;-0.3363424429744077;-0.888574759794849;0.982;0.019831807106001402
19:42.7;-0.08323012725874886;-0.33292621151476903;-0.9513990314166191;1.001;0.026362782852920576
19:42.7;-0.09850036134707688;-0.32639700234754593;-1.0183962188512146;1.0190000000000001;0.03274166520625914
19:42.7;-0.11122803007100239;-0.316690345055871;-1.0875396068663112;1.051;0.03830841215074559
19:42.8;-0.12044614315565415;-0.3038132011268318;-1.1566109162791478;1.105;0.0423240116705108
19:42.8;-0.12528588071736851;-0.28783794022084674;-1.223316951286967;1.4469999999999998;0.044115292406522476
19:42.8;-0.12512687088557456;-0.26889119824531316;-1.285453766513859;1.4469999999999998;0.04324975301267072
19:42.8;-0.11974125348033421;-0.2471471396082084;-1.3410735277860593;1.4469999999999998;0.03968733877776915
19:42.8;-0.10938648643800698;-0.22283514137392288;-1.3885911958744124;1.432;0.033847123089688416
19:42.8;-0.09481598529268727;-0.19626345997036557;-1.4268027841535438;1.449;0.02655124935508327
19:42.8;-0.07720629817174501;-0.16784911933735036;-1.4548349042118203;1.431;0.01885321884331179
19:42.8;-0.05802422092201976;-0.13813894749787567;-1.4720645559431145;1.405;0.01179919331873338
19:42.8;-0.03886825664364513;-0.10780912744565928;-1.4780455442522598;1.393;0.006193532335264652
19:42.8;-0.021314231911491354;-0.07763937455664283;-1.4724727362450099;1.415;0.0024366826854830153
19:42.9;-0.006777544420914199;-0.048467923976323185;-1.4552064784670795;1.4680000000000002;0.0004780258805962016
19:42.9;0.0036127727034328256;-0.021138406496824084;-1.4263596752230294;1.4780000000000002;0.00010892860365796445
19:42.9;0.009132701089607108;0.003550482908346139;-1.3864243170067976;1.4780000000000002;4.495550047893123e-05
19:42.9;0.009559771742739814;0.024884189997892044;-1.3363962392416442;1.4780000000000002;0.0003179115278818104
19:42.9;0.005217417191008884;0.04225820461533641;-1.2778527400307589;1.409;0.0002817392894726188
19:42.9;-0.0030550682136834535;0.05519603143920712;-1.212944236190202;1.294;0.00020453592542119225
19:42.9;-0.014007488733724205;0.06336711430711223;-1.1442779168598858;1.165;0.001015677258803347
19:42.9;-0.026141277385450534;0.06660997539500481;-1.074700199242689;0.934;0.0018713430476790243
19:42.9;-0.037902528176173615;0.06496048135147814;-1.007019715976793;0.934;0.002479450184102613
19:42.9;-0.047875226000312535;0.05867605721299771;-0.9437357106954979;0.863;0.0026510758250045006
19:43.0;-0.05494847347786898;0.04823958113097103;-0.8868298816005605;0.789;0.0023507122910772305
19:43.0;-0.0584406932219991;0.03433133855477741;-0.8376501976539764;0.789;0.0016806171490646956
19:43.0;-0.05817110355612897;0.01777037200371649;-0.7968893797668379;0.7859999999999999;0.0008237622030118597
19:43.0;-0.054471708433156435;-0.0005639912461778014;-0.7646459778604442;0.7859999999999999;2.3491122426516108e-05
19:43.0;-0.048134844141894825;-0.019817469095450197;-0.7405435667954774;0.797;0.0007064124960144954
19:43.0;-0.040296362569407586;-0.03924082065642206;-0.7238749803576886;0.7709999999999999;0.0011446362429134783
19:43.0;-0.03226756741538259;-0.058251727023462804;-0.7137395225441997;0.7709999999999999;0.0013415744473142875
19:43.0;-0.025346685884993846;-0.07646501210843612;-0.709150489280947;0.74;0.0013744291304501094
19:43.0;-0.02064807912105517;-0.09368338149326763;-0.7091034698311792;0.718;0.0013716768984071758
19:43.0;-0.018977739780734797;-0.1098544270875861;-0.7126088975552441;0.693;0.0014856389992548226
19:43.1;-0.020766838523008074;-0.1250120781740669;-0.7187028601105503;0.684;0.0018658285492398935
19:43.1;-0.02606115950746966;-0.13922372766395738;-0.7264559276330284;0.716;0.0026358231245506886
19:43.1;-0.034555369208243585;-0.15255714563586287;-0.734997745694933;0.7509999999999999;0.003874664458261231
19:43.1;-0.0456569180356454;-0.16506864714442618;-0.7435653761383254;0.7509999999999999;0.005603899561638116
19:43.1;-0.05856482947632063;-0.1768044420481644;-0.7515715496898043;0.82;0.007782164145240996
19:43.1;-0.07235335450651716;-0.1878050487178459;-0.7586804360821562;0.866;0.01030919653994941
19:43.1;-0.08605599305221985;-0.19810296840984448;-0.7648717835991647;0.875;0.013039494143430532
19:43.1;-0.09874649914242226;-0.2077046379907819;-0.770469291411786;0.8540000000000001;0.015802406726603702
19:43.1;-0.10961088744674227;-0.21655518313126462;-0.776113345003046;0.815;0.01842245175239291
19:43.1;-0.11800386417668564;-0.22449836351553992;-0.7826746331050584;0.79;0.0207343615383657
19:43.2;-0.12348655346704991;-0.2312546064777151;-0.7911245736739786;0.785;0.022592013382673106
19:43.2;-0.12584622645787116;-0.23643913006554432;-0.8023897402348535;0.815;0.023875084499090392
19:43.2;-0.12509972728806182;-0.23962801968798533;-0.8172171223044317;0.815;0.024498044491516588
19:43.2;-0.12148174402005898;-0.24045891450035758;-0.8360698053132972;0.846;0.024422743006407135
19:43.2;-0.11541913510139565;-0.23873766186214124;-0.8590658818298504;0.8490000000000001;0.023671469697921027
19:43.2;-0.10749282971083657;-0.23452007715068066;-0.885969567801561;0.9359999999999999;0.022334607699010363
19:43.2;-0.09838936181009993;-0.22814545836695052;-0.9162377463387631;0.9359999999999999;0.02056686753303879
19:43.2;-0.08884564186410893;-0.2202118299513477;-0.9491132090239229;1.061;0.018569268366674323
19:43.2;-0.07959217584380744;-0.2114997049506587;-0.9837411501925873;1.061;0.016560024754406696
19:43.3;-0.07130017888452213;-0.2028656584079171;-1.019276066175103;1.077;0.014743173650872006
19:43.3;-0.06453600342340608;-0.19513091387379847;-1.0549507590070977;1.0759999999999998;0.013284962548376075
19:43.3;-0.0597221469553077;-0.1889816482050442;-1.0900987057878406;1.112;0.01230327887688785
19:43.3;-0.057101556305679625;-0.18488710255475221;-1.124141296851047;1.112;0.011867943336598597
19:43.3;-0.05670464344601367;-0.18303862415102815;-1.1565592973610899;1.112;0.012004090772316164
19:43.3;-0.058323356923164454;-0.18331425225457754;-1.1868678446207173;1.165;0.012689400603116206
19:43.3;-0.061499751078320286;-0.18527272714190193;-1.2146121645805616;1.239;0.013839566235353746
19:43.3;-0.06553936902901009;-0.18817863921793332;-1.2393910550102887;1.308;0.015285545320957484
19:43.3;-0.0695616229598975;-0.19105969324757924;-1.2608954462517552;1.35;0.01675783301297009
19:43.3;-0.07259344774453982;-0.1927963675967708;-1.2789330375127725;1.35;0.01789963094321537
19:43.4;-0.07369865662163576;-0.19224157502036662;-1.2934105192080612;1.315;0.018324970166696434
19:43.4;-0.07212265456331605;-0.18836344350805168;-1.3042633386549212;1.272;0.01771877165244982
19:43.4;-0.06742524371264434;-0.1803977167004284;-1.3113505490958415;1.22;0.015950428832856488
19:43.4;-0.05957293347717808;-0.16798730660813413;-1.3143564527387335;1.22;0.01315341778661753
19:43.4;-0.048968956119584135;-0.1512793327511525;-1.3127496588977225;1.244;0.009724837667938857
19:43.4;-0.03641361748444524;-0.13095118835239644;-1.3058373961343999;1.305;0.00622676350390111
19:43.4;-0.023003418009530277;-0.1081492016965361;-1.2929215906324592;1.3719999999999999;0.003216532006244959
19:43.4;-0.009989964339640191;-0.08434313625307692;-1.2735254030658243;1.419;0.0010730533042686873
19:43.4;0.0013741696498468271;-0.06112171316956771;-1.2476292227282424;1.44;0.00010479037859648109
19:43.4;0.009979032214470546;-0.0399713651896084;-1.2158438226481598;1.406;0.00048497036238860907
19:43.5;0.014977332798989777;-0.022084823568124322;-1.1794586160519878;1.295;0.00039013159329919146
19:43.5;0.015876565349298575;-0.008236618255630478;-1.1403325975316163;1.168;0.00014912039062751672
19:43.5;0.012599539973039097;0.001255136659004952;-1.1006390717382442;0.941;1.7405665330254378e-05
19:43.5;0.0055059030028220025;0.006483072086265036;-1.0625215295744932;0.941;3.792688244821995e-05
19:43.5;-0.004633940674657242;0.007844852436330147;-1.0277469778595953;0.882;3.73612550457522e-05
19:43.5;-0.016717330168705524;0.005912053226780673;-0.9974365279031348;0.857;9.858038821755087e-05
19:43.5;-0.02943707067862219;0.0013041918011277632;-0.9719192296056841;0.8590000000000001;3.7313520910327704e-05
19:43.5;-0.04144360786114713;-0.005411612705451938;-0.9507221351768513;0.879;0.00021322487525212935
19:43.5;-0.0515152839553459;-0.013783718234294865;-0.9326893276893226;0.9179999999999999;0.0006622767244022448
19:43.5;-0.05870447667072039;-0.023498406144870268;-0.9162072866155493;0.97;0.0012638728018965425
19:43.6;-0.06243089807319104;-0.034366468856415026;-0.8994986179419879;1.014;0.001929900832875896
19:43.6;-0.06250549706820535;-0.04628477762881612;-0.8809332216933234;1.032;0.002548586528344595
19:43.6;-0.05908593699462795;-0.05918612570395058;-0.8593008800569334;0.948;0.003005033347330449
19:43.6;-0.0525833478450633;-0.0729894550062901;-0.8339990858246693;0.948;0.003200913429316615
19:43.6;-0.04355366585110199;-0.08755960589184002;-0.8051130785106333;0.893;0.003070332392368154
19:43.6;-0.0326070366439372;-0.1026827673443262;-0.7733874183333066;0.818;0.002589440872154109
19:43.6;-0.020354390304110882;-0.11806038440315363;-0.7401021918284412;0.72;0.0017785004580418483
19:43.6;-0.007391310585357775;-0.1333207359303004;-0.7068796053072384;0.637;0.0006965697427454657
19:43.6;0.005694290391298606;-0.14804614139213584;-0.6754617215001544;0.596;0.0005694262006752189
19:43.6;0.018309374957925888;-0.1618141967302477;-0.6475074868974432;0.588;0.0019183813104955202
19:43.7;0.02985444007393285;-0.1742495048925189;-0.6244480253219342;0.643;0.003248454436792882
19:43.7;0.0397429961103144;-0.1850765992497106;-0.6074155759890802;0.643;0.00446784439699447
19:43.7;0.04744149836366219;-0.19415951705585646;-0.5972347536078106;0.67;0.005501259757939071
19:43.7;0.05252024704314531;-0.20151514305583274;-0.5944481639958148;0.67;0.00629141650687223
19:43.7;0.054700367115061904;-0.20729636983016578;-0.5993472937725218;0.637;0.006796111360481584
19:43.7;0.05388382282684338;-0.21175088291697886;-0.6119902805464401;0.637;0.0069827767013674455
19:43.7;0.05016280469790484;-0.21516716743785427;-0.6322036409557978;0.643;0.006823619569644963
19:43.7;0.04381396581126185;-0.21782082689903334;-0.6595772761279586;0.67;0.006294737908285186
19:43.7;0.03528475487772025;-0.21993244287715394;-0.6934653799185428;0.705;0.00538147326950303
19:43.7;0.025175729045976872;-0.22164427465664063;-0.7330020268487043;0.743;0.004090192506983522
19:43.8;0.014218703427963915;-0.22301843739032046;-0.7771353089928201;0.7809999999999999;0.002464321725995809
19:43.8;0.003246928012965823;-0.22405486885376025;-0.8246819269752256;0.813;0.0005999478798968184
19:43.8;-0.006848268117387309;-0.2247238714175306;-0.8744034428730981;1.008;0.0013456800752457323
19:43.8;-0.015176382357901039;-0.2250047256621151;-0.9250976223236805;1.008;0.003158984274395432
19:43.8;-0.020916417967649786;-0.22491942573607393;-0.9756830275352507;1.008;0.004590109308790044
19:43.8;-0.0233853788095058;-0.22455127889981882;-1.0252519895565173;1.069;0.005383820388984288
19:43.8;-0.022100050415393802;-0.22404185349241953;-1.073085679267321;1.126;0.005313208030989406
19:43.8;-0.016830414858768256;-0.2235645467615008;-1.1186417762605732;1.156;0.004209095591246139
19:43.8;-0.0076427807631956925;-0.2232789230532725;-1.1615234301382358;1.181;0.0019821070458672136
19:43.8;0.005074629872701231;-0.22327603884985828;-1.2014321340036886;1.202;0.0013612745777025052
19:43.9;0.020616105575525186;-0.22352726463774167;-1.2381100034220713;1.22;0.005705534892789035
19:43.9;0.03800365305960304;-0.22384680911912605;-1.2712837332399438;1.232;0.010814806233916844
19:43.9;0.05607351879898737;-0.22387495477464475;-1.3006248836788517;1.3519999999999999;0.0163273378808028
19:43.9;0.0735906810746655;-0.22308694526482334;-1.3257344171144636;1.3519999999999999;0.021764741333274218
19:43.9;0.08936811155173875;-0.22083044974117888;-1.3461456156689278;1.3519999999999999;0.026566453313084187
19:43.9;0.10236988348742365;-0.21639169977316133;-1.3613322882240961;1.3659999999999999;0.03015622344659538
19:43.9;0.111791107297291;-0.20908592684578844;-1.370717289514344;1.36;0.032039073664142846
19:43.9;0.11711944502020981;-0.19836061441062702;-1.3736892786042392;1.3530000000000002;0.03191339144742577
19:43.9;0.11818147488176282;-0.18389387256326054;-1.3696411737555516;1.368;0.02976620492468876
19:43.9;0.11516717974390099;-0.16567167682319336;-1.358040971428164;1.3840000000000001;0.025911339957927312
19:44.0;0.10862016688524306;-0.14403465795156528;-1.3385358595029828;1.4040000000000001;0.020941485324011234
19:44.0;0.09938624643658751;-0.1196862657389387;-1.3110758374662435;1.429;0.01559546826752132
19:44.0;0.08852399240690226;-0.09364946026270335;-1.2760300720316338;1.3090000000000002;0.010578575267228578
19:44.0;0.07719093387124293;-0.06716698122275007;-1.2342668571460886;1.3090000000000002;0.006399281164719525
19:44.0;0.06652508519266127;-0.04156583772652986;-1.1871776070545157;1.3090000000000002;0.0032827489672459234
19:44.0;0.057540331973303;-0.018122590302354042;-1.1366340851394292;1.214;0.0011852591346889904
19:44.0;0.05104539797684028;0.002045534519983794;-1.0848688667550588;1.1079999999999999;0.00011327671686402753
19:44.0;0.04758778348142115;0.018056616957203047;-1.0342763002515636;0.983;0.0008887271247508411
19:44.0;0.047421903454301334;0.02930556728880991;-0.9871547093016274;0.878;0.001371874350974396
19:44.0;0.05050109753756933;0.035471514302490924;-0.9454358831435163;0.8109999999999999;0.0016936069508426924
19:44.1;0.056492483027671944;0.03649749581333098;-0.910457740801913;0.782;0.0018772128737593724
19:44.1;0.06481277735879368;0.03255388511514617;-0.8828270423931837;0.7809999999999999;0.0018626835816925036
19:44.1;0.07468336179839773;0.023996752956652847;-0.8623964674691659;0.855;0.0015455508862069634
19:44.1;0.0852013992767155;0.011329047819396977;-0.8483517388574461;0.855;0.0008188721324170106
19:44.1;0.09541895496912597;-0.00483129734803115;-0.8393794863520231;0.855;0.0003869517138954717
19:44.1;0.10441935855551586;-0.0237764408282712;-0.8338764375956609;0.88;0.0020702822928787314
19:44.1;0.11138395008721931;-0.04473106375675931;-0.8301666522901445;0.893;0.004136158050916817
19:44.1;0.11564691608798017;-0.0668770759831999;-0.8267036794385892;0.892;0.0063938317395699105
19:44.1;0.11673629608131697;-0.08938246796687283;-0.8222403481739373;0.8909999999999999;0.008579402353126807
19:44.1;0.11439949040357834;-0.11143352213097041;-0.8159535059657781;0.884;0.010401724823785246
19:44.2;0.10861378207224066;-0.1322699542059034;-0.8075167740322192;0.883;0.011601060515966096
19:44.2;0.0995831943717086;-0.15122370612977487;-0.797118584315862;0.8859999999999999;0.01200407955923998
19:44.2;0.0877224311088563;-0.16776043131644697;-0.785424569665446;0.818;0.011558585126993396
19:44.2;0.07362986202044393;-0.18151772024530965;-0.7734870010478558;0.818;0.010337750219683747
19:44.2;0.058053288763452386;-0.19232997652523412;-0.7626114757682511;0.818;0.008514852764796957
19:44.2;0.04185010520282996;-0.20023172273847775;-0.7541956089285499;0.769;0.006319947018597011
19:44.2;0.025938560414466016;-0.2054383818981596;-0.7495524950029328;0.725;0.003994197256401973
19:44.2;0.011235856867394435;-0.20830989258063246;-0.7497327673291416;0.6940000000000001;0.001754779634031634
19:44.2;-0.0014155691745568442;-0.2093042239503002;-0.7553680554012135;0.687;0.00022380392783418078
19:44.2;-0.011324684648152188;-0.2089270096402017;-0.7665653666503831;0.695;0.001813718569839523
19:44.3;-0.01801866590039845;-0.20768284394383285;-0.7828778338224973;0.74;0.0029296602040512014
19:44.3;-0.021287928944197166;-0.20603326548176176;-0.8033643851117677;0.794;0.003523573478060694
19:44.3;-0.021200812213179297;-0.20436442103572458;-0.8267331732437712;0.932;0.003581979968933874
19:44.3;-0.018085741680300874;-0.20296464854327068;-0.8515423773621089;0.932;0.0031258129799129663
19:44.3;-0.012487876417784718;-0.2020117691842078;-0.8764147369677923;0.932;0.0022109297115778487
19:44.3;-0.005112195427949392;-0.20157120752243182;-0.9002239204354576;0.98;0.0009276550085580194
19:44.3;0.0032385898021473312;-0.20160610674782534;-0.9222309100493923;1.018;0.000602142527487422
19:44.3;0.01172860022981475;-0.20199938025323952;-0.9421644742620652;1.031;0.0022321477864400505
19:44.3;0.019554494378977112;-0.20258685181197375;-0.9602410746286134;1.028;0.003803979129964109
19:44.3;0.02600944237790572;-0.20319952702222774;-0.9771197819818946;1.035;0.00516418200286621
19:44.4;0.03054106820285706;-0.20370863090070035;-0.9937960473615806;1.0390000000000001;0.00618288142761419
19:44.4;0.03279741853244656;-0.2040598042095674;-1.0114480186224826;1.0270000000000001;0.0067692522121835024
19:44.4;0.0326527201690227;-0.20428075804267978;-1.0312543175369338;1.014;0.006878798803530759
19:44.4;0.030205750170495517;-0.2044557732172833;-1.0542043150084184;1.014;0.006510491763450915
19:44.4;0.025751392522765842;-0.20467347739969816;-1.0809236844786934;1.014;0.00569714561636476
19:44.4;0.019733892398384207;-0.2049601116575221;-1.111539228785528;1.023;0.004495799134560249
19:44.4;0.012691027035519806;-0.20521016810839426;-1.1456060634426393;1.078;0.002983533709051173
19:44.4;0.005196211456138759;-0.20512965397462107;-1.1821140675151989;1.15;0.0012600119067573271
19:44.4;-0.0021941361291988146;-0.20421533952890605;-1.219576113981289;1.24;0.0005464630973486702
19:44.4;-0.008981273463273527;-0.2017945162944301;-1.256180522787454;1.3530000000000002;0.0022766660725893444
19:44.5;-0.014749802454055043;-0.19713429796646673;-1.2899720903646925;1.3940000000000001;0.003750841465360265
19:44.5;-0.019178489855301812;-0.18960066015619023;-1.3190192900172641;1.358;0.004796289614392088
19:44.5;-0.022038712046945207;-0.17882040920510484;-1.3415386726729583;1.338;0.005286965683990304
19:44.5;-0.02318670818930117;-0.16479501525156584;-1.3559773116154619;1.338;0.005181262435118054
19:44.5;-0.022559419333290184;-0.14794023522035918;-1.3610783821078594;1.338;0.004542525333377745
19:44.5;-0.02018245554436859;-0.12905500836344164;-1.355956846693749;1.396;0.003531788890935032
19:44.5;-0.0161897259824223;-0.10923255271372602;-1.3401954386935817;1.435;0.002370062052305658
19:44.5;-0.010841129122911294;-0.08972584283175324;-1.3139468488653734;1.406;0.0012781147927367858
19:44.5;-0.00451919395795639;-0.07178657358510959;-1.2780088284184266;1.3659999999999999;0.00041460836469229395
19:44.5;0.002305022222909349;-0.05650612917122288;-1.2338375494359624;1.315;0.00016070472936016017
19:44.6;0.00913181242167403;-0.044686937206422396;-1.1834798140528013;1.2309999999999999;0.0004829458365708396
19:44.6;0.01550569917491856;-0.03676347875326247;-1.1294232291328707;1.1440000000000001;0.0006438203052034629
19:44.6;0.021085617103835726;-0.03278158342821557;-1.0743793985294237;0.968;0.0007426324378451592
19:44.6;0.025694811092820118;-0.03243462320569188;-1.0210315936925731;0.968;0.0008509292782072215
19:44.6;0.029336655288783972;-0.03514445783395769;-0.9717903546938891;0.903;0.0010019361124513997
19:44.6;0.03217373797675375;-0.040167563281678434;-0.928595383450196;0.868;0.0012000615671824708
19:44.6;0.03447966677184269;-0.046706915218528225;-0.8927821055583886;0.848;0.0014377710076203653
19:44.6;0.03658023774663358;-0.05401407927557173;-0.865013864737385;0.8390000000000001;0.0017091357948662408
19:44.6;0.03880120720436653;-0.06146874397316363;-0.8452728482173902;0.8290000000000001;0.002016027703184036
19:44.6;0.04143500457177111;-0.06862517546773958;-0.8328999505117106;0.774;0.002368338065385466
19:44.7;0.044729791108995214;-0.07522078624024525;-0.8266767157031062;0.748;0.0027814447903689757
19:44.7;0.04889156701957111;-0.0811542973994585;-0.8249526247765719;0.7809999999999999;0.003273214661888261
19:44.7;0.054079775557201774;-0.08645300883317467;-0.8258266974299185;0.914;0.0038610365415316485
19:44.7;0.06038268107375918;-0.09124676107779706;-0.8273778463117949;0.914;0.004558623637435055
19:44.7;0.06778037805985185;-0.09575142638813514;-0.8279097142729571;0.9279999999999999;0.005373190244439184
19:44.7;0.07611827148256244;-0.10025392771991229;-0.8261609411524459;0.934;0.006304562764764615
19:44.7;0.08510773215895681;-0.1050908448066443;-0.8214431049968393;0.938;0.007347022840999777
19:44.7;0.09435410144533415;-0.1106168156711982;-0.8136883278392979;0.899;0.008492587332214472
19:44.7;0.10340098069509328;-0.11716312723218274;-0.8034024353582241;0.8370000000000001;0.00973304556919813
19:44.7;0.11177796980831708;-0.12499191112149935;-0.7915328460506601;0.7709999999999999;0.011058776149932795
19:44.8;0.11904400010810148;-0.13425562197544827;-0.7792776382037422;0.7190000000000001;0.012454669474109824
19:44.8;0.12482521871359403;-0.14497202870638282;-0.767876837422802;0.6940000000000001;0.01389562609605977
19:44.8;0.1288478729099424;-0.15702111317520953;-0.7584303846168615;0.747;0.015344439488581729
19:44.8;0.1309611346025046;-0.1701627979489369;-0.7517758095579441;0.747;0.01675310822139224
19:44.8;0.13114164224282726;-0.18406658861691622;-0.7484363554405885;0.747;0.01806635153991883
19:44.8;0.12947684392763623;-0.19834290068596247;-0.7486302405843097;0.789;0.01922543306207299
19:44.8;0.12613181328841075;-0.21257260721199106;-0.7523230661039273;0.815;0.020171412741910165
19:44.8;0.12130887346245041;-0.22633787756927384;-0.7593029006138132;0.828;0.02084802252834411
19:44.8;0.11521180406231075;-0.23925762148124485;-0.7692563303333588;0.83;0.021204783219911223
19:44.8;0.10802566896549953;-0.2510273815649945;-0.7818284423880096;0.828;0.021201155246444652
19:44.9;0.09991804069819628;-0.2614597145975598;-0.7966619325499626;0.8290000000000001;0.02081242843863197
19:44.9;0.09105921691891487;-0.27051779558390665;-0.8134238218435168;0.836;0.020037181767196963
19:44.9;0.08165136320098455;-0.27833346221195415;-0.8318346335863374;0.9540000000000001;0.01890452893507384
19:44.9;0.07195375784180492;-0.28520285028206227;-0.8517073195938466;0.9540000000000001;0.01747824091827864
19:44.9;0.06229477805431189;-0.2915578045696056;-0.872984471701281;0.9540000000000001;0.015855605544334895
19:44.9;0.05306645183676602;-0.29791641299845895;-0.8957519349255862;0.9520000000000001;0.014161271063864509
19:44.9;0.044701213223725604;-0.3048183752475459;-0.9202173970433624;0.998;0.012538653289555666
19:44.9;0.03763473431736961;-0.31275104373897294;-0.9466583842584922;1.0090000000000001;0.011142455488755355
19:44.9;0.032262185773474644;-0.32207276678889457;-0.9753475792275956;1.0190000000000001;0.010134613765161686
19:44.9;0.028895171871530824;-0.3329424879214308;-1.0064603270300434;1.016;0.009682581538454981
19:45.0;0.027726036690859376;-0.3452667630377283;-1.0399724622459678;1.02;0.009955530482137404
19:45.0;0.028808013703203118;-0.3586758076287487;-1.075565968932654;1.038;0.011113540908224882
19:45.0;0.03205976718011357;-0.3725368601236871;-1.1125659623973954;1.186;0.013287870382518701
19:45.0;0.03729702148907009;-0.38600377470921016;-1.149925943457997;1.186;0.01655524356565698
19:45.0;0.04428480148248342;-0.3980900787928985;-1.1862617263698538;1.186;0.02091301143541707
19:45.0;0.0527988056221728;-0.4077493988519081;-1.219925581690593;1.251;0.02626338900003586
19:45.0;0.06268501360007632;-0.4139554009058472;-1.2491181075349636;1.327;0.032413115868370146
19:45.0;0.07390488621477861;-0.41578262308121594;-1.2720377619945293;1.38;0.0390876437594436
19:45.0;0.08654746717749127;-0.41249097712631866;-1.2870556787943481;1.4;0.04594795118976012
19:45.0;0.10078977493135946;-0.40361232091804644;-1.2928912648978892;1.411;0.05259481017200707
19:45.1;0.11680136220270376;-0.38903137385726266;-1.2887648654695125;1.444;0.058560695018816264
19:45.1;0.13461450447107615;-0.3690450125375026;-1.2745100287504614;1.479;0.06331614346073747
19:45.1;0.15400474150666157;-0.34437574531775444;-1.2506300328429865;1.3019999999999998;0.06632778615388746
19:45.1;0.17442772380994379;-0.31612058368271856;-1.2182873492548973;1.3019999999999998;0.06717660061662033
19:45.1;0.19503183657075152;-0.2856426500955216;-1.179227554296201;1.3019999999999998;0.06569407207333944
19:45.1;0.2147372871621511;-0.2544350037250936;-1.1356484477698934;1.202;0.06204806362588081
19:45.1;0.23236377247388942;-0.22398160226843716;-1.0900217872631475;1.109;0.056730412896633275
19:45.1;0.24678737777557805;-0.19562693039136506;-1.0448759500034166;1.041;0.05044478982874376
19:45.1;0.2570982344728064;-0.17046438820826187;-1.0025632645430547;0.986;0.04393843111971654
19:45.1;0.2627248861988265;-0.14925602434166999;-0.9650485334399602;0.948;0.03784271064429934
19:45.2;0.2634996303647262;-0.13239374557767442;-0.9337513148290523;0.9259999999999999;0.03257457106582603
19:45.2;0.2596550041983316;-0.1199076658438578;-0.9094595395105646;0.922;0.028315682150145842
19:45.2;0.2517570827924327;-0.11152076693253;-0.8923157763392777;0.904;0.025052785296350983
19:45.2;0.2405951002321532;-0.10673856660399669;-0.8818648213163277;0.904;0.022646973053786365
19:45.2;0.22705694256363368;-0.10495290350965034;-0.877145051861175;0.904;0.02090261690908305
19:45.2;0.21201870581057328;-0.10553781299930727;-0.8768067660855201;0.903;0.01961941989123014
19:45.2;0.19626334648846133;-0.10792282667531117;-0.8792454368368282;0.9109999999999999;0.01862355708564567
19:45.2;0.18043086572927305;-0.11163786343698963;-0.8827420307152589;0.92;0.017780998881651498
19:45.2;0.1649977306851928;-0.1163299265586461;-0.8856040935635378;0.927;0.01699843897216845
19:45.2;0.15028116244429285;-0.12175631551401263;-0.8863008498839107;0.9390000000000001;0.01621724989361008
19:45.3;0.13646058108156847;-0.12776309403838468;-0.8835843940416583;0.953;0.01540496349661004
19:45.3;0.12360603769444048;-0.1342596025732629;-0.8765873301441967;0.955;0.014547227525415537
19:45.3;0.11170432093945476;-0.14119802269614465;-0.8648861553079052;0.889;0.013641355688074787
19:45.3;0.10067852561516417;-0.1485614797464121;-0.8485236024793972;0.889;0.012691325727470136
19:45.3;0.0904038918405558;-0.15635810002821787;-0.8279922969973907;0.889;0.01170398638717543
19:45.3;0.08072543671935264;-0.16461655785462304;-0.8041870672337881;0.851;0.010686635681828587
19:45.3;0.07147920295436695;-0.17338151166281407;-0.7783293802661766;0.8059999999999999;0.00964597008518799
19:45.3;0.06251476023500903;-0.1827098812014169;-0.7518646609811004;0.7659999999999999;0.008587846589745065
19:45.3;0.053716117521067135;-0.1926678653923365;-0.7263390911515127;0.727;0.007517151781851155
19:45.3;0.045019029852298276;-0.20332626429656606;-0.7032704910275083;0.691;0.00643742242043194
19:45.4;0.03642248826417655;-0.214751265803278;-0.6840310734858464;0.67;0.005350337463399876
19:45.4;0.027991881847313774;-0.22698977510045454;-0.6697583277182068;0.6659999999999999;0.004255557992162997
19:45.4;0.019852590762435826;-0.24005096246742852;-0.6613050577517179;0.695;0.003151537550163618
19:45.4;0.012175965874343019;-0.2538876480980088;-0.6592303545646788;0.695;0.002037896817868985
19:45.4;0.005162340790915712;-0.26838256740166083;-0.663822730431858;0.721;0.0009197146269335322
19:45.4;-0.0009750543561940123;-0.2833451601932378;-0.6751405621895386;0.7490000000000001;0.0001865257636987988
19:45.4;-0.006023933670421527;-0.2985224338176672;-0.6930553760585656;0.772;0.0012463071645542202
19:45.4;-0.009783300557281662;-0.31362269505226603;-0.7172870377665335;0.8009999999999999;0.0022008267755382702
19:45.4;-0.012067751197377645;-0.32834670050046866;-0.7474242744787793;0.826;0.002961598645087893
19:45.4;-0.012704923934446955;-0.3424189908740088;-0.7829295710625216;0.8420000000000001;0.003406062468695498
19:45.5;-0.011529325564243086;-0.3556124541528669;-0.8231343470553263;0.863;0.0033748275764834304
19:45.5;-0.008377331325838039;-0.3677613092414365;-0.8672370738057168;0.9;0.0026718345684170136
19:45.5;-0.0030863544574137288;-0.3787606770250003;-0.9143190955748881;1.0659999999999998;0.0010688296087414258
19:45.5;0.004500363952689019;-0.38855236656856956;-0.9633827929809783;1.0659999999999998;0.0016845972250269625
19:45.5;0.014521568448981281;-0.39709659738626285;-1.0133981957964717;1.0659999999999998;0.005843725652550271
19:45.5;0.027077032623963656;-0.40433104425030925;-1.0633387371678633;1.139;0.011641522746502313
19:45.5;0.04219895263751381;-0.4101230339238961;-1.1122015249142367;1.195;0.019248607626153377
19:45.5;0.059819334378352025;-0.41422607475080453;-1.1590187436597608;1.232;0.028719010281525285
19:45.5;0.07973894217547271;-0.4162554653697405;-1.2028616905453173;1.261;0.03992510915578519
19:45.5;0.10160526284960568;-0.41569694658206363;-1.2428336054618434;1.29;0.05249355991570259
19:45.6;0.12490652387363096;-0.41195545654943555;-1.2780529792345683;1.3159999999999998;0.06576339705484112
19:45.6;0.14898469973362446;-0.4044393604711383;-1.3076383697465348;1.3219999999999998;0.07879211176679066
19:45.6;0.17306521802935748;-0.39266466362897945;-1.3307107445434865;1.412;0.09043057195862018
19:45.6;0.19629624648705313;-0.37635962319259497;-1.3464259751988612;1.412;0.09947123310103807
19:45.6;0.21778678346254104;-0.35555259891077234;-1.3540389462243876;1.412;0.10484954118750339
19:45.6;0.23663530707229619;-0.33062921012228175;-1.3529912256388499;1.44;0.10585606443762811
19:45.6;0.2519511040315787;-0.30234674658982247;-1.3430121633204806;1.46;0.1023060957990753
19:45.6;0.2628797450510229;-0.271798461450592;-1.3242200877516672;1.456;0.09461593611098203
19:45.6;0.26864457587493906;-0.24032993781736023;-1.2972012345554786;1.4240000000000002;0.08375163685070977
19:45.6;0.26860949181038524;-0.20942014856369892;-1.2630392695527761;1.379;0.07104878771683025
19:45.7;0.26235964756969027;-0.18054646976214214;-1.2232751177247199;1.327;0.057944228106307887
19:45.7;0.24978820558512327;-0.1550539077555417;-1.1797903624728097;1.254;0.045694032721868866
19:45.7;0.23117046147420667;-0.13404473853166887;-1.134623027112381;1.0290000000000001;0.03515877258501422
19:45.7;0.207206115261087;-0.11829873087553723;-1.089745341172379;1.0290000000000001;0.026712078053564185
19:45.7;0.17901718791324475;-0.1082289011853142;-1.0468539310295815;1.0290000000000001;0.020282620655581365
19:45.7;0.1480953479765043;-0.10387293115427929;-1.0072211427345528;0.981;0.015494181430156994
19:45.7;0.11619499387336486;-0.10491606457581198;-0.9716260220366689;0.955;0.01184482221795626
19:45.7;0.08517728913978015;-0.11073982566782865;-0.9403532096224919;0.938;0.008869898717360618
19:45.7;0.05682815671932328;-0.12049175503706377;-0.9132385328475352;0.9159999999999999;0.006253240432944027
19:45.7;0.03268539688638938;-0.13317115759541862;-0.8897433468005894;0.892;0.003872832256682359
19:45.8;0.013906162369587244;-0.14772397691849534;-0.8690451937617621;0.88;0.001785256606494652
19:45.8;0.001191869614397595;-0.16313830659470924;-0.8501381806777024;0.87;0.00016530051978273357
19:45.8;-0.005226888442776458;-0.17853125671057252;-0.8319406441019431;0.855;0.0007763361959702087
19:45.8;-0.005554463948831813;-0.1932169435652934;-0.8134088606452586;0.855;0.0008729638489949405
19:45.8;-0.000360441660320208;-0.2067451828964817;-0.7936546148812168;0.855;5.914280617426275e-05
19:45.8;0.009505772638535664;-0.21890450404582756;-0.7720609679774146;0.8540000000000001;0.0016065480411572711
19:45.8;0.023004771160769693;-0.22969176321431722;-0.7483845723118798;0.846;0.003954468907370346
19:45.8;0.038997688002625513;-0.23925877941407928;-0.7228278039498269;0.8220000000000001;0.006744373182357862
19:45.8;0.05633591502863731;-0.24784984415057948;-0.6960638877464845;0.7859999999999999;0.009719034095787808
19:45.8;0.07394622229312982;-0.25574309577653365;-0.6692042918172204;0.745;0.012655480167769911
19:45.9;0.09090478588472756;-0.2632053457545033;-0.6437081907359055;0.703;0.015401764875088087
19:45.9;0.10649298807313916;-0.270465386941113;-0.6212449590883051;0.664;0.017893511822274572
19:45.9;0.12023007050368399;-0.2777064098970185;-0.6035290869661016;0.64;0.020151028233948154
19:45.9;0.13188054474147867;-0.2850738407142352;-0.5921514715971284;0.64;0.022262345175449
19:45.9;0.14143526549922433;-0.29269085762334496;-0.5884307429296043;0.64;0.024359155167258856
19:45.9;0.14906608197648924;-0.3006732921038171;-0.5933014161161846;0.66;0.026591881965549447
19:45.9;0.15505759788510143;-0.3091399617030207;-0.6072444400830699;0.674;0.02910795853541194
19:45.9;0.15972426377975127;-0.31821911610814885;-0.63025687277699;0.69;0.03203426399914554
19:45.9;0.16332443684475426;-0.32805301170068835;-0.661855212244664;0.718;0.03546158899123191
19:45.9;0.16598475580814329;-0.33880209973820463;-0.7011097985647691;0.753;0.03942759926873358
19:46.0;0.16764773096734292;-0.3506494113816902;-0.7467116284794915;0.8029999999999999;0.04389587481626689
19:46.0;0.1680526977572664;-0.36380430484268667;-0.7970746369411159;0.866;0.048731784198278005
19:46.0;0.16675591596721256;-0.37850277686707595;-0.8504723514014085;1.081;0.053679754340781094
19:46.0;0.16318898045070757;-0.3949990229869917;-0.905192675089607;1.081;0.05834825623304251
19:46.0;0.1567462028446371;-0.4135413658949733;-0.959675062426277;1.081;0.06220713447921149
19:46.0;0.14688612150783545;-0.4343286939871398;-1.0125948659330404;1.125;0.06460037018422082
19:46.0;0.13323289819333384;-0.45745079082656886;-1.0628873593811268;1.166;0.06478032164162834
19:46.0;0.11566615458997355;-0.4828208834706377;-1.109730674086866;1.2009999999999998;0.0619740580065715
19:46.0;0.09438946107468885;-0.5101083168782721;-1.152511747110179;1.237;0.05549211422047045
19:46.0;0.06996993554433856;-0.538678266314775;-1.190792186355096;1.2830000000000001;0.044882485972637935
19:46.1;0.04334524213792802;-0.5675481030832553;-1.224283558098768;1.3319999999999999;0.030117999856383106
19:46.1;0.015797683550605703;-0.5953745802686562;-1.2528339226302416;1.374;0.011783578586874453
19:46.1;-0.011103289416259304;-0.6204872168824143;-1.2764194603994456;1.443;0.008793826964111516
19:46.1;-0.035587816578130566;-0.6409766038592539;-1.2951303285178393;1.443;0.029543163280997705
19:46.1;-0.05579873831518568;-0.6548342342260798;-1.309141084943239;1.443;0.047834606706735686
19:46.1;-0.0699309830735207;-0.6601336473803807;-1.3186626879981145;1.472;0.06087447389900821
19:46.1;-0.07640093493193154;-0.6552438748280494;-1.323881127565484;1.484;0.06627513700833079
19:46.1;-0.0740429852803566;-0.6390622264585686;-1.3248929661124282;1.4869999999999999;0.06269138477312487
19:46.1;-0.062308812522158426;-0.6112375073173177;-1.3216515163571345;1.495;0.05033573668848562
19:46.1;-0.04142218099819637;-0.5723375340439263;-1.3139410516605292;1.485;0.031150216654452445
19:46.2;-0.012438058123526526;-0.5239083907300756;-1.3013966068433218;1.443;0.00848042477294012
19:46.2;0.022826336559779347;-0.4683826618620407;-1.283579211116664;1.405;0.013723336149870103
19:46.2;0.06198929132102961;-0.4088247633117293;-1.2601018316592714;1.354;0.03193445495878071
19:46.2;0.10239401214354268;-0.348554640749278;-1.230783904780117;1.354;0.04392656447418607
19:46.2;0.14141970280429444;-0.2907429738783054;-1.195797624517324;1.354;0.04916735378093278
19:46.2;0.17674344442348952;-0.2380760586062235;-1.1557639738522238;1.288;0.04863267872499689
19:46.2;0.20651776951517437;-0.19254072378975673;-1.1117648904936976;1.1909999999999998;0.04420719719120223
19:46.2;0.22946505571130113;-0.15533190963489796;-1.0652593459277029;1.081;0.03796930017301029
19:46.2;0.24490162357006223;-0.1268701456831364;-1.017919862454286;0.9940000000000001;0.031627487414242005
19:46.2;0.2527040336880843;-0.10691125248497943;-0.9714301990279555;0.9420000000000001;0.026245037158022785
19:46.3;0.2532316867317038;-0.09471781725088163;-0.927292551597644;0.903;0.022241624296030157
19:46.3;0.24722216135054498;-0.08925096931099452;-0.8866820727984565;0.87;0.019564478148469972
19:46.3;0.23567577644880788;-0.08934302952862862;-0.8503674497362933;0.835;0.017905326693465583
19:46.3;0.21974459252147605;-0.09382670414555058;-0.8186993339032104;0.835;0.016879869895824257
19:46.3;0.20063846651875586;-0.10161652322559277;-0.7916568465347542;0.835;0.016140444971435415
19:46.3;0.17955443062629117;-0.11175221397888856;-0.7689341827489654;0.828;0.01542912969907556
19:46.3;0.15762667386520263;-0.12341708596084827;-0.7500440655451937;0.818;0.014591225812002302
19:46.3;0.13588923436327374;-0.13594220511267;-0.7344144308028369;0.7959999999999999;0.013566898127359985
19:46.3;0.11524536583217312;-0.1488041161616409;-0.7214600077481296;0.767;0.012372306709841628
19:46.3;0.0964424241068615;-0.16162050855014945;-0.7106200402862223;0.731;0.011076486890866594
19:46.4;0.0800543395292597;-0.17414506401372043;-0.7013650233107659;0.6990000000000001;0.009777777540238093
19:46.4;0.06647384509255592;-0.1862612134866337;-0.6931860946902091;0.6759999999999999;0.008582682974309369
19:46.4;0.055914382474002676;-0.1979741458478329;-0.685586905837256;0.7020000000000001;0.007589174260061295
19:46.4;0.04841977638537163;-0.20939917225518545;-0.678095732976321;0.7020000000000001;0.006875254065501089
19:46.4;0.04388060707832751;-0.2207424133325621;-0.6703055465726311;0.7020000000000001;0.006492788059488069
19:46.4;0.042057636110135334;-0.23227019304222318;-0.6619382579325078;0.722;0.006466299599017245
19:46.4;0.04261180189941622;-0.24426809791970608;-0.6529221998475868;0.735;0.006796073781940844
19:46.4;0.04513878604018882;-0.2569952625687146;-0.6434678759670357;0.741;0.007464519605300405
19:46.4;0.04920624763972266;-0.2706404949129773;-0.6341241397213768;0.742;0.008444760031588398
19:46.4;0.05439204453001283;-0.2852857471374178;-0.6257972760037271;0.741;0.009710668464847983
19:46.5;0.060319864689518735;-0.300881497148726;-0.6197199854988747;0.7290000000000001;0.01124737932134881
19:46.5;0.06668580308216061;-0.31723853861202206;-0.6173640854659596;0.713;0.013060526583446634
19:46.5;0.07326909809946694;-0.3340403601157592;-0.6202990613339713;0.695;0.015181717744069071
19:46.5;0.0799241058965426;-0.3508762428284891;-0.6300094455475546;0.695;0.01766765097862462
19:46.5;0.08655625514146774;-0.3672875947865324;-0.6476951509994938;0.695;0.020590901653093692
19:46.5;0.09308867640577836;-0.38281718424377;-0.6740840064351742;0.7040000000000001;0.024021620569697442
19:46.5;0.0994275095736106;-0.3970563321356423;-0.7092834539418709;0.738;0.02800132077172198
19:46.5;0.10543399322008574;-0.40968913140522273;-0.7526946782662031;0.785;0.03251276788901999
19:46.5;0.1109108066119847;-0.420529238403732;-0.8030093747111507;0.8440000000000001;0.03745335058745598
19:46.5;0.11560738225546656;-0.42954068936969836;-0.8583023527350061;0.9279999999999999;0.04262164232175703
19:46.6;0.11924354186554072;-0.43683596655234225;-0.9162199378539763;1.034;0.04772577549897003
19:46.6;0.12154441144951728;-0.44264998819951157;-0.9742466962280077;1.14;0.05241606251395297
19:46.6;0.12227513173842351;-0.44729374514731896;-1.0300135730292959;1.32;0.056334431010426976
19:46.6;0.1212654175631018;-0.45109501334700186;-1.0815911769987352;1.32;0.05916544408893466
19:46.6;0.11842193410956461;-0.45433598217886645;-1.1277022323813348;1.32;0.060674153106435605
19:46.6;0.11373364810276;-0.4571976521646843;-1.1678033925778948;1.324;0.06072432469979315
19:46.6;0.10727575748276254;-0.4597182031681601;-1.2020263539070224;1.305;0.05927987509069954
19:46.6;0.09921467068487404;-0.4617692735233204;-1.2310047956145196;1.278;0.0563976062722241
19:46.6;0.08981456624437643;-0.46305237115025627;-1.2556311066999202;1.255;0.05222025106895778
19:46.6;0.07944402925406653;-0.46311739170266547;-1.276792322965838;1.252;0.04697563029662301
19:46.7;0.06857641620108217;-0.4614044145124376;-1.295134800612342;1.262;0.04097995749911557
19:46.7;0.05777176253207922;-0.4573070716381318;-1.3109004364167334;1.271;0.034633249588339465
19:46.7;0.04762780576227871;-0.4502520128702949;-1.3238627138261505;1.3969999999999998;0.028389594371422203
19:46.7;0.0386995205645154;-0.43978591391931526;-1.3333682858700153;1.3969999999999998;0.022693266901111547
19:46.7;0.031405813125920695;-0.4256585241618205;-1.338464229764204;1.3969999999999998;0.017892793357427533
19:46.7;0.02595149510424567;-0.40788766798766957;-1.3380776600794375;1.45;0.014163946522476788
19:46.7;0.022284866238640417;-0.38679252777746753;-1.331217829080537;1.479;0.011474591482610166
19:46.7;0.020099107017286823;-0.3629864486925851;-1.3171740047786298;1.4769999999999999;0.009609710967922616
19:46.7;0.01887909885230943;-0.33732871117047286;-1.295676513315377;1.442;0.00825146674806103
19:46.7;0.01798934898768594;-0.31084335015481057;-1.266987143743476;1.3780000000000001;0.007084826774146029
19:46.8;0.01678976655850172;-0.2846190185434257;-1.2318983508796195;1.3019999999999998;0.005886856486169445
19:46.8;0.014757880424222896;-0.2597054263700269;-1.1916417727098858;1.219;0.004567207362127716
19:46.8;0.01159291623218867;-0.2370197259676563;-1.1477269922225657;1.046;0.0031536666460665877
19:46.8;0.007281642945586924;-0.21727316589973503;-1.1017490071453122;1.046;0.0017430832913396237
19:46.8;0.002116774532677673;-0.2009258543204904;-1.0552121412484237;1.046;0.0004487972684062231
19:46.8;-0.0033317254404955044;-0.18817291078490558;-1.0094065937678547;1.0090000000000001;0.0006328378484304027
19:46.8;-0.00828890357274365;-0.17895833048379606;-0.9653439751963517;0.971;0.0014319606947649035
19:46.8;-0.011885069115617727;-0.17300938291292964;-0.9237350453330481;0.9279999999999999;0.001899410302248788
19:46.8;-0.013291486336813044;-0.1698869122511225;-0.8849911477987259;0.883;0.001998353883386092
19:46.8;-0.0118597711948083;-0.16905005204722556;-0.8492404079288297;0.847;0.001702637794789705
19:46.9;-0.007238550933814245;-0.16993235424685207;-0.816358156792757;0.826;0.001004172781017014
19:46.9;0.0005564778245803567;-0.17202073079091268;-0.7860145634717992;0.816;7.52418116327083e-05
19:46.9;0.011133815718025207;-0.17492330314211843;-0.7577409364672839;0.768;0.0014757488342913253
19:46.9;0.023778182118537484;-0.17841226227159773;-0.7310123183867095;0.768;0.0031011876408599767
19:46.9;0.03754576407613321;-0.1824345304271351;-0.7053411092202451;0.768;0.004831335382992734
19:46.9;0.051378693664856714;-0.1870916132153588;-0.6803733106049159;0.74;0.006540103880863359
19:46.9;0.06422230924262848;-0.19259565909512175;-0.6559748743665926;0.72;0.00811371253563851
19:46.9;0.07513640375154435;-0.19921195221334834;-0.6322950540342493;0.705;0.009464236423079767
19:46.9;0.08339060966679894;-0.20719982905360548;-0.6097980829357816;0.688;0.010536408413212281
19:46.9;0.08853206513547661;-0.2167626633791653;-0.5892591224821468;0.6659999999999999;0.01130814550743019
19:47.0;0.09041709330136694;-0.22801355433040088;-0.5717228187480261;0.6459999999999999;0.011786822192507386
19:47.0;0.089205046422137;-0.24095950514183676;-0.5584250499331191;0.629;0.012003236908789716
19:47.0;0.08531848368427385;-0.25550382821996354;-0.5506820435189257;0.598;0.012004427562121578
19:47.0;0.07937941994405374;-0.27146252092764234;-0.5497563139101614;0.598;0.011846444517450348
19:47.0;0.07213526818187936;-0.2885863889038138;-0.5567146151348757;0.598;0.011589270972414887
19:47.0;0.06438657161945686;-0.3065818488930171;-0.5722950738001692;0.614;0.011296964070075763
19:47.0;0.05692170198117515;-0.3251301213204058;-0.5967971632349296;0.637;0.011044901151057863
19:47.0;0.05045759276885696;-0.3439091075413487;-0.6300039502376829;0.6709999999999999;0.010932348737414091
19:47.0;0.04558531116595056;-0.3626201250821235;-0.6711449273840514;0.7070000000000001;0.011094127151539668
19:47.0;0.042724036414535586;-0.3810171794802655;-0.7189083545259226;0.753;0.011702815681370377
19:47.1;0.042092002701899014;-0.39893384532273835;-0.7715124928635576;0.809;0.012955179527271215
19:47.1;0.04370217259060351;-0.41630182112650793;-0.8268445390178045;0.885;0.015043025820951886
19:47.1;0.04738228266916381;-0.4331549957891951;-0.8826689482913785;1.157;0.01811578491034683
19:47.1;0.05281019078094642;-0.4496140608047957;-0.9368828528381125;1.157;0.022245537890028366
19:47.1;0.05955410909339085;-0.4658500737033839;-0.9877630858476717;1.157;0.027403793900057878
19:47.1;0.06711301152200078;-0.4820306976500703;-1.0341422628625265;1.2209999999999999;0.033455052124622235
19:47.1;0.07495841756435426;-0.49825798828063383;-1.0754831066911186;1.253;0.040167820989060014
19:47.1;0.08257995306388861;-0.5145085162670301;-1.1118543183026306;1.26;0.04724056536928256
19:47.1;0.0895339293598196;-0.5305850881015102;-1.143822393836986;1.254;0.05433770351419061
19:47.1;0.09549017635797373;-0.5460872611943933;-1.172277397019461;1.249;0.06112954066170605
19:47.2;0.10027097352517358;-0.5604067975677508;-1.1982199793607597;1.253;0.06733101832233188
19:47.2;0.10387765347259693;-0.5727528177019714;-1.2225449326118543;1.2670000000000001;0.07273680070900203
19:47.2;0.10650250999235045;-0.5822079686784732;-1.2458555859763787;1.361;0.07725128143820774
19:47.2;0.10852315602458272;-0.5878110469205824;-1.2683319232713952;1.361;0.0809083011805656
19:47.2;0.11047404296606035;-0.5886555950299686;-1.2896586110390191;1.361;0.08386799999050501
19:47.2;0.11298926523481383;-0.5839925409955958;-1.3090099485784925;1.3780000000000001;0.08637487499144157
19:47.2;0.11671477607129072;-0.573328154950804;-1.3250929265431413;1.386;0.08866974232731749
19:47.2;0.12219628554698359;-0.5565104922653368;-1.336256394487633;1.4169999999999998;0.09087013179678213
19:47.2;0.1297597579902234;-0.5337947864781767;-1.340671921492258;1.473;0.0928617509926676
19:47.2;0.13941150654371645;-0.5058738680405416;-1.336578996984422;1.5190000000000001;0.09426175000711136
19:47.3;0.1507883724787697;-0.47385771651885145;-1.3225678397653773;1.55;0.09450042658313838
19:47.3;0.16318007070914498;-0.43919021501239575;-1.2978536793420712;1.568;0.09301339688614207
19:47.3;0.17562601497056388;-0.4035038225595636;-1.2624858945499293;1.43;0.08946703298811852
19:47.3;0.18706496674509485;-0.3684333108129133;-1.217442173933873;1.43;0.08390728950183429
19:47.3;0.19649972732962176;-0.3354282898176706;-1.1645813945610002;1.2819999999999998;0.07675938518265946
19:47.3;0.20314035252975565;-0.30560617188720224;-1.1064576633936032;1.1320000000000001;0.06868993789082567
19:47.3;0.206503551429699;-0.27967129435288746;-1.0460248869496585;1.015;0.06041119612946382
19:47.3;0.20645930416770547;-0.2579065211607518;-0.9862861579367647;0.9279999999999999;0.052516977195721945
19:47.3;0.2032232836511045;-0.24022887906363663;-0.9299555664840141;0.8640000000000001;0.04540052526819051
19:47.3;0.19729994203310122;-0.22628953355322598;-0.8791916094368145;0.8320000000000001;0.03925319028820198
19:47.4;0.18938802022281823;-0.21559212447318007;-0.8354376506945823;0.8190000000000001;0.03411139182612981
19:47.4;0.18026565558337168;-0.20760408169451688;-0.7993784708418675;0.815;0.02991584867446646
19:47.4;0.17067497968636253;-0.20184188870012443;-0.770999359275368;0.816;0.026560434683088184
19:47.4;0.1612256644311321;-0.19792176669230466;-0.749718549198872;0.816;0.023923570140964308
19:47.4;0.1523323919971279;-0.19557833921298673;-0.7345571461767698;0.816;0.02188459952596795
19:47.4;0.14419306376789653;-0.19465943917469897;-0.7243129387413314;0.807;0.02033040736424918
19:47.4;0.13680566264480704;-0.19510418287194137;-0.717712819099001;0.7929999999999999;0.01915672909424631
19:47.4;0.13001523673209892;-0.1969099065028762;-0.7135290977841222;0.773;0.018267264006431187
19:47.4;0.12357911016161326;-0.2000952722519928;-0.7106553656021286;0.7559999999999999;0.017572798557277555
19:47.4;0.1172368955676478;-0.20466852468230085;-0.7081467267562487;0.743;0.016991770002405975
19:47.5;0.1107716467681487;-0.21060816044307615;-0.7052357001436032;0.736;0.016452734738275014
19:47.5;0.10405042748957552;-0.2178590111302669;-0.70133726905931;0.733;0.015898139915688364
19:47.5;0.09703773172070528;-0.2263420597729954;-0.6960543613230916;0.743;0.015287943147944382
19:47.5;0.08978388691966362;-0.23597174912136737;-0.6891898325127604;0.743;0.01460149339740846
19:47.5;0.08239991673287032;-0.24667109632089973;-0.6807648352447121;0.743;0.01383700669688062
19:47.5;0.07503326514444358;-0.2583761207511276;-0.6710385489365853;0.742;0.013009292808111474
19:47.5;0.067852698179228;-0.27102748004505933;-0.6605220070999429;0.74;0.01214696391144703
19:47.5;0.0610426092522897;-0.28455322278302375;-0.6499787984316439;0.7340000000000001;0.01129004800487414
19:47.5;0.05480268001755657;-0.29884837356688987;-0.6404066279808586;0.7290000000000001;0.010488382373570061
19:47.5;0.04934702877689008;-0.31375685972957773;-0.6329954819526026;0.7240000000000001;0.009800649288765185
19:47.6;0.04489660655714382;-0.3290613900225491;-0.6290601485250841;0.72;0.00929357092831883
19:47.6;0.041661191538039356;-0.34448646757481904;-0.629947279234105;0.713;0.009040824892478438
19:47.6;0.039812106260021234;-0.35971698005114744;-0.6369207746180613;0.736;0.009121400139556146
19:47.6;0.039451102562694365;-0.37442888594656504;-0.6510338514618029;0.736;0.00961683272197492
19:47.6;0.040583304015622886;-0.3883222165446437;-0.672999993047865;0.736;0.010606075128083408
19:47.6;0.04310202352906983;-0.40114648909701317;-0.7030772318185333;0.758;0.012156363819950635
19:47.6;0.04679083865343163;-0.4127155865701342;-0.7409815996733242;0.789;0.014309324205547539
19:47.6;0.05134501412571569;-0.42291472968122285;-0.7858460086922958;0.831;0.01706430248287502
19:47.6;0.0564107098688292;-0.43170108676285074;-0.8362390986694026;0.884;0.020364566801375262
19:47.6;0.06163565875402123;-0.43909644155991845;-0.8902540676708955;0.953;0.024093834691608782
19:47.7;0.06672032825864184;-0.44517052346474867;-0.9456697064886388;1.037;0.028088209237388247
19:47.7;0.07145714072926619;-0.4500167867708619;-1.0001743635084008;1.1340000000000001;0.03216251985496375
19:47.7;0.07574885647671786;-0.4537254278802356;-1.0516279295554851;1.331;0.036143592039844866
19:47.7;0.07960422022082604;-0.45635910101658145;-1.0983167534924958;1.331;0.03989977224989588
19:47.7;0.08311578732899383;-0.45793534531891195;-1.139140926288159;1.331;0.043357590951267976
19:47.7;0.08642813596785011;-0.458417904193762;-1.1736830544477954;1.321;0.046501563167971244
19:47.7;0.08970402374686594;-0.45771796766143436;-1.202144995702452;1.297;0.04935904381478839
19:47.7;0.09309400261710808;-0.4557053401309512;-1.2251773723691723;1.2790000000000001;0.0519762315503261
19:47.7;0.09671317716181761;-0.4522279984578068;-1.2436456117398387;1.266;0.05439259005726904
19:47.7;0.10062620507894939;-0.4471367912842833;-1.2583796829240579;1.2409999999999999;0.05661913083171062
19:47.8;0.10483817669590234;-0.44031105193551723;-1.269952088868915;1.218;0.05862277634198424
19:47.8;0.1092871210078154;-0.43168181917993664;-1.2785242131419474;1.216;0.06031727332323368
19:47.8;0.11383533755319704;-0.4212519657194641;-1.2837930301625347;1.3419999999999999;0.061562188971942274
19:47.8;0.11826025642339269;-0.40911419870469923;-1.285050709159771;1.3419999999999999;0.06217325921620497
19:47.8;0.12224863112545406;-0.39546642842189;-1.2813399487071964;1.3419999999999999;0.061946673927038676
19:47.8;0.12539950005946793;-0.3806202763613058;-1.2716675980527952;1.393;0.06069617608291334
19:47.8;0.1272421079332617;-0.3649958995616684;-1.2552386164889149;1.4169999999999998;0.05829685582650661
19:47.8;0.1272748684122882;-0.3490982759535858;-1.2316753510575331;1.413;0.054725105931179394
19:47.8;0.12502779163541386;-0.3334762409088566;-1.201183084070913;1.3769999999999998;0.050081884824683044
19:47.8;0.12014203995085887;-0.31867129656653564;-1.1646242695138842;1.311;0.04458859473480545
19:47.9;0.11245114900579874;-0.3051652281825731;-1.1234794946955413;1.222;0.03855352517941692
19:47.9;0.1020453800194423;-0.29333463463846854;-1.0796963736108207;1.126;0.032319031222112785
19:47.9;0.08930442868993786;-0.2834182466383753;-1.0354511011958758;0.9359999999999999;0.026207789856107677
19:47.9;0.07489178955291015;-0.27550013139651125;-0.9928695122607597;0.9359999999999999;0.020485576663211703
19:47.9;0.05971316250818294;-0.2695093379088247;-0.9537676488924797;0.9359999999999999;0.015349225881391638
19:47.9;0.04484530963508448;-0.2652345838556311;-0.9194608408051034;0.8959999999999999;0.01093655183220148
19:47.9;0.031439375361696845;-0.2623516321450209;-0.890658405638656;0.862;0.00734630322397194
19:47.9;0.020602618034434906;-0.26046188543252335;-0.8674364131136076;0.845;0.004654834450555089
19:47.9;0.013269781615758548;-0.25914199837488294;-0.8492780164501089;0.8490000000000001;0.0029204613405098955
19:47.9;0.010083487238564665;-0.2580026125251317;-0.835175332968338;0.873;0.0021727637928108143
19:48.0;0.011305522613842958;-0.2567491169610963;-0.8237841788451249;0.91;0.0023911842886735674
19:48.0;0.01677766476739405;-0.2552317671552738;-0.8136132880905126;0.9329999999999999;0.0034840491491967087
19:48.0;0.025942647266602867;-0.2534709786657084;-0.8032200609155519;0.882;0.00528174073441671
19:48.0;0.037921717909830954;-0.251649979696956;-0.7913835378176106;0.882;0.007552172739005208
19:48.0;0.0516285550665199;-0.2500791919011868;-0.7772346279655178;0.882;0.010035052970458359
19:48.0;0.0658931122917068;-0.24914494762125544;-0.7603351428702836;0.845;0.012482373387050112
19:48.0;0.07957794734039964;-0.24925409509958718;-0.7407031836342467;0.805;0.014691943386393026
19:48.0;0.09167979708364792;-0.2507819641063342;-0.7187870877858974;0.769;0.01652609365821467
19:48.0;0.10141045560454512;-0.2540297557268293;-0.6953980545847342;0.74;0.017914339312363373
19:48.0;0.10824987755567003;-0.25919644724999347;-0.6716178708123816;0.7170000000000001;0.01884424325688963
19:48.1;0.11196770734484027;-0.2663675785978824;-0.6486979212261782;0.698;0.019347134670549042
19:48.1;0.11261522415090204;-0.2755201668926168;-0.6279608627308206;0.685;0.019484222299494716
19:48.1;0.11049378950410997;-0.286540226168932;-0.6107112603112281;0.677;0.019335677567775624
19:48.1;0.10610694902812255;-0.2992464996961731;-0.598158224206527;0.677;0.01899279954394707
19:48.1;0.10010247654955837;-0.31341256823199104;-0.5913509247682956;0.677;0.018552673882805296
19:48.1;0.09320858662890272;-0.3287825801266662;-0.5911251899191962;0.679;0.018115244014762305
19:48.1;0.08616613994061222;-0.34508242695195046;-0.5980570385310217;0.682;0.017782879581366175
19:48.1;0.0796587177824716;-0.36203218163703266;-0.612420022365386;0.687;0.017661592896878076
19:48.1;0.07424586224643462;-0.37936375632236385;-0.6341487554229746;0.7;0.017861553821875955
19:48.1;0.07030794818301198;-0.3968430374293437;-0.6628185181889522;0.7240000000000001;0.018493445105418383
19:48.2;0.06801090725457501;-0.4142922542840583;-0.6976564050007145;0.76;0.0196574404060991
19:48.2;0.06729638316470404;-0.43160750206210097;-0.7375999964279264;0.816;0.021424052037335252
19:48.2;0.06789974632243892;-0.4487672096422815;-0.7814112993905004;1.042;0.02381052411750886
19:48.2;0.06939428518600854;-0.46582722476121374;-0.8278315735779153;1.042;0.02676027423994287
19:48.2;0.07125505607576596;-0.48289675573423707;-0.875734876031412;1.042;0.030133017210978066
19:48.2;0.07293375472870853;-0.5000913906982151;-0.9242329544975717;1.095;0.03371005025180195
19:48.2;0.07393776386656448;-0.5174671491618983;-0.9727106217406633;1.131;0.03721626234108176
19:48.2;0.07390781554832283;-0.5349475825472443;-1.0207984873471165;1.161;0.04035911304444303
19:48.2;0.07268633918329126;-0.5522589250362335;-1.068297365577251;1.186;0.042883250504760856
19:48.2;0.0703653000233195;-0.5688868804756414;-1.11506826598554;1.203;0.04463606674706182
19:48.3;0.0673024791673568;-0.5840658130316123;-1.160906243344704;1.219;0.045634153157765034
19:48.3;0.06410007684181938;-0.5968080786457212;-1.205422840037054;1.252;0.04611398559294826
19:48.3;0.061547176077991934;-0.6059765091812863;-1.247963485544482;1.413;0.04654422450296372
19:48.3;0.06053427876517309;-0.6103944753271385;-1.2875757971539472;1.413;0.047575654446319636
19:48.3;0.06195088396701343;-0.6089780614435184;-1.3230249815087567;1.413;0.0499134052325716
19:48.3;0.06657561393089896;-0.6008712490803504;-1.352843440684173;1.4340000000000002;0.05411829982258772
19:48.3;0.07496625294779731;-0.5855693069961337;-1.3754132332611058;1.464;0.06037780316933969
19:48.3;0.08735926112890698;-0.5630197120157506;-1.3890927296223616;1.52;0.06832250651850019
19:48.3;0.10359468443860852;-0.533688652790086;-1.3923925642547348;1.5819999999999999;0.07698163596405724
19:48.4;0.12308575901526263;-0.4985780555244751;-1.384184195402662;1.619;0.08494441969272305
19:48.4;0.1448468351428381;-0.4591782357837766;-1.3639013615052418;1.611;0.09071378089873341
19:48.4;0.16758068230882445;-0.41734808328446316;-1.3316822674010143;1.5519999999999998;0.09313716072238627
19:48.4;0.18981299088886777;-0.3751304363594007;-1.2884080962766016;1.2570000000000001;0.09174062191170532
19:48.4;0.21005072331627742;-0.3345335940300551;-1.235628091304948;1.2570000000000001;0.08682637926111911
19:48.4;0.22693457481018692;-0.2973284607267112;-1.1754079004003852;1.2570000000000001;0.07930959939702366
19:48.4;0.2393607280047955;-0.26490519449257355;-1.1101548734437514;1.17;0.07039258942851967
19:48.4;0.24656215228768194;-0.23820382032177664;-1.042447813933707;1.087;0.061225093608628635
19:48.4;0.24815174569134132;-0.21770658630291415;-0.9748702444750991;1.003;0.05266665275614302
19:48.4;0.24413162860377224;-0.20347253390318;-0.9098464060693179;0.924;0.04519578414354105
19:48.4;0.23487115334651165;-0.19519855404711395;-0.8494916382119998;0.861;0.038946226478971016
19:48.5;0.22105685906487332;-0.19229585870687962;-0.7954925410268914;0.815;0.033815050327719365
19:48.5;0.20362046295251596;-0.19397461242148836;-0.7490267318030671;0.779;0.02958445891772376
19:48.5;0.18365390844076163;-0.1993318176455738;-0.7107238896339627;0.7020000000000001;0.026018228045420682
19:48.5;0.16232243537002491;-0.20743665038932302;-0.6806661009075025;0.7020000000000001;0.022919131845968083
19:48.5;0.14078625596131206;-0.21740454976683526;-0.6584277490248404;0.7020000000000001;0.02015287512396125
19:48.5;0.12013609553086849;-0.2284517905168505;-0.6431552015123434;0.691;0.01765159139443465
19:48.5;0.10133960962831114;-0.23992818483267392;-0.633679598398546;0.6920000000000001;0.015407430608137457
19:48.5;0.08519282711624997;-0.25133191880288536;-0.6286494201367855;0.695;0.013460438146244208
19:48.5;0.07227616540490017;-0.2623126484501624;-0.6266690542540205;0.703;0.011880988749588572
19:48.6;0.06292116988746045;-0.2726675824244731;-0.6264320632388083;0.72;0.010747421331405986
19:48.6;0.05719574551926253;-0.2823323979670318;-0.6268394241952618;0.7390000000000001;0.010122335903065643
19:48.6;0.05491313851248339;-0.29136575760467703;-0.6270929679780244;0.748;0.010033367214440573
19:48.6;0.055666351722092944;-0.29992489195625116;-0.6267539808537477;0.7140000000000001;0.010464111809812408
19:48.6;0.058884947297651764;-0.3082314762401187;-0.6257604562197974;0.7140000000000001;0.011357673824268676
19:48.6;0.0639050025117912;-0.3165304726807237;-0.624405117680909;0.7140000000000001;0.012630392198772673
19:48.6;0.07004005796721757;-0.3250474155929405;-0.6232835126712366;0.703;0.01418988426004898
19:48.6;0.07664450155331408;-0.33395073574221895;-0.6232218985283654;0.7;0.015951668428384344
19:48.6;0.083165758775389;-0.3433249098276512;-0.6251924665706398;0.7140000000000001;0.017851043369440205
19:48.6;0.08918270492120504;-0.35315766887310296;-0.6302227374656977;0.728;0.019849215629838348
19:48.7;0.09442694638590295;-0.36334156095028614;-0.6393043158339451;0.735;0.021934041430288896
19:48.7;0.09878467269086033;-0.3736885323445529;-0.6533031880096264;0.736;0.02411649077368166
19:48.7;0.10227977733054981;-0.38395584297784047;-0.6728738118513775;0.7509999999999999;0.026424372373360608
19:48.7;0.10504181462753513;-0.3938806332525067;-0.6983831514526192;0.821;0.028894860135369762
19:48.7;0.10726368094948657;-0.4032176955403099;-0.7298522725677405;0.821;0.031566559098578355
19:48.7;0.10915407819745457;-0.4117728719788261;-0.7669194679708562;0.821;0.03447049025321459
19:48.7;0.11088973951364083;-0.4194264715354638;-0.8088282462954013;0.87;0.037618676287885636
19:48.7;0.11257281052063021;-0.42614568864647984;-0.8544496801277291;0.93;0.040990017097296584
19:48.7;0.11420011040468087;-0.43198685908415435;-0.9023504993773078;1.001;0.04451560936190966
19:48.7;0.11565152851275243;-0.43708648404378164;-0.950908284241738;1.069;0.04806814748740649
19:48.8;0.11670207806487527;-0.44163864859746543;-0.9984609290952806;1.131;0.0514608241028063
19:48.8;0.11705703119854678;-0.4458585995503619;-1.04346853797754;1.197;0.054459545420842796
19:48.8;0.11640496551842257;-0.44993627545100057;-1.0846629648890145;1.25;0.05680902389072138
19:48.8;0.11448031946443556;-0.4539865470965413;-1.121160912838359;1.2819999999999998;0.058269563508917856
19:48.8;0.11112479311975355;-0.45800400798768914;-1.1525207477657378;1.2819999999999998;0.05865823570258559
19:48.8;0.10633623234834248;-0.46183057009132705;-1.1787326829656166;1.2819999999999998;0.057886763830682524
19:48.8;0.10029539517086565;-0.46514394072249;-1.2001459420196963;1.281;0.05598896287255027
19:48.8;0.0933651456257609;-0.46747285924314924;-1.2173492973029516;1.2919999999999998;0.053132027627409685
19:48.8;0.08606204668145441;-0.46824023986891344;-1.2310270517025652;1.2990000000000002;0.049607575294670817
19:48.8;0.07900492176634497;-0.4668289787696934;-1.2418110960262951;1.288;0.045800212270773806
19:48.9;0.07284696217292459;-0.4626595035204008;-1.2501466610326555;1.272;0.04213411715642167
19:48.9;0.06819823935822444;-0.4552663477586667;-1.2561893989610695;1.258;0.03900262490313746
19:48.9;0.06554618013303508;-0.44436329698734633;-1.2597538797800967;1.246;0.036691990477667524
19:48.9;0.06518306957782277;-0.42988986894407893;-1.260332829856052;1.3419999999999999;0.03531646836564725
19:48.9;0.06715082716196993;-0.41203530283248646;-1.257194217936239;1.3419999999999999;0.03478469255743765
19:48.9;0.07121299571299233;-0.3912403824477978;-1.2495398328750926;1.3419999999999999;0.03481392869731991
19:48.9;0.07686178016667648;-0.36817844776055236;-1.2366911569828916;1.365;0.034996938677972315
19:48.9;0.08336477209371188;-0.3437134833361747;-1.2182678372958844;1.371;0.034907754678021256
19:48.9;0.08985163098067751;-0.3188327568650637;-1.194329245205485;1.355;0.03421471809716056
19:48.9;0.09543409841661972;-0.29455845480600124;-1.1654500006136457;1.3030000000000002;0.03276187239019948
19:49.0;0.09934365126143363;-0.2718509374528764;-1.1327044970731048;1.2209999999999999;0.030590570585420168
19:49.0;0.10106318015798524;-0.25151940826794433;-1.0975519557873112;1.13;0.027899058702345107
19:49.0;0.10042579294409247;-0.23415377060511045;-1.0616375567677123;1.048;0.02496449004415891
19:49.0;0.09765753032143007;-0.22008627133013575;-1.0265470441454239;0.9;0.02206365950488252
19:49.0;0.09335322040695827;-0.20938559350520006;-0.9935665100834148;0.9;0.01942106519463206
19:49.0;0.08839209876565976;-0.2018814797188688;-0.9635017998842462;0.9;0.01719342725187127
19:49.0;0.08381042268791823;-0.19721502816210035;-0.936596716441642;0.893;0.015480702611005993
19:49.0;0.08064742173087151;-0.19490774051870377;-0.912559573911706;0.914;0.01434434758855899
19:49.0;0.07977984014372769;-0.19444089709106388;-0.8906807968570236;0.9440000000000001;0.01381665351824502
19:49.0;0.08176716687253772;-0.19533555578715506;-0.8700093367763068;0.9690000000000001;0.013895819565301573
19:49.1;0.08673662837015615;-0.19722219389995788;-0.8495482456412106;0.965;0.014532702032445617
19:49.1;0.09433465394200143;-0.19988881544071815;-0.8284284480218599;0.9309999999999999;0.01562121317303613
19:49.1;0.10376001136523694;-0.2032990167318614;-0.8060286537862645;0.8759999999999999;0.01700261691083243
19:49.1;0.11387729417484709;-0.20757748106117624;-0.7820286751532651;0.7859999999999999;0.018485876819803758
19:49.1;0.12338972018540015;-0.21296782367335185;-0.7564075324440384;0.7859999999999999;0.019876907523626332
19:49.1;0.1310327982618145;-0.21977335972500794;-0.7294151431869854;0.7859999999999999;0.02100534594018231
19:49.1;0.1357481911231185;-0.22829278974833994;-0.7015443312136812;0.775;0.021741092617319043
19:49.1;0.13681264523455838;-0.23876066545477337;-0.6735106843706893;0.7609999999999999;0.022000548590460703
19:49.1;0.13391410887949193;-0.25129950574669957;-0.6462304559550058;0.733;0.021747302325960567
19:49.1;0.12717464347413088;-0.2658880766894638;-0.6207835074563934;0.696;0.02099131093590841
19:49.2;0.11712236065579021;-0.282348557711217;-0.5983550314541063;0.664;0.019787199757100075
19:49.2;0.10461808427027783;-0.30035390923226246;-0.5801586941376788;0.645;0.01823000789914122
19:49.2;0.09074600611604944;-0.31945576094874883;-0.5673502329670428;0.634;0.016447105646313392
19:49.2;0.07668080132115036;-0.33913162270526037;-0.5609419568312244;0.669;0.014587230844811158
19:49.2;0.063548192203421;-0.35884537789459015;-0.5617258348276754;0.669;0.012809581919966012
19:49.2;0.05230003379409876;-0.37810780144737344;-0.5702091506621626;0.669;0.011275914917268471
19:49.2;0.04362215999204911;-0.39652302489183777;-0.5865648398202331;0.6920000000000001;0.010145923969925018
19:49.2;0.03788274296913417;-0.41381570354695446;-0.6105996655481964;0.7070000000000001;0.009572049741112483
19:49.2;0.035119499074676735;-0.42984171349235445;-0.6417465774108974;0.73;0.009687694450016705
19:49.2;0.03506083380993407;-0.4445855432606206;-0.6790909041587749;0.775;0.010585356528011276
19:49.3;0.037175459710986895;-0.4581454029267238;-0.7214402051452181;0.8420000000000001;0.012287400734138584
19:49.3;0.04074416803892348;-0.4707069936936419;-0.767441084952834;0.924;0.014718418614902704
19:49.3;0.044946786256108186;-0.4825075798252066;-0.815733107936537;0.995;0.017690938554569362
19:49.3;0.048957120460267387;-0.49379246746141214;-0.8651148740151561;1.129;0.020913855614727517
19:49.3;0.052037913323506615;-0.5047666499016005;-0.9146852958746512;1.129;0.024026041571941218
19:49.3;0.05362657383056982;-0.5155452728230964;-0.9639203862212841;1.129;0.026649436200851893
19:49.3;0.05340284322020994;-0.5261078207531876;-1.0126609299813012;1.163;0.02845137056995375
19:49.3;0.05133225589496573;-0.5362621392440019;-1.0610147545196462;1.1909999999999998;0.029207131781029398
19:49.3;0.04768138277632458;-0.5456241718328798;-1.1091984334604368;1.199;0.02885703399072354
19:49.3;0.04300179786403585;-0.5536178877968403;-1.1573482709174416;1.204;0.027552486266293294
19:49.4;0.0380822799708611;-0.5594992753175221;-1.2053304618987384;1.2309999999999999;0.025681985849928965
19:49.4;0.03387275808910601;-0.5624078858190417;-1.2525825702253368;1.276;0.02386208158343276
19:49.4;0.03138528021985398;-0.5614465057406027;-1.298017632489796;1.314;0.022872571077494214
19:49.4;0.03157652938894647;-0.5557837946046247;-1.3400134106493546;1.443;0.023516864607658155
19:49.4;0.03521901848043098;-0.5447685281988174;-1.376493152499243;1.443;0.026409690627199275
19:49.4;0.04277721083655902;-0.5280396437532497;-1.4050874717453072;1.443;0.03173820457241513
19:49.4;0.05431222775432117;-0.5056146534208358;-1.4233616400645723;1.536;0.03908701685527347
19:49.4;0.06943633243349782;-0.47793989384380436;-1.4290961940747287;1.6219999999999999;0.04742654843465168
19:49.4;0.08732969493872604;-0.4458891428063397;-1.4205991752303637;1.669;0.05531722670291667
19:49.4;0.1068218666051439;-0.410703881271336;-1.3970009979933016;1.6480000000000001;0.061289444625593006
19:49.5;0.12652791695312002;-0.3738799373379296;-1.3584646859085898;1.5730000000000002;0.06426386958850881
19:49.5;0.14501625807802668;-0.3370181452091014;-1.3062555441024781;1.47;0.06384077131645563
19:49.5;0.16097762627081583;-0.30166514797393773;-1.2426473523758674;1.354;0.06034461989472072
19:49.5;0.17336585033150828;-0.26917126305865136;-1.1706802540820123;1.025;0.0546299168669131
19:49.5;0.18149073832706952;-0.24058677526449396;-1.0938235858214713;1.025;0.04776100999649981
19:49.5;0.1850575800795999;-0.21660874941000585;-1.0156254363883572;1.025;0.04071143802926809
19:49.5;0.1841588252004532;-0.19757847571507614;-0.9394218589201282;0.932;0.034181634636978646
19:49.5;0.17922738870274993;-0.18351797686180968;-0.8681313100248667;0.855;0.02855409564374889
19:49.5;0.17096142154198093;-0.1741884363210517;-0.8041211024244705;0.794;0.023946326532431186
19:49.5;0.16023185475031712;-0.16915569015158866;-0.7491296499111252;0.752;0.02030450739898702
19:49.6;0.14798578495120748;-0.16785379116428512;-0.7042377812518071;0.716;0.017493248910268343
19:49.6;0.13515766136860236;-0.1696427120007921;-0.6698832417754848;0.688;0.015359426096532595
19:49.6;0.12259556293335411;-0.17385940461628413;-0.6459091255360526;0.669;0.01376716002689426
19:49.6;0.11100421074764819;-0.1798631565574336;-0.6316365849042371;0.657;0.012610983020591968
19:49.6;0.10090392696890486;-0.18707591036046234;-0.625954487201178;0.657;0.011815951310728788
19:49.6;0.09260665083843898;-0.19501581900956258;-0.6274213321579205;0.657;0.011331079844022793
19:49.6;0.0862116930275022;-0.2033208785428448;-0.6343765009796254;0.669;0.011119755512954162
19:49.6;0.08162166248828029;-0.21176077140332614;-0.6450588556485668;0.691;0.011149368983270298
19:49.6;0.07857599156576965;-0.220236019450976;-0.6577308034416703;0.715;0.011382204935908986
19:49.6;0.076698388256678;-0.228763143604645;-0.6708042445004844;0.742;0.011769773237225986
19:49.7;0.07555357916562105;-0.23744608585457874;-0.6829610740729842;0.774;0.012252254496356356
19:49.7;0.07470697645674634;-0.24643810648677972;-0.6932565610253191;0.7959999999999999;0.01276330100697983
19:49.7;0.07378000164993521;-0.25590132775526087;-0.701191026633262;0.8059999999999999;0.01323876732850663
