Time;AccX;AccY;AccZ;Acc-old;Acc-trns
16:45.0;0.005879169214284996;-0.16256904793538104;-1.27672630768283;1.285;0.0012202579055369603
16:45.0;0.004153120263062554;-0.1480905837250017;-1.2740106190323444;1.27;0.0007835649482516802
16:45.0;0.002684957867775455;-0.13330271959969117;-1.2698781380520936;1.2919999999999998;0.0004545048600708821
16:45.0;0.0015797709810953077;-0.11815390332059578;-1.2628894843952436;1.3230000000000002;0.00023572603569963784
16:45.1;0.0009141996686554145;-0.10277739565239936;-1.2518245459649804;1.2890000000000001;0.00011762025893907582
16:45.1;0.0007271726996461494;-0.08750345535103216;-1.2358020703028656;1.2890000000000001;7.863423879484333e-05
16:45.1;0.0010125987679331047;-0.07282781621948636;-1.2143714772229948;1.2890000000000001;8.955425808820196e-05
16:45.1;0.0017149456484160867;-0.05935494801849388;-1.187563326615523;1.252;0.00012088267645531047
16:45.1;0.002729012581115329;-0.047730302358128314;-1.1558880309373525;1.194;0.00015056203984603408
16:45.1;0.0039035580389867714;-0.0385668945235573;-1.1202777906464436;1.122;0.00016865570535204837
16:45.1;0.005047598020128814;-0.03237174388848401;-1.081978068407629;1.053;0.0001767947298767864
16:45.1;0.0059398281896915735;-0.029482016731679706;-1.0424080228322954;0.998;0.00018254452705169472
16:45.1;0.006344076404267274;-0.030021055434014562;-1.0030163289363012;0.9590000000000001;0.00019103034696012179
16:45.1;0.006033544780177296;-0.033880863812272476;-0.9651563364923933;0.9390000000000001;0.00019729890776030371
16:45.2;0.004822610875455708;-0.04073301821762227;-0.929994893271128;0.892;0.00018268772871794065
16:45.2;0.0025998318801145315;-0.05006483837512552;-0.8984584134887553;0.892;0.00011694349344099158
16:45.2;-0.0006466473093504214;-0.06123246220486599;-0.8712122657421505;0.892;3.449635266909348e-05
16:45.2;-0.004818662950098161;-0.07352148803796651;-0.8486638489871758;0.866;0.00030066061461651606
16:45.2;-0.00971606232415253;-0.08621040188958713;-0.8309751589401277;0.838;0.0006960460974611881
16:45.2;-0.0150618079338642;-0.09863538792516471;-0.8180723887159759;0.8109999999999999;0.0012153506482105926
16:45.2;-0.0205383893112345;-0.11025286983090016;-0.8096497346669955;0.7929999999999999;0.0018333841076954489
16:45.2;-0.025827658303081535;-0.1206921737139428;-0.8051750389698504;0.785;0.002509888589960213
16:45.2;-0.030646705582412236;-0.12978926283530284;-0.8039097182698153;0.787;0.0031976420081878975
16:45.2;-0.034774232016762385;-0.13759376357403838;-0.8049541968895642;0.795;0.003851478399217283
16:45.3;-0.03806407213262481;-0.1443451517432757;-0.8073243021464683;0.855;0.004435733798361806
16:45.3;-0.04044522178725209;-0.15042029845565713;-0.8100539293875295;0.855;0.0049281917838534485
16:45.3;-0.041910850812095654;-0.1562618055732945;-0.812307635309349;0.855;0.00531985568316618
16:45.3;-0.04250094197051914;-0.16230047524538274;-0.8134820636980619;0.868;0.005611336702504827
16:45.3;-0.042283353031376696;-0.16888430778047925;-0.8132804931949831;0.871;0.005807631778817656
16:45.3;-0.04133728789027144;-0.17622373145815892;-0.8117522377304907;0.866;0.005913299377967965
16:45.3;-0.03974231545572206;-0.18436030266657483;-0.8092922962231316;0.8540000000000001;0.005929608019372929
16:45.3;-0.037574526686142216;-0.1931624612937243;-0.8066000590796253;0.8390000000000001;0.005854293595286618
16:45.3;-0.03490877564395489;-0.20234696270064692;-0.8046018177601579;0.8220000000000001;0.0056834535683332335
16:45.3;-0.031823083251713666;-0.21152069284014072;-0.8043480205847711;0.8109999999999999;0.005414260066936421
16:45.4;-0.028400040148767236;-0.22023575072851878;-0.806899812846323;0.8340000000000001;0.0050469196184400765
16:45.4;-0.024722543181498323;-0.22804918838463903;-0.813218598085334;0.8340000000000001;0.004584890599037934
16:45.4;-0.020866587551058306;-0.2345771050544859;-0.8240675929666437;0.8340000000000001;0.00403366558453191
16:45.4;-0.016896968480996803;-0.23953421039085696;-0.8399298477288865;0.848;0.0033995337481569775
16:45.4;-0.012869495426000764;-0.24275584309135462;-0.8609464112632597;0.865;0.0026897216087942454
16:45.4;-0.00883887197174957;-0.2442052921740862;-0.8868792785387991;0.8859999999999999;0.0019143283128638569
16:45.4;-0.0048688271175694265;-0.24397113215360536;-0.9171036117511409;0.912;0.0010893845187672955
16:45.4;-0.001041198420595583;-0.24225789341503154;-0.9506329851253266;0.945;0.00023978627244183924
16:45.4;0.0025372926222192696;-0.2393708871671848;-0.9861808266551862;0.985;0.0005989608559694114
16:45.4;0.005729469067345116;-0.23569358501342869;-1.0222597576991932;1.034;0.0013804586615740815
16:45.5;0.008361875055462455;-0.23165488108152812;-1.0573157413032774;1.165;0.0020480937271172583
16:45.5;0.010220000687120654;-0.22768545126833142;-1.08988270961786;1.165;0.0025360976322433898
16:45.5;0.011049921280593544;-0.22416645710393823;-1.11873028602487;1.165;0.0027711192002426157
16:45.5;0.0105734106266048;-0.22137597075052848;-1.1429774807651543;1.2009999999999998;0.0026753662938071984
16:45.5;0.0085209154742083;-0.21943750357630418;-1.1621614768287525;1.227;0.0021730193145938657
16:45.5;0.004681083438911713;-0.21827516131990307;-1.1762635864786597;1.2409999999999999;0.001201864072748503
16:45.5;-0.0010405095981243244;-0.2175835368645669;-1.1856933874203708;1.239;0.0002684383251819273
16:45.5;-0.008564811404539097;-0.21682405305590097;-1.1912280658624508;1.23;0.0022121785641025992
16:45.5;-0.017597358008118895;-0.2152588834720904;-1.193906784401922;1.224;0.004522504138909184
16:45.5;-0.02761327832276739;-0.21202679699480573;-1.1948867293885514;1.206;0.006995769002302559
16:45.6;-0.03788098764539241;-0.20625318908956025;-1.1952744041186443;1.138;0.009338767976554871
16:45.6;-0.047529592824300096;-0.1971755741825353;-1.1959536682217191;1.138;0.011208088801572097
16:45.6;-0.055649932851563375;-0.18426358544900043;-1.19743986637114;1.138;0.012278855122643165
16:45.6;-0.06140847281834573;-0.1673176692889115;-1.1997894797616273;1.1520000000000001;0.012327504018828785
16:45.6;-0.06415694257423621;-0.14653488350443172;-1.202583393497146;1.178;0.011305763204060775
16:45.6;-0.06352829575734031;-0.12253133035716943;-1.20498595251804;1.206;0.009379859597835402
16:45.6;-0.05950988964011945;-0.09631406048763748;-1.2058685656504484;1.224;0.00691160343289744
16:45.6;-0.05248148027110184;-0.06920328654397481;-1.2039774646813575;1.239;0.0043727148187943385
16:45.6;-0.043205224109513794;-0.04271438113814794;-1.1981208276342086;1.2670000000000001;0.002211113308423101
16:45.6;-0.03275893941059814;-0.01841310987859439;-1.1873492906117729;1.29;0.0007162019096710336
16:45.7;-0.022413352972826484;0.0022428781781437474;-1.1711036575056588;1.2009999999999998;5.887187305634601e-05
16:45.7;-0.013468812062818518;0.018060816797242744;-1.1493086756110127;1.2009999999999998;0.00027957823920110705
16:45.7;-0.007080358022964127;0.02824429539572754;-1.1224054244941135;1.2009999999999998;0.0002244583264543337
16:45.7;-0.00410145873993394;0.03247372732032647;-1.0913261235094056;1.1420000000000001;0.0001453533474121442
16:45.7;-0.004966371550358797;0.030922428099003252;-1.057414799244653;1.082;0.0001623895880685283
16:45.7;-0.009622497926791216;0.02421195971417033;-1.022296133275171;1.021;0.00023817407485243018
16:45.7;-0.017522555105525497;0.013320419254391725;-0.9877030017974183;0.958;0.000230537565357565
16:45.7;-0.0276831433959308;-0.000539792614612669;-0.9552834123778787;0.902;1.4274949393914924e-05
16:45.7;-0.03880649546861156;-0.016059126250224882;-0.9264118791905375;0.85;0.0005773384101715106
16:45.7;-0.04945077148177351;-0.031970023929675156;-0.9020303667373146;0.8140000000000001;0.001426058005608083
16:45.8;-0.05822541039311081;-0.04717650508248343;-0.8825421376710034;0.831;0.002424229730204843
16:45.8;-0.06398159121696192;-0.06086068194077154;-0.8677763458678659;0.831;0.003379089220091732
16:45.8;-0.06596529652101739;-0.0725503240353751;-0.8570304709533604;0.831;0.004101579545499264
16:45.8;-0.06390638241588896;-0.0821352492178927;-0.8491853226153039;0.8590000000000001;0.004457345434971746
16:45.8;-0.058031156529364684;-0.08983103072178973;-0.8428777699776434;0.887;0.004393920639087687
16:45.8;-0.04900137088371887;-0.0960998616806311;-0.8367083944662724;0.9109999999999999;0.0039400807172025685
16:45.8;-0.03779479026545218;-0.10154541851247795;-0.8294534086189767;0.925;0.003183349113540101
16:45.8;-0.025551762578724515;-0.10680108440653609;-0.8202462795701015;0.92;0.0022384159666616857
16:45.8;-0.013417551391693795;-0.11242977942107266;-0.808698456896922;0.895;0.0012199477782373794
16:45.8;-0.0024090611857059555;-0.11884980565380239;-0.7949397487110305;0.857;0.00022760432977938052
16:45.9;0.006673983080052041;-0.12629522411303623;-0.7795749452633526;0.747;0.00065709763196365
16:45.9;0.013287905972402734;-0.13481068182415673;-0.7635728497619639;0.747;0.0013678274951245911
16:45.9;0.017143924824364463;-0.14427145501298483;-0.7481206489705867;0.747;0.0018503858869528226
16:45.9;0.018184934315638477;-0.15441667743053555;-0.7344778706320216;0.728;0.002062455826092536
16:45.9;0.0165556422609508;-0.16488908252476117;-0.7238487781801716;0.7170000000000001;0.0019759947239460403
16:45.9;0.012574023756552671;-0.17527995621351825;-0.7172770385922389;0.716;0.001580860183049177
16:45.9;0.006705596988669052;-0.18517746406655533;-0.7155629696813569;0.716;0.000888532747249394
16:45.9;-0.0004625626966196496;-0.19421352535847478;-0.719205353401738;0.72;6.461048322930055e-05
16:45.9;-0.008253213508130986;-0.2021036899872345;-0.7283700588131917;0.728;0.0012149248302061768
16:45.9;-0.015939054314039976;-0.20867617035164568;-0.7428873669304608;0.741;0.0024709182753233925
16:46.0;-0.0227905336399555;-0.21388803914941285;-0.7622794346816613;0.812;0.00371582452278201
16:46.0;-0.028126944562327012;-0.21782717104647742;-0.7858159518999844;0.812;0.004814547204407135
16:46.0;-0.031365887864863946;-0.22069837486425647;-0.8125905534346806;0.812;0.005625077235473869
16:46.0;-0.03206812637667173;-0.22279290504237118;-0.841610692364067;0.857;0.006012930542964969
16:46.0;-0.02997696403242069;-0.22444262427427839;-0.8719007518816191;0.9109999999999999;0.0058662428382785705
16:46.0;-0.025050944863967313;-0.22596292472417948;-0.9026200087408247;0.976;0.0051093570732814175
16:46.0;-0.017486099208738077;-0.2275915952654301;-0.9331865743500027;1.037;0.0037137925444841874
16:46.0;-0.00772232940242739;-0.22943324843125118;-0.9633844500780522;1.078;0.0017068851857377128
16:46.0;0.0035707658920723626;-0.23141956893991944;-0.9934243560326451;1.104;0.000820911352333781
16:46.0;0.015532215457633683;-0.2332944574660947;-1.0239330691744735;1.114;0.0037103031639316515
16:46.1;0.027174629019778043;-0.2346299644167981;-1.05585860459394;1.097;0.006732135710789574
16:46.1;0.03747346320258247;-0.23487238262003018;-1.090296378432653;1.097;0.009596223499599784
16:46.1;0.04546964751429042;-0.23340940605336336;-1.1282598421763006;1.097;0.011974270693795768
16:46.1;0.05037067069136817;-0.22964497883795176;-1.1704315664047453;1.111;0.013538816866793948
16:46.1;0.05164028149764777;-0.2230713527078527;-1.216933619114261;1.1440000000000001;0.014018427211635279
16:46.1;0.04907245944131188;-0.21333321644492712;-1.2671512214245382;1.198;0.01326553447441635
16:46.1;0.042843843079151414;-0.20028144209488993;-1.31963441368578;1.247;0.011323554180551367
16:46.1;0.033533596955336746;-0.18401322562069786;-1.3720920098305904;1.276;0.008466665727987044
16:46.1;0.022097478363171705;-0.16489276656204374;-1.4214854530354168;1.31;0.005179486931243112
16:46.1;0.009787908556668046;-0.14354518708917446;-1.4642293777742927;1.3769999999999998;0.0020572527669451062
16:46.2;-0.001976004028498017;-0.1208188952304374;-1.4965017804631486;1.618;0.00035727277542342876
16:46.2;-0.011769818888977266;-0.09771893142779856;-1.5146446151895545;1.618;0.0017420444590703352
16:46.2;-0.01832739682838874;-0.07532284896140981;-1.5156002878507313;1.618;0.0020922433713039244
16:46.2;-0.020678814184949202;-0.0546926216298204;-1.4973133587393557;1.66;0.0016934293062920629
16:46.2;-0.018246640281902277;-0.036789023746864075;-1.4590430095443672;1.652;0.0009794206758376557
16:46.2;-0.0108966044216221;-0.022391112431242775;-1.4015521644186308;1.591;0.0003419606406996793
16:46.2;0.0010564575095164074;-0.0120289708374925;-1.3271455971015462;1.4809999999999999;1.6865494414428484e-05
16:46.2;0.01688467787554336;-0.005942763816388702;-1.2395378559109993;1.337;0.00012437727708370603
16:46.2;0.035519787113072965;-0.004077585496925246;-1.1435534792242652;1.179;0.0001656265324687266
16:46.2;0.05565416745997506;-0.006114576943202491;-1.0446874856180064;1.026;0.0003555089159832949
16:46.3;0.07586060527551915;-0.011530013745772276;-0.9485759037124941;0.68;0.0008296945107677696
16:46.3;0.09471887563678028;-0.019668740432299405;-0.8604487443841573;0.68;0.0016030168531145869
16:46.3;0.11093508745881618;-0.029817777283068447;-0.7846553114152305;0.68;0.0025955124447128394
16:46.3;0.12344244622007972;-0.04127032817117682;-0.7243355602897692;0.635;0.003690134947748016
16:46.3;0.13147950399014818;-0.05337700726985477;-0.6812586538778767;0.615;0.004781061270230324
16:46.3;0.13464494279679717;-0.06558469865358438;-0.6558062668203342;0.612;0.005791194297538154
16:46.3;0.132923754117878;-0.07746311602794212;-0.6470708695746541;0.627;0.006662686979614769
16:46.3;0.1266770069220268;-0.08871883521117031;-0.6530469634881375;0.659;0.007339357441482255
16:46.3;0.11659156936867289;-0.09919794872319075;-0.670894535947126;0.7040000000000001;0.0077593277130339
16:46.3;0.1035935977077191;-0.10887963412773177;-0.6972499325838736;0.75;0.007864444460277046
16:46.4;0.08873652930782816;-0.1178626867957911;-0.7285550661736001;0.857;0.007619757639009152
16:46.4;0.07308078131409383;-0.12634556175420797;-0.7613717751890098;0.857;0.007030074793542462
16:46.4;0.0575866599198009;-0.13459867955792312;-0.7926471818501751;0.857;0.006143878364924356
16:46.4;0.04303820458370535;-0.1429280191506021;-0.8199062230215046;0.8809999999999999;0.005043542713282673
16:46.4;0.03000371678887415;-0.15163212014677663;-0.8413677237504404;0.9009999999999999;0.0038278253351332
16:46.4;0.018828356409157896;-0.16095788353324159;-0.8559946252882527;0.9159999999999999;0.002594153684258556
16:46.4;0.009651434851081817;-0.17106175176303315;-0.8634890341976729;0.9209999999999999;0.0014256129285709143
16:46.4;0.002441578444453886;-0.18198235306000843;-0.8642373130614125;0.912;0.00038400154452790635
16:46.4;-0.0029577855994421818;-0.1936292831667781;-0.8592086094459034;0.893;0.0004920807182527493
16:46.4;-0.006781449704944579;-0.20579058772116424;-0.8498129477522584;0.865;0.0011859636999666592
16:46.5;-0.0093022783740291;-0.218158482229426;-0.8377306559366876;0.81;0.0017000662414618664
16:46.5;-0.010802649733714658;-0.23036804549144996;-0.8247324937608598;0.81;0.0020524171647639806
16:46.5;-0.011556735852181674;-0.24203864135518569;-0.8125154909244946;0.81;0.0022727493542344813
16:46.5;-0.01181929122387864;-0.25280806855456445;-0.8025759449493265;0.813;0.0023981067036931724
16:46.5;-0.011817335128920222;-0.2623559901217456;-0.7961279937485756;0.816;0.0024682743572919607
16:46.5;-0.011743707908868235;-0.2704191336760789;-0.7940637998268403;0.825;0.002521726925773521
16:46.5;-0.011752668859656111;-0.27680162586651663;-0.7969466426159998;0.8340000000000001;0.00259259322536046
16:46.5;-0.011957252823620477;-0.2813823482884221;-0.8050285217418975;0.846;0.002708566665372356
16:46.5;-0.012427480300091255;-0.28412000517332897;-0.8182854063700591;0.862;0.002889280477675418
16:46.5;-0.013188868199896769;-0.285055567022605;-0.8364650951124473;0.882;0.0031447409665201946
16:46.6;-0.014222084811282157;-0.28431090957639166;-0.8591433714696252;0.958;0.003473940954930282
16:46.6;-0.015465758821010782;-0.28208238773962796;-0.8857809722138905;0.958;0.0038643241697214124
16:46.6;-0.016824192065483988;-0.27862881797246086;-0.9157688473107612;0.958;0.004292853974110488
16:46.6;-0.01818065912851645;-0.2742538789759591;-0.9484514986814945;0.983;0.004729089466271841
16:46.6;-0.019416201612696055;-0.2692825452744741;-0.9831303214076625;1.005;0.005140242016808751
16:46.6;-0.020432694627282935;-0.2640310685059234;-1.01905935230078;1.03;0.0054976888503208594
16:46.6;-0.021176402776436468;-0.2587716942243414;-1.0554465933269628;1.065;0.005783692839418692
16:46.6;-0.021655310879378428;-0.25369592806176633;-1.091469555353384;1.109;0.0059963855057335366
16:46.6;-0.021942836422071614;-0.2488817901622641;-1.1263085367112051;1.155;0.006150965105792935
16:46.6;-0.0221632513754135;-0.24427068097877927;-1.1591953112964164;1.196;0.006275689257303488
16:46.7;-0.022458813367627374;-0.23965931448730454;-1.1894684128136417;1.284;0.006402270692106265
16:46.7;-0.02294400470735496;-0.2347120070208215;-1.2166195679492036;1.284;0.0065517803250633635
16:46.7;-0.02365777793456685;-0.22899719378110428;-1.2403117438090119;1.284;0.006719469192332561
16:46.7;-0.024527397396982075;-0.22204839716193586;-1.2603546223891262;1.2830000000000001;0.006864230660001057
16:46.7;-0.0253559137614258;-0.21344426987396828;-1.2766392101951622;1.258;0.006909266514935455
16:46.7;-0.025842586040612736;-0.20289610708109718;-1.2890500116779475;1.2429999999999999;0.0067589534040000945
16:46.7;-0.025641515051242476;-0.19032721645847564;-1.297382541928758;1.251;0.00633158771759892
16:46.7;-0.024453820168189516;-0.17592850868702678;-1.3012945258808604;1.271;0.00559833055906552
16:46.7;-0.022133747192969577;-0.1601766674469254;-1.3003107520299368;1.294;0.004610004534764221
16:46.7;-0.01877667773973168;-0.1438042426884066;-1.2938863467480972;1.324;0.0034937078211631145
16:46.8;-0.014755447518283369;-0.1277186362724309;-1.2815168869951303;1.321;0.00241507705508435
16:46.8;-0.010686432902093883;-0.11288216819212937;-1.2628715488497297;1.321;0.0015234116939823192
16:46.8;-0.007333024857028036;-0.10018143803077702;-1.23792034320937;1.321;0.0009094171049070142
16:46.8;-0.005471986288197191;-0.09031662526399394;-1.2070280651437202;1.29;0.0005965269515064142
16:46.8;-0.005748481748191396;-0.08372758341239965;-1.1709931304666403;1.235;0.0005636065876617429
16:46.8;-0.008541973971146642;-0.08055887301631211;-1.1310184036359399;1.161;0.0007782897259122882
16:46.8;-0.013866860186762683;-0.08066077104900748;-1.0886145200620923;1.081;0.001217628006385254
16:46.8;-0.021329692074696524;-0.08362278775336325;-1.0454513209254714;1.018;0.0018647174851086862
16:46.8;-0.030154060770126893;-0.08883434592578718;-1.003183500800988;0.9670000000000001;0.0026872439608975653
16:46.8;-0.039271618892908484;-0.09556478544881201;-0.963278129129358;0.924;0.0036151672460065336
16:46.9;-0.04746747001622126;-0.10305358783929047;-0.9268665554738974;0.843;0.004533946725528935
16:46.9;-0.05355711781747424;-0.11060053680096418;-0.8946388292217283;0.843;0.0052993447766173036
16:46.9;-0.05656137099808313;-0.11764366441914165;-0.8667974950438843;0.843;0.005767745899011095
16:46.9;-0.05584503878151918;-0.1238137527139774;-0.8430814234925175;0.838;0.00582938855522328
16:46.9;-0.05119798544012852;-0.12895963933424176;-0.8228557527775751;0.841;0.005432883497052263
16:46.9;-0.04285194129656844;-0.13314396969438652;-0.8052506667068868;0.848;0.004594339619809955
16:46.9;-0.03143583707408372;-0.1366116147834612;-0.7893261716665502;0.852;0.003389761611069526
16:46.9;-0.017879830782973415;-0.13973588465549186;-0.7742383845785268;0.852;0.0019343989671858188
16:46.9;-0.0032857534892637825;-0.14295203949709645;-0.7593822812575947;0.85;0.00035668577787464147
16:46.9;0.011213302168097433;-0.14669001776653887;-0.7444879997767505;0.836;0.0012245930445552574
16:47.0;0.024581177078132194;-0.15131654842638775;-0.7296546835196125;0.731;0.0027139789582843387
16:47.0;0.03597640961688273;-0.15709231104086013;-0.7153200589413208;0.731;0.004042715241372429
16:47.0;0.044810386757301444;-0.16414555376775983;-0.7021821525863537;0.731;0.0051648486854988475
16:47.0;0.05076627464701253;-0.1724620633816512;-0.6910977383921426;0.7020000000000001;0.006050737949484704
16:47.0;0.0537854263102443;-0.18189211379976108;-0.6829746098622999;0.6809999999999999;0.006681639559824152
16:47.0;0.05403042261519452;-0.1921743111586056;-0.6786660913393298;0.6709999999999999;0.00704676596898821
16:47.0;0.05183440646744574;-0.20297242604304194;-0.678876974548636;0.6759999999999999;0.007142434258075509
16:47.0;0.04764607819510347;-0.21391778409678702;-0.6840928299065289;0.688;0.006972509086676244
16:47.0;0.04197827704409122;-0.22465029159630354;-0.6945415998323344;0.706;0.006549827452480668
16:47.0;0.03536520634682327;-0.23485441579797858;-0.7101899421515409;0.737;0.005898606759828257
16:47.1;0.02832983442990603;-0.24428807809607012;-0.7307707986872968;0.8170000000000001;0.005057402208981239
16:47.1;0.02136016906469171;-0.2528012566493696;-0.7558321718333564;0.8170000000000001;0.00408140120028392
16:47.1;0.014891636237509566;-0.2603405834320741;-0.7847912637165654;0.8170000000000001;0.0030425551049435623
16:47.1;0.009292121010297161;-0.2669390297061674;-0.8169808457293841;0.853;0.002026463608326641
16:47.1;0.0048462395017954945;-0.27269390282635103;-0.8516866035751471;0.9009999999999999;0.001125537883237072
16:47.1;0.0017373972793972169;-0.27773829813325107;-0.8881818797645251;0.941;0.0004285848506246078
16:47.1;3.0255917324132522e-05;-0.28221029396333297;-0.9257625645423997;0.975;7.904652654241167e-06
16:47.1;-0.00034001369603168217;-0.2862228154737823;-0.9637787681355453;1.006;9.379463877855839e-05
16:47.1;0.00043566528151490813;-0.2898372788906961;-1.0016594900229239;1.04;0.00012648158689148881
16:47.1;0.0020626252777073343;-0.29304547285679866;-1.0389296737463605;1.081;0.0006279737686138677
16:47.2;0.004183305544566077;-0.29576408966976914;-1.0752201813719018;1.176;0.001330339347062674
16:47.2;0.0064301324335991;-0.29784294619366125;-1.1102670359518436;1.176;0.0021263496623008062
16:47.2;0.008480050709910219;-0.2990829861247567;-1.1438905006497195;1.176;0.0029011795722873714
16:47.2;0.010100898383810043;-0.29925793848470844;-1.175947690570579;1.187;0.0035546241363820096
16:47.2;0.011183481747768098;-0.2981351293142536;-1.2062665126421372;1.206;0.004021920268588008
16:47.2;0.01175580556939202;-0.29549302732851274;-1.2345807335946413;1.237;0.004288635411564118
16:47.2;0.01197691152812215;-0.2911339328870275;-1.2604855714823076;1.27;0.004395168681939393
16:47.2;0.012110728325887192;-0.28489226269943524;-1.2834237418258336;1.3019999999999998;0.0044281363533025244
16:47.2;0.012485773617838848;-0.2766434111042981;-1.3027009561500358;1.3359999999999999;0.004499668496644595
16:47.2;0.013449932296892432;-0.2663206734377051;-1.317522180094796;1.347;0.004719357897061669
16:47.3;0.01532763269424452;-0.2539427218703635;-1.3270384555141208;1.3219999999999998;0.005165285878720164
16:47.3;0.01838253356810395;-0.239645495999119;-1.3303998054782977;1.3219999999999998;0.005860798787907887
16:47.3;0.022787329420592434;-0.22370969346549494;-1.3268188072194482;1.3219999999999998;0.006763785903540807
16:47.3;0.02860331782273897;-0.2065777933686003;-1.3156537997602538;1.34;0.00777394869542115
16:47.3;0.03577150562526956;-0.18885500287402399;-1.2965153307027715;1.3530000000000002;0.008758775008198943
16:47.3;0.044112866250060674;-0.17128761292015382;-1.2693866749406435;1.364;0.009591469923461271
16:47.3;0.05333252900829425;-0.15471572175809062;-1.2347353486711001;1.357;0.010188271448725186
16:47.3;0.06302572541696798;-0.14000390976611124;-1.1935833462347147;1.318;0.010531997991736977
16:47.3;0.07268976690128753;-0.12795867716561063;-1.1475035175242412;1.248;0.010673258880050171
16:47.3;0.08174972247345555;-0.11924441981029434;-1.0985197692206934;1.159;0.01070858846554286
16:47.4;0.08960268295467859;-0.11431092176719974;-1.0489100885446274;0.89;0.01074353005619908
16:47.4;0.09567791911088565;-0.11334357499306007;-1.0009445727719337;0.89;0.010854720798002423
16:47.4;0.09950257184337646;-0.11624278714337902;-0.9566234449491461;0.89;0.011064743251478687
16:47.4;0.10076057658936491;-0.12263434413130558;-0.9174821131193206;0.858;0.011337057855374099
16:47.4;0.09933589987718153;-0.13190972395634237;-0.8844946228455512;0.855;0.011589861307185931
16:47.4;0.09533306508833618;-0.14329251105348234;-0.8580688410128906;0.8690000000000001;0.011721661658396155
16:47.4;0.08906726666756008;-0.15592211259779518;-0.8381115170825135;0.88;0.01163932094798515
16:47.4;0.08101997968108637;-0.168941127263177;-0.824138060853332;0.883;0.011280477641946661
16:47.4;0.07176673312099201;-0.1815727307847135;-0.8153992305026374;0.888;0.010625370920960955
16:47.4;0.06189539438131933;-0.19318013885798085;-0.8109977834540305;0.892;0.009697068771542536
16:47.5;0.05193737551056657;-0.203306042152843;-0.8099750593158281;0.833;0.008552674273206287
16:47.5;0.042327503149164065;-0.21169176607265866;-0.8113600545618165;0.833;0.0072700975660171235
16:47.5;0.0333955556728658;-0.21827669441331163;-0.8141888802481351;0.833;0.005935006638486018
16:47.5;0.025381802585221824;-0.22318110842393146;-0.8175120809634924;0.8240000000000001;0.004630992432925256
16:47.5;0.018464074683953637;-0.22667726511962713;-0.8204062085273024;0.8320000000000001;0.0034337166203688716
16:47.5;0.012783123611746643;-0.2291515068507325;-0.8220002053503468;0.843;0.002407862216673366
16:47.5;0.00845563015478137;-0.23105711002013965;-0.8215218649856358;0.855;0.001605034761464238
16:47.5;0.005571470025621358;-0.23285831074619096;-0.8183631380745928;0.87;0.0010617141365427388
16:47.5;0.004180809509511149;-0.23497126060473136;-0.8121549339586119;0.8809999999999999;0.0007978367080934837
16:47.5;0.004281200539468804;-0.23771298710765942;-0.8028356647095617;0.883;0.0008170434222942536
16:47.6;0.00581248418843746;-0.24126956154336013;-0.7906962604774659;0.838;0.0011088530728247037
16:47.6;0.008660699485330546;-0.24568841632131622;-0.7763899625513339;0.838;0.001652028603046082
16:47.6;0.012666649744240387;-0.25089134371163346;-0.7609054046734196;0.838;0.002418121442033469
16:47.6;0.017634084793858713;-0.2567008203813893;-0.7455074676798659;0.8079999999999999;0.003374676750621436
16:47.6;0.023335616465937008;-0.26287412253553344;-0.7316490196156921;0.779;0.004488176312693754
16:47.6;0.029517646539682394;-0.2691413620410912;-0.7208566771808147;0.76;0.005726787910616031
16:47.6;0.035906676048407755;-0.27524213319647417;-0.7145999008611845;0.7490000000000001;0.0070624123379278035
16:47.6;0.042218603015825786;-0.2809549067211423;-0.7141580697921204;0.74;0.008471002850537803
16:47.6;0.048170781828022174;-0.2861164392403162;-0.7204997161195641;0.735;0.009930253165597584
16:47.6;0.05349512993273148;-0.29063243037200504;-0.7341855301567957;0.741;0.011414690520256173
16:47.7;0.0579505698925102;-0.2944816834401423;-0.7553051614381224;0.809;0.01288957063691133
16:47.7;0.061333673659454815;-0.29771428857866944;-0.7834540831710921;0.809;0.014305801846521768
16:47.7;0.0634862984834567;-0.30044302287272523;-0.8177500925555531;0.809;0.015597777881137736
16:47.7;0.06429902219314261;-0.3028278515596933;-0.8568874963617258;0.866;0.016684914660652674
16:47.7;0.06371006163316449;-0.3050544792719036;-0.8992329573323302;0.938;0.01747662820361803
16:47.7;0.06170025050324327;-0.30730763108062586;-0.9429673493108337;1.016;0.01787956413519656
16:47.7;0.05828533932541596;-0.30973914578135886;-0.9862649558995704;1.09;0.017805289012647385
16:47.7;0.05350816378651038;-0.3124321441411249;-1.0274849114205629;1.1520000000000001;0.017177154029351025
16:47.7;0.04743447072055073;-0.3153651880716337;-1.065341711736973;1.193;0.015936639258204082
16:47.7;0.04015550298806626;-0.31838189559673524;-1.099024237778086;1.214;0.014050788765604599
16:47.8;0.031797571327792463;-0.3211711888803791;-1.1282432715284094;1.213;0.011522143553247552
16:47.8;0.022536210152387503;-0.3232635580124338;-1.1532020024883889;1.213;0.008401232821601956
16:47.8;0.012612081724425508;-0.3240503985178651;-1.1744980720556502;1.213;0.004800115023537624
16:47.8;0.0023458299315450826;-0.3228337981389359;-1.192975351116267;1.222;0.0009034559646756323
16:47.8;-0.007852899559581739;-0.31890993483555286;-1.2095470350105282;1.2329999999999999;0.0030291505101648956
16:47.8;-0.017490270850821946;-0.31168002181301874;-1.2250104255062617;1.224;0.0066779826336384645
16:47.8;-0.02601666389568537;-0.3007713191136489;-1.239872598463248;1.2009999999999998;0.009702085309889542
16:47.8;-0.032885705658236696;-0.2861433574640982;-1.2542087386726595;1.194;0.011802137128333282
16:47.8;-0.03764137082655315;-0.26815594219396793;-1.267579194044922;1.212;0.012794636691840128
16:47.8;-0.040016679149891314;-0.2475823570753582;-1.2790303146079063;1.247;0.012671895311130764
16:47.9;-0.04001734066723957;-0.2255582526913403;-1.2871922329776755;1.341;0.011618507872305228
16:47.9;-0.037964704698259924;-0.20346860796247668;-1.2904634847268464;1.341;0.009968347291487193
16:47.9;-0.03448386500804184;-0.18279432023973055;-1.287247144046998;1.341;0.008114104013070318
16:47.9;-0.030435394989527065;-0.164949982398827;-1.2761936308107495;1.351;0.0064068976875621825
16:47.9;-0.02679686664825513;-0.1511346226243491;-1.2564158477279415;1.3519999999999999;0.0050884016724579775
16:47.9;-0.024508220802457494;-0.14220492534568596;-1.227655177454665;1.3359999999999999;0.004278611191364171
16:47.9;-0.024307224885528306;-0.13858032611903373;-1.190380090411605;1.294;0.004009799086254811
16:47.9;-0.026590115794517418;-0.14019281159073158;-1.1458004559890138;1.225;0.004271249736636114
16:47.9;-0.03132909943675138;-0.14649200187335432;-1.0957889373988883;1.141;0.005029082228851922
16:47.9;-0.03806371149656734;-0.15650917495955013;-1.0427147826768026;1.0590000000000002;0.006211785714874538
16:48.0;-0.04596508698748095;-0.16897402201739456;-0.98921035723958;0.919;0.007683103483653307
16:48.0;-0.05395735166212056;-0.18246632735423182;-0.9379044247356447;0.919;0.009234044027784164
16:48.0;-0.0608719140556788;-0.1955770614173027;-0.8911632902889098;0.862;0.010609432711201006
16:48.0;-0.0656097930323997;-0.20705572055592236;-0.850873901371981;0.818;0.011559022373938485
16:48.0;-0.0672908485926789;-0.2159301106201453;-0.8182870511511038;0.7879999999999999;0.011889809358899469
16:48.0;-0.06537156543122949;-0.22159158893587835;-0.7939293235341869;0.77;0.011500692705399782
16:48.0;-0.05971565641907254;-0.22384031823307318;-0.7775912067800317;0.769;0.010393884009697199
16:48.0;-0.05060789336689103;-0.22288621162979302;-0.7683953471213559;0.787;0.008667347089797476
16:48.0;-0.038710672378540714;-0.2193048386125107;-0.7649390362186209;0.813;0.006493902337069056
16:48.0;-0.02497166745621307;-0.21395275111213366;-0.7654924459471314;0.831;0.004089840087374881
16:48.1;-0.01049753450962935;-0.20785270468861375;-0.7682239348163229;0.858;0.0016762192547620975
16:48.1;0.003586134786254217;-0.20206554829141932;-0.7714196925036583;0.858;0.0005589971625821771
16:48.1;0.01626458019710486;-0.19756902104349877;-0.7736681252160494;0.858;0.0024860875040527627
16:48.1;0.02673233177015999;-0.19516017480154;-0.7739885348359336;0.851;0.004037965168071558
16:48.1;0.034450822632532664;-0.1953891322740282;-0.7718954617049877;0.835;0.005195872534375888
16:48.1;0.03916661518463682;-0.19852436517399474;-0.7674002949125549;0.8079999999999999;0.00596694203178925
16:48.1;0.04089596014307054;-0.20454729530961843;-0.7609589781906483;0.789;0.006365542111748016
16:48.1;0.039882912793108814;-0.2131743001776577;-0.7533796554588025;0.774;0.006405242889134903
16:48.1;0.036540637520668384;-0.22390366081759447;-0.7457065173307761;0.7609999999999999;0.006101059399403494
16:48.1;0.031387246095735406;-0.23608261209792025;-0.739095511062125;0.75;0.0054766852054887825
16:48.2;0.024986623858345425;-0.24898644203052941;-0.7346953095001282;0.768;0.004570782390718648
16:48.2;0.0179012569543691;-0.2618985785420108;-0.7335438629392202;0.768;0.0034390837791868317
16:48.2;0.010659155208286024;-0.2741792971071827;-0.7364866398954352;0.768;0.002152396701187299
16:48.2;0.0037322968660007433;-0.2853140553487251;-0.7441184389694641;0.7829999999999999;0.0007923944283308044
16:48.2;-0.002478478175236262;-0.2949400062041842;-0.756748474883007;0.794;0.0005531849274082772
16:48.2;-0.007656783954293644;-0.30285494544316793;-0.7743881777847681;0.813;0.001795724785822987
16:48.2;-0.011584395131945879;-0.3090135133503294;-0.7967612974494183;0.8440000000000001;0.002852194016100639
16:48.2;-0.014154436547247686;-0.31351356014940496;-0.8233355387147999;0.877;0.003653640203543347
16:48.2;-0.015380805154941644;-0.31657392568827114;-0.8533735979557266;0.905;0.004155214182448813
16:48.2;-0.015399962214163683;-0.31850419504015626;-0.8860000161744213;0.924;0.004345788055177298
16:48.3;-0.014462256886837353;-0.31966752155885025;-0.9202795889658075;1.038;0.004254557281560085
16:48.3;-0.012911738298157662;-0.3204387318564238;-0.9552998088640828;1.038;0.003952477534743227
16:48.3;-0.011155213813120207;-0.32116037216578514;-0.990243230070262;1.038;0.0035476578927317254
16:48.3;-0.009622276293000994;-0.3220988575108913;-1.0244361628858716;1.083;0.0031750597916324667
16:48.3;-0.008718097038590404;-0.323402575005543;-1.0573719872589797;1.124;0.002981212769568708
16:48.3;-0.008771551856669956;-0.32506494811054953;-1.0887157523626687;1.158;0.00310428140738641
16:48.3;-0.009983490632904608;-0.3268980935126596;-1.118292226280899;1.1840000000000002;0.0036496406779594243
16:48.3;-0.012382132682491559;-0.3285252291117076;-1.1460526231393122;1.199;0.004661962113630187
16:48.3;-0.01579339465315251;-0.32940058321587223;-1.1720157167999057;1.215;0.006097239960524036
16:48.3;-0.01983421090345708;-0.32886334799056427;-1.1961848541784041;1.23;0.007802408779612743
16:48.4;-0.023936819681681192;-0.32622639681487686;-1.2184488650907073;1.218;0.009514650834793095
16:48.4;-0.027408044179148265;-0.32089001539367606;-1.2384816858548233;1.218;0.010892406447117768
16:48.4;-0.029517996995351917;-0.3124590666685694;-1.255663212479503;1.218;0.011581189986475263
16:48.4;-0.02960432168618062;-0.30083741345463433;-1.269048509073121;1.23;0.011302257143689558
16:48.4;-0.02717608044764425;-0.28627946548335803;-1.2774088768234229;1.265;0.009938182025576269
16:48.4;-0.021999851753319092;-0.2693885806146198;-1.279356003758905;1.318;0.007582114662660912
16:48.4;-0.014148004945982172;-0.2510600060430541;-1.273541620543285;1.3619999999999999;0.0045236175530094696
16:48.4;-0.003994106873340215;-0.23237435149191538;-1.2589029653293209;1.399;0.0011684230844583366
16:48.4;0.00784507395866918;-0.21445859120140096;-1.2349053385213868;1.421;0.002077658471082783
16:48.4;0.02060583106443133;-0.1983411658750233;-1.2017236974977399;1.406;0.004911426193626147
16:48.5;0.03348735214975942;-0.1848295443668622;-1.1603118220770345;1.114;0.007181694374066313
16:48.5;0.045749867406910776;-0.174431008704592;-1.1123394816414687;1.114;0.00887668654799066
16:48.5;0.05678416612987874;-0.1673247023251338;-1.0600268781765063;1.114;0.010071732696267455
16:48.5;0.06614796268819335;-0.16338145700553994;-1.005930430380378;1.0070000000000001;0.01087144276181186
16:48.5;0.07357402134158544;-0.16222073212904292;-0.9527157933793231;0.92;0.011370883650305233
16:48.5;0.07895815507647067;-0.16328972733366492;-0.9029316899644324;0.85;0.011641548493637618
16:48.5;0.08233458611766793;-0.16594784526976575;-0.8588012879117016;0.8079999999999999;0.011734014255835278
16:48.5;0.08384496641593632;-0.16954231557359592;-0.8220566672664253;0.784;0.011685757279374778
16:48.5;0.08370601274610039;-0.17346717487913843;-0.7938361664708967;0.77;0.011526696064789626
16:48.5;0.0821786532519071;-0.17720415832700212;-0.77465012565039;0.768;0.011280764278604275
16:48.6;0.07954000670055346;-0.1803484143728377;-0.7644080743262197;0.7979999999999999;0.01096536815411537
16:48.6;0.07605955673484664;-0.1826237412762308;-0.7624919357146054;0.7979999999999999;0.010591227102992522
16:48.6;0.07198124601597397;-0.18389083274336648;-0.767855319375114;0.7979999999999999;0.0101638638039644
16:48.6;0.06751222979983809;-0.18414948106761536;-0.7791307168382194;0.809;0.00968641959938451
16:48.6;0.06281732322430003;-0.1835341214790111;-0.7947341248070007;0.828;0.009162586866551366
16:48.6;0.05801737210305281;-0.18230136055601032;-0.812964126071159;0.846;0.00859843366668887
16:48.6;0.05319014025969959;-0.1808078446565294;-0.8320951405414412;0.855;0.008002420906725571
16:48.6;0.04837316620308761;-0.17947819476736684;-0.8504647054180281;0.863;0.00738367380274911
16:48.6;0.043568724434118744;-0.17876560995646124;-0.8665559359434877;0.883;0.006749248549199401
16:48.6;0.03875060594373666;-0.17911002252781538;-0.8790779384496504;0.9109999999999999;0.006101347594530493
16:48.7;0.03387090095864956;-0.18089911152362745;-0.8870451514001438;0.945;0.005435117146739433
16:48.7;0.028864516052220283;-0.18443624814040416;-0.8898503706417573;0.945;0.004737263533818449
16:48.7;0.02365130556452818;-0.1899173505583748;-0.887320044972918;0.9470000000000001;0.003985658224146634
16:48.7;0.01813843155203451;-0.19741678687953226;-0.8797397405132746;0.94;0.003150199225706695
16:48.7;0.012226500609015466;-0.20688153072580173;-0.8678422833920059;0.922;0.0021951525218573097
16:48.7;0.005822302875989547;-0.2181326900407778;-0.8527567436023608;0.895;0.0010830305600128154
16:48.7;-0.001141095996501984;-0.2308742423437967;-0.8359213608415794;0.863;0.0002202232096973491
16:48.7;-0.008679997685882807;-0.24470981724318353;-0.8189685851422209;0.8370000000000001;0.0017395553225157505
16:48.7;-0.01673891245704758;-0.2591684744400488;-0.8035949431773012;0.821;0.003486154300981675
16:48.7;-0.025181931518735576;-0.27373899957330117;-0.7914304009988099;0.807;0.0054555487755328
16:48.8;-0.03380279856462287;-0.2879096282505938;-0.7839207345636211;0.8140000000000001;0.007629235092949815
16:48.8;-0.04235199716478572;-0.3012070146298243;-0.7822334519719254;0.8140000000000001;0.009978732049479007
16:48.8;-0.05057134711503709;-0.31322644744344835;-0.7871940356235488;0.835;0.012469376614494062
16:48.8;-0.058224998892845145;-0.323647291952452;-0.7992545826710263;0.855;0.015061443657588694
16:48.8;-0.06512060841542523;-0.33223291258588156;-0.8184918484778169;0.875;0.017708242536647323
16:48.8;-0.07111988654926978;-0.338819131028305;-0.8446283336190733;0.9009999999999999;0.02035282158240915
16:48.8;-0.0761400503506475;-0.34329727282948014;-0.8770700811325909;0.9309999999999999;0.022925446854656813
16:48.8;-0.08014847608644744;-0.34559719193122396;-0.9149574003236965;0.971;0.025343485797640095
16:48.8;-0.08315363104995879;-0.34567300569688225;-0.9572272673781305;1.015;0.027514507625418308
16:48.8;-0.08519543537685575;-0.34349116256353385;-1.0026869095459812;1.06;0.029342508538923572
16:48.9;-0.08633658245471168;-0.3390194507379317;-1.050095583691346;1.196;0.030736067514195983
16:48.9;-0.08665379405332936;-0.332218244149447;-1.0982431198806042;1.196;0.03161619142574234
16:48.9;-0.08622654087097782;-0.3230395063202181;-1.1460036153905966;1.196;0.031921448462264954
16:48.9;-0.08512135908716766;-0.311439644051749;-1.1923458992589826;1.242;0.03160928745086504
16:48.9;-0.08337210908418378;-0.29740760914574005;-1.2363019438481464;1.273;0.030654724393931507
16:48.9;-0.08096027467535934;-0.2810037144044306;-1.2769103641938178;1.2830000000000001;0.029049886875152402
16:48.9;-0.07780393256710512;-0.2624006952287302;-1.3131539134510435;1.281;0.02680909554139856
16:48.9;-0.07376581147479992;-0.24191706095057913;-1.3439091806911443;1.288;0.023982339279985575
16:48.9;-0.06868634194341636;-0.22003419298970536;-1.3679303315929072;1.32;0.020674001421712777
16:48.9;-0.062437920802639726;-0.19739185247350172;-1.3838885267311904;1.368;0.01705606192422426
16:49.0;-0.05498753309036793;-0.1747598098737127;-1.3904769472410448;1.444;0.013361942328705157
16:49.0;-0.04645184311420754;-0.15298808876604636;-1.386570027418188;1.444;0.009853769019723341
16:49.0;-0.037132081006501776;-0.1329451572722741;-1.3714054400638296;1.444;0.00676998457601015
16:49.0;-0.027520708361137652;-0.11545457472194412;-1.3447513074901034;1.426;0.004272801615929226
16:49.0;-0.018274878486627323;-0.10123322769528448;-1.307029707664144;1.389;0.0024180375498865274
16:49.0;-0.010155583939891147;-0.09082907231211634;-1.259379186561498;1.3419999999999999;0.0011616794056006792
16:49.0;-0.003938374683913926;-0.08456029711808383;-1.2036463178325358;1.274;0.0004008504938352338
16:49.0;-0.00030874517576485745;-0.08246495855477123;-1.142301705951627;1.193;2.9083753209050414e-05
16:49.0;0.00024141806838198985;-0.08427390442207822;-1.0782824376253093;1.104;2.193791845397387e-05
16:49.0;-0.0024990279016351;-0.08941917713978853;-1.0147708446942325;1.018;0.00022676172661473926
16:49.1;-0.00840200232279299;-0.09708435468945319;-0.9549284790639335;0.828;0.0007789379999550757
16:49.1;-0.016978714761436114;-0.10629176362584805;-0.9016166723109015;0.828;0.0016271453870200922
16:49.1;-0.027399514322956654;-0.11600926476864482;-0.8571460135964654;0.828;0.002724522185916288
16:49.1;-0.03855716677258075;-0.12525651434842466;-0.8230900035543851;0.7809999999999999;0.003975143061102641
16:49.1;-0.049174441167123786;-0.1331991924567913;-0.8001725567139495;0.745;0.005241126928140678
16:49.1;-0.057951350205642585;-0.13922859396178097;-0.7882216495984632;0.728;0.006359754562228965
16:49.1;-0.0637354141533579;-0.14302476222207786;-0.7861862983239035;0.733;0.007166671816706392
16:49.1;-0.0656861879524569;-0.14459700688653793;-0.7922249203711822;0.764;0.007524573027567813
16:49.1;-0.06340093770011365;-0.14429197103584243;-0.8038735065803537;0.813;0.007354032805127133
16:49.1;-0.05697424050200196;-0.14275953113839576;-0.818290956935774;0.868;0.006655664306271863
16:49.2;-0.046978503428502995;-0.14087289664272573;-0.832561296936226;0.961;0.0055098888797055785
16:49.2;-0.03437256936797883;-0.1396117608219657;-0.8440135101417666;0.961;0.004050264636492312
16:49.2;-0.02036499511165651;-0.13993056329052767;-0.8505081798945381;0.961;0.0024236806045188973
16:49.2;-0.006263979410330412;-0.14263765436283832;-0.8506462100845141;0.956;0.0007600348059100423
16:49.2;0.00666502477910143;-0.14830324167830627;-0.8438763204172931;0.9309999999999999;0.0008341251443942962
16:49.2;0.01732372746440673;-0.15720377704730557;-0.8304993396087165;0.888;0.0022617448528674
16:49.2;0.024877932446447315;-0.16930429832082924;-0.8115804325819114;0.8370000000000001;0.0034183288148061336
16:49.2;0.028817129563340812;-0.18427603716265542;-0.788789580502026;0.79;0.004188714387831668
16:49.2;0.028972704369519254;-0.20154272824140668;-0.7641980990102808;0.7509999999999999;0.00446233448998323
16:49.2;0.025498809448506285;-0.22034698799138105;-0.7400616608639201;0.728;0.004158099982773047
16:49.3;0.018825255284637122;-0.23982780145457022;-0.7186168051019817;0.723;0.0032444252270317506
16:49.3;0.009593941432433802;-0.2590992451049357;-0.701910112776204;0.723;0.0017447962137413671
16:49.3;-0.0014097657603141284;-0.27731934924377205;-0.6916696405951187;0.723;0.0002704119279117146
16:49.3;-0.0133228491600828;-0.29374131846123785;-0.6892188527864047;0.735;0.0026972381845963627
16:49.3;-0.025266038740125615;-0.3077479716649644;-0.6954263843712138;0.7490000000000001;0.005407338043578399
16:49.3;-0.03640301011812093;-0.3188765158573243;-0.7106825513260261;0.7659999999999999;0.008249649273742578
16:49.3;-0.04599807743506769;-0.32683958425851295;-0.7348956705094319;0.7879999999999999;0.011048416002813472
16:49.3;-0.05346893777408125;-0.33154339856677;-0.7675060893424573;0.8170000000000001;0.013605790241547826
16:49.3;-0.05842790135471713;-0.333099387413978;-0.8075209587844699;0.851;0.01571621366154324
16:49.3;-0.0607044504185955;-0.3318229034468675;-0.853576161921848;0.888;0.017193693025266802
16:49.4;-0.06034437190261599;-0.32821282516497474;-0.9040304206495704;1.046;0.017905042798810476
16:49.4;-0.057586208675004594;-0.32291021980323964;-0.9570854332902982;1.046;0.017797171409952704
16:49.4;-0.05282228497041779;-0.3166410676693531;-1.0109094874972206;1.046;0.01690817357618133
16:49.4;-0.046554108363084094;-0.31015124166978253;-1.0637407779340375;1.111;0.015359155783184836
16:49.4;-0.039348822338669785;-0.30413912043761343;-1.11396629015571;1.167;0.013331409641893392
16:49.4;-0.03179938775745106;-0.299188104627726;-1.160187176734771;1.215;0.0110380191188932
16:49.4;-0.02448959165138325;-0.29570265719367356;-1.2012764438912393;1.258;0.00869920833360838
16:49.4;-0.017963566111178553;-0.29385508927280246;-1.2364239598267985;1.301;0.0065266930100625845
16:49.4;-0.01269706242068196;-0.2935525147245518;-1.2651600325087442;1.335;0.0047155735549602095
16:49.4;-0.009066596152787829;-0.2944331894884348;-1.287349286584063;1.35;0.003436587704209027
16:49.5;-0.007314360486694842;-0.29589853851541636;-1.3031487272983422;1.334;0.0028204159691464638
16:49.5;-0.007511364032276752;-0.29718047018066573;-1.312930450919369;1.334;0.002930763652693142
16:49.5;-0.009527188868938267;-0.2974345606579058;-1.3171797004122012;1.334;0.0037325121849988326
16:49.5;-0.013018159667903994;-0.29584461688647634;-1.3163859439527534;1.305;0.005069866242917407
16:49.5;-0.01744395149022342;-0.2917258590606177;-1.3109452886904127;1.2790000000000001;0.006671206205396532
16:49.5;-0.022117825483627472;-0.2846168139027538;-1.3010920411189106;1.271;0.008190511039018612
16:49.5;-0.02628904154402728;-0.2743497440483132;-1.2868773377511786;1.285;0.009281463582697847
16:49.5;-0.029246701791619107;-0.26108850142908774;-1.2682068877478863;1.3090000000000002;0.009683999314108552
16:49.5;-0.030425076249541952;-0.2453237554379535;-1.244934532880788;1.331;0.009292183840271822
16:49.5;-0.02948632230023297;-0.22781965570783963;-1.2169891269937487;1.339;0.008175202097829232
16:49.6;-0.026360330254372212;-0.20951461622553627;-1.1844991935264477;1.202;0.006541840363744867
16:49.6;-0.02123436507393044;-0.19139258404818132;-1.1478828830401386;1.202;0.0046651108273992326
16:49.6;-0.014502598522967362;-0.17435414319839618;-1.1078886085153596;1.202;0.002801393995514592
16:49.6;-0.0066949697981446305;-0.15911692939669916;-1.0655855565236894;1.117;0.0011351502175006056
16:49.6;0.0015992493727744225;-0.14615985102722404;-1.0223029118622358;1.028;0.0002389592676331731
16:49.6;0.009804697048181982;-0.13570996893613896;-0.9795185369479344;0.951;0.0013033425968070516
16:49.6;0.017422666175366593;-0.12776426262546178;-0.938713177584124;0.892;0.002089569991951916
16:49.6;0.024075679765722093;-0.12213625703851153;-0.9012207274720055;0.853;0.002650051636522938
16:49.6;0.029528872064831898;-0.11851572734816328;-0.868104973025223;0.835;0.0030380511988157824
16:49.6;0.033687144674135916;-0.11653029301607759;-0.8400815569706074;0.825;0.003297801343220436
16:49.7;0.03657048902354225;-0.11580100251317792;-0.8174894168713878;0.8029999999999999;0.003461985352172988
16:49.7;0.03827387093449947;-0.11598778970675742;-0.8003051567034968;0.8029999999999999;0.003552796037241969
16:49.7;0.038922910966503944;-0.11682327518407545;-0.7881892685593662;0.8029999999999999;0.003583976951211714
16:49.7;0.03863839314144963;-0.11813455586466975;-0.7805526573060392;0.797;0.0035628555627387048
16:49.7;0.037518594276214554;-0.11985286263528958;-0.7766327130983063;0.794;0.0034922928065219054
16:49.7;0.03564128288717555;-0.12201082217975011;-0.7755703947918171;0.7959999999999999;0.00337266265863992
16:49.7;0.03308043915075161;-0.12472728492998171;-0.7764832817242172;0.8;0.0032037959235384095
16:49.7;0.02992758107013348;-0.12818105080673955;-0.7785320169974116;0.802;0.0029865646547267647
16:49.7;0.026306104278964442;-0.13257708412964486;-0.7809781129681667;0.804;0.0027237288017712513
16:49.7;0.022371037049258722;-0.1381106171138438;-0.7832311745302882;0.804;0.0024199319192283997
16:49.8;0.018294212668393765;-0.14493470583212417;-0.7848841389648944;0.8190000000000001;0.002081093868612598
16:49.8;0.014241733968937699;-0.15313487468192613;-0.785735358391372;0.8190000000000001;0.0017136150727061722
16:49.8;0.010353172357109178;-0.16271154693328746;-0.7857955976507484;0.8190000000000001;0.001323736090004739
16:49.8;0.006729365351856727;-0.17356992409822272;-0.7852773775171887;0.82;0.0009172160964014618
16:49.8;0.003430504843096559;-0.1855186513787859;-0.7845649877821214;0.813;0.0004993149145304669
16:49.8;0.00048216310169596363;-0.19827953202110912;-0.7841659231644788;0.802;7.496867290770261e-05
16:49.8;-0.0021145158004089227;-0.21150857264101486;-0.7846480469402941;0.7929999999999999;0.000350924594876007
16:49.8;-0.004371707634146527;-0.22482578030889946;-0.7865710071264012;0.7909999999999999;0.0007730990752292796
16:49.8;-0.006304548271324458;-0.23784922084197171;-0.7904235380952471;0.8009999999999999;0.0011852653052173338
16:49.8;-0.007921406488632135;-0.2502277629985867;-0.796578092203675;0.8140000000000001;0.0015789419058896787
16:49.9;-0.009214016892294917;-0.26166679961803446;-0.8052698734758241;0.8690000000000001;0.0019415075265999358
16:49.9;-0.010148088396071855;-0.27194268267166233;-0.8165991712645068;0.8690000000000001;0.002253567412021679
16:49.9;-0.010657450324346568;-0.2809046607608935;-0.8305474780207686;0.8690000000000001;0.0024864327983762837
16:49.9;-0.010645919696358848;-0.28846692991242034;-0.8469962030847175;0.894;0.002601121757643899
16:49.9;-0.009999772703445148;-0.2945962490954878;-0.8657430478599593;0.914;0.0025503885750290745
16:49.9;-0.008610980327265877;-0.29930063462646406;-0.8865170242165177;0.9329999999999999;0.0022847953947349206
16:49.9;-0.006408336278347253;-0.30262204216009403;-0.9089937450895416;0.9540000000000001;0.0017628150343927825
16:49.9;-0.0033908073435564116;-0.3046326190875908;-0.9328118709013252;0.976;0.0009635485088718026
16:49.9;0.0003442013689800574;-0.30543176551154766;-0.9575924034927092;0.997;0.0001006717198488888
16:49.9;0.004584638800188133;-0.30514053076562625;-0.9829634385858153;1.021;0.0013751256639478043
16:50.0;0.009004508314251782;-0.30389093617909;-1.0085917891072964;1.1079999999999999;0.0027598989340267945
16:50.0;0.013182642223032545;-0.3018103318693144;-1.0342170352307638;1.1079999999999999;0.0041147954923479255
16:50.0;0.016636218993812787;-0.2990034477258692;-1.0596752483165837;1.1079999999999999;0.005271128638425096
16:50.0;0.01886330939139486;-0.2955353577933574;-1.0848993018421655;1.13;0.006048069386253875
16:50.0;0.019389758833805292;-0.2914170734607117;-1.1098938141966634;1.146;0.0062714625160456335
16:50.0;0.01781681454781532;-0.286594401806408;-1.1346933711523242;1.157;0.005793970505919823
16:50.0;0.013865272240755266;-0.28094152834458946;-1.159314353234151;1.177;0.0045159128771613865
16:50.0;0.007412102281686729;-0.27426230387137307;-1.1837081306267982;1.208;0.0024063132043474255
16:50.0;-0.0014825699368802637;-0.2663031713506921;-1.2077203046359364;1.248;0.00047682376834900256
16:50.0;-0.012559699889369441;-0.25678133143558707;-1.231055536629219;1.275;0.003970272853275447
16:50.1;-0.025361053021056883;-0.24542853649876417;-1.2532427449906933;1.24;0.007800591561150795
16:50.1;-0.039250423065736485;-0.23204548627007404;-1.273598336632053;1.24;0.011599785284237841
16:50.1;-0.05345836331997452;-0.216558432723286;-1.2911972827304328;1.24;0.014948009369522293
16:50.1;-0.06714734125443618;-0.19906939907659962;-1.3048735368985405;1.2570000000000001;0.017442219609552768
16:50.1;-0.07949311363019948;-0.17989124433512127;-1.313271823463002;1.297;0.018779938268578985
16:50.1;-0.08977545636652126;-0.1595586879679723;-1.3149614040273503;1.341;0.018836104182646075
16:50.1;-0.09746383021138033;-0.13880886732616068;-1.3086048225260012;1.3730000000000002;0.017703910340527023
16:50.1;-0.10227896891495304;-0.11852950235999606;-1.2931571258135517;1.402;0.015677041194653355
16:50.1;-0.10421531935077596;-0.09967746935086877;-1.2680588616525048;1.403;0.013172493123102182
16:50.1;-0.10351825458068754;-0.08317548179459507;-1.2333817201711634;1.371;0.010619639481867739
16:50.2;-0.10061965329455042;-0.06980010441854909;-1.189892045256318;1.147;0.008356923950274101
16:50.2;-0.09604535766231176;-0.060079513797678646;-1.1390209588556273;1.147;0.006572559147316013
16:50.2;-0.09031643696817968;-0.054220974065370506;-1.082762711117598;1.147;0.005302337922630808
16:50.2;-0.08386657175570145;-0.052082684689851104;-1.023534962371998;1.052;0.004470796839279565
16:50.2;-0.07698855483982443;-0.053194459852514586;-0.9640160460518257;0.965;0.003947997178739521
16:50.2;-0.06981256956221299;-0.05682249555163756;-0.9069572797856178;0.888;0.0035978309841594868
16:50.2;-0.0623143667451424;-0.06206776372408729;-0.854974898470245;0.8240000000000001;0.0033067978644265588
16:50.2;-0.05435026443279348;-0.06798395371796594;-0.8103392167298907;0.768;0.002994159535476525
16:50.2;-0.045713887101897464;-0.07369878730175228;-0.7747818159437916;0.7140000000000001;0.0026102849080015082
16:50.2;-0.03620602339842463;-0.07852250614503532;-0.7493393014813026;0.6679999999999999;0.0021303624133339454
16:50.3;-0.025705324240394345;-0.08202945142349288;-0.7342513196637256;0.665;0.001548237667285353
16:50.3;-0.014226526410931722;-0.08410289464689308;-0.7289292816214831;0.665;0.000872158091879027
16:50.3;-0.0019559463602238903;-0.0849390124842568;-0.7320064152152538;0.665;0.00012161272928980106
16:50.3;0.010741800560852636;-0.08501101416439615;-0.7414708454883986;0.715;0.0006770899401004701
16:50.3;0.023348833046252744;-0.08499785246737465;-0.7548746689570925;0.7759999999999999;0.0014981247711745246
16:50.3;0.0352487859229218;-0.08568568569665723;-0.7696012443329991;0.835;0.0023244392533934215
16:50.3;0.04580162416617733;-0.08785557242436921;-0.7831592442817378;0.889;0.0031513763403234613
16:50.3;0.054423525937554146;-0.09217523042043815;-0.793461993896058;0.92;0.003980402920425995
16:50.3;0.060656866555804975;-0.09911289115258011;-0.7990501873530634;0.927;0.004803791772883338
16:50.3;0.06421816681772581;-0.10888699802970157;-0.7992248507298051;0.9079999999999999;0.005588598473588966
16:50.4;0.06501610319345974;-0.12145795763052948;-0.7940736426016991;0.799;0.006270579682171348
16:50.4;0.06313889386726837;-0.13655732477527333;-0.7843967660682233;0.799;0.006763130441815598
16:50.4;0.058819622959848196;-0.15373852446084021;-0.771561878463749;0.799;0.006977112193494658
16:50.4;0.05239284060948155;-0.17243085002243214;-0.7573247176850942;0.765;0.006841779071017199
16:50.4;0.04425288199564896;-0.1919879535480618;-0.7436403271978108;0.743;0.006317983280781859
16:50.4;0.034819637724646565;-0.21173181968843405;-0.7324768548940717;0.726;0.005400130864699289
16:50.4;0.02451545700735314;-0.2309946509906452;-0.7256422410721838;0.715;0.004109268062879669
16:50.4;0.013754603142163795;-0.24915869021140566;-0.72463682860259;0.711;0.0024833875878430933
16:50.4;0.002941968562396268;-0.26569311184984806;-0.7305447698480699;0.723;0.0005710381963100864
16:50.4;-0.007527105758169517;-0.2801871243044527;-0.7439746698258584;0.747;0.0015690411775478902
16:50.5;-0.01727533513289246;-0.29237756850998475;-0.7650548484539589;0.8640000000000001;0.0038642312034123834
16:50.5;-0.025964505728001647;-0.3021672845720238;-0.7934775429671955;0.8640000000000001;0.006225326606186129
16:50.5;-0.03332364986854851;-0.3096288349234331;-0.8285731100843424;0.8640000000000001;0.008549186596692338
16:50.5;-0.03917399451149409;-0.314989520111718;-0.869393867459461;0.9229999999999999;0.01072779671637406
16:50.5;-0.04344391685063665;-0.31859788999326294;-0.9148003113615792;0.987;0.012661879402665825
16:50.5;-0.046172400775732265;-0.3208753977374177;-0.9635514575350874;1.052;0.014275580894602015
16:50.5;-0.047500457854405036;-0.32225795202960633;-1.0143948837406644;1.1059999999999999;0.01552774851586793
16:50.5;-0.04764996099800317;-0.32313319996515855;-1.066142306125947;1.147;0.01641569627217233
16:50.5;-0.046892371440678454;-0.32378141694514806;-1.117715784957312;1.1740000000000002;0.016970142925868643
16:50.5;-0.04551399356864253;-0.32432903938887536;-1.1681582056425244;1.19;0.0172437788155759
16:50.6;-0.04378557471032539;-0.3247225110354663;-1.2166133427286936;1.284;0.01729800531488975
16:50.6;-0.04194123667277598;-0.32472621957845993;-1.2622874338147756;1.284;0.01719162174886944
16:50.6;-0.04016712621419336;-0.3239434415160599;-1.304403104738586;1.284;0.01697273288985058
16:50.6;-0.03859661901704411;-0.3218561769372716;-1.3421561988282789;1.3430000000000002;0.01667301623080318
16:50.6;-0.03730724400821845;-0.3178798593411635;-1.3746903700719095;1.3980000000000001;0.016302757561997686
16:50.6;-0.036313705273752744;-0.3114304256392015;-1.401101777220598;1.4480000000000002;0.015845329976806998
16:50.6;-0.03555233078252022;-0.3020019334466136;-1.420471828962669;1.479;0.015251425108971234
16:50.6;-0.034857958232847625;-0.28925114866438506;-1.4319126073428534;1.4769999999999999;0.01443755163087726
16:50.6;-0.03394402557929987;-0.2730796310014147;-1.4346092743574164;1.442;0.013297998740293854
16:50.6;-0.03240430636828215;-0.2536956538646581;-1.4278557136038847;1.413;0.01173816150218663
16:50.7;-0.02975313117943627;-0.2316355621327582;-1.4110948130281447;1.396;0.009725100728589389
16:50.7;-0.025506486681287698;-0.20773438997394506;-1.383981230139418;1.396;0.007333127586840612
16:50.7;-0.01928520841437695;-0.18305355007321425;-1.3464760923102497;1.396;0.0047533647265380116
16:50.7;-0.010909504907326254;-0.15878171795009732;-1.2989655631593235;1.39;0.0022501070280640393
16:50.7;-0.00045944680336951937;-0.13611876337090684;-1.2423786528392011;1.359;7.76975294361788e-05
16:50.7;0.01171067239351831;-0.11614896588515901;-1.1782697572639749;1.295;0.0016026618903558008
16:50.7;0.025005193674193262;-0.09971845903768643;-1.1088311001364561;1.199;0.002764847485345345
16:50.7;0.03865930940513447;-0.08734022200627081;-1.0368116381600296;1.084;0.0035008076285590784
16:50.7;0.05183491908894025;-0.07914653169128896;-0.9653396081649324;0.965;0.003960357934922643
16:50.7;0.0637207744899999;-0.07489717098819089;-0.8976680504343202;0.863;0.004284125925536352
16:50.8;0.07362003592502334;-0.07403938730645251;-0.8368797566583024;0.69;0.0045616494094837725
16:50.8;0.08101466838046116;-0.07580516933464555;-0.7855995603535947;0.69;0.004824626662688402
16:50.8;0.08560262066587108;-0.07932428856022818;-0.7457650471691489;0.69;0.005064018353530414
16:50.8;0.08730856323752156;-0.08373189805312181;-0.7184916904404925;0.6809999999999999;0.005252541920935072
16:50.8;0.0862715611869502;-0.08825737319807819;-0.7040377549356819;0.685;0.005360614835836058
16:50.8;0.08281332691518895;-0.09228918135845987;-0.7018504152873826;0.6990000000000001;0.005364084208720141
16:50.8;0.07738998045917474;-0.09541448402409355;-0.710669353616481;0.721;0.005247671379253797
16:50.8;0.07053109822707128;-0.0974346357197373;-0.7286677033055129;0.743;0.005007529687890842
16:50.8;0.06277338819970045;-0.09836054845071376;-0.7536134507762654;0.769;0.004653129648991013
16:50.8;0.05460041349516988;-0.09839340632043916;-0.7830378399159387;0.8;0.004206730373002949
16:50.9;0.04640022095964601;-0.09789564906573082;-0.8144010670464332;0.884;0.0036993189134063922
16:50.9;0.03844738206509859;-0.09735556438310645;-0.8452459211637103;0.884;0.003163811759389704
16:50.9;0.030907651842246538;-0.09734733723579143;-0.8733278153174167;0.884;0.0026276491743440888
16:50.9;0.023857564570337116;-0.09848737864124996;-0.8967133137541771;0.9079999999999999;0.0021069794709980966
16:50.9;0.01731028703738161;-0.10138738339901038;-0.913850462268825;0.9279999999999999;0.0016038484182619832
16:50.9;0.011241248141952055;-0.10660513494546045;-0.9236214241160028;0.945;0.0011068446164286077
16:50.9;0.005609957133765238;-0.11459553158922436;-0.9253843329031591;0.9570000000000001;0.0005949073968484584
16:50.9;0.00037685898313639856;-0.12566599835083805;-0.9190033935547522;0.961;4.352249387788731e-05
16:50.9;-0.004484428343184278;-0.13994156077832798;-0.904860899331933;0.956;0.0005678526071737648
16:50.9;-0.008978976187693211;-0.15734500686777358;-0.8838426316267828;0.9420000000000001;0.0012486902802310777
16:51.0;-0.013086666325801584;-0.17759610377499882;-0.8572894091391787;0.8440000000000001;0.0019924614225239456
16:51.0;-0.016762718024770272;-0.20022903138514675;-0.8269155097114248;0.8440000000000001;0.0027754449884589
16:51.0;-0.019941511126121265;-0.2246207327900894;-0.7947067235322343;0.8440000000000001;0.0035597114229720147
16:51.0;-0.02254188638268057;-0.2500226050277058;-0.7628135029060215;0.809;0.004299202527643302
16:51.0;-0.0244731365919856;-0.2755957665772596;-0.7334435357254611;0.7809999999999999;0.004946851363671812
16:51.0;-0.02564201402509815;-0.3004552935859454;-0.7087491420334336;0.757;0.005460401026373784
16:51.0;-0.02596080394351884;-0.3237245611972286;-0.690709279795377;0.74;0.0058048243005071375
16:51.0;-0.0253557415206025;-0.34459373628385226;-0.6810151773263738;0.7340000000000001;0.005950322241174936
16:51.0;-0.02377489916375552;-0.3623736070145055;-0.6809731240659236;0.742;0.005866853106288184
16:51.0;-0.021195133105263372;-0.37653709298257904;-0.6914373560091245;0.757;0.00551819130977466
16:51.1;-0.017628466032217266;-0.38674357438013585;-0.7127811258915603;0.8540000000000001;0.004859525005304999
16:51.1;-0.013129086445336632;-0.3928446968583097;-0.7449031318135563;0.8540000000000001;0.003841980912291597
16:51.1;-0.007802157501581771;-0.3948739913441389;-0.7872536237796405;0.8540000000000001;0.0024254253426965397
16:51.1;-0.0018142370648732574;-0.3930250284492019;-0.8388637301184126;0.9059999999999999;0.000598143875661117
16:51.1;0.004596834623899643;-0.3876226037274716;-0.898376232116135;0.963;0.0016007600155341815
16:51.1;0.01111579707552395;-0.3790893662608416;-0.9640879737208672;1.0290000000000001;0.0040625514827102235
16:51.1;0.017351034539072586;-0.3679086618322667;-1.0340110166383047;1.09;0.006600708484997707
16:51.1;0.0228466671265452;-0.3545845550134189;-1.1059510692544912;1.146;0.008959392886392257
16:51.1;0.02710997082312655;-0.3396012180560389;-1.1775988966259392;1.21;0.010841657405165217
16:51.1;0.02965809668366907;-0.3233843567338895;-1.2466330199605558;1.271;0.011956413061408657
16:51.2;0.030085314716089096;-0.3062672942159924;-1.3108326881978245;1.463;0.012078206305427903
16:51.2;0.02814417557069113;-0.2884668450105873;-1.3681903141208316;1.463;0.011107874072120048
16:51.2;0.02382238171813381;-0.2700789217153491;-1.4169965687712665;1.463;0.00911684705155412
16:51.2;0.017390984300039002;-0.2511033126432444;-1.4558718251872964;1.463;0.006357695835095764
16:51.2;0.009404752935358633;-0.23149741992956016;-1.4837438128221103;1.454;0.003230371478196597
16:51.2;0.0006468319352311464;-0.21124799935058847;-1.4997996314564608;1.445;0.00020493554960151822
16:51.2;-0.007978096505962678;-0.1904458476232476;-1.5034490958066777;1.464;0.0022843335673827367
16:51.2;-0.015584679430992322;-0.16934862142666057;-1.4943282264268747;1.499;0.00394389677128061
16:51.2;-0.0214534978087078;-0.14841706182846628;-1.472354052365575;1.5319999999999998;0.004688071168752438
16:51.2;-0.025152913616949057;-0.1283113551217763;-1.437818660889701;1.534;0.0046404223177793896
16:51.3;-0.026612270634959065;-0.10984156573435062;-1.3914907543883641;1.432;0.004067513203317929
16:51.3;-0.026133895067813485;-0.09387917362703604;-1.3346887514242436;1.432;0.0032745633848325502
16:51.3;-0.024343604193947415;-0.08124875541792397;-1.26930062382715;1.345;0.0025105338923736204
16:51.3;-0.022089120916794495;-0.07262139651910038;-1.1977385911657372;1.2429999999999999;0.0019213437479088963
16:51.3;-0.02030201015145598;-0.06842544237678108;-1.1228251956645616;1.136;0.0015597995972763028
16:51.3;-0.019843366558573203;-0.06878413631481846;-1.0476177916402996;1.03;0.0014299027745995068
16:51.3;-0.021356200303143214;-0.0734866899726865;-0.9751915045377725;0.935;0.0015304621054505845
16:51.3;-0.025146640463126067;-0.08199670178816415;-0.9084083439625715;0.858;0.0018730849351534218
16:51.3;-0.03111272742075957;-0.09349877503442389;-0.8496996794691106;0.797;0.002471777983552295
16:51.3;-0.03873540705333065;-0.10698118492402114;-0.8008835246153605;0.75;0.0033188290865035206
16:51.4;-0.04713967651279065;-0.12134811438075147;-0.7630309536812;0.691;0.004364774248833445
16:51.4;-0.0552199877372762;-0.13554747045180038;-0.7363920117494623;0.691;0.0055118424073081936
16:51.4;-0.06180535074494668;-0.1486927141772556;-0.7203908313152733;0.691;0.006620395595998699
16:51.4;-0.06583079257858944;-0.16015798345384874;-0.713695912863972;0.706;0.007524729379720454
16:51.4;-0.06648925054216437;-0.16963598486056225;-0.7143621802356674;0.735;0.00805726924166056
16:51.4;-0.06334718461664819;-0.17715656984049669;-0.7200325876701692;0.774;0.008080472064621395
16:51.4;-0.05640872694575885;-0.1830648941415475;-0.7281816227674041;0.813;0.00751953667225663
16:51.4;-0.04611596191164255;-0.18795855689091748;-0.7363771746122779;0.846;0.006382836090722168
16:51.4;-0.033283365234162296;-0.19258908872655056;-0.7425303123997999;0.865;0.00475962894067488
16:51.4;-0.018977126903703383;-0.19774233825120469;-0.7450992516524412;0.868;0.00279604562809453
16:51.5;-0.004359863001506518;-0.20411887631204914;-0.7432187720316163;0.8009999999999999;0.0006614129320670634
16:51.5;0.009471278160038813;-0.21223474524555966;-0.7367415791174752;0.8009999999999999;0.0014809495239057357
16:51.5;0.02162114404145333;-0.22235520181787274;-0.7261982463925786;0.8009999999999999;0.0034912516970002903
16:51.5;0.03148182640422729;-0.2344662856445386;-0.7126938617227769;0.7609999999999999;0.005260697644028383
16:51.5;0.03875736769684279;-0.24828547294770165;-0.6977575701962828;0.7240000000000001;0.006714445299769639
16:51.5;0.04343614538624858;-0.2633093502736422;-0.6831586758679817;0.6970000000000001;0.007813383617918118
16:51.5;0.045729775984044096;-0.278889611786767;-0.670708465651292;0.6859999999999999;0.008553920304578657
16:51.5;0.046000660878977195;-0.2943225911029207;-0.6620725182460637;0.679;0.008963822137931421
16:51.5;0.04469705019600738;-0.30893664366061807;-0.658616330862786;0.6809999999999999;0.009094540927903414
16:51.5;0.04230616062959013;-0.32216570418740265;-0.6613002282001267;0.691;0.009013253642775191
16:51.6;0.03932618850702978;-0.33360285239054505;-0.6706315507627127;0.769;0.008798235723948828
16:51.6;0.03625088174531396;-0.3430311680037642;-0.6866720912230272;0.769;0.008538892638980089
16:51.6;0.03355747848454236;-0.3504297361062906;-0.7090882004313449;0.769;0.008338549872132167
16:51.6;0.031689706199751755;-0.35595389716736603;-0.7372288623747554;0.7879999999999999;0.008315996433552892
16:51.6;0.031030282658620737;-0.35989377004136003;-0.7702253685476915;0.866;0.008601572993837013
16:51.6;0.031861159984638766;-0.36261999036387743;-0.8071109748685712;0.9390000000000001;0.009324951423401269
16:51.6;0.034315495607141464;-0.3645246494181468;-0.8469499128230806;0.982;0.010594364340232533
16:51.6;0.03833253874633495;-0.36596157318576783;-0.8889516951747538;1.0190000000000001;0.012470424335912509
16:51.6;0.04363210324299928;-0.36719134970117256;-0.9325432658754618;1.048;0.014940584222597803
16:51.6;0.049725894721107174;-0.36834159035838615;-0.9773807390596314;1.065;0.01790181815572013
16:51.7;0.055976060211926866;-0.36939303351542163;-1.0232971870038035;1.113;0.021158886504916385
16:51.7;0.06169518932487492;-0.3701939161957243;-1.0701963865817878;1.113;0.02444241191810176
16:51.7;0.06626319685252428;-0.3704937871547235;-1.117912719872018;1.113;0.027444872139363346
16:51.7;0.06923024685719792;-0.36998243382621654;-1.1660662813843177;1.123;0.029867592843969996
16:51.7;0.07038581946036448;-0.36832364152462;-1.213949308888921;1.175;0.031471346106141246
16:51.7;0.06978837283755653;-0.36518145967754406;-1.2604788769573474;1.271;0.03212383340560776
16:51.7;0.06775599732241963;-0.36024144486873727;-1.3042348645312039;1.361;0.03183444065485704
16:51.7;0.06481949266093388;-0.3532300216490478;-1.3435751295156546;1.4340000000000002;0.030762752514019127
16:51.7;0.061643732553285244;-0.34393450334110826;-1.3767954669337024;1.476;0.02919000041662382
16:51.7;0.05893172094650131;-0.33222637676084055;-1.4022929032413147;1.492;0.027455032977651003
16:51.8;0.05733105449687309;-0.31809001894421723;-1.4186993796430811;1.4580000000000002;0.025872020739449598
16:51.8;0.057358772886011045;-0.30165576076918527;-1.4249726864183707;1.4580000000000002;0.02465573849110195
16:51.8;0.05935115802342737;-0.28323045135182295;-1.4204521982464158;1.4580000000000002;0.02387787996834237
16:51.8;0.06343791024077253;-0.263313460793725;-1.4048968648312132;1.45;0.02346747547027928
16:51.8;0.06953829572556408;-0.24258497326945067;-1.3785177897210272;1.4380000000000002;0.02325414161693072
16:51.8;0.07737703445629675;-0.22185944464177276;-1.3420049949170045;1.411;0.023037966094607322
16:51.8;0.08651676927685366;-0.20200983512263296;-1.2965371300076967;1.375;0.02265988838200123
16:51.8;0.09640220025196207;-0.18388085908664667;-1.2437578655140684;1.318;0.0220474979321538
16:51.8;0.10640976260273922;-0.16821291766485474;-1.185704186095214;1.24;0.021223508089628106
16:51.8;0.11589719488712803;-0.1555902155349622;-1.1246793549207683;1.157;0.020280746201312035
16:51.9;0.12424970330632602;-0.1464137353886507;-1.0630766802826401;0.937;0.019339345519688005
16:51.9;0.13092168354346034;-0.14089168157535972;-1.0031803530456442;0.937;0.01850444022947034
16:51.9;0.13547335583366876;-0.13903997774755605;-0.9469879813863816;0.937;0.01783766673917491
16:51.9;0.1376015525391977;-0.14068900933909684;-0.8960942562012804;0.894;0.017347512103055865
16:51.9;0.1371640151999754;-0.14549524431169578;-0.8516440843419155;0.86;0.016996015634504216
16:51.9;0.13419480226804528;-0.1529579924692439;-0.8143370301720553;0.841;0.016715218327330666
16:51.9;0.12890508593532668;-0.16244425932909956;-0.784461624579709;0.82;0.016426541075956452
16:51.9;0.12166301785972279;-0.17322709134021858;-0.7619446893198633;0.795;0.01605823630824925
16:51.9;0.11295143032292497;-0.1845416541207421;-0.7464049228616643;0.78;0.015558246176017353
16:51.9;0.10331089694293863;-0.19565683205022205;-0.7372037086744039;0.782;0.014901454494322909
16:52.0;0.09328185550496286;-0.2059506396602329;-0.7334911919701341;0.769;0.014091435088497214
16:52.0;0.08335837008192226;-0.21497147905477507;-0.7342497300811921;0.769;0.0131575144085204
16:52.0;0.07395983739002095;-0.22247001349032677;-0.7383387554228026;0.769;0.012148512193728325
16:52.0;0.06542036138484313;-0.22839688189182514;-0.7445454095031999;0.765;0.011124853478374419
16:52.0;0.05799030087428035;-0.23287323721258893;-0.7516443484701353;0.779;0.010150497740187031
16:52.0;0.051841489975550534;-0.23614847711792433;-0.7584678915112202;0.815;0.009285383056270346
16:52.0;0.047069083650609564;-0.23855772705575815;-0.7639839271099667;0.825;0.008578541440701472
16:52.0;0.043688777192870586;-0.24048171120924366;-0.767374287306231;0.831;0.008062304301436306
16:52.0;0.04163410416047056;-0.2423050997848735;-0.7681029516275737;0.841;0.007748742218082519
16:52.0;0.040760684351530484;-0.24437333211395335;-0.7659630077086386;0.841;0.00762962290502608
16:52.1;0.04086203966215311;-0.24695431032155685;-0.761093525358714;0.8009999999999999;0.007680238012087616
16:52.1;0.04169621630062327;-0.25021144888732844;-0.7539631379504856;0.8009999999999999;0.007865999926052497
16:52.1;0.04301685950113594;-0.25419035179868116;-0.7453252804991328;0.8009999999999999;0.00814973740422254
16:52.1;0.044600630430294864;-0.25881876789103136;-0.7361543243509783;0.7809999999999999;0.008497782878429498
16:52.1;0.04626556463570871;-0.26391964512608695;-0.7275693027451647;0.769;0.008883905957299461
16:52.1;0.04787843064938266;-0.26923697342284897;-0.7207491269784437;0.76;0.00929092023640873
16:52.1;0.04935110003866041;-0.27447173283797827;-0.7168447513851484;0.754;0.009710007637306822
16:52.1;0.05062771461203395;-0.2793225418314217;-0.716895960759937;0.754;0.010137956938684885
16:52.1;0.051667163140753314;-0.2835252506032107;-0.7217599591643573;0.758;0.010573022217421311
16:52.1;0.05242786662585491;-0.28688767551660604;-0.7320567513325613;0.772;0.011010798824861757
16:52.2;0.05286157416803019;-0.2893174253709853;-0.7481336651774462;0.8220000000000001;0.01144178760052283
16:52.2;0.05291835513204605;-0.29084031079536066;-0.7700478097993135;0.8220000000000001;0.011851644787727303
16:52.2;0.05255875306866855;-0.2916049005012496;-0.7975622928097821;0.8220000000000001;0.01222375071624379
16:52.2;0.05176613181909433;-0.291868232710299;-0.8301546438827244;0.847;0.012542714706200324
16:52.2;0.050554065684736575;-0.2919599732044691;-0.867043904870308;0.892;0.012797363121063925
16:52.2;0.048966725786799746;-0.2922265645592685;-0.9072463504135525;0.951;0.012982131016535134
16:52.2;0.04707192997250205;-0.29296209165911535;-0.9496622084711729;1.006;0.013096118266515622
16:52.2;0.044948252801458824;-0.29433700347005143;-0.993182910220728;1.079;0.013139744392665784
16:52.2;0.042670687001873986;-0.29633718317122126;-1.0367991909181096;1.122;0.013110233691143806
16:52.2;0.040301681353397976;-0.2987246621649817;-1.079687983450618;1.151;0.012998478238374894
16:52.3;0.03789334190864701;-0.3010292736884923;-1.1212602805689764;1.217;0.012790221842470664
16:52.3;0.035502016203359306;-0.30257617908760176;-1.1611606598838666;1.217;0.012473262601987311
16:52.3;0.03321036762734365;-0.30254673400504145;-1.19921844959987;1.217;0.012049373138130915
16:52.3;0.031148223295385268;-0.30006464080849343;-1.2353603853698663;1.248;0.01154627167197487
16:52.3;0.02950419446846557;-0.2942990163978002;-1.2695040552596875;1.287;0.011023174057170857
16:52.3;0.02852260279859207;-0.2845761868503314;-1.3014537270322424;1.3159999999999998;0.010563709295923793
16:52.3;0.028481719067830737;-0.27048882070780866;-1.330813505506701;1.327;0.010252569416701489
16:52.3;0.029651376621799185;-0.2519877665292467;-1.3569258198497391;1.334;0.010138656859864047
16:52.3;0.0322331014010309;-0.22944212318295887;-1.3788428188484494;1.339;0.010197413001615132
16:52.3;0.036292808433981735;-0.20365492594911985;-1.3953419790782857;1.344;0.010313264492595316
16:52.4;0.04170097853780586;-0.1758245951805243;-1.404998316339775;1.41;0.010301528681714368
16:52.4;0.04809513350883621;-0.1474513291867975;-1.4063178553401838;1.41;0.009973172188762659
16:52.4;0.05487525223951733;-0.12020271252946704;-1.3979215620980423;1.41;0.009220906141066236
16:52.4;0.06123827921488034;-0.09575927125144226;-1.378756919921275;1.452;0.008085213939727566
16:52.4;0.0662544538869632;-0.07565300354879163;-1.3483107667311314;1.474;0.006758203361563846
16:52.4;0.06898257671045811;-0.06110777070196427;-1.3067923999096411;1.459;0.005508615412929554
16:52.4;0.06861134577506434;-0.052899248567989686;-1.2552478620967116;1.3980000000000001;0.004555907849260967
16:52.4;0.06460317216961758;-0.051259654608745854;-1.1955678974022317;1.298;0.003959166481850156
16:52.4;0.05681122800560912;-0.05584780735984657;-1.1303704628068338;1.182;0.003586419642729863
16:52.4;0.04554227212221445;-0.06579290786952431;-1.0627654747422974;1.067;0.003184426378529074
16:52.5;0.03154695997398987;-0.07980677385260544;-0.9960346157592818;0.8170000000000001;0.002507677606730483
16:52.5;0.015937210265337075;-0.09634473347004742;-0.933281150402715;0.8170000000000001;0.0014330217317885614
16:52.5;5.204768324119078e-05;-0.11378366260321149;-0.8771182251895988;0.8170000000000001;5.194448527987445e-06
16:52.5;-0.01469735703702591;-0.1305868854883003;-0.8294508014038695;0.773;0.0015919500596869366
16:52.5;-0.026982195123955298;-0.14544049173248125;-0.7913674110775728;0.75;0.0031055660805992097
16:52.5;-0.03569947955592462;-0.15735838550727024;-0.7631271923763563;0.745;0.004286952829319432
16:52.5;-0.04009280472015954;-0.1657541820147343;-0.7442235035357995;0.752;0.004945774541927238
16:52.5;-0.03983444175936604;-0.17047401809691587;-0.7335106632408772;0.767;0.004981078254094527
16:52.5;-0.03505469739219882;-0.1717841991216789;-0.7293793070718041;0.782;0.004392207759951917
16:52.5;-0.026311650105651407;-0.17031244760929323;-0.7299605998452657;0.797;0.003271100556963269
16:52.6;-0.014504158247953829;-0.1669492599021363;-0.7333356650317465;0.8059999999999999;0.0017757418684437693
16:52.6;-0.0007432924031898478;-0.16272447524169972;-0.7377263212672697;0.8059999999999999;8.922937534655543e-05
16:52.6;0.013791664996180215;-0.1586800068635191;-0.7416473043798439;0.8059999999999999;0.00162306656943529
16:52.6;0.027986369734443156;-0.15575798911564012;-0.7440080637784289;0.794;0.0032432060511498276
16:52.6;0.04089923453456935;-0.15471511137021007;-0.7441615431505176;0.782;0.004708853043102749
16:52.6;0.05183987580148579;-0.15606612785103835;-0.7419052209827324;0.77;0.006002346119209957
16:52.6;0.060415555321263956;-0.16005674282310542;-0.7374446095606658;0.76;0.007131028166969863
16:52.6;0.06654214142697466;-0.16666559707152667;-0.7313310469063355;0.755;0.008110670274394717
16:52.6;0.07041882369513905;-0.1756339077878144;-0.7243842119125506;0.7509999999999999;0.008959135534940679
16:52.6;0.07247055146931662;-0.18651917409465962;-0.7176065305532273;0.743;0.009699993253169488
16:52.7;0.07326695719537603;-0.19876643143598208;-0.7120937362669169;0.7340000000000001;0.010370229358559885
16:52.7;0.07343071778512955;-0.2117864398784134;-0.7089454749940423;0.7340000000000001;0.0110252579281426
16:52.7;0.0735501703460766;-0.22502685050518634;-0.7091815235191068;0.7340000000000001;0.0117374954524298
16:52.7;0.0741086031390126;-0.2380247531642739;-0.7136696034969348;0.743;0.012588904836994094
16:52.7;0.07543678687322149;-0.2504371388608011;-0.7230685103393711;0.758;0.013660335438351358
16:52.7;0.07768936631965863;-0.26205214252506603;-0.7377877737005704;0.769;0.015020374048753065
16:52.7;0.08084224438805473;-0.27278442132948183;-0.7579645816567565;0.7829999999999999;0.016715017616427713
16:52.7;0.08470722354175891;-0.28265661292383626;-0.7834601456857626;0.8059999999999999;0.01875843084429112
16:52.7;0.08896087647622883;-0.2917688159624998;-0.8138797620421081;0.8340000000000001;0.02112507091392587
16:52.7;0.09318572165936367;-0.30025892793585807;-0.8486217615753923;0.87;0.023744305254380132
16:52.8;0.09692197241638005;-0.3082578839665417;-0.886957248001969;1.038;0.02649958810676695
16:52.8;0.09972587848706237;-0.3158449470739508;-0.9281303466404595;1.038;0.029234170593516004
16:52.8;0.10122660933543098;-0.32300822965631115;-0.9714520747699751;1.038;0.03176359556851338
16:52.8;0.10117205746836345;-0.32961494947091563;-1.0163591074219027;1.101;0.033893363222671696
16:52.8;0.09945743980987064;-0.33539551895361513;-1.0624273781541094;1.149;0.035440005877248534
16:52.8;0.09613597551816096;-0.3399447496341704;-1.109346966916334;1.181;0.03625447962042887
16:52.8;0.0914143966576454;-0.3427417014136996;-1.1568654008669292;1.206;0.03624635820546306
16:52.8;0.08563674523030028;-0.3431879990381057;-1.204704527324336;1.228;0.035405667608707295
16:52.8;0.07925814815337952;-0.3406630940484144;-1.252461736791109;1.255;0.03381687516893052
16:52.8;0.072807512785902;-0.33459340880286037;-1.2995138268053403;1.291;0.031657344433010146
16:52.9;0.06683749536197092;-0.32453046258708973;-1.3449435272763015;1.38;0.029172905483596107
16:52.9;0.06186405593155608;-0.3102307466906779;-1.3875022109401596;1.38;0.026629125950288674
16:52.9;0.0583041869795229;-0.29172691321867433;-1.425612985854569;1.38;0.024248109421151777
16:52.9;0.05642286519003918;-0.26937692454678963;-1.4574175577450068;1.41;0.022151315546499063
16:52.9;0.05629734179038933;-0.24387804456661852;-1.4808780330604232;1.474;0.020331989850497792
16:52.9;0.05780364091441891;-0.21623757497292323;-1.493944194024383;1.5430000000000001;0.01867328525239482
16:52.9;0.06062870964450479;-0.18770011113580265;-1.4947778580900428;1.5919999999999999;0.0170105952513623
16:52.9;0.064309169462405;-0.15963896682530668;-1.4820004087918417;1.619;0.01521458576365014
16:52.9;0.06829300417375836;-0.13342647195389457;-1.4549138178824959;1.614;0.013257312352176042
16:52.9;0.07201511192564072;-0.11030295466242383;-1.4136447502813307;1.568;0.011229258271898763
16:53.0;0.07497346013373915;-0.09126493611440649;-1.3591760188944821;1.2690000000000001;0.009300091299250942
16:53.0;0.07679238946504746;-0.0769885231762874;-1.2932639514153468;1.2690000000000001;0.0076459480401096305
16:53.0;0.07726381412837885;-0.06779551342615182;-1.2182827288392855;1.2690000000000001;0.00638153543000872
16:53.0;0.07636246339740888;-0.06366028044909032;-1.1370489341894132;1.1540000000000001;0.005527485766762047
16:53.0;0.07423526865499341;-0.06424881751804375;-1.052649461878073;1.044;0.005020641323898211
16:53.0;0.07116794005520688;-0.06897895055281418;-0.9682675203118667;0.9420000000000001;0.004753312225076416
16:53.0;0.06753495207838163;-0.07709153871407469;-0.8870051352141318;0.853;0.004618079917430333
16:53.0;0.06374206207483124;-0.08772479433947199;-0.8117150368769738;0.7829999999999999;0.004538915095276772
16:53.0;0.06017141732777883;-0.09998608935878592;-0.7448572036277091;0.726;0.004481287902299016
16:53.0;0.05713771696031684;-0.11301698115949656;-0.6883882296384948;0.684;0.004445289214889232
16:53.1;0.05486076561277347;-0.1260483079327555;-0.6436842777460523;0.604;0.004451145447169851
16:53.1;0.05345573318272839;-0.13844313044559783;-0.6114961979399446;0.604;0.0045254259467868985
16:53.1;0.052937999300332085;-0.1497256822749546;-0.591937971862525;0.604;0.004691805767537293
16:53.1;0.05323672361224006;-0.15959594614577446;-0.584509364976207;0.594;0.004966205071260323
16:53.1;0.054211679462697566;-0.16793242334188144;-0.5881480300606035;0.594;0.005354440089572333
16:53.1;0.05566939912071465;-0.17478661205962306;-0.601303924830087;0.606;0.005850846935630267
16:53.1;0.057375482457108135;-0.18037017028053365;-0.6220337147025806;0.631;0.006437318393900743
16:53.1;0.05906155766069124;-0.18503316641094314;-0.6481173014344503;0.672;0.0070828507843563385
16:53.1;0.06042901136064236;-0.18923184799838763;-0.6771969369342435;0.7090000000000001;0.007743810286670872
16:53.1;0.06115489265013102;-0.19348606688015893;-0.706934025503926;0.741;0.008364881440973398
16:53.2;0.0609054317197327;-0.1983284575196605;-0.735173780542361;0.84;0.008880370184631189
16:53.2;0.05935943335371983;-0.2042493160458835;-0.7601028621198012;0.84;0.00921558109722079
16:53.2;0.05623991481379214;-0.2116426290522292;-0.7803800672867217;0.84;0.009288679325515114
16:53.2;0.05134999411096794;-0.22075940567000868;-0.7952223430211154;0.866;0.009014635853164674
16:53.2;0.0446080274147633;-0.23167414260207456;-0.8044398880283736;0.879;0.008313505344094273
16:53.2;0.03607590715076273;-0.2442688394244541;-0.8084233676779906;0.879;0.007124004545595174
16:53.2;0.02597385050970646;-0.25823680357284834;-0.8080867883523527;0.87;0.0054201646632945095
16:53.2;0.014676731909105092;-0.2731063543314167;-0.8047687620787615;0.855;0.0032257616669002674
16:53.2;0.0026902776980178354;-0.28828285703562073;-0.8000985175087588;0.836;0.0006205251591348339
16:53.2;-0.009392242651505647;-0.3031059272724904;-0.7958388459615727;0.8220000000000001;0.0022656293762953277
16:53.3;-0.020950480810272242;-0.31691640291145773;-0.7937227312991934;0.8370000000000001;0.005269962568335054
16:53.3;-0.031407736702475555;-0.3291242025827374;-0.7953015141816906;0.8370000000000001;0.008221068572274396
16:53.3;-0.04029836198429769;-0.3392653389874829;-0.8018192521597136;0.8370000000000001;0.010962342471183037
16:53.3;-0.047316998417034295;-0.3470384767896549;-0.8141224715575194;0.8590000000000001;0.013368557795607203
16:53.3;-0.052341939563956545;-0.3523184534909974;-0.8326097893240486;0.8809999999999999;0.015354183102260636
16:53.3;-0.05543289401646561;-0.3551497900214605;-0.8572223861945037;0.909;0.016876120547099322
16:53.3;-0.05680688084446491;-0.3557241596587983;-0.8874730804277245;0.941;0.017933683227311845
16:53.3;-0.056797737868003746;-0.35434526909785;-0.9225089775410623;0.98;0.01856642463861903
16:53.3;-0.055807132015642164;-0.35138531902213804;-0.9612007433088605;1.022;0.01884896095595356
16:53.3;-0.05425602849898254;-0.34723844019332634;-1.0022502307636405;1.062;0.01888217255669819
16:53.4;-0.0525432508494809;-0.3422769469244789;-1.0443065533802705;1.177;0.018781167756752665
16:53.4;-0.05101350466933519;-0.33681539573968455;-1.0860763707499095;1.177;0.018661109479352178
16:53.4;-0.04993458866452989;-0.3310852282433034;-1.1264094375587204;1.177;0.018622481944872107
16:53.4;-0.049483377062627454;-0.3252198444216894;-1.1643459588047884;1.206;0.018737791791697465
16:53.4;-0.049740427902523275;-0.3192480603201973;-1.199129344619772;1.2409999999999999;0.01904161655015844
16:53.4;-0.050692639015096685;-0.31309469656350003;-1.2301997311229058;1.278;0.019525233661212088
16:53.4;-0.052242625974034576;-0.30658992380354405;-1.2571796104889237;1.314;0.020136324667327787
16:53.4;-0.054222674044240346;-0.29949155336351174;-1.279851903176602;1.347;0.020783813103798614
16:53.4;-0.056411076682985735;-0.29152422440943726;-1.2981235124478787;1.355;0.021347894787122096
16:53.4;-0.05855073974797527;-0.28243461213385745;-1.3119672392429893;1.3230000000000002;0.021695681421153485
16:53.5;-0.0603727083260036;-0.27205394524158505;-1.3213434444178596;1.2830000000000001;0.0217025817823824
16:53.5;-0.06162677890646604;-0.2603543777338548;-1.3261181624791107;1.2830000000000001;0.021277302913180196
16:53.5;-0.062117182496477054;-0.24748748320519162;-1.3260067155020383;1.2830000000000001;0.02038499980088691
16:53.5;-0.06173816113771099;-0.23379703787252779;-1.3205707686136963;1.308;0.019061381528821485
16:53.5;-0.06050415398141674;-0.21980079848580586;-1.3092819436429084;1.338;0.0174119590454995
16:53.5;-0.058568936222551174;-0.20614034058889635;-1.2916445175283482;1.355;0.01559456734606638
16:53.5;-0.05622620709064289;-0.19350598303693453;-1.267351366526251;1.36;0.013788919077044022
16:53.5;-0.05388446639188643;-0.18255081919325922;-1.2364366043558834;1.3530000000000002;0.01216239842905271
16:53.5;-0.05201404753084507;-0.173809591190038;-1.199386905381456;1.3259999999999998;0.010843105698340828
16:53.5;-0.05107188019156273;-0.16763500123135952;-1.157179043634049;1.2690000000000001;0.009907112816893285
16:53.6;-0.051416213975740054;-0.16415879700964028;-1.1112244083035;1.023;0.009379204979709238
16:53.6;-0.05322680839808276;-0.16327985749285476;-1.0632284052749459;1.023;0.009240375268078312
16:53.6;-0.05644549060630743;-0.1646777794916502;-1.0150059274711027;1.023;0.009434802923923123
16:53.6;-0.06074833574923833;-0.16784885244426476;-0.9683029454127505;0.9540000000000001;0.00987333820776685
16:53.6;-0.06555600162869105;-0.17216124520745982;-0.9246491798560516;0.904;0.010435778228560474
16:53.6;-0.0700846419663828;-0.17692536277458978;-0.8852416797007143;0.8640000000000001;0.010976776141813397
16:53.6;-0.07343566470103484;-0.1814726868466271;-0.8508576008529695;0.8290000000000001;0.011339011151670467
16:53.6;-0.07471614445491535;-0.18523428892157792;-0.8218021307231274;0.805;0.011373734823627
16:53.6;-0.07317279484144583;-0.1878101874890904;-0.7978993346949521;0.7909999999999999;0.010965208459331076
16:53.6;-0.06831482989447736;-0.1890209229138574;-0.7785314333443821;0.7859999999999999;0.010053123610730328
16:53.7;-0.06000025544373502;-0.18893214912364728;-0.7627282070681354;0.799;0.00864626957194972
16:53.7;-0.04846954681460187;-0.18784546246979472;-0.7493008867172313;0.799;0.006822223052080975
16:53.7;-0.03432620261593595;-0.18625639171044656;-0.7370046569020734;0.799;0.0047120205837349926
16:53.7;-0.018473412424616753;-0.18478766789801387;-0.7247071735238488;0.7909999999999999;0.0024739030203685597
16:53.7;-0.002015635197772296;-0.1841073633834876;-0.711541672222374;0.7859999999999999;0.0002640483342858846
16:53.7;0.013865960753831258;-0.1848410908850437;-0.6970284160966955;0.774;0.0017864833508357163
16:53.7;0.028048016150044607;-0.18748910809402222;-0.6811524505535572;0.757;0.0035819747104909325
16:53.7;0.03958740734942899;-0.19236025433544948;-0.6643892876784057;0.7390000000000001;0.005059353490189144
16:53.7;0.0478122582058969;-0.19953269907386884;-0.6476746641847528;0.718;0.006178886846642448
16:53.7;0.05237047841592155;-0.2088474036213246;-0.6323191843588042;0.6940000000000001;0.006915952155613972
16:53.8;0.05323369488439538;-0.21993471323411642;-0.6198737212925106;0.626;0.007257442736446396
16:53.8;0.050663214861365734;-0.23226717656680776;-0.6119596192845973;0.626;0.007201174769341927
16:53.8;0.045152148941204576;-0.2452249219948617;-0.6100875135555249;0.626;0.006755152631134741
16:53.8;0.037359197612709734;-0.2581600627602648;-0.6154909117064442;0.622;0.005936196145192014
16:53.8;0.028043499989661384;-0.2704544841075001;-0.6289926756199402;0.629;0.0047705888610197564
16:53.8;0.018002630535232874;-0.2815720210095612;-0.6509144406327855;0.66;0.0032995094246008445
16:53.8;0.008012416869841124;-0.2911053707155389;-0.6810369319024553;0.706;0.001588489756270493
16:53.8;-0.001232473391909134;-0.2988138830389103;-0.7186169411748662;0.76;0.00026465236205914367
16:53.8;-0.009174573429200344;-0.30464598370299134;-0.7624598695086663;0.8170000000000001;0.0021310730077871995
16:53.8;-0.01543766157408019;-0.3087405768950676;-0.8110388382997789;0.8740000000000001;0.0038655997025452997
16:53.9;-0.019847339554491437;-0.3114044889678637;-0.8626452801502905;1.018;0.005331622830853687
16:53.9;-0.02242262701612188;-0.31306766849456114;-0.9155482214111264;1.018;0.006426965003157706
16:53.9;-0.023344892638605525;-0.31422356611786956;-0.9681321037314599;1.018;0.0071017479712026784
16:53.9;-0.022917725889982823;-0.31536504076878114;-1.0189902603854344;1.07;0.007364700708682003
16:53.9;-0.02152875318259079;-0.316923691116915;-1.0669746687770594;1.121;0.0072799382084414895
16:53.9;-0.01961704727472809;-0.3192158469822056;-1.1112190827815196;1.169;0.006958534305404486
16:53.9;-0.0176438073708649;-0.32239618561765154;-1.1511485859467072;1.214;0.006548074122631959
16:53.9;-0.016060892506528507;-0.32642109424728727;-1.1864767737948338;1.2570000000000001;0.0062202398714133805
16:53.9;-0.015272131495444865;-0.3310266202643231;-1.2171851033447227;1.2830000000000001;0.006153457469688133
16:53.9;-0.015586208690663267;-0.3357275475409287;-1.2434781346667696;1.29;0.0065067724312890315
16:54.0;-0.017165001297741275;-0.33984309113417044;-1.2657118951780866;1.311;0.007383412756324802
16:54.0;-0.019975541093030007;-0.34255084856414214;-1.2842991600187776;1.311;0.00878799494457548
16:54.0;-0.02375716081141684;-0.34296591084001726;-1.2996016050707386;1.311;0.010589019105089706
16:54.0;-0.02801659740901495;-0.3402393533559531;-1.3118221323052026;1.32;0.012504746372268555
16:54.0;-0.03206172857388694;-0.3336690975571596;-1.3209119959395113;1.306;0.014131127151863085
16:54.0;-0.035080095247334464;-0.3228121425886873;-1.3265085943973607;1.2890000000000001;0.015021755685866372
16:54.0;-0.03625979996318354;-0.3075810884136127;-1.327921846021926;1.296;0.014810084926577354
16:54.0;-0.03493532667870589;-0.28830582361582535;-1.3241870531590123;1.3359999999999999;0.013337288976254531
16:54.0;-0.0307248458687852;-0.26574438157002384;-1.3141935637109812;1.3840000000000001;0.010730331524825882
16:54.0;-0.023619431704655924;-0.24103123851651304;-1.2968790114398097;1.406;0.0073831592868487264
16:54.1;-0.013994370516351627;-0.21555884092331382;-1.2714566150092057;1.3519999999999999;0.003835489105526676
16:54.1;-0.002538491391867989;-0.19080663459582134;-1.2376312889836494;1.3519999999999999;0.0005994603280614166
16:54.1;0.009870769411327016;-0.16815535878493543;-1.1957637068989713;1.3519999999999999;0.0019847558304567745
16:54.1;0.022304017157523618;-0.1487298686198974;-1.1469507085055841;1.27;0.003804749238769737
16:54.1;0.03389772486078706;-0.13329495863776367;-1.0929989471606856;1.155;0.004938601888578792
16:54.1;0.04394172872640109;-0.12220871906153688;-1.0362838969273398;1.035;0.005564909170928714
16:54.1;0.051933019711080386;-0.11543127660427212;-0.9795124683397796;0.93;0.0058718782644111385
16:54.1;0.05759448233549884;-0.1125828966561289;-0.9254322390003853;0.845;0.00600064483287836
16:54.1;0.0608612470125391;-0.11303713279506737;-0.8765402571753743;0.782;0.0060302295768352105
16:54.1;0.06184306966174003;-0.11602853504755385;-0.8348388251048232;0.747;0.0059904367274499
16:54.2;0.06077534825406066;-0.1207552933002592;-0.8016710628113456;0.748;0.005883419841146028
16:54.2;0.057971148898898865;-0.1264630432322587;-0.7776505240710749;0.748;0.005701117672838481
16:54.2;0.05378196984371321;-0.13250364601868134;-0.7626806138096446;0.748;0.005435096268921571
16:54.2;0.04856920440188712;-0.13836962075175524;-0.7560462990125945;0.7709999999999999;0.005081010961962471
16:54.2;0.04268388845451946;-0.1437090538668432;-0.7565553042230699;0.8;0.004640756556321488
16:54.2;0.03644963347557958;-0.14832692784913332;-0.7627050536569976;0.8190000000000001;0.004123536007764212
16:54.2;0.030143457091485384;-0.15217802420049403;-0.772851556917161;0.83;0.003545202823234312
16:54.2;0.023973053195986877;-0.15535486226294656;-0.7853591868716706;0.836;0.0029249370767458777
16:54.2;0.018055585329076675;-0.1580719562042779;-0.7987179071357803;0.838;0.0022796061569313455
16:54.2;0.012407429662610965;-0.16064513865774305;-0.811624433106352;0.8420000000000001;0.0016177243485309533
16:54.3;0.0069524860086589155;-0.1634627995252588;-0.8230317937804367;0.853;0.0009353532690886038
16:54.3;0.0015497698863401368;-0.16694665160777483;-0.8321752348198126;0.853;0.00021530777752581907
16:54.3;-0.003966199446516068;-0.17150328369157672;-0.8385818046843216;0.853;0.0005704169527672966
16:54.3;-0.009742008837358155;-0.17747134736260628;-0.8420692197490927;0.862;0.0014558765756748464
16:54.3;-0.015867755057522224;-0.1850705160588195;-0.8427382780618711;0.871;0.0024748304126153554
16:54.3;-0.022351077344625478;-0.19435864562691915;-0.8409605610785523;0.88;0.003653237899154894
16:54.3;-0.029105370767694906;-0.2052043505331191;-0.8373587220989037;0.884;0.005001165751635967
16:54.3;-0.035951695347645043;-0.2172822226403164;-0.8327728956118932;0.8809999999999999;0.006505342276027481
16:54.3;-0.04263237288470078;-0.23009560331521184;-0.8282063874857146;0.872;0.008124308413892806
16:54.3;-0.04883510091573904;-0.2430279157001568;-0.8247471754829337;0.858;0.009788340955168406
16:54.4;-0.054227758802592264;-0.25541878042445254;-0.8234679152076285;0.845;0.011405679533584808
16:54.4;-0.05850248502941375;-0.2666540754323858;-0.8253150088715169;0.845;0.012874853111315285
16:54.4;-0.061423004188114846;-0.2762515654047579;-0.8310040034719468;0.845;0.01410064301160443
16:54.4;-0.06286663040735459;-0.2839233870734423;-0.8409396352836391;0.857;0.015010189415192955
16:54.4;-0.0628543918658153;-0.28960550282387365;-0.8551735854662708;0.88;0.0155667057580271
16:54.4;-0.061564988590798515;-0.2934530771396811;-0.8734058827120033;0.9079999999999999;0.01577933091086669
16:54.4;-0.05932798290690749;-0.29580390495289505;-0.8950297852496842;0.9309999999999999;0.01570727958479424
16:54.4;-0.05659195568153062;-0.2971143067826929;-0.9192146345471272;0.96;0.015455931952874239
16:54.4;-0.053867453376248084;-0.29787714701442725;-0.9450169363873728;0.996;0.015163631504869528
16:54.4;-0.05165190362767978;-0.2985363941453472;-0.9715073463479483;1.041;0.014980617108035062
16:54.5;-0.05035144113712947;-0.2994122017841663;-0.9978986426241504;1.131;0.015044156135005144
16:54.5;-0.05021782296963737;-0.3006454333785536;-1.0236546260683146;1.131;0.015454890997197643
16:54.5;-0.05131391390057325;-0.30216582816025805;-1.0485552876764663;1.131;0.01625817614010568
16:54.5;-0.05351220051756567;-0.3036861041356487;-1.0726989224003423;1.149;0.01743233546743868
16:54.5;-0.05652310494853561;-0.304722858218345;-1.0964381874752864;1.155;0.01888492206585137
16:54.5;-0.05994323756644353;-0.30464227073724376;-1.1202622069785637;1.147;0.020457381514109464
16:54.5;-0.06330758713919073;-0.3027264726548167;-1.1446436458108034;1.146;0.02193696103005911
16:54.5;-0.06612949837230232;-0.2982567982200291;-1.1698727270129876;1.16;0.02307406949135026
16:54.5;-0.06792251771289748;-0.2906096983695197;-1.195902399746831;1.156;0.023605848566737954
16:54.5;-0.06821468776452676;-0.27935598583304533;-1.2222295448917608;1.143;0.023291027857260928
16:54.6;-0.06657695589046324;-0.2643479602786394;-1.247836623608091;1.239;0.021961278809074836
16:54.6;-0.06268030633533611;-0.24577929064224552;-1.2712130447846701;1.239;0.019583699547169858
16:54.6;-0.05637240910246827;-0.2242088520324809;-1.2904625241092356;1.239;0.016310405070753476
16:54.6;-0.04774551714846573;-0.2005436876666693;-1.3034908405967958;1.315;0.012481005717477655
16:54.6;-0.03716947153916772;-0.17597604778228748;-1.3082631977966275;1.4;0.008557266763228811
16:54.6;-0.02527879756433828;-0.1518736416070339;-1.3031082920774555;1.454;0.005002871256237925
16:54.6;-0.012916930313038819;-0.1296346633769228;-1.2870217414020084;1.473;0.002155094627607649
16:54.6;-0.001050055471599423;-0.11053175470804952;-1.25990410078802;1.446;0.00014623010651742968
16:54.6;0.00933288348309431;-0.09557310860031762;-1.2226744981767206;1.368;0.001090592257078558
16:54.6;0.017320450937472857;-0.08540325997227412;-1.177226156067771;1.254;0.001741379975943479
16:54.7;0.022172835971249454;-0.08025481234759702;-1.126225299499218;1.023;0.0020040917808672714
16:54.7;0.02340722964197702;-0.07995053246400421;-1.0727939071293977;1.023;0.002007648481522802
16:54.7;0.020868491027940295;-0.083947087997081;-1.0201454729988764;0.937;0.0017871408804778488
16:54.7;0.014773455261980357;-0.09140952818746913;-0.9712419986014581;0.8909999999999999;0.0013115987757941728
16:54.7;0.005715545443552725;-0.10130779866775448;-0.928513820565521;0.853;0.0005376367326989577
16:54.7;-0.005380857108071099;-0.11252810548767864;-0.8936587598635957;0.812;0.0005411082846035897
16:54.7;-0.01736024893276623;-0.12399020099338887;-0.867526582266685;0.7929999999999999;0.0018673516228509086
16:54.7;-0.028982477818194404;-0.13475866393548946;-0.850091714286477;0.8009999999999999;0.003320152193056627
16:54.7;-0.039093065310944364;-0.14413424365715602;-0.8405145104017523;0.818;0.004736004582426481
16:54.7;-0.046782067387825615;-0.15171186211404467;-0.8372863837834096;0.845;0.005942551822874182
16:54.8;-0.05149534327142565;-0.15739711712995302;-0.8384452496196071;0.9279999999999999;0.006795782012628324
16:54.8;-0.05307726393148791;-0.16138189926307525;-0.8418349688466558;0.9279999999999999;0.007210913925576217
16:54.8;-0.051746991586343605;-0.16408633891653177;-0.8453704998408959;0.948;0.00717801927211281
16:54.8;-0.048026182914602325;-0.166076877082793;-0.8472688478630771;0.9420000000000001;0.006757848930634802
16:54.8;-0.0426385418688375;-0.16797291846024318;-0.8462172962746364;0.9209999999999999;0.006060710089905123
16:54.8;-0.03639853493814196;-0.1703578557172409;-0.8414663963504826;0.897;0.005217744941010509
16:54.8;-0.030104412248744068;-0.17370900505732492;-0.8328489880648222;0.872;0.004355306744191201
16:54.8;-0.02444900029141677;-0.17835389649096656;-0.820736680469133;0.851;0.0035788834132162725
16:54.8;-0.01995868345757703;-0.18445328225758825;-0.8059500894426286;0.831;0.002967060663716416
16:54.8;-0.016966158012477122;-0.19200844794459687;-0.7896384178331206;0.812;0.0025723621707918285
16:54.9;-0.01561623222462793;-0.20088930715950054;-0.7731413978948071;0.754;0.0024254482218461324
16:54.9;-0.015897105598898335;-0.2108760458071481;-0.7578472064400564;0.754;0.002540545413784861
16:54.9;-0.017684637118349767;-0.22170237811029755;-0.7450633491685511;0.754;0.0029211893230799363
16:54.9;-0.020787266554051408;-0.23308921147397396;-0.735916068058881;0.747;0.0035657249769693897
16:54.9;-0.024983941239449987;-0.24476475424274627;-0.7312846609548084;0.75;0.0044719433569271145
16:54.9;-0.030051869919497515;-0.2564737773439764;-0.7317684259753361;0.759;0.005640117286538499
16:54.9;-0.035782719065757126;-0.26798024197210596;-0.7376815008974932;0.774;0.007073673437132492
16:54.9;-0.041987205680594726;-0.27906643504029954;-0.7490710083280862;0.795;0.008777029655322233
16:54.9;-0.04849104499400034;-0.2895312335227415;-0.7657530644330687;0.8190000000000001;0.010750921912707863
16:54.9;-0.05512892500140795;-0.2991901015317494;-0.7873601177370239;0.846;0.012986740354393867
16:55.0;-0.061744348123988886;-0.30787860181618504;-0.8133924931377465;0.9209999999999999;0.015462398984540032
16:55.0;-0.06819843899300031;-0.3154587575730582;-0.8432656895564277;0.9209999999999999;0.018141845034955018
16:55.0;-0.07438189979291607;-0.32182486025857304;-0.8763441399191126;0.9209999999999999;0.02097787739008745
16:55.0;-0.08021967624220457;-0.32690530582304844;-0.9119575566729523;0.9540000000000001;0.023915391825123936
16:55.0;-0.08566245965830215;-0.3306597975739137;-0.9494073704106316;0.996;0.026892088680691543
16:55.0;-0.09066726735226993;-0.3330730200805572;-0.987976978752618;1.045;0.029835739498239446
16:55.0;-0.09517412656399046;-0.334145228323274;-1.0269541383213554;1.0959999999999999;0.03265917522577643
16:55.0;-0.09908654981800608;-0.333879459082059;-1.0656635053568868;1.14;0.03525530701676082
16:55.0;-0.10226150364883135;-0.33226536938033935;-1.103500494996849;1.1740000000000002;0.037494691577567386
16:55.0;-0.104510839052734;-0.32926037405869174;-1.1399566958009344;1.203;0.03922736672121679
16:55.1;-0.10561215585539979;-0.3247705335940606;-1.1746298569673614;1.262;0.04028947074715626
16:55.1;-0.10532508015119711;-0.31863730819138547;-1.2072136220902676;1.262;0.04051469279363982
16:55.1;-0.10341002609084765;-0.3106391765649815;-1.2374630591685427;1.262;0.039751279966947585
16:55.1;-0.09964882905642602;-0.30051535050438966;-1.2651369492587834;1.285;0.03788579461380929
16:55.1;-0.09386772972850098;-0.288012960613127;-1.2899270619382146;1.308;0.03487333645177537
16:55.1;-0.08596331272280114;-0.2729528852465003;-1.3113895809546892;1.31;0.03077035888140915
16:55.1;-0.07593194054555834;-0.25530383092088066;-1.3288919802440593;1.296;0.025761521607467877
16:55.1;-0.06390104738368685;-0.2352492273177678;-1.341588052437425;1.296;0.020167653180668498
16:55.1;-0.05015481502001597;-0.21322981588032944;-1.3484370804963823;1.32;0.014420863016796608
16:55.1;-0.035140803268102296;-0.18994754709765685;-1.3482821458168004;1.354;0.00899966114714596
16:55.2;-0.019445107007975096;-0.1663218309979296;-1.3399904859192975;1.399;0.004333724604108742
16:55.2;-0.003735525596168186;-0.14340080758146023;-1.322638481322649;1.399;0.0007085075259270646
16:55.2;0.011311428676418904;-0.12224836470861855;-1.295705561776247;1.399;0.0017917063907877356
16:55.2;0.025077982300371695;-0.10383571211068865;-1.2592353136686323;1.369;0.003279036353902438
16:55.2;0.03705434783243415;-0.08895424222147763;-1.213929633526585;1.301;0.004001283761140033
16:55.2;0.046868139852947285;-0.0781512062025318;-1.1611563922259773;1.212;0.004253085563260273
16:55.2;0.05429645293485948;-0.07168777585484681;-1.1028680791579852;1.1179999999999999;0.00429279483069812
16:55.2;0.05926419709089481;-0.06952364876585328;-1.0414459200899466;1.025;0.004291031323225096
16:55.2;0.06183276931364948;-0.0713322373236628;-0.9794964533124927;0.9440000000000001;0.004320235401404408
16:55.2;0.06218134504903946;-0.07654562999366488;-0.9196318116797687;0.88;0.004377180942467002
16:55.3;0.06058079999335361;-0.08442352114820895;-0.8642622753105855;0.773;0.004420221396800402
16:55.3;0.057360983273251606;-0.09413597961308279;-0.8154249817168474;0.773;0.004403076654403183
16:55.3;0.05287527151981937;-0.10484614997579329;-0.7746671892162372;0.773;0.004294575676039108
16:55.3;0.04746799177358394;-0.11577993143515715;-0.7429904197189534;0.747;0.004083357087152476
16:55.3;0.041449030834856175;-0.1262770657822592;-0.7208443832577159;0.728;0.003772944189524724
16:55.3;0.03507882207363476;-0.13582524325504436;-0.7081505645705506;0.713;0.003374046773584446
16:55.3;0.028566482233479584;-0.14408045424345517;-0.7043408149851724;0.6990000000000001;0.002898976453146272
16:55.3;0.022080897189193354;-0.15087536233598775;-0.7084071032278958;0.695;0.0023600323112884054
16:55.3;0.015769191608399485;-0.1562163723332359;-0.7189663705069338;0.706;0.0017711060045385648
16:55.3;0.009773513860791363;-0.16026936585758914;-0.7343477447873779;0.728;0.0011502785392538872
16:55.4;0.004238182786360372;-0.16333353641399834;-0.7527071643483941;0.818;0.0005210520372113149
16:55.4;-0.0006954248485733919;-0.1658036313092134;-0.7721649109854684;0.818;8.903367602193991e-05
16:55.4;-0.004902644667165335;-0.1681235729971418;-0.7909492331784405;0.818;0.0006519400150564568
16:55.4;-0.008292042994273606;-0.1707366772138322;-0.8075265236052964;0.843;0.001143260414486226
16:55.4;-0.010820925462879103;-0.17403778469953357;-0.8207085604619251;0.8690000000000001;0.0015455993111019688
16:55.4;-0.01250811613870264;-0.17833184004990946;-0.8297362580188509;0.89;0.0018508058526143102
16:55.4;-0.01344219213462787;-0.18380311203650546;-0.8343376676546793;0.907;0.0020614120480749723
16:55.4;-0.013783419074656791;-0.19049850532916082;-0.8347520979752683;0.9109999999999999;0.002191825889773861
16:55.4;-0.013758191671783047;-0.19832653379756157;-0.8317103140300612;0.8959999999999999;0.0022694167940405068
16:55.4;-0.013644044121253845;-0.20707139340566325;-0.8263643075325738;0.8740000000000001;0.0023347198291019215
16:55.5;-0.013742902225500089;-0.21641975542193773;-0.8201683549699245;0.818;0.002439373868847494
16:55.5;-0.014344067263686233;-0.22599592222788334;-0.8147245482747256;0.818;0.002641093146397457
16:55.5;-0.015685057519917115;-0.23539975819248335;-0.8116157799530365;0.804;0.0029966954630786928
16:55.5;-0.017921448589159256;-0.2442431130398052;-0.8122507044904503;0.8059999999999999;0.003555375980889686
16:55.5;-0.021113708464587617;-0.2521829870854728;-0.8177384311857485;0.816;0.004354063052606375
16:55.5;-0.025233050160150917;-0.2589505166124365;-0.8288024857489665;0.8340000000000001;0.005415487749494224
16:55.5;-0.03018246738925748;-0.2643741037991325;-0.8457378426495885;0.861;0.006748533625626772
16:55.5;-0.035824762946998316;-0.2683942999463257;-0.8684105771691187;0.89;0.008349908531276685
16:55.5;-0.04200867130871352;-0.2710674751744303;-0.8962964471614817;0.9209999999999999;0.010206292981021147
16:55.5;-0.04858787369332384;-0.2725551220569016;-0.928553082899569;0.956;0.012296711335196215
16:55.6;-0.05543278047430079;-0.2730972125011054;-0.9641188509712659;1.073;0.014595349696807917
16:55.6;-0.062436957750294064;-0.2729717787398786;-1.0018256754975958;1.073;0.01707464336660079
16:55.6;-0.06951821268994307;-0.2724468947361382;-1.0405052599957734;1.073;0.019707191656999457
16:55.6;-0.07661280603051154;-0.27173251647227514;-1.0790708463000689;1.122;0.022464302524006868
16:55.6;-0.08366284307767992;-0.27093791570622977;-1.1165721447913046;1.17;0.02530982799491063
16:55.6;-0.09059916363570508;-0.2700389533221954;-1.1522313131409085;1.213;0.02818968857085427
16:55.6;-0.09732268401728367;-0.26886013549156323;-1.1854627622110792;1.252;0.03101904388732318
16:55.6;-0.103686995718275;-0.26707765307628456;-1.2158705532525587;1.2790000000000001;0.033670470335300566
16:55.6;-0.10948501430615089;-0.26424942012687597;-1.2432149256583376;1.304;0.035967888057704955
16:55.6;-0.11444337438452173;-0.25987555879383245;-1.2673427995437674;1.3230000000000002;0.03769208765882687
16:55.7;-0.11823089004908788;-0.2534866379231799;-1.2880834490667483;1.236;0.03860379761699065
16:55.7;-0.12048831182634001;-0.24474730553074753;-1.3051234822254618;1.236;0.038487033906783215
16:55.7;-0.12088106600232285;-0.23355430009944336;-1.3178947755791928;1.236;0.03720719113820501
16:55.7;-0.11916839011354628;-0.2201060165988132;-1.3255208288232079;1.252;0.03476798671259801
16:55.7;-0.11527758122316721;-0.2049254659846829;-1.3268580317272358;1.3;0.03134478132920251
16:55.7;-0.10936817793607154;-0.1888254742666142;-1.3206441218450475;1.364;0.027273279531398336
16:55.7;-0.10186534344273648;-0.17281506340622327;-1.305737635491278;1.423;0.02298603008685636
16:55.7;-0.09344197542273713;-0.15796113236991083;-1.2814040533470012;1.462;0.01891378042684241
16:55.7;-0.08494169685139137;-0.14523378074849447;-1.2475827634851206;1.47;0.015390684715478206
16:55.7;-0.0772552019879736;-0.13536810565426302;-1.2050620024794054;1.4280000000000002;0.01260240628091532
16:55.8;-0.07117843478523701;-0.12876934429809211;-1.1555035362079509;1.081;0.010590883645312353
16:55.8;-0.0672841256077515;-0.12547568987972954;-1.1013028500383601;1.081;0.00929777362665964
16:55.8;-0.06582987212600908;-0.12517713272660871;-1.0453301198538587;1.081;0.008613932717189765
16:55.8;-0.06671410648856048;-0.12727673050121857;-0.9906237150177899;0.973;0.008411537878516477
16:55.8;-0.06948169475135665;-0.13097939033023612;-0.9400823806926456;0.8759999999999999;0.008555379536085197
16:55.8;-0.07337473448759563;-0.13539722771634977;-0.8961727050758104;0.8009999999999999;0.008903238907373977
16:55.8;-0.07742105764872477;-0.13966135908913108;-0.8606715795483687;0.75;0.009306209523091006
16:55.8;-0.08055219517264024;-0.14302785715302146;-0.8344773344627925;0.725;0.009614186828571982
16:55.8;-0.08174082487786542;-0.14496488170078894;-0.8175227146316686;0.732;0.009687275472626435
16:55.8;-0.08014168466124866;-0.1452100813311139;-0.8088098695384291;0.767;0.009412428242531969
16:55.9;-0.07521258359502292;-0.14379120351220057;-0.8065686016028063;0.888;0.008722965152972937
16:55.9;-0.06679239893536386;-0.14100859678843486;-0.8085138441881955;0.888;0.007614827919583882
16:55.9;-0.055123959838349064;-0.1373859009613388;-0.8121530922061435;0.888;0.006150642374500302
16:55.9;-0.04082191373666333;-0.13359988124284172;-0.8150877842369879;0.9;0.004445328062188735
16:55.9;-0.024791422302639168;-0.13039861307771228;-0.815269982825478;0.9;0.002635577965449312
16:55.9;-0.008108891322862351;-0.12851432665959447;-0.8111971752011979;0.89;0.0008453556404364669
16:55.9;0.00811490607784147;-0.12857843423196202;-0.8020380725174119;0.878;0.0008368480627151559
16:55.9;0.022863595725829678;-0.13104909991152813;-0.7876859511803636;0.857;0.002360106898882335
16:55.9;0.03531402424895711;-0.13616213165846286;-0.7687401373905368;0.8270000000000001;0.003696435306047023
16:55.9;0.0448932292001699;-0.14391328598807124;-0.746420378262431;0.789;0.004822422122425837
16:56.0;0.05129325890936455;-0.15407446749784567;-0.7224236377088266;0.6920000000000001;0.005709300682039678
16:56.0;0.05445365333328306;-0.16623771743723686;-0.6987414129493169;0.6920000000000001;0.006325182679436743
16:56.0;0.05452639472586605;-0.17987290441366413;-0.6774648156996274;0.6920000000000001;0.0066444536370662876
16:56.0;0.051836277350434085;-0.19438496359500285;-0.6606029360804464;0.667;0.006656362604782941
16:56.0;0.0468432173385869;-0.20916488589873236;-0.6499260058885972;0.65;0.006367946545277478
16:56.0;0.04010615213278405;-0.2236357153519023;-0.6468344165811029;0.645;0.005801566564875333
16:56.0;0.032244085262265264;-0.23729448745863688;-0.6522565951537981;0.647;0.004990639380904789
16:56.0;0.02389024786368706;-0.2497477994162375;-0.6665843046936095;0.662;0.003977199805230451
16:56.0;0.015639724087448972;-0.26073779835577954;-0.6896548876161667;0.688;0.0028123210630836438
16:56.0;0.007995996065290494;-0.2701563236846731;-0.7207872809403881;0.727;0.0015570222686650446
16:56.1;0.001324400708789335;-0.278045369231172;-0.7588730443766639;0.89;0.00027945005383972417
16:56.1;-0.004179804626226186;-0.28458194199836634;-0.8025107653982652;0.89;0.0009545840818664802
16:56.1;-0.008502595863844848;-0.2900463643415328;-0.8501557554853136;0.89;0.002096609081033128
16:56.1;-0.011797967769892078;-0.29477548793497454;-0.9002559909178777;0.958;0.0031308668082613094
16:56.1;-0.014350894992717017;-0.29910514869540716;-0.9513645784637952;1.025;0.004083662604542815
16:56.1;-0.016521719219010213;-0.3033088276245659;-1.0022334523767285;1.092;0.00502237552588206
16:56.1;-0.018681132980333245;-0.3075416112702983;-1.0518869306893068;1.1540000000000001;0.006043327866743094
16:56.1;-0.02114695111542121;-0.31179894813548736;-1.0996620743014267;1.19;0.007250728679556115
16:56.1;-0.02413270949480151;-0.31589732044036317;-1.1452013452975387;1.2109999999999999;0.00873039466018018
16:56.1;-0.027714008378359307;-0.3194797745689766;-1.1883920852602248;1.226;0.01052210094559374
16:56.2;-0.031813778986949745;-0.3220449798372306;-1.229260607638169;1.2570000000000001;0.012594349988606087
16:56.2;-0.03620424015852891;-0.3229951035245178;-1.2678395294635696;1.2570000000000001;0.014825852124779769
16:56.2;-0.04052159103725576;-0.3216964210696408;-1.304031688522283;1.287;0.016998901740314837
16:56.2;-0.044289834635602134;-0.31754778667459505;-1.3374937338100001;1.3230000000000002;0.018810697731395123
16:56.2;-0.04695281370798585;-0.3100538419448871;-1.3675584116824036;1.355;0.019908778984735424
16:56.2;-0.047917250706437126;-0.2988988882310238;-1.3932071646395001;1.371;0.019954088355313426
16:56.2;-0.046611259176356536;-0.2840134126205642;-1.4130980188236766;1.382;0.01870690639053887
16:56.2;-0.042558621094368754;-0.26562198084503674;-1.4256517846335846;1.406;0.01611628806569925
16:56.2;-0.03545852425737727;-0.24426126228330167;-1.4291991616242774;1.4509999999999998;0.012378499591740545
16:56.2;-0.025249929859338563;-0.22075827835948822;-1.422185163856115;1.5019999999999998;0.00792744647280006
16:56.3;-0.012139084463777086;-0.19616128816144673;-1.4034126129955793;1.5;0.003341832000733643
16:56.3;0.0034178589774748465;-0.1716269229089801;-1.3722893111221113;1.5;0.0008049802705245732
16:56.3;0.02076602364911614;-0.1482875924945758;-1.3290337222460866;1.5;0.004092551556706927
16:56.3;0.03911756420423159;-0.12713257939280923;-1.2747951754214775;1.4269999999999998;0.006339705350420875
16:56.3;0.057619792038441954;-0.10892311692315143;-1.2116544283651978;1.304;0.00760449749090561
16:56.3;0.0754213653055627;-0.09414455782183676;-1.1424895758659146;1.166;0.008112259900230902
16:56.3;0.09173230288796169;-0.08299310800620112;-1.070720863468004;1.038;0.008151557386658627
16:56.3;0.10587267594277755;-0.07539361673150335;-0.9999760205090488;0.917;0.007981932545099338
16:56.3;0.11730794004543475;-0.07104208971005432;-0.9337328266623195;0.82;0.007781543751700148
16:56.3;0.12567232376794416;-0.06946508269007455;-0.874995311024041;0.769;0.007638567633092598
16:56.4;0.13078189347342634;-0.07008877302466855;-0.8260484703257345;0.752;0.007571843157152786
16:56.4;0.1326368910904205;-0.0723103465652887;-0.7883168541991562;0.752;0.007560762369749957
16:56.4;0.13141194808683646;-0.07556337075588872;-0.7623288452677858;0.752;0.007569871883749278
16:56.4;0.1274338268698859;-0.07937001479339892;-0.747768816822751;0.757;0.007563251408590323
16:56.4;0.12114764997593398;-0.0833768114846046;-0.7435901917997287;0.76;0.007510933718135174
16:56.4;0.11307350956609989;-0.08737412950526474;-0.7481636077386027;0.765;0.007391631597683622
16:56.4;0.10375694988724803;-0.09130075934965279;-0.7594410657179507;0.777;0.007194252283692566
16:56.4;0.09371876985835176;-0.09523494577665266;-0.7751244654754297;0.7929999999999999;0.006918219915381423
16:56.4;0.08341044199373221;-0.09937301572593862;-0.7928325029097674;0.815;0.006571588159981223
16:56.4;0.07318110233346227;-0.10399689308503358;-0.8102623535850227;0.8390000000000001;0.006166588563029415
16:56.5;0.0632612234935652;-0.1094324865752241;-0.8253418858433912;0.888;0.005713704035916434
16:56.5;0.05376595176800033;-0.11600210596742304;-0.8363648356315633;0.888;0.005216377064950862
16:56.5;0.04471675736475056;-0.12397546889744439;-0.8420979189569011;0.888;0.004668406411142099
16:56.5;0.03607522396163231;-0.13352519860452464;-0.8418499440624305;0.8859999999999999;0.004055150303834091
16:56.5;0.02778021202755725;-0.1446932513442242;-0.8354992624721862;0.875;0.0033583805231118796
16:56.5;0.019779957367487687;-0.15737370679705323;-0.8234818805993043;0.862;0.0025633716285411072
16:56.5;0.012053096482501965;-0.1713148260061558;-0.8067446228578542;0.847;0.0016658260986219561
16:56.5;0.004616264791577923;-0.1861400405298326;-0.7866675284420452;0.8240000000000001;0.0006759611566144676
16:56.5;-0.00248021601419929;-0.20138463214668093;-0.7649594189519014;0.8009999999999999;0.0003820799337768568
16:56.5;-0.00916410613831694;-0.21654298196364324;-0.7435310697409359;0.78;0.001475480059514897
16:56.6;-0.01535500428241122;-0.23112018606039827;-0.7243522295551212;0.727;0.0025706184577836493
16:56.6;-0.020975844141218006;-0.24468052341973937;-0.709302823514481;0.727;0.0036404119967714875
16:56.6;-0.025960473973764046;-0.2568843456071396;-0.7000332946121871;0.727;0.004668409594301598
16:56.6;-0.030258339195589585;-0.2675076177983987;-0.6978482143325859;0.7190000000000001;0.005648618089022196
16:56.6;-0.033838914016972296;-0.27644462883674803;-0.7036201662047652;0.7170000000000001;0.00658207537415204
16:56.6;-0.03669800764765452;-0.283699116496598;-0.7177359124662223;0.726;0.0074724866389097805
16:56.6;-0.03886549790071542;-0.2893693601546917;-0.7400782441055694;0.757;0.008323278323223111
16:56.6;-0.04041157248399174;-0.2936306818089428;-0.7700487040763577;0.802;0.009137457664062019
16:56.6;-0.04144815480901661;-0.2967162046662733;-0.8066331104765538;0.856;0.00992024759077581
16:56.6;-0.04212325853370826;-0.2988949233833104;-0.8485044960652042;0.914;0.01068303487746259
16:56.7;-0.042607043502400084;-0.3004464647879589;-0.8941499456895021;1.0090000000000001;0.01144613469735767
16:56.7;-0.04306967219936956;-0.301633503349444;-0.9420010813502565;1.0090000000000001;0.01223777730711686
16:56.7;-0.0436536047518313;-0.30267357624829144;-0.9905466104487799;1.053;0.013087886990231523
16:56.7;-0.04444593344389191;-0.303711933020459;-1.0384139352111663;1.095;0.01401730086708709
16:56.7;-0.045458446502672785;-0.30479737864869033;-1.0844202007409933;1.14;0.015025309159127923
16:56.7;-0.04662330348834847;-0.30586397132729753;-1.1275996746832737;1.18;0.016080009728148627
16:56.7;-0.04780874598825837;-0.30672174129401103;-1.167212590017946;1.2109999999999999;0.017115984198466126
16:56.7;-0.04885157162443477;-0.30705881749894803;-1.2027383107124703;1.244;0.01804144247726311
16:56.7;-0.04959441504181317;-0.30645654341284023;-1.2338559758554617;1.2790000000000001;0.01875280077405459
16:56.7;-0.04991140988733911;-0.30441946226955535;-1.260415558593607;1.321;0.01915075974352992
16:56.8;-0.04970943686195759;-0.3004225213399937;-1.2823993224675303;1.329;0.019151139060567302
16:56.8;-0.04890529749481995;-0.29397508856475896;-1.299870847285129;1.329;0.018688164090298904
16:56.8;-0.04739643980323799;-0.28469409662784645;-1.3129112827617706;1.329;0.017715750818211286
16:56.8;-0.04505053709036124;-0.2723724623081676;-1.3215504270767113;1.281;0.01621611849991636
16:56.8;-0.041729019334961;-0.25703024355361365;-1.3257091625413258;1.278;0.01421905271180555
16:56.8;-0.03733982700910817;-0.23894218327447225;-1.3251755280986155;1.317;0.011823295292148258
16:56.8;-0.03189897309904953;-0.21863898314968763;-1.319633037935502;1.361;0.009203594610109401
16:56.8;-0.025575777386650587;-0.1968798653113345;-1.30874188278903;1.38;0.006589980777769872
16:56.8;-0.018702725221442718;-0.17459553011326814;-1.2922498653127839;1.37;0.004219728507430819
16:56.8;-0.011743226284305271;-0.15280509906523973;-1.2700971445050242;1.3430000000000002;0.0022790938852772806
16:56.9;-0.0052233493205074795;-0.1325157900489888;-1.2424845759651324;1.224;0.0008600183292710069
16:56.9;0.0003559617450339353;-0.11461961962348767;-1.2098948099901257;1.224;4.9363950004304554e-05
16:56.9;0.004603571775317658;-0.09980602110109181;-1.1730756370084419;1.224;0.0005389862376862982
16:56.9;0.00729934633385568;-0.08850656339635496;-1.1330002263492287;1.16;0.0007319635331335814
16:56.9;0.008421938273575494;-0.08087687081744122;-1.0908080734643752;1.092;0.0007429930261956911
16:56.9;0.008144236381265008;-0.07681076206826523;-1.0477236495085802;1.031;0.0006554192478527217
16:56.9;0.006802545147428431;-0.07597869119787821;-1.0049575506457293;0.977;0.0005194107796175608
16:56.9;0.004845648784474127;-0.07788334029151787;-0.963605227641147;0.929;0.00036366009670064307
16:56.9;0.0027697387098415687;-0.08192602754261875;-0.9245602106679776;0.889;0.00020979536887113604
16:56.9;0.0010475064217523272;-0.08747827402915391;-0.8884544191060124;0.861;8.141268004751384e-05
16:57.0;6.287410742830382e-05;-0.09395284641517848;-0.8556327963433111;0.8220000000000001;5.0543952171099366e-06
16:57.0;6.268255554911815e-05;-0.10086672050312827;-0.8261651923720573;0.8220000000000001;5.223498670498902e-06
16:57.0;0.0011319291609366861;-0.10788630299888001;-0.7998943722297919;0.8220000000000001;9.768282271748189e-05
16:57.0;0.003193527430980584;-0.11484690354594783;-0.7765127992902819;0.81;0.0002847990655079897
16:57.0;0.00603025263469775;-0.1217444633559235;-0.7556534402233703;0.7959999999999999;0.0005547628755941366
16:57.0;0.009324184966898099;-0.12870366460355015;-0.7369769108306595;0.774;0.0008844141346258946
16:57.0;0.01270594630836611;-0.13592990175600211;-0.7202412445302241;0.754;0.0012439416418361473
16:57.0;0.015804304249515788;-0.14365425280475194;-0.7053474882179136;0.738;0.0016013895620275275
16:57.0;0.018288481891332517;-0.1520815945157221;-0.6923597147553803;0.726;0.0019256887987883198
