Time;AccX;AccY;AccZ;Acc-old;Acc-trns
23:15.7;0.016784161147686095;-0.2807824327797163;-0.9645223843176807;1.005;0.004545502324962191
23:15.7;0.022518792322005488;-0.2845317615522857;-0.9576304102936313;1.005;0.006135836481788696
23:15.7;0.028112103463534172;-0.28814707335035705;-0.9510428793877598;1.005;0.007703847083206279
23:15.7;0.03349393893987277;-0.291517666213283;-0.9449681879351834;1.0;0.009226740176495633
23:15.7;0.03860112639840109;-0.29452621309776034;-0.9396119250945636;0.9940000000000001;0.010682488924151329
23:15.7;0.04338395468699457;-0.2970564860493003;-0.9351639365585017;0.986;0.012051911326735028
23:15.7;0.04781649718187034;-0.2990069491987867;-0.9317745787082428;0.968;0.013322014374533769
23:15.8;0.05190597511960601;-0.3003067022971046;-0.9295245522435661;0.953;0.014489161219644695
23:15.8;0.05569678762114962;-0.3009286324618221;-0.9283974111321679;0.9490000000000001;0.015560644457756933
23:15.8;0.05926731527147527;-0.30089618406953667;-0.928266075560998;0.956;0.01655405576455432
23:15.8;0.06272020478979158;-0.30028333578056954;-0.9289018900518936;0.988;0.017494782434434537
23:15.8;0.06616836473464659;-0.2992092832726136;-0.9300069035316411;0.988;0.018412452435868382
23:15.8;0.06971910764892493;-0.2978291917899533;-0.9312612888426482;0.988;0.019337068387292995
23:15.8;0.0734585258261252;-0.29632146665347514;-0.9323743454411346;0.993;0.02029530762323912
23:15.8;0.0774379578957835;-0.2948716925830197;-0.9331305287800028;0.998;0.021307346708327752
23:15.8;0.08166401779404406;-0.29365431601277675;-0.9334258474967918;1.0;0.022384477116968816
23:15.8;0.08609312804975255;-0.2928147097815905;-0.9332907974720744;1.001;0.023527639716392712
23:15.9;0.09063132989971241;-0.29245522537076735;-0.9328956600980557;0.998;0.024726964816371873
23:15.9;0.09514003916164422;-0.29262848307555367;-0.9325350931706834;0.992;0.025962416097118888
23:15.9;0.09944790607740249;-0.29333952764516513;-0.9325917357033758;0.981;0.027205567787051348
23:15.9;0.10336819400818889;-0.2945560370986361;-0.9334824483376248;0.973;0.028422417429220644
23:15.9;0.10671996481153011;-0.2962232451621772;-0.9355949032796094;0.973;0.029576900208853778
23:15.9;0.10934992932560321;-0.2982787172525797;-0.93922470396681;0.973;0.030634463609800138
23:15.9;0.11115160797473157;-0.3006627082993232;-0.9445225514173946;0.978;0.03156513467111549
23:15.9;0.1120799763622769;-0.3033222684844671;-0.9514579889007084;0.986;0.03234610135267148
23:15.9;0.11216097043420918;-0.30620981883761067;-0.9598031522391594;0.996;0.03296423812472328
23:15.9;0.11149486078238921;-0.3092785175448237;-0.9691377319031772;1.005;0.03341874273811987
23:16.0;0.1102520705951445;-0.31247736700701617;-0.9788747994425153;1.022;0.0337234865963307
23:16.0;0.10866096281864152;-0.31574840586031355;-0.9883059547508652;1.037;0.03390830864217721
23:16.0;0.1069889131545686;-0.31902680550936324;-0.9966628386781904;1.055;0.03401842609315485
23:16.0;0.10551919780116685;-0.3222436335159298;-1.0031898158151773;1.084;0.03411135266047728
23:16.0;0.1045264700077851;-0.32533057768544427;-1.0072197856406757;1.084;0.03425117042423236
23:16.0;0.10425351373020544;-0.32822506114306516;-1.0082432473465341;1.084;0.034500688433348116
23:16.0;0.10489165564226452;-0.3308737539411457;-1.005962133716984;1.08;0.03491281705133983
23:16.0;0.10656644388097254;-0.33323374875651146;-1.0003241850241893;1.078;0.03552304789412986
23:16.0;0.1093293598363528;-0.3352722642104536;-0.9915372252786074;1.0759999999999998;0.03634489814625378
23:16.0;0.11315570139975165;-0.3369658459340737;-0.9800633672222514;1.064;0.03736943067880074
23:16.1;0.11794828456378298;-0.338299104159348;-0.9665922948217588;1.047;0.03856877146781717
23:16.1;0.12354646902946645;-0.3392625193604388;-0.9519929364817339;1.025;0.03990248533150151
23:16.1;0.12974000785611045;-0.33984935737164074;-0.9372450791670225;1.004;0.041325064667606756
23:16.1;0.1362864453128787;-0.3400527174836913;-0.9233561603891882;0.96;0.04279254982855959
23:16.1;0.14292913299550944;-0.33986406009334447;-0.9112729572811026;0.96;0.04426642843349127
23:16.1;0.1494119644221847;-0.3392736907920358;-0.9018012822942242;0.96;0.045713703545195064
23:16.1;0.15548837853450131;-0.3382725475113698;-0.8955449189463113;0.9520000000000001;0.04710337902116026
23:16.1;0.16092519957484053;-0.33685452480357264;-0.8928678329477264;0.9520000000000001;0.04840092023510199
23:16.1;0.165503525203967;-0.335019379605158;-0.8938777065802177;0.958;0.049562737383060954
23:16.1;0.1690181895373789;-0.33277690785254616;-0.8984275264290468;0.9670000000000001;0.050532371109449276
23:16.2;0.17127615539033353;-0.3301528858258238;-0.9061321911876667;0.9740000000000001;0.051239344236585715
23:16.2;0.17209415375695708;-0.3271962093673988;-0.9163969787045555;0.977;0.051600989460552485
23:16.2;0.17129696989575122;-0.3239851914529497;-0.9284557576139933;0.982;0.051527142003664435
23:16.2;0.16871892855455395;-0.3206302158019172;-0.9414189910743651;1.0190000000000001;0.05092736557353561
23:16.2;0.16421134030680823;-0.3172709084204385;-0.9543316233561894;1.0190000000000001;0.049720182385705296
23:16.2;0.15765766313464843;-0.31406793378193476;-0.9662379881401948;1.0190000000000001;0.04784348317868488
23:16.2;0.14899606432413473;-0.3111903768002842;-0.9762497379966334;1.037;0.04526493339248054
23:16.2;0.13824643364015476;-0.3087990668116814;-0.9836155061155508;1.058;0.04199090959687906
23:16.2;0.12553674753791802;-0.30702604761312013;-0.987791514168604;1.074;0.038072499129530535
23:16.2;0.11112278447038997;-0.30595168236577447;-0.9885071832703737;1.078;0.03360746774330284
23:16.3;0.09539548299346541;-0.3055827088065913;-0.9858142886451969;1.077;0.02873767944891947
23:16.3;0.07887161635047583;-0.30583614044703605;-0.9801073583206633;1.069;0.023641944595684642
23:16.3;0.06216593905024165;-0.3065345921976622;-0.9721061050260736;1.056;0.01852446441216091
23:16.3;0.04594633550898264;-0.30741706140573766;-0.9627960296571022;0.9940000000000001;0.013599192991744414
23:16.3;0.03087800813077771;-0.3081647670345502;-0.9533318468084117;0.9940000000000001;0.009071442708564522
23:16.3;0.017567001089493155;-0.30843643466353793;-0.9449181305576652;0.9940000000000001;0.005119852915206141
23:16.3;0.006512613674460679;-0.3079054119696087;-0.9386845952093202;0.972;0.0018823151162031884
23:16.3;-0.0019279319990523525;-0.3062935617507904;-0.9355674342470034;0.956;0.0005524648808704782
23:16.3;-0.007563474452776116;-0.3034009081807004;-0.9362026740742468;0.9470000000000001;0.002148365146199108
23:16.3;-0.010381525727141296;-0.29913209429106413;-0.9408386734193097;0.9440000000000001;0.002921725137035291
23:16.4;-0.010548253465124642;-0.2935199121080963;-0.9492778555861181;0.9470000000000001;0.0029390804609609393
23:16.4;-0.008395659733540936;-0.2867430729817912;-0.9608580432522712;0.953;0.0023131670318213365
23:16.4;-0.0043970644284990375;-0.27913177069395334;-0.9744821887569024;0.971;0.00119604082928379
23:16.4;0.0008676178844988423;-0.2711536251012897;-0.988701499100768;1.044;0.00023259967485881808
23:16.4;0.006754810142538011;-0.26337713261110607;-1.0018475587036368;1.044;0.001782349449129549
23:16.4;0.012605487011068773;-0.2564178153671414;-1.0121963689018028;1.044;0.0032716934159025385
23:16.4;0.01779585529621649;-0.2508764468782556;-1.0181425493279055;1.072;0.0045455594630623465
23:16.4;0.021788728607894516;-0.24727639651443298;-1.0183684308128242;1.1;0.005486804429739649
23:16.4;0.024182677656250092;-0.2460051238080295;-1.0119972308069518;1.1159999999999999;0.006020434888062673
23:16.4;0.024752278369404253;-0.24726715961857804;-0.9987142588924033;1.113;0.006112556283744135
23:16.5;0.023470897810424284;-0.251057598126457;-0.9788342855230409;1.088;0.005767827257941148
23:16.5;0.020510392674586327;-0.2571622585124032;-0.9532961295181533;1.044;0.005028159389542442
23:16.5;0.01621767573015908;-0.2651853141141283;-0.9235764595817917;0.9890000000000001;0.003972015520016948
23:16.5;0.011072759180828253;-0.2746000263253895;-0.8915302248677612;0.85;0.002710768937740732
23:16.5;0.005635499986920815;-0.28481325835265525;-0.8591842597184043;0.85;0.00137904668153244
23:16.5;0.0004891560866606396;-0.2952305551154318;-0.828526851530588;0.85;0.00011965073009009904
23:16.5;-0.003812791106969407;-0.3053099629714772;-0.8013333660010505;0.825;0.0009328186381929662
23:16.5;-0.006793858354163555;-0.31460007056157946;-0.7790448717259848;0.8079999999999999;0.0016650902459225162
23:16.5;-0.008095405920252761;-0.32276434115011426;-0.7626958757685229;0.804;0.0019928544285549928
23:16.5;-0.007509527065066927;-0.32959512589257467;-0.752882833750806;0.8079999999999999;0.001863462950762918
23:16.6;-0.005000334540156028;-0.3350192457829697;-0.7497674169451078;0.8140000000000001;0.0012560166046637427
23:16.6;-0.0007097381536417265;-0.33909567291040615;-0.7531083060148094;0.821;0.0001812499259249902
23:16.6;0.005054514833870507;-0.34200486316282663;-0.7623144565933286;0.83;0.0013177891056895847
23:16.6;0.011847872195004404;-0.3440288065568361;-0.7765135327218592;0.8740000000000001;0.0031650764053989043
23:16.6;0.019130617321416455;-0.34552200537038646;-0.7946289452513785;0.8740000000000001;0.005252536472224198
23:16.6;0.026314510043501528;-0.3468764643448319;-0.815457037604151;0.8740000000000001;0.007443397413285903
23:16.6;0.03280750423207724;-0.34848598341269327;-0.8377378516250015;0.897;0.009577819474106073
23:16.6;0.03805424363738157;-0.3507147880488521;-0.8602203174622525;0.919;0.011480660350641972
23:16.6;0.04157386466686196;-0.35387409987096446;-0.8817276816285929;0.961;0.012971901768116544
23:16.6;0.0429961061384972;-0.35820852939486364;-0.9012258996387102;0.996;0.013880295536107451
23:16.7;0.04209356553902911;-0.363891145152907;-0.9178907500773701;1.014;0.014059769321583322
23:16.7;0.03880618472263271;-0.3710230338659508;-0.9311648398809523;1.025;0.013406900552435416
23:16.7;0.03325490884212895;-0.37963352672130485;-0.9407958815977197;1.036;0.011877245374216567
23:16.7;0.02574274283981743;-0.38968032678586123;-0.9468514791705226;1.041;0.009498284220893343
23:16.7;0.01674286491788364;-0.40104945625944904;-0.949710526579965;1.041;0.006377037295908135
23:16.7;0.006876466776302613;-0.41355208794769116;-0.950035284784171;1.041;0.0027016886754552176
23:16.7;-0.0031154696651061594;-0.42691444833185344;-0.9487298738766812;1.048;0.0012618477454088305
23:16.7;-0.012405362124322613;-0.44076076759977806;-0.9468895575374777;1.053;0.005177399817901585
23:16.7;-0.02012012508709906;-0.4545930467784833;-0.9457422022469439;1.053;0.008650201701655945
23:16.7;-0.025393666990622774;-0.46777256591211325;-0.9465810323394357;1.053;0.011243925654598627
23:16.8;-0.027431991564975604;-0.47950943265104334;-0.9506874235194789;1.052;0.012505246075566516
23:16.8;-0.02558864515154021;-0.48886871927903197;-0.9592439356044105;1.057;0.011999650677363855
23:16.8;-0.019444279126543722;-0.4948021177007022;-0.9732403178626804;1.067;0.009363613700871612
23:16.8;-0.00888068792836676;-0.49621132689117164;-0.9933770562138977;1.122;0.00437751262789808
23:16.8;0.005862283669711074;-0.4920438111482326;-1.0199700926367734;1.122;0.002942104139053061
23:16.8;0.024159281037665088;-0.48141438046305673;-1.052858109906116;1.122;0.012245398184261359
23:16.8;0.04501374487256504;-0.4637404237267356;-1.0913164672296285;1.141;0.022780896351018223
23:16.8;0.06712409548366151;-0.4388749675703596;-1.133991665808211;1.165;0.03340635713154538
23:16.8;0.08900386367374043;-0.4072162705326155;-1.1788797122958552;1.196;0.04272710577779516
23:16.8;0.10914376508218897;-0.36976670730902256;-1.2233734190162684;1.226;0.049372574914042414
23:16.9;0.12618950721811895;-0.3281155023225966;-1.2643973570625455;1.273;0.05235203566887293
23:16.9;0.13910146733873108;-0.28433331104024084;-1.2986371447935967;1.344;0.051362632480026496
23:16.9;0.1472641611435559;-0.24078589885182453;-1.322852553720803;1.422;0.046907205183630604
23:16.9;0.15052424341582588;-0.19989174122000544;-1.3342427201333795;1.494;0.04014543294931724
23:16.9;0.14915448761292324;-0.16386303605924485;-1.3308115758298846;1.494;0.03252624220174192
23:16.9;0.14376235051642017;-0.134478528442285;-1.3116716901009513;1.494;0.02535848233917496
23:16.9;0.13517214738902208;-0.11292818552052483;-1.2772322306080497;1.4469999999999998;0.01949662473714947
23:16.9;0.12430366596925566;-0.09974386116322533;-1.2292376876201905;1.36;0.015240737397555083
23:16.9;0.11205958023873924;-0.09480693122064174;-1.17064776590338;1.2409999999999999;0.012436991033177964
23:16.9;0.0992304889429573;-0.09741574593358518;-1.1053711707323848;1.114;0.010685194333697218
23:17.0;0.08642666558783979;-0.1063956342452762;-1.037886948020657;0.992;0.00954380629673697
23:17.0;0.07404451583265131;-0.12023592114590961;-0.972802763330561;0.883;0.008660678720929424
23:17.0;0.06227238076534614;-0.13724179030641415;-0.9144056718221655;0.8059999999999999;0.007814851965628332
23:17.0;0.05113367570586818;-0.1556911890331979;-0.8662580548529836;0.736;0.006896334749949209
23:17.0;0.0405559683728673;-0.17398473544724596;-0.8308830440922373;0.736;0.005862809989948116
23:17.0;0.03044717175409344;-0.19077240765725748;-0.8095713185225335;0.736;0.0047023790242242845
23:17.0;0.020759127580556386;-0.20504298892881279;-0.8023233927696054;0.757;0.0034151004061820007
23:17.0;0.01152467845717891;-0.21617214954571493;-0.8079216072612001;0.795;0.0020127868270805034
23:17.0;0.0028640637396677715;-0.22393288225514096;-0.8241117705642936;0.838;0.0005285507166564234
23:17.0;-0.005033604846376526;-0.22847238745548057;-0.8478680569761003;0.892;0.0009750819400939019
23:17.1;-0.011942049985350341;-0.23025812484148703;-0.8757121324136053;0.9470000000000001;0.002407992970820073
23:17.1;-0.017630761086262756;-0.22999762699651147;-0.9040556740613153;1.003;0.0036659757838001946
23:17.1;-0.021890816693098187;-0.22854048912621447;-0.9295344514160058;1.046;0.004650403186923565
23:17.1;-0.024550066937938455;-0.2267741074806323;-0.9493028347205902;1.069;0.0052850722006510965
23:17.1;-0.02547864265873781;-0.225526061670443;-0.961261610419614;1.069;0.005523503355139928
23:17.1;-0.024588744819405806;-0.22548480962875167;-0.9642004723449762;1.069;0.005345901957160531
23:17.1;-0.021833212645920485;-0.22714647353157483;-0.9578475815676967;1.055;0.004750289199123431
23:17.1;-0.01720593614668968;-0.23079012460932838;-0.942827929231307;1.0190000000000001;0.0037439321327527248
23:17.1;-0.01074556201176;-0.2364788180837329;-0.9205386566402596;0.966;0.002339178759057321
23:17.1;-0.0025430832553810312;-0.24408023345869176;-0.8929559968416692;0.904;0.0005542723912476812
23:17.2;0.007247116780362948;-0.2533003920010821;-0.8623967356281675;0.847;0.0015830995500074002
23:17.2;0.018395038724150044;-0.26372614378182546;-0.8312641778844244;0.8029999999999999;0.0040326725270564395
23:17.2;0.030585660063488233;-0.2748744176646056;-0.8018106161263625;0.7759999999999999;0.006740994639031131
23:17.2;0.0434165997819341;-0.2862461480742629;-0.7759440175867443;0.769;0.009643303793082906
23:17.2;0.056405417153899066;-0.2973802011705112;-0.7550975941619813;0.769;0.012665897027005135
23:17.2;0.06900708100796234;-0.3079005151582725;-0.7401694694169825;0.769;0.01572661445624068
23:17.2;0.08064224458519823;-0.31755164340016373;-0.7315285056546234;0.784;0.0187330385166708
23:17.2;0.09073732782815333;-0.32622214709742814;-0.7290747040014586;0.8079999999999999;0.02158099466319235
23:17.2;0.09877364731093018;-0.33395529005845714;-0.7323400334099698;0.8270000000000001;0.024156955187662248
23:17.2;0.1043373645112788;-0.34094189632952726;-0.740615992148967;0.846;0.02634591707245708
23:17.3;0.1071614402888008;-0.34748948084803377;-0.7530941206381752;0.873;0.02804332217416746
23:17.3;0.10715473279725744;-0.35396889566673034;-0.7690039264702091;0.9;0.029167890160347824
23:17.3;0.10441608571696709;-0.36074810979699057;-0.78773110147909;0.9209999999999999;0.029672180733090116
23:17.3;0.09923101572818685;-0.3681252789822043;-0.8088998503941298;0.948;0.029548662877484345
23:17.3;0.09204953544282297;-0.37627022268435245;-0.8324071555148874;0.948;0.028830837368129525
23:17.3;0.08344792437505232;-0.38517932011932643;-0.8584033876505542;0.948;0.02759115773111778
23:17.3;0.07408010416145464;-0.3946472154441913;-0.887222604070886;0.97;0.025938402498501743
23:17.3;0.06462236670939378;-0.40425933809087566;-0.9192746550061741;0.99;0.024015310522260833
23:17.3;0.055713321566354446;-0.4134093622017701;-0.9549152086567569;1.014;0.02199399739294397
23:17.3;0.04789321749359634;-0.42134388243501353;-0.9943086371779338;1.0490000000000002;0.02006466526416514
23:17.4;0.041550699230744254;-0.4272325792432351;-1.0372972255826283;1.065;0.018413905753357877
23:17.4;0.03688640992229382;-0.4302564584588762;-1.0832920844596816;1.078;0.01719251279492598
23:17.4;0.03389930749274539;-0.42970300443370085;-1.1312060567143685;1.11;0.016477864921052212
23:17.4;0.03239414073238129;-0.4250587545015355;-1.1794504066281675;1.304;0.016240339894986223
23:17.4;0.032003131600543924;-0.416092308328671;-1.2260042175974295;1.304;0.016325787123747576
23:17.4;0.032216428717713276;-0.402916878441798;-1.2685415341522261;1.304;0.01646635779622863
23:17.4;0.03242106969958595;-0.3860151181524793;-1.304591718782795;1.345;0.016326995432339148
23:17.4;0.031950756669339025;-0.36621125951000116;-1.3317230264255675;1.379;0.015582127361641782
23:17.4;0.03014781561638826;-0.3445889448464182;-1.347752017152903;1.423;0.0140012619595762
23:17.4;0.026435695582509855;-0.32236927322324793;-1.3509730450618054;1.4569999999999999;0.011513067906794449
23:17.5;0.020394401833461178;-0.30077309026503796;-1.3403847650566287;1.483;0.008222037115599809
23:17.5;0.011823531976725355;-0.2808912187881377;-1.315879128064602;1.492;0.004370200789472475
23:17.5;0.0007741611639029831;-0.26357986868069694;-1.2783540041833268;1.47;0.0002608523504618786
23:17.5;-0.012462514069938596;-0.2493910285523079;-1.229715043419786;1.213;0.0038220025625447583
23:17.5;-0.02740535662810386;-0.23854165665768892;-1.1727550883167364;1.213;0.007666674322166122
23:17.5;-0.04345105828160707;-0.2309211532914152;-1.1109351876600502;1.213;0.011146866480510297
23:17.5;-0.05993532667477054;-0.22613330095217954;-1.048106575104534;1.0959999999999999;0.014205379633486974
23:17.5;-0.07617623608686862;-0.2235664024829746;-0.9881948510045224;0.9790000000000001;0.016829400091671796
23:17.5;-0.09150279754273735;-0.22248383626512616;-0.9348532754924161;0.88;0.019031643351701488
23:17.5;-0.10527679305685596;-0.2221257508655248;-0.8911071511586253;0.799;0.020838261551738207
23:17.6;-0.11691429073504443;-0.22181017904503017;-0.8590337613784083;0.742;0.02227713334097193
23:17.6;-0.12591005363095217;-0.22101946532688874;-0.8395293359096327;0.716;0.023362903185674567
23:17.6;-0.13186496548916424;-0.2194573950393544;-0.8322078795628441;0.7170000000000001;0.024083048969907154
23:17.6;-0.13451416663423113;-0.2170654635590288;-0.8354606441792344;0.892;0.024394097310083174
23:17.6;-0.13375128895062768;-0.2139959394482763;-0.846674458521511;0.892;0.024233713399541053
23:17.6;-0.12964164965636832;-0.21055321231399135;-0.8625678214547905;0.892;0.023545053025438974
23:17.6;-0.1224165044009791;-0.20712345072120053;-0.8795840879373413;0.961;0.022302143771639322
23:17.6;-0.11244389597032152;-0.2041098928011058;-0.8942929820301315;1.056;0.020524839132721132
23:17.6;-0.10017961474963435;-0.20188252190564654;-0.9037650008840648;1.107;0.018278207252611346
23:17.6;-0.08611141574422802;-0.2007423837863179;-0.9058772370590117;1.063;0.015659184940061504
23:17.7;-0.07071355660445511;-0.2008970953987123;-0.8995050032775145;1.041;0.012778501317670632
23:17.7;-0.05442149080914044;-0.20244764959480063;-0.8845720219758254;0.9840000000000001;0.00974577481893041
23:17.7;-0.037624617936570924;-0.2053895283466974;-0.861962033832091;0.9179999999999999;0.00666098619151916
23:17.7;-0.020670071647237623;-0.20962748929926653;-0.8333189376310698;0.759;0.00361078364240826
23:17.7;-0.0038737573537640435;-0.21499948227531085;-0.8007802996220267;0.759;0.0006669345375014136
23:17.7;0.012462310839588524;-0.22130505447477658;-0.7667005055260266;0.759;0.0021145388173876246
23:17.7;0.028030110865920926;-0.22833491016220425;-0.7334120054639894;0.7190000000000001;0.0046940222755597295
23:17.7;0.042502121353921354;-0.2358992022763624;-0.7030453741251655;0.733;0.007048885146080993
23:17.7;0.05553405040610722;-0.2438500860536696;-0.6774048819572525;0.685;0.009173405375556724
23:17.7;0.06678679418073853;-0.25208994797205564;-0.6578908208502224;0.665;0.011076433720741762
23:17.8;0.07596100994360128;-0.2605589025993305;-0.6454644200066096;0.6729999999999999;0.012775236665524482
23:17.8;0.08283376116553812;-0.26920623044066155;-0.6406537386562073;0.6809999999999999;0.014286171298467465
23:17.8;0.08728986633415672;-0.27796062964824547;-0.643595409939562;0.6990000000000001;0.015615649530260008
23:17.8;0.08934450729175467;-0.28671467678997475;-0.6541008312341963;0.757;0.016755696452714623
23:17.8;0.08915507011005666;-0.29532982416538134;-0.6717316534249622;0.757;0.01768679598643602
23:17.8;0.08702122493286937;-0.30365596934912503;-0.6958705053666372;0.757;0.0183880401972079
23:17.8;0.08337365606091102;-0.31155366000595175;-0.725779662686753;0.8009999999999999;0.0188523936030099
23:17.8;0.07875272294627529;-0.318910400361058;-0.7606496727867842;0.846;0.019103763999865776
23:17.8;0.07377881781149385;-0.3256478921918918;-0.7996432727660404;0.88;0.01921216250823856
23:17.8;0.06911589018937081;-0.3317194074361312;-0.841935308434149;0.9209999999999999;0.019303119971384765
23:17.9;0.0654281320911756;-0.3370979087395499;-0.8867449757338353;0.9620000000000001;0.019557769190829986
23:17.9;0.06332955574880213;-0.34175666729285326;-0.9333575488688846;0.9990000000000001;0.02020093549030781
23:17.9;0.06332941359261339;-0.3456443204150861;-0.9811356025951663;1.047;0.021476520799672896
23:17.9;0.06578043489534324;-0.3486568416869782;-1.029520322976413;1.141;0.023611841339703264
23:17.9;0.07083713313558104;-0.3506107074010227;-1.0780198223292832;1.141;0.02677397774539429
23:17.9;0.07842848462561434;-0.3512241342007392;-1.1261772097697265;1.141;0.031021651078251944
23:17.9;0.08824748771077488;-0.3501145615654212;-1.1735167381395997;1.183;0.03625783035928582
23:17.9;0.09976060343630198;-0.34681840150316934;-1.2194815623939839;1.234;0.04219261455466779
23:17.9;0.11224003326210022;-0.3408345888349201;-1.2633847918542842;1.2919999999999998;0.04833114601954974
23:17.9;0.12481964198682785;-0.3316894103208594;-1.3043875454193439;1.347;0.054003409799864566
23:18.0;0.13657215123662514;-0.3190168312320874;-1.3415038284229182;1.393;0.05844773201778978
23:18.0;0.14660206306480492;-0.3026440150067568;-1.3736240632588592;1.421;0.06094527795214125
23:18.0;0.15414545279060768;-0.28266459467234845;-1.3995496826015863;1.432;0.0609804257197168
23:18.0;0.1586642289071265;-0.25947731947243874;-1.4180373265230093;1.4380000000000002;0.05838026890113223
23:18.0;0.15992021627127076;-0.23377605995782758;-1.4278568536353822;1.4380000000000002;0.053381168199391205
23:18.0;0.15801556267533956;-0.20649856487942236;-1.4278679851167695;1.4380000000000002;0.04659131367937767
23:18.0;0.15339037987011803;-0.17875429805878185;-1.417117650928882;1.44;0.03885621767345444
23:18.0;0.14677396067701615;-0.15174360963924613;-1.394956773495438;1.443;0.031068492037712434
23:18.0;0.1390915556210139;-0.1266691024630245;-1.3611691223969828;1.4369999999999998;0.02398189771735037
23:18.0;0.13133608421830786;-0.10464171813058193;-1.3160947230524724;1.4180000000000001;0.018087397093801298
23:18.1;0.12442336811939406;-0.08659128156603657;-1.2607209005801165;1.3719999999999999;0.013582980384439322
23:18.1;0.11905711117884996;-0.07319305154522253;-1.1967112489764689;1.3019999999999998;0.010428325249903147
23:18.1;0.11563175756822398;-0.06481869127731732;-1.126348545783897;1.212;0.008442094079547059
23:18.1;0.1141946531492301;-0.061516404358062486;-1.0523831072332934;0.915;0.0073928276392317555
23:18.1;0.11447249920901707;-0.06302145345551889;-0.9778070766995058;0.915;0.007054118576893716
23:18.1;0.1159467284451721;-0.06879367525371811;-0.9056068692192298;0.915;0.007223484065567505
23:18.1;0.11795206846138871;-0.07807539921475389;-0.8385475698341143;0.825;0.007722314405714041
23:18.1;0.11977808739895626;-0.08996412006917873;-0.7790079909315091;0.763;0.008394379962290565
23:18.1;0.12076345482754158;-0.10349584998745523;-0.7288554791281229;0.715;0.0091096121626098
23:18.1;0.12037619878193542;-0.1177333680523078;-0.689351376947225;0.665;0.009769691290539997
23:18.2;0.11827347208464595;-0.1318507266170829;-0.6610911484737704;0.632;0.010309348387298606
23:18.2;0.11433645901757476;-0.1452042752859231;-0.643988878626654;0.629;0.01069159524111422
23:18.2;0.10867752046020883;-0.157380768713951;-0.6373157146919916;0.64;0.010900489746218213
23:18.2;0.1016158330977919;-0.16821476281383987;-0.639796760007565;0.7070000000000001;0.01093622724935152
23:18.2;0.09362169843567926;-0.1777723157486145;-0.6497577946459694;0.7070000000000001;0.010814143880356005
23:18.2;0.08524144789937506;-0.18630577948199312;-0.6652974250139704;0.7070000000000001;0.010565571371750722
23:18.2;0.07702246740899168;-0.19419071661213513;-0.6844561757297707;0.741;0.010237443971059766
23:18.2;0.06945251283496644;-0.20185697231358168;-0.7053649577994491;0.774;0.009888845658473764
23:18.2;0.06291808713456892;-0.20972304708033218;-0.7263663974808802;0.7959999999999999;0.009584675513346142
23:18.2;0.057682209073388904;-0.2181395240978081;-0.7461042251993191;0.8059999999999999;0.009388057590263092
23:18.3;0.053879723501285975;-0.22734535653762483;-0.7635756362681183;0.8140000000000001;0.00935327082069371
23:18.3;0.05152542304347163;-0.23744079927385775;-0.7781458280904315;0.823;0.009520020971935921
23:18.3;0.05052872150252895;-0.24838127574435548;-0.7895296906616177;0.8320000000000001;0.00990890419891639
23:18.3;0.05070983565708053;-0.2599945623065444;-0.797748724779728;0.846;0.010517743774742312
23:18.3;0.05181534699534705;-0.2720175514815276;-0.803071780320994;0.846;0.011319042827457373
23:18.3;0.0535338816838854;-0.28414175461940555;-0.8059478532926231;0.846;0.01225944291046428
23:18.3;0.055514112789799744;-0.29605594365252746;-0.8069385051680601;0.843;0.0132622627347808
23:18.3;0.05738704262485173;-0.30748099357802927;-0.8066566360664935;0.8440000000000001;0.014233799079532023
23:18.3;0.058793092316620936;-0.3181975165240358;-0.8057179308803858;0.855;0.015073222769738376
23:18.3;0.05941250439600874;-0.3280659312862395;-0.8047105389105315;0.8690000000000001;0.015684789011336544
23:18.4;0.058995458678247105;-0.33703550975558827;-0.8041856256890015;0.871;0.015990076749423814
23:18.4;0.057386723515409285;-0.3451392787394284;-0.8046666822598473;0.887;0.015937560123869043
23:18.4;0.05453975837368391;-0.3524758361631475;-0.8066711525765136;0.8959999999999999;0.015507403432659071
23:18.4;0.05051827908349732;-0.35918317149142304;-0.8107351091506826;0.9209999999999999;0.01471104450420723
23:18.4;0.045488282420274466;-0.3654097323832632;-0.8174302094100129;0.9209999999999999;0.013587211404471094
23:18.4;0.0397062092667542;-0.37128535521105754;-0.8273627540536883;0.9209999999999999;0.012197258069092371
23:18.4;0.033506931699901175;-0.3768933072938897;-0.8411486042403223;0.9309999999999999;0.01062247736938977
23:18.4;0.027291220573688903;-0.38224564140892026;-0.8593637253570547;0.951;0.008964839511865564
23:18.4;0.021509834227221022;-0.387264510599436;-0.8824746773179865;0.9520000000000001;0.0073510100248075525
23:18.4;0.016641028301930955;-0.39177034725762894;-0.9107560148591001;0.9540000000000001;0.005937638716999462
23:18.5;0.013159632733882405;-0.3954761909003731;-0.9442056667727468;0.9620000000000001;0.00491394978331031
23:18.5;0.011498289116747244;-0.39798829914276157;-0.9824753633037031;0.995;0.004495988557306578
23:18.5;0.01200366982235834;-0.39881518260646565;-1.0248363667296223;1.03;0.004906143563773552
23:18.5;0.014892121666812651;-0.39738843229979043;-1.0701954019151625;1.202;0.006333370244696638
23:18.5;0.020210729496758582;-0.3930998927817376;-1.1171580632563265;1.202;0.008875637149793465
23:18.5;0.02781060774855428;-0.38536121280883096;-1.1641148879840397;1.202;0.012475970043413151
23:18.5;0.03733849457849988;-0.3736899286097284;-1.209321286981577;1.262;0.016873683345960507
23:18.5;0.04825026590579269;-0.3578160229664333;-1.2509636974958374;1.3030000000000002;0.021597535782601755
23:18.5;0.05984527376037313;-0.33778587799902104;-1.2872259016797651;1.321;0.026021127872407675
23:18.5;0.07131543243284712;-0.314029986046815;-1.3163721806390356;1.349;0.029480397529367538
23:18.6;0.08180260072038209;-0.28736999886982245;-1.3368550698238484;1.391;0.03142627198823398
23:18.6;0.09046216038266464;-0.25896260228134;-1.3474445546996296;1.431;0.03156566255162269
23:18.6;0.09653324328153894;-0.23019174638899428;-1.3473639564591355;1.453;0.029939984470657363
23:18.6;0.09941272587546936;-0.20252234972603972;-1.3364087729055376;1.395;0.02690631719325653
23:18.6;0.09872427033877419;-0.17733291489435155;-1.3150244140850942;1.395;0.02302221477735733
23:18.6;0.09437098973708397;-0.15575678099986706;-1.2843268720055152;1.395;0.018878219976262246
23:18.6;0.0865622947225583;-0.13856479201742097;-1.246057476122886;1.328;0.014945819407090614
23:18.6;0.07580942194650919;-0.1261070123702172;-1.202464605883958;1.239;0.011495681531424358
23:18.6;0.06288785067122939;-0.1183138122159979;-1.1561112161549816;1.1440000000000001;0.008602047070312821
23:18.6;0.04876896498747617;-0.11474872176361006;-1.1096236678136813;1.0490000000000002;0.0062096497760949325
23:18.7;0.03452840047081812;-0.11470064644995492;-1.0654156473220375;0.97;0.004219503937516642
23:18.7;0.021242544792497528;-0.11729836831416734;-1.0254302583879755;0.914;0.0025550808207174896
23:18.7;0.009885549527293777;-0.12163006448844935;-0.9909419863107702;0.879;0.0011914888517687316
23:18.7;0.0012375884282214004;-0.12685403825038746;-0.9624504325969668;0.9059999999999999;0.0001510980672041345
23:18.7;-0.004186302354383055;-0.13228929354615687;-0.9396810352944205;0.9059999999999999;0.0005203981585652368
23:18.7;-0.006177602661071434;-0.1374756431354558;-0.9216879087434328;0.9059999999999999;0.000782761797044641
23:18.7;-0.0048383475102670385;-0.14219622073079677;-0.9070381320196733;0.935;0.0006240374552304054
23:18.7;-0.0005461090312227749;-0.14646171890971235;-0.8940496952519287;0.956;7.150973110633579e-05
23:18.7;0.0061132130435227515;-0.1504628303789191;-0.8810522496160007;0.9740000000000001;0.00081040184789563
23:18.7;0.014430543486742066;-0.15450263858000202;-0.8666365436358949;0.983;0.0019322156111836273
23:18.8;0.023659702307935536;-0.1589231232693684;-0.8498577772318132;0.972;0.0031955279503380206
23:18.8;0.03309039466840485;-0.16403947948247494;-0.8303631471663657;0.943;0.0045073200377719795
23:18.8;0.042100990361764234;-0.1700931452251965;-0.8084241125999949;0.8959999999999999;0.005789197721566954
23:18.8;0.050190748802000314;-0.17722962316566512;-0.784869333316303;0.753;0.006981638367098433
23:18.8;0.05699456963893508;-0.18549984556843496;-0.7609361755426883;0.753;0.008044985439180082
23:18.8;0.0622832182018815;-0.19487585432054477;-0.738080091747941;0.753;0.008958443686629087
23:18.8;0.06595123937292083;-0.20526919887794542;-0.717784159758913;0.715;0.009717188302074676
23:18.8;0.067995706051487;-0.21654602447496765;-0.7013927583703617;0.687;0.010327447131328287
23:18.8;0.06849054059043198;-0.22853960834188647;-0.6899765212353854;0.674;0.01080006540350858
23:18.8;0.06756152879377839;-0.24106331017864707;-0.6842342358650123;0.6759999999999999;0.011143853255073667
23:18.9;0.06536589562260259;-0.25392571868386715;-0.6844404201741007;0.69;0.011360398234169138
23:18.9;0.06207804432507535;-0.2669475807321566;-0.6904447217849679;0.708;0.01144176253122676
23:18.9;0.05788114198343117;-0.2799781062904898;-0.7017232610657295;0.736;0.011371742991100884
23:18.9;0.052963916074747694;-0.29290761470918114;-0.7174754233167953;0.841;0.01113057960561413
23:18.9;0.047522588340540274;-0.3056735437070504;-0.7367503656941151;0.841;0.01070232902706604
23:18.9;0.041767416812386;-0.3182564705711298;-0.7585778530654527;0.841;0.010083586256681033
23:18.9;0.035931490585165454;-0.33066402132393713;-0.7820788602997762;0.8740000000000001;0.009292075373229134
23:18.9;0.030277577423967483;-0.3429044026855116;-0.8065452276136216;0.9009999999999999;0.008373806293285851
23:18.9;0.025098239982699225;-0.3549541247036413;-0.8314903063054552;0.92;0.007407517485128223
23:18.9;0.020705544227975263;-0.3667245566597544;-0.8566746942879867;0.94;0.006504929297396008
23:19.0;0.0174092718999015;-0.3780321445957813;-0.8821091262297789;0.9690000000000001;0.005805393382464974
23:19.0;0.015486056113110777;-0.3885780141303344;-0.9080363499722698;0.997;0.0054641459029242875
23:19.0;0.015144955324551531;-0.39794161952247764;-0.9348941850826661;1.023;0.0056344278000379725
23:19.0;0.016495652402394863;-0.4055898165550727;-0.9632611371491101;1.0859999999999999;0.006444668422370094
23:19.0;0.01952361321502742;-0.41089984151088804;-0.9937834581165789;1.0859999999999999;0.007972378925287587
23:19.0;0.02407476428067174;-0.41319395387728314;-1.0270803974287575;1.0859999999999999;0.010216930569127395
23:19.0;0.029852129466133658;-0.41178479571898985;-1.0636281707356914;1.115;0.013074812060029932
23:19.0;0.03642719392942911;-0.4060324126014114;-1.1036329035132633;1.1440000000000001;0.016323416479588394
23:19.0;0.04326790790532754;-0.3954143649549594;-1.1469091779617273;1.171;0.019622185067671362
23:19.0;0.049782896504254624;-0.3796076028381696;-1.1927798036908364;1.198;0.022541112180789854
23:19.1;0.05537841509579913;-0.3585734177016607;-1.24001108621772;1.226;0.024623182325622533
23:19.1;0.05952189522587596;-0.33262611641485934;-1.2868008225028467;1.252;0.025476773503750397
23:19.1;0.061804065103607926;-0.30245921746319343;-1.3308391410057963;1.291;0.024877654430826606
23:19.1;0.061990903678210696;-0.2691101185481116;-1.369456615408883;1.454;0.02284579488178491
23:19.1;0.06005783761146037;-0.2338679121029285;-1.3998529814303056;1.454;0.019661776558470158
23:19.1;0.056201685762912505;-0.19815386932947948;-1.4193716014674072;1.454;0.015806947513929432
23:19.1;0.05082896074887976;-0.16340654592103904;-1.4257748816893718;1.4969999999999999;0.011842179495582614
23:19.1;0.04452086841361533;-0.13098352827409424;-1.4174910130141363;1.5119999999999998;0.008266099447153154
23:19.1;0.03797723580739151;-0.10207606576512807;-1.3938167192254043;1.504;0.005403223646705669
23:19.1;0.03194469352471535;-0.0776352205894137;-1.3550584703670396;1.483;0.0033605901685121115
23:19.2;0.027136974197933435;-0.05831646885597129;-1.302588999192474;1.432;0.002061389439248966
23:19.2;0.024156074199168046;-0.04445171814700579;-1.2387981916520336;1.358;0.001330195485712793
23:19.2;0.023423564566152036;-0.03605390230697861;-1.166925560899568;1.252;0.0009854813656446388
23:19.2;0.025131718362596214;-0.03285338918990869;-1.090776872596688;0.9009999999999999;0.0009006131498500796
23:19.2;0.029221572089351052;-0.03435874568395232;-1.0143584909590189;0.9009999999999999;0.0010184327266588027
23:19.2;0.0353888065278304;-0.03992873091977692;-0.9414990387640566;0.9009999999999999;0.001330366512361257
23:19.2;0.04311346194171654;-0.04884193259081498;-0.8755299506031955;0.807;0.001843642642402688
23:19.2;0.05170953315271714;-0.060356285794381966;-0.8190554054254706;0.733;0.002556268120947384
23:19.2;0.060391292587403424;-0.07375722041206997;-0.7738062259114911;0.688;0.0034467603350981
23:19.2;0.06835074101484116;-0.08839546951341871;-0.7405718757160735;0.6709999999999999;0.0044744581377737565
23:19.3;0.07483719348219889;-0.1037147451569753;-0.7192151151409569;0.6759999999999999;0.005582346667332506
23:19.3;0.07922875200282346;-0.11926861583245116;-0.7087714325454965;0.698;0.006697538193145229
23:19.3;0.08108622837769762;-0.13472633846617477;-0.7076242786441598;0.728;0.007730406510336551
23:19.3;0.08018271210811076;-0.14986857756754948;-0.7137358967357185;0.823;0.008576870778201974
23:19.3;0.07650744682430317;-0.16457410899493052;-0.7249029146329682;0.823;0.009127357631202126
23:19.3;0.07024954098101432;-0.1787975652758445;-0.7389982243647906;0.823;0.009282147948310863
23:19.3;0.06176993426058342;-0.19253910679365224;-0.7541647872369132;0.8390000000000001;0.008969378324499759
23:19.3;0.05156690059638456;-0.20581066969783493;-0.7689439031760823;0.848;0.00816081575143999
23:19.3;0.04023642026676309;-0.21860600338595484;-0.7823368787974049;0.851;0.00688137496557918
23:19.3;0.028428427389010618;-0.23088027018698037;-0.7938061779798965;0.8440000000000001;0.005210196856234115
23:19.4;0.016801586308614933;-0.24254185675238388;-0.8032251943033387;0.8320000000000001;0.003273213302150168
23:19.4;0.005979983111412948;-0.2534568336617689;-0.8107903438948804;0.825;0.0012288886422856494
23:19.4;-0.0034856884929289076;-0.2634652456541352;-0.8169139314087868;0.825;0.0007502192604667924
23:19.4;-0.011151430708259951;-0.27240711882424945;-0.8221174425140262;0.858;0.0024973700869680097
23:19.4;-0.01670736440343466;-0.28015365714235174;-0.8269404285232697;0.858;0.0038706015485184164
23:19.4;-0.01999780010767661;-0.2866362439754172;-0.8318720372582666;0.858;0.004768368971944971
23:19.4;-0.02103165203358815;-0.29186600970759746;-0.8373061547224357;0.87;0.005139740494081005
23:19.4;-0.01998195166213717;-0.2959409458400407;-0.8435197725813972;0.88;0.004988135343263034
23:19.4;-0.017174429473668623;-0.29904166280381;-0.850674301557698;0.893;0.004368952580491477
23:19.4;-0.01306517011360933;-0.3014180230090111;-0.8588379536609373;0.9079999999999999;0.0033821706326640742
23:19.5;-0.008207454435231758;-0.30336869038212133;-0.8680248312907431;0.927;0.002161281749591069
23:19.5;-0.003208874722128303;-0.3052156832513399;-0.878244213441178;0.9490000000000001;0.0008601514084803014
23:19.5;0.0013187502988630758;-0.30727603202133125;-0.8895515103018181;0.968;0.000360464382408283
23:19.5;0.004812561416968998;-0.30983246693340655;-0.9020904359552575;1.004;0.0013450960219788112
23:19.5;0.006809628708536972;-0.3131049524987375;-0.9161145784445031;1.004;0.001953273977525539
23:19.5;0.00699024876096331;-0.317224964416505;-0.9319771403333004;1.004;0.002066641987389838
23:19.5;0.005209368644548402;-0.32221465373450375;-0.9500828752600212;1.0;0.001594747277297068
23:19.5;0.0015138925009686949;-0.3279731635926461;-0.9708063079217214;0.995;0.0004820209743705083
23:19.5;-0.0038549216506771093;-0.3342718442018726;-0.994390802783624;0.9990000000000001;0.0012813638040594575
23:19.5;-0.010474270034628818;-0.3407589886971545;-1.020849675221024;1.016;0.0036436183598408745
23:19.6;-0.017768669952024474;-0.3469736261603971;-1.0498919321278068;1.046;0.006472856571053283
23:19.6;-0.025056995267534955;-0.3523677308736325;-1.0808911144880673;1.089;0.009543486586393415
23:19.6;-0.031618684238643065;-0.3563383840859235;-1.1129065404904048;1.147;0.01253906329070308
23:19.6;-0.03677357776091381;-0.3582752212019715;-1.144753237643681;1.268;0.01508219454487641
23:19.6;-0.0399619194863288;-0.35762685606326183;-1.175102214370728;1.268;0.016793921155218855
23:19.6;-0.04081010898171526;-0.3539782095161445;-1.2025836393130422;1.268;0.017372390136534282
23:19.6;-0.03917446999013303;-0.3471190475065395;-1.2258718320131858;1.275;0.016669656119384542
23:19.6;-0.035161875806973136;-0.3370852018836848;-1.243750180123134;1.2690000000000001;0.014741608716140067
23:19.6;-0.029127936397561335;-0.3241649736570469;-1.2551694798042068;1.286;0.011851632474247226
23:19.7;-0.021652643496769607;-0.30887426764379056;-1.2593140451242557;1.317;0.008422222319225483
23:19.7;-0.013493015428326092;-0.2919094626339671;-1.2556797800318749;1.3330000000000002;0.004945794774201523
23:19.7;-0.005513327305366708;-0.27408498364468276;-1.2441550981664538;1.341;0.0018800679310291889
23:19.7;0.0014046252252563347;-0.2562573454697926;-1.2250853210631083;1.334;0.00044096398715043735
23:19.7;0.006466031949469324;-0.2392374424390442;-1.1992985142133628;1.217;0.001855215195333274
23:19.7;0.009071287439041353;-0.22370081341686748;-1.1680787948828366;1.217;0.002370329009359887
23:19.7;0.00890826814510189;-0.21011436592823823;-1.1330881371851438;1.217;0.0021208635140596947
23:19.7;0.006005686341133959;-0.19869700764287523;-1.096245330761076;1.13;0.001308162603806018
23:19.7;0.0007328300467163526;-0.18942039864739543;-1.0595665962830376;1.051;0.00014708157511254022
23:19.7;-0.006254485636159602;-0.18204548300376153;-1.0249731744279065;0.982;0.001167035336419715
23:19.8;-0.014109958439499441;-0.17618665962908903;-0.994085298119587;0.927;0.0024712825762599902
23:19.8;-0.021916267491103425;-0.17139417739289042;-0.9680350728038556;0.89;0.003636250122436052
23:19.8;-0.028806990441478282;-0.1672423066563908;-0.9473320246195646;0.867;0.004564006521001135
23:19.8;-0.03407112857507746;-0.1634072089323042;-0.9318080412474361;0.861;0.005187811475667302
23:19.8;-0.03722491561174009;-0.15971871484296796;-0.9206569642476996;0.938;0.005473780418350435
23:19.8;-0.03804351807900028;-0.1561778702576438;-0.9125661872608617;0.938;0.005422062768293821
23:19.8;-0.03655453842220397;-0.1529435593691036;-0.9059159861570443;0.938;0.005064778079937
23:19.8;-0.0330012293819982;-0.1502977369236768;-0.8990101733399507;0.9670000000000001;0.00445909953240914
23:19.8;-0.02778467477107352;-0.14859714060657683;-0.8903051018407393;0.9840000000000001;0.003675823350117489
23:19.8;-0.02139535071468736;-0.1482169607932032;-0.8786109830488033;0.983;0.0027862106086077062
23:19.9;-0.01434685460439163;-0.14949365227163566;-0.8632411494483343;0.9590000000000001;0.0018514482760034856
23:19.9;-0.007123513476051125;-0.15267614639385954;-0.844088243720729;0.919;0.0009180224278840974
23:19.9;-0.00014758816653374858;-0.15789301321087654;-0.8216175234749441;0.8640000000000001;1.9146268445712327e-05
23:19.9;0.006234767368219665;-0.16513903495437127;-0.7967828241511092;0.81;0.0008203703576763559
23:19.9;0.011753246386042221;-0.1742809965327862;-0.7708848899642425;0.72;0.0015790555491815316
23:19.9;0.016204146830332354;-0.18507871012020322;-0.7454029661268696;0.72;0.002235495245075841
23:19.9;0.01943715629585511;-0.19721315338866258;-0.7218352031347094;0.72;0.002766984093994573
23:19.9;0.021342714849008057;-0.21031346344834922;-0.701574688151653;0.711;0.003149130435658364
23:19.9;0.021843988974681778;-0.22397994596986096;-0.6858284217412791;0.71;0.00335549474619342
23:19.9;0.020896291207332964;-0.23780502667227763;-0.6755711977281579;0.711;0.003357077504702739
23:20.0;0.018494202144670385;-0.25139409457016465;-0.6715228417774622;0.718;0.003122133444820001
23:20.0;0.01468336421071372;-0.2643865738830379;-0.674139617179459;0.722;0.0026170668621160703
23:20.0;0.009572167512735215;-0.27647695808148365;-0.6836134041455625;0.727;0.0018091717695695542
23:20.0;0.003339516923742378;-0.2874349953633706;-0.6998760604329947;0.737;0.0006718068531936175
23:20.0;-0.0037629076807458085;-0.2971228169948399;-0.7226106324875878;0.816;0.0008079117322460494
23:20.0;-0.011413684947875744;-0.3055048715122467;-0.7512712039005579;0.816;0.002619634872205076
23:20.0;-0.019228856062709472;-0.3126454681670288;-0.7851086159526229;0.816;0.004719927523224427
23:20.0;-0.026772876390664176;-0.3186906031853657;-0.8231989521842576;0.865;0.007023750888239726
23:20.0;-0.03357491471252592;-0.3238354157385949;-0.8644789018446339;0.9159999999999999;0.009399259923509356
23:20.0;-0.0391527805555938;-0.3282831716519728;-0.9077953692505625;0.97;0.01166807451390399
23:20.1;-0.043044882244597384;-0.3322040115911639;-0.9519693028171666;1.0190000000000001;0.01361285883726853
23:20.1;-0.04484814085254233;-0.3357016494224815;-0.9958648455292547;1.065;0.014993337647344562
23:20.1;-0.04425807577706724;-0.338793915744024;-1.0384529219898873;1.111;0.015570944012495324
23:20.1;-0.041105934971318106;-0.34140944632132864;-1.0788612642614102;1.155;0.015140689893462669
23:20.1;-0.0353870642233203;-0.34339946823872447;-1.116405422618983;1.224;0.013566445979821769
23:20.1;-0.027276087034272024;-0.3445608416983377;-1.1505951276995097;1.224;0.010813605404481955
23:20.1;-0.017127540969532125;-0.3446642880756436;-1.1811103581603146;1.224;0.006972391747119109
23:20.1;-0.005462118587328321;-0.3434814731037608;-1.2077477453968701;1.23;0.0022658996746027283
23:20.1;0.007062580257657097;-0.3408067246646736;-1.2303498518497145;1.244;0.002961421144312849
23:20.1;0.019697761353760775;-0.3364721052474367;-1.2487375036183033;1.258;0.008276316532303464
23:20.2;0.03166226083143154;-0.33035823241859397;-1.2626626437833224;1.273;0.013207310495685813
23:20.2;0.042206151863435785;-0.3224076494087189;-1.271790505259266;1.29;0.01730599894503482
23:20.2;0.050670449590772125;-0.3126470605862659;-1.2757125190408003;1.301;0.020209795785221786
23:20.2;0.056539179978808404;-0.3012128785102028;-1.2739887785238306;1.298;0.021696448231696978
23:20.2;0.05948537233650498;-0.2883596826573316;-1.2662192718683012;1.3090000000000002;0.02171969100207345
23:20.2;0.05941188321763001;-0.2744349347688595;-1.2521403896419132;1.3090000000000002;0.02041576877222179
23:20.2;0.056481311690164016;-0.2598282406864925;-1.231734578109377;1.3090000000000002;0.018076246709894536
23:20.2;0.05112411737163314;-0.24492111878729877;-1.2053323540720777;1.308;0.015092419638836129
23:20.2;0.044015362050596106;-0.23005504910547991;-1.1736832753485642;1.284;0.011884665530335271
23:20.2;0.03601517838259534;-0.215518672985945;-1.1379744565615049;1.235;0.00883289338207079
23:20.3;0.028073404965765016;-0.20154925236614257;-1.0997801880863387;1.165;0.006222747426437185
23:20.3;0.021107104733153366;-0.18834504898485777;-1.0609368777639812;1.073;0.004217668276746975
23:20.3;0.01587084343405995;-0.176084206637961;-1.0233544084644097;0.986;0.0028598712185035555
23:20.3;0.012846946866689319;-0.16494340676042754;-0.9887928550096216;0.9159999999999999;0.002095271027444451
23:20.3;0.012179543621501998;-0.15511070431887808;-0.9586452896240466;0.851;0.0018110511973547297
23:20.3;0.013662721392954389;-0.1467900488360222;-0.9337689770244587;0.851;0.0018727218103469384
23:20.3;0.0167783016416434;-0.14019681283390467;-0.9143981247461426;0.851;0.0021509061699138397
23:20.3;0.020771895723953777;-0.13554386109798078;-0.9001536223568127;0.872;0.0025343851780729987
23:20.3;0.02475713864372164;-0.1330182025763139;-0.8901443591760606;0.904;0.0029313789705878762
23:20.3;0.027838351359954525;-0.13275149221997246;-0.8831374242006199;0.935;0.003263707372448623
23:20.4;0.02923651647269699;-0.1347922259566579;-0.8777638414637217;0.9620000000000001;0.0034591401415751126
23:20.4;0.02839803830736434;-0.13908867980527337;-0.8727225012973001;0.9740000000000001;0.003447119181716817
23:20.4;0.025067124494103796;-0.1454885138619285;-0.8669472779728337;0.968;0.003161738247634166
23:20.4;0.019310372009672446;-0.15375638488356538;-0.8597103807700123;0.9420000000000001;0.002552560065803256
23:20.4;0.011492063572466685;-0.16360602930570067;-0.8506490476556178;0.83;0.0015993655766850343
23:20.4;0.0022093734443862237;-0.17473790810370765;-0.8397238658123803;0.83;0.00032418488214746265
23:20.4;-0.007793585162320513;-0.1868703346422654;-0.8271388066451618;0.83;0.0012046365768865342
23:20.4;-0.01771232889845239;-0.19975514053490548;-0.8132593189849626;0.813;0.002877416176332379
23:20.4;-0.02675764022619383;-0.21317702874381456;-0.7985507960246798;0.8140000000000001;0.004555024966661045
23:20.4;-0.034218604754044056;-0.226941958477408;-0.7835418260534334;0.815;0.006084701535895708
23:20.5;-0.03951419720987261;-0.24086087885891141;-0.7688076270132675;0.813;0.007317068366278493
23:20.5;-0.04223313813431201;-0.25473406019875255;-0.7549656111202372;0.8109999999999999;0.00812208519458437
23:20.5;-0.04216052302385206;-0.26834100651398324;-0.7426730707331742;0.804;0.008402155426602215
23:20.5;-0.03928921110070659;-0.2814403553118591;-0.7326176970815427;0.7959999999999999;0.008100971125930164
23:20.5;-0.03381426615388126;-0.2937815058506763;-0.7254953836933812;0.7859999999999999;0.0072070755162911984
23:20.5;-0.026111301017556213;-0.305125172200257;-0.7219750780474091;0.7859999999999999;0.005752130829814032
23:20.5;-0.01670373531744905;-0.3152662241403576;-0.7226550295994104;0.7859999999999999;0.0038055906789846933
23:20.5;-0.006225158526648549;-0.32405284268652224;-0.7280161449988363;0.789;0.0014686126395712315
23:20.5;0.004620680860372503;-0.33140084381064266;-0.7383768052677976;0.7929999999999999;0.0011306745826252353
23:20.5;0.015103178044475201;-0.337305347482784;-0.7538529030147553;0.8079999999999999;0.0038404152013235336
23:20.6;0.024511440775746518;-0.3418508724965221;-0.774328181534405;0.83;0.0064882951570256284
23:20.6;0.03220088219791788;-0.3452181388743258;-0.7994407686701761;0.858;0.008886846298742989
23:20.6;0.0376344279527498;-0.34768391584051483;-0.8285904949809455;0.8859999999999999;0.010842011571777353
23:20.6;0.04041293360781062;-0.34960967808768306;-0.8609692873773132;0.912;0.012164422151575009
23:20.6;0.040291839989462466;-0.35141601810502515;-0.8956142398139797;1.008;0.012681179327371382
23:20.6;0.037185546989761675;-0.3535427175370723;-0.9314775111164136;1.008;0.012245836147215106
23:20.6;0.031165127969278672;-0.35639777625984376;-0.9675004502497287;1.008;0.010746203881194306
23:20.6;0.02245540115426482;-0.3603006576674828;-1.002681070178337;1.058;0.008112387527311053
23:20.6;0.011433545601007934;-0.36542544922925563;-1.0361352530376764;1.114;0.00432908554675408
23:20.6;-0.0013730514815849472;-0.3717503535127095;-1.0671567715173436;1.165;0.0005447113639639889
23:20.7;-0.015294410026058058;-0.3790211587079804;-1.0952716248537533;1.199;0.006349185569240985
23:20.7;-0.029536231500184265;-0.3867362740302074;-1.1202713422640151;1.219;0.012796559443582376
23:20.7;-0.043213279140589554;-0.39415941425386625;-1.1422095625726856;1.229;0.019455165009499734
23:20.7;-0.0554003147190374;-0.40036521245371737;-1.161354206857968;1.232;0.025759252970050543
23:20.7;-0.06519981193927073;-0.4043223701432832;-1.1780976749425642;1.2329999999999999;0.031056707542186927
23:20.7;-0.07182118537928332;-0.405012271448992;-1.1928375973925684;1.2329999999999999;0.03469781044236467
23:20.7;-0.07466225007106785;-0.40156637659416383;-1.205849891280969;1.2329999999999999;0.03615360963368171
23:20.7;-0.07338355352132211;-0.39339484770769745;-1.2171803115706692;1.2329999999999999;0.0351384276985533
23:20.7;-0.06796935648058121;-0.3802817014225049;-1.226578261284675;1.2209999999999999;0.03170398470815347
23:20.7;-0.05876923627426758;-0.36243293239738017;-1.233490859891301;1.2329999999999999;0.026273240154063647
23:20.8;-0.046509639652453784;-0.3404756381368304;-1.2371280211570281;1.2790000000000001;0.01959041612623939
23:20.8;-0.03226153120442554;-0.31541296998621265;-1.2365975255849622;1.325;0.012583252085940248
23:20.8;-0.01735434464247192;-0.2885368873678591;-1.2310919663267945;1.3619999999999999;0.006164531237982111
23:20.8;-0.0032364857405114762;-0.2612959974390945;-1.2200912156667645;1.392;0.001031807678447794
23:20.8;0.008705153533073766;-0.23512440664501508;-1.203532290876039;1.278;0.002463382743041777
23:20.8;0.017340222839394178;-0.21125897997037701;-1.1819032814094308;1.278;0.0043296400401355035
23:20.8;0.021965211724684176;-0.19058910277558488;-1.156240168821325;1.278;0.0048404029000256605
23:20.8;0.022409316433550857;-0.1735781204031139;-1.1280268648988767;1.178;0.004387761703587139
23:20.8;0.019052466421344286;-0.16027035323965655;-1.0990076125912087;1.078;0.00335586977564947
23:20.8;0.012753269171630539;-0.1503704022659041;-1.0709310491469672;0.992;0.002053739696815987
23:20.9;0.0047012514490327095;-0.1433663355883493;-1.0452659656788703;0.929;0.0007045105077937989
23:20.9;-0.0037786990204299823;-0.13866512959528352;-1.022944698823487;0.8909999999999999;0.0005359962101579786
23:20.9;-0.011431952543619171;-0.1357129036682883;-1.0041883099536173;0.878;0.0015579614842046855
23:20.9;-0.017250417568204814;-0.13408060569995545;-0.9884527824468502;0.8859999999999999;0.00228623834043537
23:20.9;-0.020587966176880974;-0.13350581180973195;-0.9745137188897556;1.005;0.0026785612108585453
23:20.9;-0.02120049422572589;-0.13389250248984216;-0.9606780061993797;1.005;0.0027269683166043757
23:20.9;-0.019218096466189917;-0.1352803223925979;-0.9450797733243902;1.005;0.0024570470171084583
23:20.9;-0.0150712294736893;-0.13779792985571968;-0.9260024243114118;1.0390000000000001;0.0019231072242093198
23:20.9;-0.009392293315395523;-0.14161136176720282;-0.9021754539707871;1.052;0.0011999433762616182
23:20.9;-0.002908506836048117;-0.14687397105102293;-0.8730068151211083;1.0290000000000001;0.0003729344986471723
23:21.0;0.003659768281311075;-0.15368343825461556;-0.8387172733082306;0.966;0.00047173298485184113
23:21.0;0.009682527173732466;-0.1620517756182046;-0.800352536954925;0.8809999999999999;0.0012558097321939243
23:21.0;0.014676784574299537;-0.1718932353256071;-0.7596696891440105;0.7929999999999999;0.0019165250669016605
23:21.0;0.01833197751540908;-0.18303184639699813;-0.7189190637119967;0.718;0.002412214794673846
23:21.0;0.020503911862971038;-0.19522563682784488;-0.6805613216910932;0.5920000000000001;0.0027242115991827362
23:21.0;0.02118324601661599;-0.20819954830127793;-0.6469701484426397;0.5920000000000001;0.0028533597815979276
23:21.0;0.020450914056921708;-0.2216760822389264;-0.6201728164972727;0.5920000000000001;0.0028115401338088307
23:21.0;0.018434412230520694;-0.23539547724357132;-0.6016673526897837;0.5820000000000001;0.0026108616311791852
23:21.0;0.015274370665923832;-0.24912474310679036;-0.5923289904541398;0.594;0.002253944293876298
23:21.0;0.011105149309983395;-0.26266025789525393;-0.592397868130761;0.618;0.0017279543121245182
23:21.1;0.006049670589585906;-0.2758282202513693;-0.6015332685132142;0.6509999999999999;0.0010037604420729497
23:21.1;0.00022620205954890357;-0.28848445510608667;-0.6189186215222545;0.6859999999999999;4.038801609979896e-05
23:21.1;-0.006237344538160511;-0.30051361902868834;-0.6433997363171131;0.725;0.001205992956870467
23:21.1;-0.013186818387242916;-0.31182791287102307;-0.6736381579288129;0.762;0.0027700122680097317
23:21.1;-0.020427491084731474;-0.32236551398688107;-0.7082626481138337;0.872;0.004663993582394466
23:21.1;-0.027714943849222115;-0.33208788556098356;-0.7460008944332395;0.872;0.006866040869773908
23:21.1;-0.034752274602277304;-0.34097362848255097;-0.7857715886357877;0.872;0.009311086221564437
23:21.1;-0.04119417172196266;-0.34900728896496863;-0.8267237874751757;0.9009999999999999;0.011885862616552351
23:21.1;-0.046659672971090825;-0.3561649858117841;-0.8682280048301282;0.9359999999999999;0.014428683356973912
23:21.1;-0.05075591389247183;-0.36240143179390816;-0.9098370058790943;0.973;0.01673555632219639
23:21.2;-0.05311280694921855;-0.3676425933355145;-0.9512339565018539;1.01;0.01857429847059072
23:21.2;-0.053424773502930165;-0.3717861959265307;-0.9921787759841982;1.047;0.01970724351708732
23:21.2;-0.05149289671771585;-0.37471006871032136;-1.0324591042485904;1.085;0.01992120226065771
23:21.2;-0.04726014966967304;-0.3762860490958508;-1.0718508293594444;1.127;0.019061082367326197
23:21.2;-0.04083308166138185;-0.37639535072744723;-1.110091124218231;1.217;0.017061414646400267
23:21.2;-0.032485209198020434;-0.3749413402514452;-1.1468609908315432;1.217;0.013968821774360471
23:21.2;-0.022640252927450644;-0.3718576598288161;-1.1817674653362742;1.217;0.009949242941304184
23:21.2;-0.011835356232486816;-0.3671115289167549;-1.2143181723844008;1.2429999999999999;0.005276085832075945
23:21.2;-0.0006653058009548915;-0.3607029798719969;-1.243893597888446;1.2670000000000001;0.0002985068303105678
23:21.2;0.010287193618480382;-0.3526626804597907;-1.2697308623697856;1.287;0.004606468373490575
23:21.3;0.020522700113653092;-0.34305412459654633;-1.2909295135787158;1.307;0.009088656173720651
23:21.3;0.029681912705109153;-0.3319849801367796;-1.3064836840316276;1.3259999999999998;0.012874023852850865
23:21.3;0.03757804343332829;-0.31962244111166804;-1.3153434510490376;1.331;0.01579830867332695
23:21.3;0.04420402379505543;-0.30619664658672635;-1.3165086855146684;1.334;0.017819108110261148
23:21.3;0.04971950734297888;-0.29198153625399637;-1.3091549820171142;1.38;0.01900523608130572
23:21.3;0.0544217706460621;-0.2772627189914153;-1.292781038736554;1.38;0.019506938700885663
23:21.3;0.05870154467406177;-0.262312647952444;-1.2673545301146474;1.38;0.01951492481810698
23:21.3;0.06298445116044152;-0.2473831840528377;-1.2334269999821121;1.3559999999999999;0.019218388805397786
23:21.3;0.06766154847050317;-0.2327115378703886;-1.192190305219449;1.3119999999999998;0.018771779089361288
23:21.3;0.0730167144273632;-0.2185328232313593;-1.1454541011810695;1.248;0.018277494202820353
23:21.4;0.07916262701774064;-0.20509559242738626;-1.095533690627758;1.16;0.01778698189631603
23:21.4;0.08599879598745432;-0.19267535646797918;-1.0450514624124496;1.048;0.01731634458735789
23:21.4;0.09320262687821385;-0.18157650260340047;-0.9966727521454587;0.937;0.016867098652290295
23:21.4;0.10025810198464613;-0.1721145148960893;-0.9528142457156977;0.851;0.01644164312924398
23:21.4;0.1065179481170426;-0.1645804317031396;-0.9153738882302203;0.799;0.01604720899351727
23:21.4;0.11128648878633249;-0.1591994333551491;-0.8855304550097088;0.799;0.015688718106705933
23:21.4;0.11390568124722154;-0.15609719795560031;-0.863647273913592;0.799;0.015355957434285349
23:21.4;0.11382942455568366;-0.1552821903775973;-0.8492922741127947;0.8340000000000001;0.015011820480273415
23:21.4;0.11067866367801238;-0.15664553312395718;-0.8413634639967585;0.873;0.014586986162194527
23:21.4;0.10427549121779728;-0.15997645199994218;-0.8382912055937589;0.914;0.013984057952815529
23:21.5;0.09465576265875883;-0.16499008879088964;-0.8382779902875465;0.938;0.013091607577909309
23:21.5;0.08205990881426964;-0.17136383650134016;-0.8395335834753822;0.9420000000000001;0.01180560587360251
23:21.5;0.06690367894838904;-0.1787773813951926;-0.8404694176671753;0.9309999999999999;0.01005274084472622
23:21.5;0.049733716658242194;-0.18695049829814755;-0.8398296051607654;0.909;0.007808519926198174
23:21.5;0.031175108501553972;-0.19567207937043127;-0.8367530399987537;0.852;0.005104275801081892
23:21.5;0.011879644866946284;-0.20481467165463166;-0.8307777873545318;0.852;0.0020213866714164355
23:21.5;-0.007515490319821237;-0.21433132067431276;-0.8218103154469681;0.852;0.0013237761370366577
23:21.5;-0.0264122858902565;-0.22423550980495247;-0.8100820269892247;0.84;0.0047977694480715715
23:21.5;-0.044261645659332896;-0.23456906758233678;-0.7961052073487026;0.8270000000000001;0.008265493015907536
23:21.5;-0.06056614768353653;-0.24536516776781025;-0.780630420498899;0.8220000000000001;0.011600810497630091
23:21.6;-0.07488313076173433;-0.25661356442183436;-0.7646037183697854;0.816;0.014692645772828371
23:21.6;-0.08683212611964725;-0.2682342427057914;-0.7491211850931669;0.8079999999999999;0.01744804340895609
23:21.6;-0.09610777609843242;-0.28006461822655154;-0.7353770034008151;0.802;0.019793692471554627
23:21.6;-0.10249674297609017;-0.29186405633307594;-0.7246006432001342;0.797;0.021676511690639246
23:21.6;-0.10589493414326143;-0.30333686335226984;-0.717980562604115;0.778;0.0230628547216953
23:21.6;-0.10632060148004685;-0.3141698326866808;-0.7165766231600422;0.778;0.023935612299120532
23:21.6;-0.10391960600213557;-0.32407464381472606;-0.7212298750619488;0.778;0.024289370071178557
23:21.6;-0.09896056543989774;-0.3328246752199968;-0.7324818379369349;0.7859999999999999;0.024125401278060777
23:21.6;-0.0918189720749405;-0.3402814308141049;-0.7505135943740259;0.802;0.02344926528733325
23:21.6;-0.08295075504612527;-0.34641074319761855;-0.7751116590873398;0.825;0.02227285887338364
23:21.7;-0.07285762868047084;-0.35128868348827513;-0.8056657607209661;0.855;0.02062025819144348
23:21.7;-0.06204887446007406;-0.3550951201737562;-0.841202115986368;0.89;0.018534418652860558
23:21.7;-0.051005919439395996;-0.35809293554176574;-0.8804532914277969;0.9309999999999999;0.016081355595618844
23:21.7;-0.04015531622286819;-0.36059317709260147;-0.9219628304267035;0.977;0.013349775670254013
23:21.7;-0.029851987671725026;-0.3629094561033301;-0.9642183426700491;1.12;0.010445925569901648
23:21.7;-0.020370960759053595;-0.3653071697678392;-1.0057969818192034;1.12;0.007484797176590232
23:21.7;-0.011905339993360945;-0.3679539160682532;-1.045495744633567;1.12;0.0045799158810598505
23:21.7;-0.004569064339348928;-0.3708770589265626;-1.0824211063646698;1.17;0.0018342287485334883
23:21.7;0.0015976437979764563;-0.37393357403161614;-1.1160308943118857;1.21;0.0006667309800868689
23:21.7;0.006622336017255071;-0.37679694824226884;-1.1461349719390652;1.2429999999999999;0.0028599230900013413
23:21.8;0.010593625841813326;-0.3789656799654759;-1.1728585729059147;1.268;0.004708582211650995
23:21.8;0.013650516872523543;-0.3797964753670067;-1.1965656559522544;1.273;0.006203496758377314
23:21.8;0.015963930441440295;-0.37856249690590205;-1.2177411243230056;1.263;0.00735923018351918
23:21.8;0.017708469149371346;-0.3745337219267107;-1.236839461408329;1.244;0.008203237370808001
23:21.8;0.019025860840348584;-0.36707197983432543;-1.25411944785896;1.2229999999999999;0.00875859515719863
23:21.8;0.019985797685899677;-0.3557283091024142;-1.26949582348156;1.2229999999999999;0.009025498351397581
23:21.8;0.020553878728414833;-0.3403287215114522;-1.2824434121927981;1.2229999999999999;0.008970788197474483
23:21.8;0.020577300207952936;-0.32103670635381254;-1.2919844567446124;1.254;0.008534938060451292
23:21.8;0.01979553350132982;-0.29838250400057226;-1.2967771869411169;1.305;0.007659597111121309
23:21.8;0.017877934775156153;-0.27324954480718733;-1.2953048758545305;1.358;0.006327742474010009
23:21.9;0.014485104532164408;-0.24681143255696883;-1.286141822752051;1.405;0.00459807199783031
23:21.9;0.009345469770899076;-0.22042054243392087;-1.2682513367111568;1.4340000000000002;0.002612513435458519
23:21.9;0.0023333530724043046;-0.1954599546867273;-1.2412575310549796;1.443;0.0005661091174912073
23:21.9;-0.0064686191563856155;-0.17318038441429207;-1.2056303573785583;1.422;0.0013505928825785479
23:21.9;-0.016739743093993734;-0.15454944019437244;-1.1627345181731306;1.135;0.003008131313021925
23:21.9;-0.02793390903597115;-0.14014009174149777;-1.1147254699052382;1.135;0.004363771848985995
23:21.9;-0.03933050442307045;-0.13007847758378469;-1.0643219757671942;1.135;0.005445126719596577
23:21.9;-0.050109384048642396;-0.12405964836429381;-1.014507404093899;1.0070000000000001;0.006306738604954823
23:21.9;-0.05943779515480835;-0.12142690523315268;-0.9681965126225631;0.887;0.006987810698794493
23:21.9;-0.06656213868938012;-0.1212993159185518;-0.9278908042408098;0.794;0.007491736432868315
23:22.0;-0.07089612066373982;-0.12272429414802251;-0.8953604463041147;0.747;0.007790241474469528
23:22.0;-0.07209318394986049;-0.12482845377030727;-0.8714082955826306;0.735;0.007842047838688564
23:22.0;-0.07009036544941367;-0.12694073618982676;-0.8557659385283176;0.748;0.007614025616588521
23:22.0;-0.06511289547607255;-0.12866745860880568;-0.8471478156122225;0.7859999999999999;0.007097328819692915
23:22.0;-0.05763470312159373;-0.12990961165939377;-0.8434596225043561;0.924;0.006315236834682111
23:22.0;-0.04830169714559763;-0.13082707124513143;-0.8421251007023016;0.924;0.005321531313630497
23:22.0;-0.03783825419658731;-0.13176736313650167;-0.8404683537272932;0.924;0.0041904466042026476
23:22.0;-0.02696110343981871;-0.13318080207152552;-0.8360839477799219;0.9570000000000001;0.0030021277857985654
23:22.0;-0.016314853585092142;-0.13553801873206167;-0.8271463104590553;0.9690000000000001;0.0018290545176146908
23:22.0;-0.00643132455571882;-0.13925826984579873;-0.8126304733797869;0.9520000000000001;0.0007278041474205976
23:22.1;0.002289821250846197;-0.1446537439127732;-0.7924247165192932;0.904;0.00026247580309562957
23:22.1;0.009581817032219648;-0.15189416146355067;-0.7673233241618457;0.833;0.0011167792957513158
23:22.1;0.015296251543475638;-0.1609937324365222;-0.7389038021676515;0.762;0.00181962496745067
23:22.1;0.01937824218929366;-0.17181914936270964;-0.7093121963807919;0.701;0.002361692614602362
23:22.1;0.02183749791199909;-0.18411446714628613;-0.6809941571931541;0.619;0.002738004626182386
23:22.1;0.022721408698934183;-0.1975364171197508;-0.6564153984949185;0.619;0.0029461929525119697
23:22.1;0.02209528265372934;-0.2116919932756372;-0.637812724578844;0.619;0.0029833016833870738
23:22.1;0.020033241989940574;-0.22617202572280184;-0.6270035038969332;0.623;0.0028409271205208646
23:22.1;0.016621034475323992;-0.24058011849115338;-0.6252612782529795;0.633;0.002500226298052658
23:22.1;0.011969316183422724;-0.2545597247791485;-0.6332507377650634;0.652;0.001929455366930796
23:22.2;0.006233574277364563;-0.26782025978174967;-0.6510123618217251;0.679;0.0010868504787815397
23:22.2;-0.0003645643588956638;-0.28016012494552306;-0.6779895151136655;0.7070000000000001;6.924740582926368e-05
23:22.2;-0.007520179509553083;-0.2914835814609132;-0.713093224844902;0.741;0.0015631066644938973
23:22.2;-0.014837051369949929;-0.3018086819635024;-0.7548021575516831;0.789;0.0033799670144598736
23:22.2;-0.021832914757444505;-0.3112636438726283;-0.8012955454496749;0.946;0.005445438341194864
23:22.2;-0.027960294445833048;-0.32006911525297727;-0.8506088834006169;0.946;0.007612291735256271
23:22.2;-0.03264198045794829;-0.3285046242952776;-0.9007895353771208;0.946;0.009659203594568467
23:22.2;-0.03531798418444603;-0.3368601328564634;-0.950030467585972;1.008;0.011302722281964123
23:22.2;-0.03550152859636443;-0.34537781493535635;-0.9967791551259346;1.074;0.012221948176101843
23:22.2;-0.03284175859240525;-0.35419313869335334;-1.0398310255579917;1.136;0.012095653012575465
23:22.3;-0.027186993512947545;-0.36328596574572986;-1.0784086236772497;1.193;0.010651067977558899
23:22.3;-0.018636613615870535;-0.3724507929853138;-1.1122138691343877;1.239;0.007720122843046599
23:22.3;-0.007566364307320676;-0.3812912178879718;-1.1414356887556696;1.272;0.0032930285635711077
23:22.3;0.005386321823423325;-0.38923880111348325;-1.1666981804387784;1.288;0.0024460590944732426
23:22.3;0.019382137274429972;-0.39559224954290934;-1.188942141336465;1.239;0.00911612265940667
23:22.3;0.03347546306326958;-0.3995709994310351;-1.209246081196088;1.239;0.016174663036048077
23:22.3;0.04672168540353038;-0.40037897881627427;-1.228609608072712;1.239;0.02298283904854132
23:22.3;0.05826981763983289;-0.39727810588798834;-1.2477330605075279;1.22;0.02888417536394974
23:22.3;0.06742629459169029;-0.389674006671357;-1.2668271340724242;1.219;0.03328496369813921
23:22.3;0.0736900447022926;-0.3772154408627673;-1.285481511252137;1.244;0.035732558748156194
23:22.4;0.07676635761681856;-0.35989907231847645;-1.3026182017673344;1.28;0.035988919206340286
23:22.4;0.07657007873527163;-0.3381521117563151;-1.316550364484397;1.305;0.034088561530283716
23:22.4;0.07322726744557317;-0.31285289981581066;-1.3251560486670073;1.3459999999999999;0.030358480905417328
23:22.4;0.06707640539887484;-0.2852633436076929;-1.3261575700554935;1.405;0.02537528203208397
23:22.4;0.0586612222375775;-0.2568817557619133;-1.3174737359918545;1.47;0.019853008781169055
23:22.4;0.048706096683492996;-0.22925438824838915;-1.2975901355875445;1.47;0.014489003564643714
23:22.4;0.03807122536133995;-0.20379287679550462;-1.265880918237013;1.47;0.009821520073958928
23:22.4;0.027689464147116424;-0.18163309323371246;-1.222820042258715;1.4180000000000001;0.006149956991547836
23:22.4;0.01848735844201301;-0.1635491385256086;-1.1700385487186402;1.31;0.0035377186653420974
23:22.4;0.011296159085833424;-0.14992089710523465;-1.1102101488907918;1.169;0.0018801745309455756
23:22.5;0.006766036675461177;-0.14074968320640532;-1.0467774390445463;1.025;0.0009968644933130398
23:22.5;0.00529999001951969;-0.1357145603671277;-0.9835620293381298;0.893;0.0007074622163174246
23:22.5;0.0070184704221646;-0.13425718700453332;-0.9243244877356824;0.7879999999999999;0.0008709725669965238
23:22.5;0.011757089617070471;-0.13567901739166027;-0.8723468971556699;0.723;0.001391559366702133
23:22.5;0.019094694948380602;-0.139234031643904;-0.8301018455444028;0.722;0.0022069347991173147
23:22.5;0.028406372277706295;-0.14420402323337758;-0.7990495306243768;0.722;0.0032731571141092044
23:22.5;0.038931805227459544;-0.14995115704799208;-0.7795751298194139;0.722;0.004551057670505045
23:22.5;0.04984753667142304;-0.15594968727017736;-0.7710531535775145;0.753;0.005993941879557616
23:22.5;0.06033567056592055;-0.16180144222890236;-0.7720125279987119;0.799;0.007536693957215539
23:22.5;0.06964547681223139;-0.167238845479704;-0.7803716169900499;0.846;0.00908932310782659
23:22.6;0.07714376449887905;-0.17211851719525986;-0.7937085613431286;0.888;0.010538759378284685
23:22.6;0.08234930040346097;-0.17640923814940435;-0.8095295009465369;0.9129999999999999;0.011760178627320969
23:22.6;0.08494929705121373;-0.18017814343357264;-0.8255003440333412;0.919;0.012635113737747611
23:22.6;0.08479975401626183;-0.1835768766397176;-0.839618224599991;0.914;0.013070566942730651
23:22.6;0.08191385391934579;-0.18682668885452103;-0.8503140532912444;0.879;0.013012946159704667
23:22.6;0.07644354919012494;-0.19020019833708315;-0.856493632281853;0.879;0.012453056159397511
23:22.6;0.06865916771033939;-0.1939978521102919;-0.8575367154050142;0.879;0.011422158426260052
23:22.6;0.058929821283783254;-0.19851842314261045;-0.8532759249963402;0.879;0.009982180834717127
23:22.6;0.047704042959073524;-0.20402475822829028;-0.8439702930897063;0.878;0.008214198989974249
23:22.6;0.035487989803541675;-0.21070804402506;-0.8302777588313207;0.877;0.0062084890526480675
23:22.7;0.022819594444952514;-0.21865579292339798;-0.813222966195519;0.87;0.004057687009040679
23:22.7;0.0102399841030508;-0.22782994535171056;-0.7941521946808092;0.8540000000000001;0.0018527372311570478
23:22.7;-0.0017345548456723322;-0.23806081372601162;-0.774666224589419;0.831;0.0003198825662341014
23:22.7;-0.012637637875010524;-0.24906011618821236;-0.756524779867255;0.8059999999999999;0.0023811856186588963
23:22.7;-0.022074673358799493;-0.26045308682758667;-0.7415225510520617;0.753;0.004263322225210893
23:22.7;-0.029741366549328765;-0.27182515259191126;-0.7313461892699774;0.753;0.005912532797274888
23:22.7;-0.035436011972910686;-0.28277363445675696;-0.7274308261962145;0.753;0.007289125952408527
23:22.7;-0.039061935670760384;-0.2929543833343137;-0.7308362175106554;0.752;0.00836322579410358
23:22.7;-0.04061950343950471;-0.3021187102152651;-0.7421553301529783;0.762;0.009107664893602489
23:22.7;-0.04019057957128532;-0.3101403520712285;-0.7614613278033425;0.785;0.009491402621245608
23:22.8;-0.0379193335901686;-0.31703098888100434;-0.7882975290217851;0.8220000000000001;0.00947660059075685
23:22.8;-0.03399281089227716;-0.3229402332566921;-0.8217139501948928;0.86;0.009020485087432814
23:22.8;-0.028623970480152035;-0.3281365556666436;-0.8603499297310785;0.899;0.008080897871133424
23:22.8;-0.02203886969485805;-0.33296903401295724;-0.9025578435812847;0.9440000000000001;0.00662320516191897
23:22.8;-0.014468544850062423;-0.33781401021900925;-0.9465590215838857;1.103;0.0046264749083364835
23:22.8;-0.00614549537895811;-0.3430138631448866;-0.990614238971652;1.103;0.002088205019444672
23:22.8;0.0026959767619218963;-0.34881622684413904;-1.0331791674581128;1.103;0.0009716021454876841
23:22.8;0.011818008847066826;-0.35532137026961574;-1.073016819707725;1.153;0.004505802676675237
23:22.8;0.02098012696800771;-0.362443880041081;-1.1092591375100842;1.198;0.008434938064207613
23:22.8;0.029946115157090315;-0.36989268291543553;-1.1414261459814068;1.2329999999999999;0.01264340492483434
23:22.9;0.03849609918394798;-0.37717116008118395;-1.1694096856640286;1.25;0.01697938237485052
23:22.9;0.04643896991637372;-0.3835975564551709;-1.193422453027052;1.264;0.021259478858949455
23:22.9;0.053618759375089364;-0.38834620799297287;-1.2139138156898919;1.272;0.025276892658027683
23:22.9;0.059910898216289435;-0.3905120906191401;-1.231458687640025;1.278;0.028811121393459035
23:22.9;0.06520955144289915;-0.3892012865609503;-1.246629773777359;1.2790000000000001;0.0316390165143586
23:22.9;0.06941180028858218;-0.3836428304256099;-1.2598672101222337;1.2790000000000001;0.03354943169809666
23:22.9;0.07240448639475888;-0.3733044603214292;-1.2713638928761968;1.2790000000000001;0.034363590050753574
23:22.9;0.07405657586138523;-0.35798744983666264;-1.2809868086419678;1.2670000000000001;0.03396065726676313
23:22.9;0.07421889681657223;-0.3378814485597563;-1.2882520703750242;1.2770000000000001;0.03230573983283117
23:22.9;0.07273474306517874;-0.3135720451611836;-1.2923653899642913;1.3;0.029475729782912626
23:23.0;0.06946514360406052;-0.2860011304731552;-1.29233106776608;1.331;0.02567488296181334
23:23.0;0.06432887961751868;-0.2563831523021941;-1.2871197298426114;1.371;0.02122826097555485
23:23.0;0.05735088426850287;-0.22608531939473903;-1.2758688833659835;1.406;0.01654316216836126
23:23.0;0.04870663975014242;-0.1964874038469705;-1.2580757476650095;1.4180000000000001;0.012040088346249917
23:23.0;0.03874766941258299;-0.16884239660120642;-1.2337365866133319;1.255;0.008071412401991393
23:23.0;0.02799764499178858;-0.14416047205368485;-1.2034004089803538;1.255;0.004857109035439435
23:23.0;0.017119276192955425;-0.12313456581161993;-1.1681341116021118;1.255;0.0024623970845779205
23:23.0;0.006859818421128335;-0.10611521116688377;-1.1294160077306323;1.1640000000000001;0.000822137014643157
23:23.0;-0.002017868689408154;-0.09312942977319344;-1.0889721916781594;1.07;0.00020464287805535534
23:23.0;-0.00881364728306413;-0.08393187455552673;-1.0485672156866137;0.982;0.000775673338669681
23:23.1;-0.012969286057544337;-0.0780775323105186;-1.009773885420784;0.914;0.0010225069838638845
23:23.1;-0.014135946003369936;-0.07500724044659046;-0.9737620272479086;0.871;0.001032478222888921
23:23.1;-0.012217558155846632;-0.07413534663377061;-0.941146783110612;0.845;0.0008524464365061412
23:23.1;-0.0073808068315308695;-0.0749258961696283;-0.9119251256151475;0.8320000000000001;0.0005043069659217247
23:23.1;-2.7569295367964435e-05;-0.07694543316430455;-0.8855122121901181;0.872;1.878464837887676e-06
23:23.1;0.009265169764110128;-0.07988798126068154;-0.8608703941859417;0.872;0.0006371953539365933
23:23.1;0.01982170030738905;-0.08357596244871823;-0.8367060851184818;0.872;0.0013861020940394958
23:23.1;0.030940403619268704;-0.08794441948639066;-0.811699475948938;0.88;0.0022086633612844095
23:23.1;0.041950961358756235;-0.0930150239636522;-0.7847322030465628;0.875;0.0030620797333537676
23:23.1;0.05225337791521511;-0.09886459961712822;-0.7550830673477309;0.852;0.0039007661377935855
23:23.2;0.061339761515736134;-0.10559239548761794;-0.7225671187026304;0.8109999999999999;0.004680076156660802
23:23.2;0.06880099740917224;-0.11329052615648856;-0.6876008532251835;0.759;0.005359505673230598
23:23.2;0.07432281312178081;-0.12202149063750868;-0.6511874831554585;0.701;0.00590560655108645
23:23.2;0.0776774847167306;-0.13180502312142328;-0.6148283695220306;0.647;0.006294786640150065
23:23.2;0.07871679349492341;-0.14261418910388138;-0.5803770235827668;0.542;0.0065153888868030065
23:23.2;0.07736939642229687;-0.15437780140238092;-0.5498611539785097;0.542;0.006567606130357414
23:23.2;0.07364310838944485;-0.1669838184139013;-0.5253037932084925;0.542;0.006459769713440926
23:23.2;0.06763080369579397;-0.1802794687756139;-0.5085682453448869;0.525;0.00620069054479834
23:23.2;0.059517635305013965;-0.1940687890513466;-0.5012344044849651;0.514;0.005789515713448671
23:23.2;0.049586620804088204;-0.2081118907894609;-0.5045019335152625;0.518;0.005206240704096931
23:23.3;0.03821955093331376;-0.22212937480252276;-0.5191172185018316;0.526;0.004407141639303369
23:23.3;0.02589087409202363;-0.23581271442483318;-0.5453274350184322;0.547;0.003329440648544026
23:23.3;0.013153178160174101;-0.24884012582108778;-0.5828685839620424;0.588;0.0019077513206005744
23:23.3;0.0006134346453428956;-0.26089723864182096;-0.6309946338537836;0.642;0.00010098652977477201
23:23.3;-0.011100196849777207;-0.27170139151280764;-0.6885502028019651;0.855;0.0020766253619935032
23:23.3;-0.021378769694894002;-0.2810263943938199;-0.7540742251769907;0.855;0.00453047686196144
23:23.3;-0.02967425079095114;-0.28872198607158106;-0.8259035804823026;0.855;0.0070760186383606654
23:23.3;-0.03553607889254689;-0.2947226327197784;-0.9022478375173818;0.941;0.00944950030181118
23:23.3;-0.03864005427322816;-0.29904481022001356;-0.981233592100186;1.026;0.011338259832659821
23:23.3;-0.03881016956897047;-0.3017759802358688;-1.0609375104203023;1.105;0.012425675683130969
23:23.4;-0.0360330480349075;-0.303058459933876;-1.1394224831622228;1.173;0.012442630297171922
23:23.4;-0.030462516745376048;-0.30306876351026923;-1.2147796404157383;1.235;0.011215133887400284
23:23.4;-0.022411430572448498;-0.30199093757634266;-1.2851769941753184;1.306;0.008698140781575124
23:23.4;-0.012328861259501634;-0.299982662719575;-1.3489185286672354;1.368;0.004988900487207443
23:23.4;-0.0007626078505637125;-0.29713579596604334;-1.4045158954217083;1.527;0.0003182606202423852
23:23.4;0.011688869659648963;-0.29343817565535524;-1.450763823511383;1.527;0.004976062737721444
23:23.4;0.02442525171668632;-0.28874847200030235;-1.4867963535123931;1.527;0.010486009095072753
23:23.4;0.03688311513070969;-0.2827962374844939;-1.5121013846828162;1.5519999999999998;0.015771831636159004
23:23.4;0.04856038981003091;-0.27521472774697403;-1.526489438418411;1.555;0.02040082070387342
23:23.4;0.059028748141527705;-0.265609165131696;-1.530029111201253;1.5430000000000001;0.023988678486535922
23:23.5;0.06793740558239231;-0.25365694463101035;-1.522964966339908;1.515;0.026244942640110507
23:23.5;0.07501216588754159;-0.23922177056545693;-1.505634079344426;1.473;0.027017915686187735
23:23.5;0.08005571177485456;-0.22244551212509925;-1.478402505527262;1.426;0.026327441794786657
23:23.5;0.08295520292876313;-0.20377975819185318;-1.4416460331049752;1.4080000000000001;0.024370436835485128
23:23.5;0.08369901894695513;-0.18394305848086656;-1.3957927314434753;1.3980000000000001;0.02148942046124442
23:23.5;0.08239795191774021;-0.16382228129929804;-1.341427590088822;1.3980000000000001;0.01810742190990043
23:23.5;0.0792997391992487;-0.14435314466241744;-1.2794382272921472;1.3980000000000001;0.01464594270128307
23:23.5;0.07478339323105387;-0.12640889800443442;-1.2111625528549146;1.3659999999999999;0.011449466401125668
23:23.5;0.06932508087548706;-0.11071071258016683;-1.1384894319345127;1.286;0.008737939524013983
23:23.5;0.06343867005539824;-0.09776571332201274;-1.0638663185023804;1.158;0.006598233837693348
23:23.6;0.05760518450532086;-0.08783872107250232;-0.9901870708045922;1.01;0.005010312648613068
23:23.6;0.05220947071467191;-0.08096017290066782;-0.920565285432153;0.872;0.0038911261521063977
23:23.6;0.04749669981652313;-0.0769646057129733;-0.8580311052348906;0.758;0.0031365882833325545
23:23.6;0.04355141348058353;-0.07554867789199192;-0.805209268768582;0.685;0.002649341172495798
23:23.6;0.04029629106884599;-0.07633588718618299;-0.7640378177980531;0.643;0.002350220920152543
23:23.6;0.037508276823142485;-0.0789352847246175;-0.7355735341481393;0.643;0.002177832063022035
23:23.6;0.034851182792992576;-0.08298493455746644;-0.719908860390907;0.643;0.0020820650618243795
23:23.6;0.03192322607206082;-0.08817696361916352;-0.7162031894162215;0.684;0.002016035447571754
23:23.6;0.028315632693670805;-0.09426592739133677;-0.7228142220014833;0.728;0.001929335269998754
23:23.6;0.02367498905605986;-0.10106446153559963;-0.7375035451879449;0.773;0.0017646247479200486
23:23.7;0.017758602015472077;-0.10843151513004941;-0.7576838401117553;0.815;0.0014589900343414696
23:23.7;0.010471640618206178;-0.11625950466339459;-0.7806738359053463;0.853;0.0009504139925338535
23:23.7;0.0018787945145744291;-0.12446612210121574;-0.8039313152906077;0.8809999999999999;0.0001879963373701861
23:23.7;-0.007810278076792201;-0.1329934527494123;-0.8252419704660525;0.898;0.0008571919134595736
23:23.7;-0.018276210283289348;-0.14181273003385025;-0.8428508897852084;0.898;0.002184500325032886
23:23.7;-0.02913573271927005;-0.15092955717458137;-0.8555333722425864;0.898;0.0037621594420324264
23:23.7;-0.0399857807027541;-0.16038344587942685;-0.8626111553441602;0.898;0.0055319747627756355
23:23.7;-0.050436524693917205;-0.170238099559405;-0.8639259652737218;0.89;0.007417856770696567
23:23.7;-0.06013108321915672;-0.18056362909831405;-0.8597831416519665;0.8809999999999999;0.009335083945981223
23:23.7;-0.06875545328523198;-0.19141508809842708;-0.8508761774508036;0.872;0.011198237699149544
23:23.8;-0.07604350211377196;-0.20281188679053058;-0.8382008707455556;0.858;0.012927174841197943
23:23.8;-0.08178083164652548;-0.21472175066518268;-0.8229657204187195;0.846;0.014451379556787743
23:23.8;-0.08580961906440085;-0.2270522584773305;-0.8065031703382517;0.831;0.01571331725542022
23:23.8;-0.0880343575789994;-0.23965240247468586;-0.7901848233403028;0.818;0.016671039119632778
23:23.8;-0.08842699278023618;-0.2523254466052778;-0.7753431491011361;0.8029999999999999;0.01729975131835093
23:23.8;-0.08703007038754092;-0.2648510156136503;-0.7632028004554622;0.8029999999999999;0.01759182648221635
23:23.8;-0.0839570599025963;-0.2770094095287784;-0.7548255125367167;0.8029999999999999;0.017554898133274575
23:23.8;-0.07938884659508472;-0.28860024702734877;-0.7510710356498569;0.804;0.01720826973794602
23:23.8;-0.07356492371237718;-0.2994530904705099;-0.752572547112516;0.8079999999999999;0.016578604084339126
23:23.8;-0.06676806785015162;-0.3094331411582789;-0.7597225769502486;0.812;0.015696060622209653
23:23.9;-0.05930251241986577;-0.31844512577932166;-0.7726670627128623;0.823;0.014591505342371877
23:23.9;-0.0514674911640278;-0.32643567649557065;-0.7913086047819372;0.84;0.013294637623893175
23:23.9;-0.043529929188683716;-0.3333924078376967;-0.8153226105885002;0.861;0.011832408444374396
23:23.9;-0.0357011317131279;-0.3393369624385442;-0.8441910631057374;0.887;0.01022713294573546
23:23.9;-0.02812170272217212;-0.34430960582886244;-0.8772568164670094;1.013;0.008494102620858172
23:23.9;-0.020856871370710215;-0.34834546635200037;-0.9137924622496117;1.013;0.006639064633963416
23:23.9;-0.013902125895149334;-0.35144681036975783;-0.9530645838582295;1.013;0.004656538034005914
23:23.9;-0.007197073050293677;-0.3535586555701814;-0.9943725620208114;1.061;0.0025302679635225925
23:23.9;-0.0006438290725158765;-0.35455394395800854;-1.0370566199662803;1.112;0.00023673113072115168
23:23.9;0.005874064122573327;-0.35423047939165225;-1.080483457414026;1.153;0.002248240319042027
23:24.0;0.012474622210556294;-0.35231808295979455;-1.1240167172442161;1.172;0.004940092793620003
23:24.0;0.019262076926299596;-0.34849389943036563;-1.1669747163725972;1.19;0.007833570199318076
23:24.0;0.02631075693728517;-0.342407220502722;-1.2085804966512261;1.213;0.010888093418235762
23:24.0;0.03364587440173843;-0.3337186145616839;-1.247916064112339;1.248;0.014011919276132606
23:24.0;0.04122216019884663;-0.3221555081070628;-1.2838958999280705;1.3219999999999998;0.017050068174613058
23:24.0;0.04890472174659673;-0.3075779173678545;-1.3152705470855246;1.3219999999999998;0.019784315963151163
23:24.0;0.056456828450562734;-0.290041490021846;-1.3406628524962325;1.3219999999999998;0.02195311643731608
23:24.0;0.06353832290959102;-0.2698443912332335;-1.358636867230956;1.351;0.02329445415065047
23:24.0;0.06971930383197529;-0.24754623004200754;-1.3678039624151046;1.3840000000000001;0.023606587764440006
23:24.0;0.07451457702149954;-0.22394932077380209;-1.3669702092812872;1.42;0.022811300210022086
23:24.1;0.07744046875753456;-0.20003784385173315;-1.3553162532887253;1.4509999999999998;0.02099523714551531
23:24.1;0.07808770242121542;-0.1768800633928117;-1.332583296107095;1.4709999999999999;0.018405850706794274
23:24.1;0.07619735496716687;-0.15550946474858687;-1.29922579128088;1.4709999999999999;0.015395058935612532
23:24.1;0.07172360998008262;-0.13680733147891058;-1.2564864869130445;1.4340000000000002;0.012329042064041647
23:24.1;0.06486720124807814;-0.12140924311523181;-1.2063570300763913;1.136;0.009500638017121183
23:24.1;0.05607017322767727;-0.1096518240891605;-1.1514168759458245;1.136;0.007079137519237134
23:24.1;0.0459752143788482;-0.10156556792320033;-1.0945863422166529;1.136;0.005111169566356672
23:24.1;0.035360944070752874;-0.09690896279761618;-1.0388477912896679;1.018;0.003559915729911557
23:24.1;0.025062278562747616;-0.09523331634994295;-0.9869675652504215;0.914;0.0023556585579904313
23:24.1;0.015881248801566477;-0.09596627678577;-0.9412311868958424;0.831;0.0014344968671201007
23:24.2;0.00849636358183787;-0.09850166499211495;-0.9032132700426901;0.778;0.0007559045681176718
23:24.2;0.0033837043396240923;-0.10228312059993556;-0.8736183942179306;0.752;0.00030235569115138555
23:24.2;0.0007642282319381341;-0.10687017713696241;-0.8522267666931636;0.754;6.960409271825485e-05
23:24.2;0.0005883076448587915;-0.11197786832895056;-0.8379627160028842;0.7809999999999999;5.520283518792734e-05
23:24.2;0.0025613613202496183;-0.11748505617299644;-0.8290830996247907;0.903;0.00024948907802875266
23:24.2;0.0062041090984214274;-0.12341294880643802;-0.823457535016677;0.903;0.0006304945886551179
23:24.2;0.010930832360538502;-0.12988229838754656;-0.818888939851731;0.903;0.0011625943407010484
23:24.2;0.016126320969965243;-0.13706156021217342;-0.8134168921574051;0.927;0.0017978943095635312
23:24.2;0.021208924112842236;-0.14511689869367658;-0.8055614894095725;0.929;0.0024793356370760456
23:24.2;0.025675406993797962;-0.15417099448032826;-0.7944840181412091;0.905;0.0031448879446339785
23:24.3;0.02912723657136563;-0.16427436178338442;-0.7800514368677393;0.86;0.0037324355127725953
23:24.3;0.03127978730344718;-0.17539091377503993;-0.7628017166456901;0.8059999999999999;0.004184875514341967
23:24.3;0.03195823725001619;-0.18739807147581067;-0.7438218986070423;0.753;0.0044546839155695074
23:24.3;0.03108557250293225;-0.20010034083799838;-0.724565068678427;0.7090000000000001;0.00450696402396808
23:24.3;0.02866814983317669;-0.21325365442931574;-0.7066405690203204;0.677;0.004320109103557328
23:24.3;0.02478315171394445;-0.2265950214222408;-0.6916125632912893;0.677;0.00388391550176892
23:24.3;0.01957065377283928;-0.23986912836715765;-0.6808359614978153;0.677;0.0031961133842341393
23:24.3;0.013230902889580266;-0.2528448264760343;-0.6753463107778837;0.69;0.0022592801441101125
23:24.3;0.006024928169130937;-0.2653207127881803;-0.6758057188999204;0.7040000000000001;0.0010803012819929569
23:24.3;-0.0017250668353590254;-0.27712391779598;-0.6824968123951498;0.722;0.0003262725696567145
23:24.4;-0.00963894381747216;-0.2881058055799734;-0.6953535584391812;0.741;0.0019310216374619435
23:24.4;-0.01728751812414316;-0.2981360720662017;-0.7140188367641523;0.763;0.0036800764683033254
23:24.4;-0.024207898763440407;-0.30709650746816725;-0.7379208802823702;0.797;0.005485822749853827
23:24.4;-0.029925502148773788;-0.3148770199487865;-0.7663622321057073;0.8390000000000001;0.007221318609662071
23:24.4;-0.033982148445989464;-0.32137682859048633;-0.7986134868102321;0.948;0.00872171786234316
23:24.4;-0.03596817979596305;-0.32651125502722284;-0.8339978194100115;0.948;0.009794483339988714
23:24.4;-0.0355554639697059;-0.33022067541940553;-0.8719458152848524;0.948;0.010237646022248229
23:24.4;-0.03252854227855589;-0.33247686577497726;-0.9120051186020164;0.98;0.00986332421754111
23:24.4;-0.02681238619150077;-0.3332842750636902;-0.9538069732619948;1.008;0.00852335903136539
23:24.4;-0.018495477290962105;-0.3326762113395619;-0.9970060671894136;1.035;0.006134583627586646
23:24.5;-0.007845557710685312;-0.33070623392893367;-1.0412118243864448;1.0659999999999998;0.0027015020063836576
23:24.5;0.0046863122599061354;-0.3274347227901599;-1.0859254617000649;1.099;0.001666310656182543
23:24.5;0.018478036622197266;-0.32291121693233843;-1.1304945749133612;1.135;0.006745395792606693
23:24.5;0.03276823330661287;-0.31715456792731367;-1.1740950208947514;1.179;0.012201893898205566
23:24.5;0.046707791357506794;-0.3101350881584254;-1.215745307512828;1.301;0.017610952182934098
23:24.5;0.059427079790876663;-0.3017659900439786;-1.2543483929082138;1.301;0.022494319501876536
23:24.5;0.0701095671346953;-0.291914062378517;-1.288743731486474;1.301;0.026375388682622805
23:24.5;0.07806216313568144;-0.2804376145584853;-1.3177526528897585;1.331;0.028847670249075554
23:24.5;0.08277828371206902;-0.2672507010805854;-1.3402158337049863;1.36;0.02964899763030987
23:24.5;0.08399417853492158;-0.2523985258118916;-1.3550352885371737;1.374;0.028726757384067696
23:24.6;0.0817366320220275;-0.23611605713335357;-1.3612335320666176;1.3730000000000002;0.026270896879898996
23:24.6;0.0763533985671419;-0.2188416738983874;-1.3580360948204009;1.381;0.022691840056641464
23:24.6;0.06851302413616626;-0.20117681087888475;-1.3449763746907768;1.405;0.018538121002557778
23:24.6;0.059163228058069804;-0.18380739763285253;-1.3220119753618054;1.422;0.014376402965791036
23:24.6;0.04944686726427761;-0.16741222844690903;-1.2896305154083578;1.335;0.010675574610343732
23:24.6;0.040586228720831986;-0.1525778901190652;-1.248918835517835;1.335;0.007734006255478124
23:24.6;0.03375385301349125;-0.1397346276720649;-1.201575879011358;1.335;0.005667331262715846
23:24.6;0.029947589895681265;-0.1291241210271277;-1.1498555890359998;1.245;0.004446441224609056
23:24.6;0.029881799791116125;-0.12080204366238538;-1.0964265826707682;1.12;0.0039578614721049905
23:24.6;0.033903767658847624;-0.11466928860833958;-1.0441446641363816;0.996;0.004059343052789296
23:24.7;0.0419455538146317;-0.11052186861510109;-0.9957607400009757;0.895;0.004616248198071832
23:24.7;0.05351923615943155;-0.10810817528347094;-0.9536139915494453;0.8220000000000001;0.005517483689886485
23:24.7;0.06775663445892559;-0.10718078494238;-0.9193698870633689;0.7829999999999999;0.006676656513045376
23:24.7;0.08348958162036836;-0.10753158890229139;-0.8938533382778454;0.777;0.008024807332549268
23:24.7;0.0993648221816791;-0.1090058605640479;-0.8770058039899413;0.885;0.009499155018682063
23:24.7;0.11398213237324302;-0.11149888750820226;-0.8679659533949996;0.885;0.011030875975062695
23:24.7;0.1260344387276709;-0.11494290363011848;-0.8652444333678161;0.885;0.012534592206806944
23:24.7;0.13442615286973444;-0.11929174359861916;-0.8669497141462984;0.925;0.01390234506922277
23:24.7;0.13835667014184114;-0.12450857305739335;-0.8710284154427543;0.961;0.015004850760728806
23:24.7;0.13736872835680722;-0.13055999476816943;-0.8754937641814513;0.976;0.015701858490320273
23:24.8;0.13136592405582065;-0.1374174382057288;-0.8786185566924096;0.9740000000000001;0.015860794729705408
23:24.8;0.12060310892706472;-0.14506365867637014;-0.8790718029553612;0.9540000000000001;0.015379473914942769
23:24.8;0.10565252417541018;-0.15349975209172076;-0.875988547329672;0.924;0.014206463636218351
23:24.8;0.08734757742017142;-0.16274801473260736;-0.8689764798523866;0.8959999999999999;0.012353060991765641
23:24.8;0.06670593504439547;-0.17284808185208575;-0.8580746440710951;0.845;0.009893594571463424
23:24.8;0.044838137874323794;-0.18384591784191137;-0.843686205685635;0.845;0.006954765765008231
23:24.8;0.022856298917264126;-0.19577611038657045;-0.8265076243518011;0.845;0.003698387965148857
23:24.8;0.0017986718081636453;-0.20863924296174996;-0.8074690012763982;0.8370000000000001;0.0003030217379462055
23:24.8;-0.01742459102350129;-0.22237892767047127;-0.7876875262372823;0.8340000000000001;0.003052180358451794
23:24.9;-0.03406929981863459;-0.2368646280184596;-0.7684258097078873;0.828;0.00620105184210623
23:24.9;-0.04758397262762733;-0.251884681196379;-0.7510438862977808;0.81;0.009001767012149126
23:24.9;-0.05762663055639804;-0.26715101942037967;-0.7369359073075408;0.7909999999999999;0.011345137946051805
23:24.9;-0.06407056951715057;-0.28231535324612356;-0.727447966869959;0.773;0.013158155545709026
23:24.9;-0.06699761814644048;-0.2969959430869037;-0.7237809054990615;0.76;0.014401807502114552
23:24.9;-0.06667759636648908;-0.3108132168956648;-0.7268884237786197;0.782;0.015064237930404178
23:24.9;-0.06353452858625223;-0.3234297920657284;-0.7373834382090296;0.782;0.015152462311606954
23:24.9;-0.05810385613119281;-0.33458683185702626;-0.7554642342261096;0.782;0.014686817859762431
23:24.9;-0.050986890169759554;-0.3441289307427531;-0.7808698631850876;0.812;0.013701192592007009
23:24.9;-0.04280660956245779;-0.35201500815190867;-0.8128735394244724;0.8540000000000001;0.012248841028540515
23:25.0;-0.03416595239845116;-0.35831669013369555;-0.850320834481503;0.904;0.010409824061705137
23:25.0;-0.02560935764926815;-0.36320496357376486;-0.8917134504028162;0.9570000000000001;0.008294224338887062
23:25.0;-0.017589324089277193;-0.3669246765231406;-0.9353314971466771;1.01;0.006036589311704423
23:25.0;-0.010440429101637946;-0.36975818242084535;-0.9793813793994474;1.064;0.0037808372624949316
23:25.0;-0.004363819187410203;-0.3719830246006888;-1.0221536066498655;1.121;0.0016592278712200248
23:25.0;0.0005744717774449246;-0.37383141386999985;-1.0621729145679555;1.229;0.0002281075781629033
23:25.0;0.0044296067985030154;-0.3754584322158915;-1.0983193219873053;1.229;0.0018266513548470874
23:25.0;0.007350698923618887;-0.3769207489358925;-1.1298963817958785;1.229;0.003130525878344091
23:25.0;0.00954612748380754;-0.3781626995847524;-1.1566311755578669;1.235;0.004175426213910007
23:25.0;0.011247960383806257;-0.379006423372491;-1.1786095554995009;1.23;0.0050244705642916365
23:25.1;0.01268060551278487;-0.3791464504841955;-1.1961660361552096;1.226;0.005750934927632495
23:25.1;0.014036789671607078;-0.37815423112030705;-1.2097519966840617;1.227;0.006421449981543649
23:25.1;0.015461644872685202;-0.3755033471392629;-1.2198027649242202;1.227;0.0070820521433972205
23:25.1;0.017043777221969335;-0.3706268939385164;-1.2266198539629016;1.235;0.007748413137314719
23:25.1;0.018810850264162692;-0.3630077416730121;-1.230282211392173;1.235;0.008400962732264957
23:25.1;0.020725852875941007;-0.3522831144506167;-1.2306001310319818;1.236;0.008985064418474764
23:25.1;0.022680997671060903;-0.3383347301234431;-1.227123580539337;1.236;0.009416663168803449
23:25.1;0.024491637492231322;-0.32134495783804;-1.2192099552553866;1.236;0.009595504484253656
23:25.1;0.02589846120185084;-0.30181380942351677;-1.2061478256787201;1.251;0.009427870441020503
23:25.1;0.02658599285971124;-0.2805349217342767;-1.1873263880809861;1.27;0.008855435718850018
23:25.2;0.026220230401626857;-0.25852701538205586;-1.1624318232288793;1.296;0.007879704422826142
23:25.2;0.024503424406312094;-0.2369229654132566;-1.1316387230986427;1.3030000000000002;0.006569642571991193
23:25.2;0.021240260618615652;-0.21683022940733018;-1.095752425801258;1.264;0.0050465213079923105
23:25.2;0.016404476185221346;-0.199186315644902;-1.0562561599690932;1.189;0.0034513668278006696
23:25.2;0.010188695348866439;-0.18463801879729444;-1.0152308964700858;1.094;0.0019098731983723596
23:25.2;0.0030188960847276004;-0.17347096973120263;-0.9751445214362363;0.857;0.0005106742451031304
23:25.2;-0.004475807387276452;-0.16560331233784717;-0.9385452120741352;0.857;0.0006956577157779063
23:25.2;-0.01153166840822499;-0.16063825910785037;-0.9077263308473777;0.857;0.0016814968888722122
23:25.2;-0.0173418245720431;-0.1579575765277357;-0.8844312839405623;0.8109999999999999;0.0024226983667340793
23:25.2;-0.02115808928161525;-0.15683730208265076;-0.8696358552941013;0.787;0.0028857801772827416
23:25.3;-0.022393642133615697;-0.1565699688634587;-0.8634176405697793;0.7809999999999999;0.003027290627540341
23:25.3;-0.020714244300533688;-0.15657692237840223;-0.8649178440266991;0.7909999999999999;0.002805250855571179
23:25.3;-0.01610153217950023;-0.1564928545473716;-0.8724041422536534;0.816;0.002198261914926177
23:25.3;-0.008872804880416764;-0.1562077966812027;-0.8834387597254795;0.8590000000000001;0.0012244472701143582
23:25.3;0.00035155257395978767;-0.15586026344085466;-0.8951441136666758;0.9159999999999999;4.9047700158866086e-05
23:25.3;0.010730158911524802;-0.15578625619800648;-0.9045427322561939;1.046;0.0015120438392177726
23:25.3;0.021315345290448633;-0.15643870912453475;-0.9089292519316137;1.046;0.0030308655848944994
23:25.3;0.031173888492744082;-0.1582971096840165;-0.9062168844473506;1.046;0.004471941487674882
23:25.3;0.03948933437300113;-0.16178519398928048;-0.8952025301538661;1.046;0.005719260634274147
23:25.3;0.045633533243853545;-0.1672077009326965;-0.8757151247947038;1.011;0.0066819500078643505
23:25.4;0.049205486763660995;-0.1747104713697936;-0.8486346292516114;0.9470000000000001;0.007295469016954149
23:25.4;0.050039219201699923;-0.18426451411852482;-0.8157849631354492;0.8690000000000001;0.007521906431889774
23:25.4;0.04818428934491796;-0.1956726314140268;-0.7797184012815581;0.79;0.007351455407024632
23:25.4;0.04386621115378137;-0.20859534970174753;-0.7434235553754043;0.7190000000000001;0.006802539381718369
23:25.4;0.03743666957498887;-0.22259169303525647;-0.7099987370851999;0.6659999999999999;0.005916484556246964
23:25.4;0.029322506240929122;-0.23716984712020833;-0.6823340879343734;0.636;0.0047452339537533235
23:25.4;0.0199801670776743;-0.2518409968317659;-0.6628406636561267;0.636;0.0033352983507981856
23:25.4;0.009861349390749143;-0.26616662551611353;-0.6532543720618392;0.636;0.0017146373111570814
23:25.4;-0.0006061703984490932;-0.27979056368507904;-0.6545283539576211;0.6629999999999999;0.0001110085046176431
23:25.4;-0.011023514354696968;-0.2924539130953308;-0.6668124882060558;0.6970000000000001;0.0021497167157353866
23:25.5;-0.021017313200257723;-0.3039968547344663;-0.6895079914468288;0.7340000000000001;0.004405402464789837
23:25.5;-0.030234354124618987;-0.31435176920763225;-0.7213801639934628;0.778;0.006856157737115406
23:25.5;-0.038338066388819966;-0.3235305221273322;-0.7607117084685987;0.83;0.009435514024097797
23:25.5;-0.04500849608376861;-0.3316080985483682;-0.8054806783211241;0.887;0.012021945564244883
23:25.5;-0.04994724977554575;-0.3387036928772505;-0.8535492040774475;0.941;0.014439763269674461
23:25.5;-0.052889354113189804;-0.34495844619265;-0.9028495225675024;1.078;0.01647215495677073
23:25.5;-0.05362280061972801;-0.3505087009747262;-0.951549325759547;1.078;0.017884615256122997
23:25.5;-0.052013417122290434;-0.35545625040227985;-0.9981724673628297;1.078;0.018454705894298273
23:25.5;-0.04803035227894313;-0.35984026274088465;-1.0416572630950736;1.119;0.018003227666919978
23:25.5;-0.041767718388786686;-0.3636164181312287;-1.0813549835542047;1.159;0.016423001121747424
23:25.6;-0.03345885284142608;-0.36664698766590886;-1.1169858873565526;1.192;0.013702722226768676
23:25.6;-0.023479405886616827;-0.3687026966472232;-1.148567860414879;1.217;0.009943060387782582
23:25.6;-0.012335504338213026;-0.36947523675503735;-1.1763247079158368;1.228;0.005361292051143467
23:25.6;-0.000635209276471981;-0.36859949733052094;-1.2005787896900246;1.23;0.00028110090056497237
23:25.6;0.010955244119099235;-0.3656863371928492;-1.2216359821444422;1.229;0.004894097419870352
23:25.6;0.021765460552827482;-0.36036778046737794;-1.2396758883814407;1.256;0.00972348548833997
23:25.6;0.031177377437500837;-0.35235415993381825;-1.254662871732407;1.256;0.013783072172711174
23:25.6;0.03867631635472185;-0.3414963342084374;-1.2662921238012426;1.256;0.016724958762531616
23:25.6;0.043892422386814775;-0.3278395675381558;-1.2739820257888956;1.276;0.018332184470417016
23:25.6;0.046632809500461225;-0.31165302720596433;-1.2769214294668232;1.287;0.018557826342924365
23:25.7;0.046905178643361384;-0.2934216794590365;-1.274175329563629;1.2990000000000002;0.017536470337239464
23:25.7;0.04493056989457998;-0.27379843369522394;-1.264842115541233;1.324;0.015559986090717121
23:25.7;0.04114119011354363;-0.2535307073557828;-1.248242608698086;1.357;0.0130198632219963
23:25.7;0.036160253778662756;-0.23338297019816767;-1.2241094104024979;1.379;0.010330488749193678
23:25.7;0.030760855431333806;-0.21406901879538737;-1.1927365327132815;1.375;0.007854105826521861
23:25.7;0.025800020282620306;-0.1961976712813284;-1.1550483235619835;1.151;0.005846743611949413
23:25.7;0.02212892021754031;-0.18023441061240209;-1.1125644081701473;1.151;0.004437343978436246
23:25.7;0.020491986867805796;-0.16648361232678333;-1.067271493252707;1.151;0.003641082078288564
23:25.7;0.021434909683993107;-0.15509275174181575;-1.0214334229426612;1.0270000000000001;0.0033956523787304384
23:25.7;0.025236684618366673;-0.1460735707145498;-0.9773633098191368;0.917;0.0036029644544998927
23:25.8;0.03187167456717329;-0.13933217315672705;-0.9371755983068629;0.835;0.004161762237899121
23:25.8;0.04100261744438948;-0.13470099137642272;-0.9025508079465187;0.785;0.004984872246980567
23:25.8;0.05200401356401865;-0.13196737663451816;-0.8745588819398485;0.773;0.006001951769257799
23:25.8;0.06401457782342328;-0.13089563849635072;-0.8535786261747108;0.795;0.0071523308100373
23:25.8;0.07601627800512274;-0.13124225926991467;-0.8393269476656569;0.8390000000000001;0.008373585637048108
23:25.8;0.08693435024298352;-0.13276642918219483;-0.8309846484495867;0.912;0.009591194277903468
23:25.8;0.09574675199498914;-0.13523864669403096;-0.8273826270927989;0.912;0.010713497292157417
23:25.8;0.10158600062903912;-0.1384495108189385;-0.8272005257838841;0.912;0.011634188342352074
23:25.8;0.1038174995067448;-0.14222019940850852;-0.8291351423800913;0.905;0.012242135174404251
23:25.8;0.10208701555728221;-0.14641525375162012;-0.8320146613083985;0.885;0.01243620325524247
23:25.9;0.09633866314238967;-0.1509561550272724;-0.8348549487347509;0.861;0.012141223862549153
23:25.9;0.08680816214321825;-0.1558315563480117;-0.8368684769244346;0.838;0.011320697323817207
23:25.9;0.0739955455335618;-0.16109916355102696;-0.8374451554287906;0.8270000000000001;0.009982865880696008
23:25.9;0.05861987528951872;-0.16687599847003443;-0.83612752909206;0.833;0.0081792087046792
23:25.9;0.04155775848364438;-0.17331735534333031;-0.8325986595341744;0.851;0.0059969423744550745
23:25.9;0.023768848772347848;-0.18058851520915623;-0.8266901855377551;0.86;0.003548469334595475
23:25.9;0.006215660360768638;-0.18883467771813253;-0.8184057089119741;0.86;0.0009605891504257972
23:25.9;-0.01021076374349041;-0.19815302253023484;-0.8079471190935288;0.86;0.0016347143144719123
23:25.9;-0.024749481366063412;-0.20856945750554384;-0.795730585626957;0.851;0.004107550064847015
23:25.9;-0.036810516006763314;-0.22002330788860325;-0.7823818733467165;0.8340000000000001;0.006336644968296604
23:26.0;-0.04600114977602534;-0.23236344212140228;-0.768705132523229;0.812;0.008216678018006397
23:26.0;-0.05213943577703092;-0.2453572186374232;-0.7556253818885902;0.785;0.009666554519659636
23:26.0;-0.05525408091014762;-0.2587107681321395;-0.7441119240302345;0.7659999999999999;0.010636950266242048
23:26.0;-0.05556993291992098;-0.2720972779444732;-0.7350957669479228;0.7509999999999999;0.011114962237245932
23:26.0;-0.05347948298364431;-0.28518925042927296;-0.7293968133716073;0.746;0.01112459510984465
23:26.0;-0.04950172233538958;-0.2976903360932385;-0.7276751353302997;0.7909999999999999;0.010723154947844963
23:26.0;-0.04423144011170047;-0.30936131728184363;-0.7304142545649931;0.7909999999999999;0.009994620953029502
23:26.0;-0.038284464191288836;-0.32003414846114436;-0.7379346409773582;0.7909999999999999;0.009041423091102428
23:26.0;-0.032244454175614765;-0.3296104973044952;-0.7504290810297974;0.8290000000000001;0.007975643252733103
23:26.0;-0.02661384531095346;-0.3380465997910774;-0.7680110774825777;0.87;0.00690958055552346
23:26.1;-0.02176955618670981;-0.3453299570594679;-0.7907666214157579;0.904;0.005944730337907112
23:26.1;-0.017926112708694188;-0.35145339144325477;-0.8187950611466281;0.93;0.005158567000170767
23:26.1;-0.01511234961461225;-0.3563905661304557;-0.8522229006933104;0.9490000000000001;0.0045899863277598625
23:26.1;-0.01316858790424411;-0.36007597569380095;-0.891180397506854;0.965;0.004225703084514071
23:26.1;-0.01176789331190466;-0.3623910555169096;-0.9357421531021496;0.977;0.003990546596149173
23:26.1;-0.010459703154044825;-0.3631565627425383;-0.9858432983162995;1.071;0.00374473547401576
23:26.1;-0.00872960851402137;-0.3621314826456589;-1.0411858574983077;1.071;0.003291465528140791
23:26.1;-0.006067121470208417;-0.3590206791775565;-1.1011459271362671;1.071;0.0023985403617555025
23:26.1;-0.0020340140529246683;-0.35349480239122716;-1.1646931149250404;1.141;0.00083742995151018
23:26.1;0.003672239612706905;-0.3452251595911573;-1.2303425564698471;1.232;0.0015597661686106113
23:26.2;0.011164632933770137;-0.3339343477064071;-1.2961604172331391;1.321;0.004832415799549394
23:26.2;0.020328075456568676;-0.3194593502885953;-1.3598279757591916;1.3980000000000001;0.008830714413693768
23:26.2;0.030802027097816077;-0.3018159253088528;-1.418752172292037;1.456;0.013189489596997757
23:26.2;0.04198816640527515;-0.28124662412207185;-1.470205263650582;1.496;0.017361698144821185
23:26.2;0.05308533840067303;-0.2582372540610256;-1.511480512194803;1.527;0.02072029991669876
23:26.2;0.06315468721329845;-0.23349677503048274;-1.5400571536664573;1.578;0.022710323131970283
23:26.2;0.07121467733750102;-0.20790671798761956;-1.553770903390835;1.578;0.023005147281272124
23:26.2;0.07635456304874234;-0.18245354092518906;-1.5509848018440953;1.578;0.02160701804320633
23:26.2;0.07784631549631094;-0.15815596910230129;-1.5307533126092714;1.5919999999999999;0.0188464196655758
23:26.2;0.07523847073720435;-0.13599003026801845;-1.4929713544959518;1.5959999999999999;0.015275608004232001
23:26.3;0.06842285523528241;-0.11680966944114604;-1.4384936511108601;1.575;0.011497090167404543
23:26.3;0.0576678680089727;-0.10126731373272525;-1.3691982805025593;1.514;0.00799594007458075
23:26.3;0.04361286216243746;-0.08974727544714982;-1.2879619640875162;1.4069999999999998;0.0050412577152303744
23:26.3;0.027220793985549954;-0.08232654807722108;-1.1985217305722706;1.284;0.0026858800127768615
23:26.3;0.009690462544022211;-0.07877341838493615;-1.1052157171246468;1.155;0.0008436673685105006
23:26.3;-0.007664072552658301;-0.07858718439102041;-1.0126196541503392;0.79;0.0006098986738593677
23:26.3;-0.023550524705016996;-0.08107243468857961;-0.9251268772861239;0.79;0.0017663432444234269
23:26.3;-0.036828493666159715;-0.0854318573613507;-0.8465495040805756;0.79;0.0026635212379070277
23:26.3;-0.04661172946488708;-0.090859358128932;-0.7798131707498119;0.705;0.0033025959771921932
23:26.3;-0.0523331101544934;-0.0966217095563567;-0.7267715940466886;0.644;0.0036749311540163754
23:26.4;-0.05377247593408096;-0.1021241420809269;-0.6881289172526482;0.609;0.0037788379099306904
23:26.4;-0.051049770304687686;-0.10695750814843995;-0.6634568942352299;0.596;0.0036225782899760675
23:26.4;-0.04458670107431113;-0.11092433273945593;-0.6513052594369774;0.606;0.003221193029665219
23:26.4;-0.03504322654565684;-0.11404172693558297;-0.6494027996120295;0.6409999999999999;0.0025952669015281457
23:26.4;-0.023238010765729303;-0.11652106809623733;-0.6549363212692092;0.695;0.0017733827577947263
23:26.4;-0.01006258939392046;-0.1187267901980662;-0.6648815235528029;0.799;0.0007943332512952915
23:26.4;0.003600737627943478;-0.1211195595825349;-0.6763453505364612;0.799;0.00029496756902367376
23:26.4;0.016946405467928916;-0.12419211587912346;-0.6868699236293824;0.799;0.0014455932767303773
23:26.4;0.029290040995612072;-0.1284071316519912;-0.6946546932867254;0.799;0.0026126311385341336
23:26.4;0.04008891864569125;-0.13414454261072373;-0.6986754253910473;0.78;0.0037572735811753624
23:26.5;0.0489443436198637;-0.14166272467687893;-0.6987008206861816;0.75;0.004844504376801533
23:26.5;0.055593697275718855;-0.15107537330929785;-0.6952207738903131;0.7190000000000001;0.005839047050118574
23:26.5;0.05989842602122592;-0.16234415326784213;-0.6893080002564853;0.691;0.0067029407698897545
23:26.5;0.06183192026274888;-0.17528635369549347;-0.6824397634580023;0.6729999999999999;0.007396481322886694
23:26.5;0.06146855835402945;-0.18959689593102141;-0.6763070882581005;0.662;0.007881850436899688
23:26.5;0.05897334871970094;-0.2048835842063841;-0.672634572375735;0.687;0.008127222280486762
23:26.5;0.054591825844943515;-0.22071118031253706;-0.6730261488297095;0.687;0.008109309779718453
23:26.5;0.04864115590043377;-0.2366450289829766;-0.6788434991011596;0.687;0.00781395554779344
23:26.5;0.04150335159617814;-0.2522850302345974;-0.6911178983611289;0.713;0.007236470425126072
23:26.5;0.033619660529300155;-0.2672874724781551;-0.7104944408195054;0.746;0.006384584104413727
23:26.6;0.025483702657887044;-0.2813775335839337;-0.7372069267291864;0.777;0.005286172788819424
23:26.6;0.0176308986186177;-0.2943543223530883;-0.7710800520987553;0.805;0.004001698215917719
23:26.6;0.010622042111945411;-0.3060881450675166;-0.8115551020857187;0.841;0.002638593819292142
23:26.6;0.005018882066973873;-0.3165103773852851;-0.8577379403007024;0.884;0.001362540955328807
23:26.6;0.0013503103204372143;-0.32559815431821226;-0.9084715457505228;0.935;0.0003994172807868346
23:26.6;7.019657338785013e-05;-0.333356743309772;-0.9624343343617123;1.13;2.2521445696135438e-05
23:26.6;0.0015114530671897959;-0.33980160076311;-1.0182536936631215;1.13;0.0005229691623869531
23:26.6;0.005843534597579528;-0.3449405801673904;-1.074606992057284;1.13;0.0021660554552009595
23:26.6;0.013040549437455126;-0.34875627726903546;-1.1302821673209857;1.197;0.005140493316636575
23:26.6;0.022864417001961936;-0.3511896115864565;-1.1841928850038836;1.252;0.009508767757202182
23:26.7;0.03486368489769461;-0.35212677325209973;-1.235362294703898;1.2890000000000001;0.015165847218437953
23:26.7;0.04838603469581828;-0.3513918749112591;-1.2828883112295182;1.315;0.021812256492207145
23:26.7;0.06260260113417664;-0.34874816888698695;-1.325897429483829;1.339;0.028947711997224346
23:26.7;0.07654448257419905;-0.34391156387971333;-1.3634961342487788;1.36;0.03589339858388565
23:26.7;0.08915441185782248;-0.33658028936020884;-1.3947338624368142;1.383;0.041852640594216395
23:26.7;0.09935710749635768;-0.32648314700185893;-1.4185919031344933;1.4569999999999999;0.0460168815689077
23:26.7;0.10614823219206866;-0.313444337201651;-1.4340065004942666;1.4569999999999999;0.04771163659767313
23:26.7;0.10869580973979669;-0.29745467152462157;-1.4399250006565414;1.4569999999999999;0.04655576510594442
23:26.7;0.10644478606285533;-0.27873152506614823;-1.4353890837953593;1.4580000000000002;0.04258730161940439
23:26.7;0.09921527759484869;-0.257749008091191;-1.4196417978141478;1.444;0.03630398775501484
23:26.8;0.08728114513973213;-0.2352259560949022;-1.3922579685501382;1.436;0.028584157112195197
23:26.8;0.07140798012149538;-0.21206901248262308;-1.3532938967558819;1.4369999999999998;0.020493497628898374
23:26.8;0.05282855880659739;-0.18927760684244296;-1.3034418746349858;1.45;0.013033458349323459
23:26.8;0.033144156306606345;-0.16782487714213334;-1.2441592909236883;1.464;0.0069205290084666735
23:26.8;0.014155510767650748;-0.14853471869776652;-1.1777237195649035;1.442;0.002476264003011629
23:26.8;-0.0023579067279772712;-0.13198017996636044;-1.1071582990669384;1.002;0.00034454429060018206
23:26.8;-0.01487576044908493;-0.11842693763126723;-1.0360022129305324;1.002;0.0018251155205978853
23:26.8;-0.022343529921756748;-0.10783435784676347;-0.9679656656819301;1.002;0.0023322166695931576
23:26.8;-0.02430219517085791;-0.09991173266619607;-0.9065468426954804;0.8370000000000001;0.002201163205728453
23:26.8;-0.02091914341567431;-0.09421556786620792;-0.8546671716975155;0.71;0.0016844712003470572
23:26.9;-0.01292810002433424;-0.09026528908222656;-0.8143545358415437;0.63;0.0009503180990678837
23:26.9;-0.0015033524500326992;-0.0876500724751608;-0.7865128879616597;0.618;0.00010363797835283779
23:26.9;0.011903693213914828;-0.08610350968185737;-0.7708275395652203;0.653;0.0007900595046805007
23:26.9;0.02574142292574426;-0.08553495175523737;-0.7658361067181336;0.72;0.0016862113291242601
23:26.9;0.03852680698809686;-0.08601884575055578;-0.7691577544989093;0.7909999999999999;0.00254901300193528
23:26.9;0.04898571899584111;-0.08775077077930603;-0.7778395328002868;0.914;0.00334357014426146
23:26.9;0.05614983354352789;-0.09098276564825544;-0.7887562858720777;0.914;0.004029493324213758
23:26.9;0.05940622349949269;-0.09595358574882404;-0.7989930597830547;0.914;0.004554452327393975
23:26.9;0.05850593170149615;-0.10282985084863695;-0.806151680607473;0.92;0.004849934456115778
23:26.9;0.05354110232443507;-0.11166927002527821;-0.8085515476700946;0.903;0.004834245462893414
23:27.0;0.044899073176468525;-0.1224093644712946;-0.8053205602979755;0.8740000000000001;0.00442609576624908
23:27.0;0.03320108930660576;-0.134877768665274;-0.7963861167597707;0.838;0.003566287784127451
23:27.0;0.019233453871020028;-0.14881534607235214;-0.7823841600970481;0.797;0.0022393658352374475
23:27.0;0.003878013376330784;-0.1639029059803816;-0.7645107024538815;0.757;0.0004859365051235322
23:27.0;-0.011953725063039374;-0.17978638869407862;-0.7443433741388013;0.732;0.0015996810442509965
23:27.0;-0.027381240411539297;-0.1961001242075437;-0.7236591734411189;0.71;0.0038856623472992425
23:27.0;-0.04160882534423153;-0.21248808365644448;-0.7042698177875463;0.71;0.006226716772128281
23:27.0;-0.05396859475284775;-0.22861951235343797;-0.6878888978221155;0.71;0.00848736157548774
23:27.0;-0.06394872353453085;-0.24419504797512312;-0.6760355794639948;0.706;0.010556945656892648
23:27.0;-0.07120722695622558;-0.25894513975155503;-0.6699702944959913;0.711;0.012353425041967767
23:27.1;-0.07557468749656839;-0.27262765187459287;-0.6706534493917585;0.7190000000000001;0.013817975735181265
23:27.1;-0.07704809635358903;-0.28503080570635503;-0.6787196127044632;0.728;0.014905416378541606
23:27.1;-0.07577586231744446;-0.29598348805071784;-0.6944634493038104;0.742;0.015575706831142452
23:27.1;-0.07203383319387699;-0.30537089913677157;-0.7178376700254927;0.759;0.015790301364510206
23:27.1;-0.0661931843578134;-0.3131508008737158;-0.7484671383434104;0.7829999999999999;0.015514562676319423
23:27.1;-0.058682691293683004;-0.31936496101642764;-0.7856843357475798;0.9159999999999999;0.01472466367259318
23:27.1;-0.04995051469688567;-0.3241414820538708;-0.8285841867879411;0.9159999999999999;0.013415634626797391
23:27.1;-0.04043265442578728;-0.3276853460814664;-0.8760837188033783;0.9159999999999999;0.011607398208246748
23:27.1;-0.030533415380231962;-0.3302563980483905;-0.9269710252898039;0.963;0.009347442134589623
23:27.1;-0.020617566963324795;-0.3321364450321265;-0.9799443253088951;1.015;0.006710507236805124
23:27.2;-0.01100891037227717;-0.33358973204217984;-1.0336555676737575;1.074;0.003796058169088662
23:27.2;-0.001989064525824798;-0.33482280263718306;-1.086769280305489;1.145;0.0007237711253482757
23:27.2;0.006207130025458037;-0.33594968831525324;-1.1380352643676266;1.215;0.0023731260424243216
23:27.2;0.013399233878189691;-0.3369662234029267;-1.1863645293111624;1.276;0.005356541716770583
23:27.2;0.019468623450318617;-0.33773437077016777;-1.2308931588933254;1.3219999999999998;0.008093397366786007
23:27.2;0.02436235059523841;-0.3379759384828516;-1.2710182194824209;1.3659999999999999;0.010465422054203252
23:27.2;0.028091720870770834;-0.3372766086382005;-1.3063933031378625;1.3659999999999999;0.012377658953522903
23:27.2;0.030724957151610898;-0.33510509095797786;-1.3368784302644392;1.3659999999999999;0.013764620050132377
23:27.2;0.032373706314643536;-0.3308546439664491;-1.362449896661574;1.371;0.014593188685464574
23:27.2;0.03317376459366836;-0.323912413822812;-1.3830871806076936;1.3780000000000001;0.014861816920360897
23:27.3;0.033260694968671435;-0.31375606561718433;-1.3986601562316971;1.3880000000000001;0.014596060442660494
23:27.3;0.032740522009482895;-0.30006624171923874;-1.4088394755331908;1.3780000000000001;0.013840897431762774
23:27.3;0.031656646460320556;-0.28283052000266284;-1.4130505539346272;1.364;0.012651699779940679
23:27.3;0.02995931393123883;-0.262410028881311;-1.410489318563672;1.3769999999999998;0.011088737290660662
23:27.3;0.02749093653142464;-0.23954646125116738;-1.400213281094581;1.395;0.009220903719672375
23:27.3;0.024001365729220518;-0.21529732129956733;-1.3813101926986897;1.464;0.007137823382392905
23:27.3;0.019197804825702332;-0.1909035072579566;-1.353125398494559;1.464;0.004959107529695131
23:27.3;0.012820846127738277;-0.1676195067990311;-1.3155035677291764;1.464;0.0028270486137388757
23:27.3;0.004730933692994067;-0.14655096856661737;-1.2689865114004157;1.433;0.0008798174270944454
23:27.3;-0.005010484856231709;-0.128530513149177;-1.2149154042235917;1.348;0.0007824057507865802
23:27.4;-0.016080743580074722;-0.11404187737046734;-1.155406018765989;1.227;0.0021188738953880734
23:27.4;-0.027873999463306046;-0.103195875458296;-1.093191351610097;1.1059999999999999;0.0031445450018334252
23:27.4;-0.03953125903725351;-0.09575952874702535;-1.0313534285779533;0.9990000000000001;0.0039041829750271462
23:27.4;-0.050023381392360504;-0.09123095057626708;-0.972987296814538;0.907;0.004440403285025165
23:27.4;-0.05827337921898519;-0.08894360916860848;-0.9208477700618048;0.8340000000000001;0.0047727951229895186
23:27.4;-0.0632967399730125;-0.08818211781611679;-0.8770260603907366;0.715;0.004895244249864622
23:27.4;-0.06433731082438092;-0.0882942801314205;-0.8426986656845292;0.715;0.004787047982593838
23:27.4;-0.060976320876280556;-0.08878481349523394;-0.8179873699683349;0.715;0.0044283965281775054
23:27.4;-0.05319456314583162;-0.0893771441829376;-0.801957607035583;0.721;0.0038128097161234486
23:27.4;-0.04137626343993367;-0.09003516229286454;-0.7927592582421499;0.758;0.002953280805205345
23:27.5;-0.026255662573181026;-0.09094468988794795;-0.7878902826658246;0.821;0.0018813347308433922
23:27.5;-0.008819284672517285;-0.09246069200544138;-0.7845464835010585;0.877;0.0006397483593862958
23:27.5;0.009815101531413939;-0.09503065583197988;-0.7800074216859243;0.92;0.0007275406402286301
23:27.5;0.028520314203138684;-0.0991081457313375;-0.772000136935502;0.945;0.002182132079362081
23:27.5;0.04626472939579881;-0.10507281721905878;-0.7589838891865225;0.9329999999999999;0.003689546263389997
23:27.5;0.06219025283993346;-0.113171780980702;-0.7403131365007823;0.764;0.0052104583499973395
23:27.5;0.0756592914960996;-0.12348960200924496;-0.7162649132212651;0.764;0.006692160349531041
23:27.5;0.08627044099640514;-0.13594303842439012;-0.6879527772053494;0.764;0.008068217899579292
23:27.5;0.09384580656672281;-0.15029108493604063;-0.6571667184153154;0.693;0.009268803000133092
23:27.5;0.09839661294090658;-0.16615481886095132;-0.6261673250188261;0.629;0.010237254304909146
23:27.6;0.10007646713358859;-0.18304674385528424;-0.5974498271711285;0.578;0.010944487089025318
23:27.6;0.09913204269086236;-0.20040910155415878;-0.5734984518510375;0.5479999999999999;0.01139367287383448
23:27.6;0.09585941063151043;-0.21765803076913523;-0.5565600545407529;0.541;0.011612386522578606
23:27.6;0.09057135013619301;-0.23422927783968064;-0.5484636057658734;0.547;0.011635360287453348
23:27.6;0.08357739720555396;-0.24962114394930376;-0.5505015997697598;0.563;0.011484941742558393
23:27.6;0.07517532615852458;-0.2634306496102322;-0.5633772578746454;0.66;0.011156833078253891
23:27.6;0.06565170106301818;-0.27537898412818135;-0.5872082794090359;0.66;0.010616196467329834
23:27.6;0.055290150314267504;-0.28532246776771775;-0.6215664005778709;0.66;0.009805534508149293
23:27.6;0.04438630859797765;-0.29324747256171807;-0.6655324310733555;0.708;0.00866268513530808
23:27.6;0.033265926110100166;-0.29925215492542545;-0.7177606636707043;0.762;0.007145235683916664
23:27.7;0.022299755797396865;-0.3035208490722434;-0.7765583647064225;0.8270000000000001;0.005256089329922049
23:27.7;0.011908351060407007;-0.306296292913681;-0.8399843423221763;0.899;0.003063829267868624
23:27.7;0.002552008794637107;-0.3078522409038476;-0.9059629701127516;0.9620000000000001;0.0007117622211483995
23:27.7;-0.005294943687945527;-0.30846688247006493;-0.9724060925772948;1.02;0.001588245235656809
23:27.7;-0.011181749088503732;-0.3083967889733478;-1.0373363414726173;1.0759999999999998;0.0035771667331703926
23:27.7;-0.014724132716638564;-0.30785174630396334;-1.099007314711222;1.2590000000000001;0.004981635273110264
23:27.7;-0.01564611930925522;-0.3069720888533146;-1.156010575917297;1.2590000000000001;0.005552228542697737
23:27.7;-0.01381620463667078;-0.305811049814381;-1.2073477051368435;1.2590000000000001;0.005101222795258426
23:27.7;-0.009274896692530378;-0.30432437960084036;-1.2524465027522802;1.317;0.0035351269201140787
23:27.7;-0.002250453811113437;-0.30236827637677177;-1.2911200754683023;1.355;0.0008785631066064856
23:27.8;0.006842294772656243;-0.2997058583045828;-1.3234830850195674;1.361;0.002714034770702851
23:27.8;0.01742559800560531;-0.2960229830619288;-1.349838457193756;1.354;0.006962976330619787
23:27.8;0.02880556376302223;-0.2909557925093274;-1.3705454161769386;1.354;0.011486740730096598
