Time;AccX;AccY;AccZ;Acc-old;Acc-trns
32:49.9;-0.06022552257743481;-0.33849508812797163;-1.247155353964692;1.2930000000000001;0.025424563387478578
32:49.9;-0.06345741124431861;-0.3379414204555638;-1.2482986478468059;1.32;0.026769624312068606
32:49.9;-0.0661008680750919;-0.3363494558678839;-1.2487124232371536;1.315;0.027762612079222575
32:49.9;-0.06748992215273611;-0.3328150167815299;-1.2475912178552402;1.308;0.028022969222785615
32:49.9;-0.06707223801544364;-0.32671797695150184;-1.244219177251059;1.311;0.027265453142857856
32:49.9;-0.06447397168053418;-0.31780581622797377;-1.2380201793795935;1.3119999999999998;0.025367285035482818
32:50.0;-0.059558071753981895;-0.306218616884608;-1.2286037359242843;1.3090000000000002;0.022407017367391188
32:50.0;-0.052453972451818244;-0.2924506388219881;-1.2158048720879653;1.295;0.018650687166021213
32:50.0;-0.043540989742762326;-0.2772565070799918;-1.1997099022243158;1.265;0.0144829252101186
32:50.0;-0.033382459028224294;-0.2615234498166211;-1.180657078298214;1.2229999999999999;0.010307485589078394
32:50.0;-0.022625007641855797;-0.24613827906258365;-1.159204676172794;1.181;0.006455472252594695
32:50.0;-0.0118894264263574;-0.2318749812453263;-1.136068000089833;1.136;0.0031319810284225675
32:50.0;-0.0016817386787132934;-0.21931864546865726;-1.1120363188627427;1.094;0.00041015974946861683
32:50.0;0.0076547862538704015;-0.20883028529442543;-1.0878865838895;1.0659999999999998;0.0017390424011635701
32:50.0;0.015939987056535414;-0.20054887282250294;-1.064311358738667;1.052;0.003402333543899506
32:50.0;0.02311759618465562;-0.1944217249374046;-1.041873816737599;1.044;0.004682767430932299
32:50.1;0.029194902341860122;-0.19025166685214762;-1.0209942759962085;1.041;0.005670988996355666
32:50.1;0.03418307215604268;-0.18774979663071287;-1.001963473702769;1.041;0.0064304661543620805
32:50.1;0.03805663267576975;-0.1865859895773551;-0.9849706188716106;1.034;0.00699411332024438
32:50.1;0.04074281779634185;-0.18643294103323604;-0.9701308950115705;1.021;0.007368923500087773
32:50.1;0.04214139258364302;-0.18700127800730643;-0.9574984171731625;0.9940000000000001;0.007545560790209719
32:50.1;0.04216598336656393;-0.18806380150395013;-0.9470568787215328;0.958;0.0075100617266833794
32:50.1;0.040792147047320586;-0.18946831658978408;-0.9386899044312139;0.927;0.007254964773181755
32:50.1;0.03809681855133692;-0.19114090702219996;-0.9321432714433595;0.907;0.006787737224445829
32:50.1;0.0342768842125578;-0.19308288646659572;-0.9269975739270809;0.9;0.0061351292651852275
32:50.2;0.02963996651528942;-0.19536356226597323;-0.9226693749822703;0.932;0.005342781089567985
32:50.2;0.024568775276741724;-0.19810857531497433;-0.9184505527810868;0.932;0.004470360660613142
32:50.2;0.019469805178794368;-0.20148248167302693;-0.9135830174402731;0.932;0.003583825994443832
32:50.2;0.014720760890047044;-0.20566531994070628;-0.9073568468047422;0.9570000000000001;0.002747068219930563
32:50.2;0.010626486657986808;-0.2108247477447056;-0.8992171880035117;0.9740000000000001;0.0020145399778165266
32:50.2;0.00738755639663812;-0.21708662419775523;-0.8888637387773949;0.975;0.001425506047294218
32:50.2;0.00508399194216241;-0.22450797539120898;-0.8763237084418481;0.96;0.001000233022107467
32:50.2;0.0036758522684601992;-0.23305739329508351;-0.8619800334957788;0.935;0.0007384449752296419
32:50.2;0.00302010256758229;-0.24260778176093487;-0.8465446344798658;0.895;0.0006202635792743206
32:50.2;0.002900635240783882;-0.25294371294678253;-0.8309787899603358;0.8540000000000001;0.0006096870172935132
32:50.2;0.0030671863820647765;-0.26378162846640024;-0.8163749177883092;0.8240000000000001;0.0006605023474027479
32:50.3;0.00327880849255162;-0.27479811978367163;-0.8038226515993677;0.8059999999999999;0.0007242525759877029
32:50.3;0.0033468614163746266;-0.28566043471505614;-0.7942842752105886;0.8059999999999999;0.000759388100214705
32:50.3;0.0031707745615999683;-0.29605400794686776;-0.7884996608303748;0.8079999999999999;0.0007401808094721657
32:50.3;0.0027591910999890065;-0.30570441734923814;-0.7869313464110335;0.818;0.0006637741571733814
32:50.3;0.002230997047371399;-0.31439451361021353;-0.7897507529787475;0.8390000000000001;0.0005539416277849444
32:50.3;0.0017941697006783786;-0.32197862105717834;-0.7968598560281049;0.866;0.00046033341710473
32:50.3;0.0017043731253888622;-0.3283937682018634;-0.8079385884182654;0.8859999999999999;0.0004522076821584327
32:50.3;0.0022099417242211713;-0.33366526919812617;-0.8225060293234723;0.902;0.0006065001541742096
32:50.3;0.0034948336230967362;-0.3379032531035101;-0.8399840344293447;0.915;0.0009919502922596747
32:50.3;0.005633990317206695;-0.34128814780400535;-0.8597558201933251;0.9329999999999999;0.0016531506309103302
32:50.4;0.008573236772085205;-0.3440452052385774;-0.8812164912104566;0.976;0.0025992194236005386
32:50.4;0.01213785151841339;-0.3464103977658848;-0.9038137046153653;0.976;0.0038002455750550603
32:50.4;0.016064587904346266;-0.34859265894593777;-0.9270747751018688;1.002;0.005191616341715178
32:50.4;0.020046918672505153;-0.35073899363679617;-0.9506163891440492;1.026;0.0066840082542668966
32:50.4;0.023783132894531742;-0.3529078402773207;-0.9741361651378762;1.042;0.008176172327748888
32:50.4;0.027018116151681426;-0.3550534700899536;-0.9973879728991312;1.051;0.009567819043135037
32:50.4;0.02957110845720412;-0.35702222804344336;-1.0201448778517899;1.053;0.010770223441801377
32:50.4;0.03134491247697444;-0.3585605613666651;-1.0421576347649488;1.054;0.011712861154022307
32:50.4;0.03231711203701613;-0.3593349151958594;-1.0631220345929078;1.068;0.012345681863182563
32:50.5;0.03251930953180348;-0.35896400160363817;-1.0826698818117875;1.177;0.01263828862574421
32:50.5;0.03201350987904745;-0.35706260264796963;-1.100389807966797;1.177;0.012578365700533086
32:50.5;0.030873377721576473;-0.3532922154587331;-1.115867964942192;1.177;0.012171133450411542
32:50.5;0.029173472926000664;-0.3474104942994003;-1.1287300774756137;1.205;0.011439871952610339
32:50.5;0.026984981021748983;-0.3393112121160731;-1.1386730737978585;1.206;0.010426039802969371
32:50.5;0.024373495655010843;-0.3290486565985536;-1.1454843213622738;1.202;0.009186859861457904
32:50.5;0.021394189710470045;-0.31684448372840374;-1.1490490810993217;1.204;0.00778897971430908
32:50.5;0.01808309683313322;-0.3030800650672084;-1.1493461996901475;1.2009999999999998;0.0062991368544383095
32:50.5;0.014448030158554823;-0.28827923430260693;-1.1464324244255037;1.193;0.004774967940432861
32:50.5;0.01046551507269148;-0.27308359628400947;-1.1404162237553346;1.172;0.0032592645130862102
32:50.5;0.006089773151034134;-0.2582193238906034;-1.1314232040422878;1.14;0.0017791597136864459
32:50.6;0.0012760042560161409;-0.24445413475970523;-1.119559015722325;1.091;0.0003492179045090888
32:50.6;-0.003986860658855258;-0.2325452659116633;-1.1048815814917023;1.091;0.001024363968305952
32:50.6;-0.00964597794852323;-0.22318119171955958;-1.0873980411348718;1.081;0.002340951431432152
32:50.6;-0.015570797894651652;-0.21692006372878708;-1.0670974545335348;1.085;0.003604248073446775
32:50.6;-0.021563302055312313;-0.2141282528241302;-1.0440184163821633;1.091;0.004820558964954749
32:50.6;-0.027389240996346705;-0.21492563590224953;-1.0183376328318245;1.094;0.0059945972650264304
32:50.6;-0.032818233617882324;-0.2191486967128283;-0.9904562016728551;1.087;0.007123433430309555
32:50.6;-0.037657474625956346;-0.2263437168990854;-0.9610565928412385;1.056;0.008191597368550125
32:50.6;-0.041767529364614135;-0.23579863084060804;-0.9311065449902428;1.006;0.009170213459805619
32:50.6;-0.04505685967745141;-0.24661497895747295;-0.9017970184611493;0.9470000000000001;0.010020494774867468
32:50.7;-0.04746069999798373;-0.25781263721957454;-0.8744184848386616;0.86;0.01069935680088149
32:50.7;-0.048916350700509814;-0.26845079841515795;-0.8501990728461931;0.86;0.011164502542577896
32:50.7;-0.04934827730957322;-0.2777423094677087;-0.8301410085050954;0.831;0.011377999419124832
32:50.7;-0.048671582151721925;-0.28514009842132026;-0.8148898231951727;0.8140000000000001;0.011309220018020644
32:50.7;-0.046813131396096476;-0.2903834581842064;-0.8046575542952552;0.8109999999999999;0.01093832085712512
32:50.7;-0.04374049976885436;-0.2935014078840363;-0.7992090052636354;0.8190000000000001;0.010260163901015515
32:50.7;-0.03948527552010463;-0.2947767466724766;-0.7979121849961031;0.841;0.009287172056527215
32:50.7;-0.03415110831631777;-0.2946793172965686;-0.7998450403964703;0.87;0.008049340771474935
32:50.7;-0.02790507872380333;-0.29378075052493086;-0.8039400316657447;0.894;0.006590680257729449
32:50.7;-0.02095817557167763;-0.29266444273122827;-0.8091403525312261;0.9079999999999999;0.004963034516561448
32:50.8;-0.0135433805519031;-0.29184379231435;-0.8145401903717304;0.905;0.0032195120846796143
32:50.8;-0.005898102703201741;-0.2916995640771649;-0.8194871626995268;0.905;0.001409906346437927
32:50.8;0.0017462214000998103;-0.2924438871528863;-0.8236354465408561;0.9009999999999999;0.00042060737467586296
32:50.8;0.009168344866223962;-0.2941135436870784;-0.8269485890117967;0.894;0.0022298953159376063
32:50.8;0.016158674530515563;-0.29658921531824733;-0.8296586615710746;0.88;0.003976129677129278
32:50.8;0.02252236466336055;-0.299632330682954;-0.8321935385237108;0.871;0.005615998689901492
32:50.8;0.028088207822367636;-0.30292979859316604;-0.8350873490349464;0.866;0.007105553772174744
32:50.8;0.03272553507311994;-0.30613927878395225;-0.8388899033467924;0.871;0.008404478649367497
32:50.8;0.03636674595892946;-0.3089309848261331;-0.8440883818917602;0.887;0.009483176513719523
32:50.8;0.039027531031696254;-0.311024189679447;-0.8510492381823392;0.899;0.01033046646637101
32:50.9;0.04081469609547513;-0.31221756587414246;-0.8599818317712197;0.9129999999999999;0.01095880443854552
32:50.9;0.04191547701949962;-0.3124129744766949;-0.8709204423010335;0.9129999999999999;0.011404649937125219
32:50.9;0.04256962837318149;-0.3116326331722357;-0.8837203285767733;0.924;0.011723509333678953
32:50.9;0.043030616701138;-0.31002921941593864;-0.8980663058694238;0.9390000000000001;0.01198087672907107
32:50.9;0.043522824851662346;-0.30788678844822553;-0.9134958341063021;0.9540000000000001;0.012240938054956907
32:50.9;0.04420063228312013;-0.30560832906706276;-0.929439605951503;0.971;0.012554945831039787
32:50.9;0.04511531937309977;-0.3036854875159882;-0.945280809718438;0.998;0.0129511673683726
32:50.9;0.0461970340024868;-0.3026483261915748;-0.9604308392522529;1.024;0.013428220574857626
32:50.9;0.04726018125998727;-0.30299690378701266;-0.9744147211044593;1.046;0.013953315367809518
32:51.0;0.048038775793416616;-0.30512114233404475;-0.9869545393509664;1.091;0.014466430400405803
32:51.0;0.048250111007475484;-0.3092208313763271;-0.9980347686649453;1.091;0.014890618307227562
32:51.0;0.04767263270652417;-0.315242046039529;-1.0079316993579939;1.091;0.015147619170075129
32:51.0;0.04621710333058309;-0.32284615651320714;-1.0171934595203564;1.092;0.015177558028680805
32:51.0;0.0439741455670539;-0.3314214599090558;-1.0265676215423687;1.083;0.014961171388124875
32:51.0;0.04122893550481858;-0.3401379277101269;-1.0368847731260875;1.07;0.014540779210712087
32:51.0;0.038439167764384025;-0.3480368592466964;-1.0489149163898042;1.065;0.014032643065019317
32:51.0;0.03617774297154178;-0.354142007859028;-1.0632191447085921;1.07;0.013622025918336155
32:51.0;0.035048158969932915;-0.35757674336997325;-1.0800211210492312;1.088;0.013535263766803902
32:51.0;0.03558561276504075;-0.3576709921459328;-1.0991203690242852;1.105;0.013989539674638955
32:51.0;0.03815969506380865;-0.35404152011439877;-1.1198636234468902;1.12;0.015129487958078641
32:51.1;0.04289680375446;-0.34663245010862337;-1.1411828338452275;1.204;0.016968731631638187
32:51.1;0.049640449681985784;-0.33571230568538574;-1.1616970023011848;1.204;0.01935957577918881
32:51.1;0.057961931183577675;-0.32183511144872146;-1.1798609093356418;1.252;0.022009343184128213
32:51.1;0.06722300008852689;-0.30577826171563205;-1.1941351369905688;1.29;0.02454584433029124
32:51.1;0.07667968607320963;-0.2884689334893711;-1.2031515906714287;1.305;0.026613360977267422
32:51.1;0.08560519717387083;-0.270909625200987;-1.2058509125818129;1.3030000000000002;0.027965216362396392
32:51.1;0.0934033937563115;-0.2541118821556026;-1.2015722989808502;1.272;0.028519213002807013
32:51.1;0.09968648383188093;-0.2390419741658397;-1.1900869327086174;1.226;0.02835888367404565
32:51.1;0.10430158828169482;-0.22657530663784237;-1.1715812419517384;1.189;0.02768700045653164
32:51.1;0.10730622002273332;-0.21745201573150108;-1.1466077920178193;1.171;0.026754893296654966
32:51.2;0.10890548751337555;-0.2122261387675957;-1.1160241476173627;1.117;0.025794209787818267
32:51.2;0.1093700826323238;-0.21120616636521292;-1.0809337464387563;1.117;0.02496917593997338
32:51.2;0.1089548041507364;-0.21439491668637037;-1.0426328119496207;1.079;0.024355231196845493
32:51.2;0.10783422986499189;-0.22144550684388226;-1.0025583954681827;1.032;0.023940498650866816
32:51.2;0.10606720654727396;-0.23165314382224045;-0.9622282621198736;0.99;0.023642719966018407
32:51.2;0.10359772531172573;-0.24399980519166573;-0.9231656904252611;0.958;0.02333562057873485
32:51.2;0.10029532575040227;-0.25725889680394937;-0.8868086359593607;0.9279999999999999;0.022881316579169173
32:51.2;0.09602886753298796;-0.2701486898841853;-0.8544085932736571;0.897;0.022165129889286726
32:51.2;0.09075364568087792;-0.2815052404229225;-0.8269292878224471;0.8740000000000001;0.021126080873855785
32:51.3;0.08458213007228277;-0.29043889480515117;-0.8049597372009438;0.823;0.019774592911138693
32:51.3;0.07781300233064684;-0.2964451762119115;-0.7886588195676184;0.823;0.018192221061227976
32:51.3;0.07091042536395055;-0.2994536726037159;-0.7777469608870017;0.823;0.016514980189748816
32:51.3;0.06444099846732446;-0.2998103028664899;-0.7715534731271765;0.818;0.014906471173723918
32:51.3;0.058980747642549965;-0.2981974256508162;-0.7691171579319042;0.83;0.013527161130389568
32:51.3;0.05500735838113167;-0.29550541751774256;-0.7693270834346341;0.85;0.01250539051162173
32:51.3;0.052799977757566535;-0.2926791163494381;-0.771082083215488;0.865;0.011915879061451154
32:51.3;0.052372006138680025;-0.29056829802419143;-0.773442419460339;0.875;0.011769971925842051
32:51.3;0.053454832265030346;-0.28980915370798177;-0.7757473323382073;0.877;0.012017644715916041
32:51.3;0.055536871512456974;-0.29075489813714595;-0.777678499905496;0.8759999999999999;0.012557654891813657
32:51.4;0.05794873837934937;-0.2934616594481904;-0.779260096268268;0.828;0.0132518890783776
32:51.4;0.05997421669068735;-0.29772264456520037;-0.7808006296482723;0.828;0.013941728059843374
32:51.4;0.06096035570410142;-0.30313264102952414;-0.7827972255970692;0.828;0.014465367563440612
32:51.4;0.06040279634378712;-0.30916272893916635;-0.7858300901254752;0.8190000000000001;0.014674821628776234
32:51.4;0.057993782347242194;-0.31523221318379757;-0.7904691934987943;0.831;0.01445096916944505
32:51.4;0.05363316383983959;-0.3207723409661141;-0.7972050383388569;0.858;0.013715143794968928
32:51.4;0.047411749531729185;-0.32527913382414436;-0.806406979208306;0.878;0.012436451028386579
32:51.4;0.03958042303865565;-0.3283546045223312;-0.8183041990628537;0.889;0.010635020274719801
32:51.4;0.030516245984672546;-0.32973853530518527;-0.8329780962882338;0.9109999999999999;0.008381744014060317
32:51.4;0.020689533391703964;-0.3293323284683512;-0.8503556764858743;0.914;0.005794095860118542
32:51.4;0.010629651783662729;-0.32721130826514955;-0.87020044838079;0.91;0.003026680959871162
32:51.5;0.0008865730754743197;-0.3236191593924134;-0.8921048575256724;0.932;0.0002559556187009624
32:51.5;-0.008011104757004886;-0.3189424743230365;-0.915492762271348;0.932;0.0023391586873325893
32:51.5;-0.015596949118911239;-0.31367002930191223;-0.9396409586337756;0.963;0.004597001221464684
32:51.5;-0.0215010501303452;-0.30834424285333717;-0.9637261394133153;1.014;0.006389239301780837
32:51.5;-0.025475867550178333;-0.3035107930558301;-0.9868977402498994;1.06;0.007630891461090847
32:51.5;-0.027414278441877018;-0.29966895089563533;-1.0083676560775827;1.088;0.008283950095891975
32:51.5;-0.027359655042979554;-0.29722242046992287;-1.0274995687705204;1.103;0.008355526717995415
32:51.5;-0.025504552997678925;-0.2964312233173652;-1.0438798615171092;1.107;0.007892092773976199
32:51.5;-0.02217291292313546;-0.2973689353284888;-1.057358838711843;1.111;0.0069717330488904454
32:51.5;-0.017783052686784522;-0.29989225996150964;-1.0680599952329946;1.119;0.005695963804252822
32:51.6;-0.012794029546506543;-0.3036295921855302;-1.07636125429958;1.129;0.004181282412670491
32:51.6;-0.007642905571540286;-0.30799318273760945;-1.082853562693694;1.129;0.002548997017792678
32:51.6;-0.0026825828184695207;-0.3122172201579625;-1.0882808454657704;1.141;0.0009114880445763093
32:51.6;0.0018706050953807775;-0.31542224790432677;-1.0934637026864356;1.1540000000000001;0.0006451768960013318
32:51.6;0.005970615649979374;-0.3167036162182237;-1.0992081948291745;1.15;0.0020785098874134865
32:51.6;0.009746559709483205;-0.3152366468078385;-1.1062014791779313;1.1340000000000001;0.0033987739569013397
32:51.6;0.01347015121548812;-0.3103860700750222;-1.1149000615124534;1.12;0.004661338400937597
32:51.6;0.01748623693771212;-0.3018054124964188;-1.1254237861138083;1.114;0.00593935757718776
32:51.6;0.02211977525987197;-0.28951224978602985;-1.13747520563991;1.117;0.007284329679790197
32:51.6;0.027580982023231507;-0.2739250523733071;-1.1503054766062806;1.128;0.008690698150015936
32:51.7;0.033890404752153186;-0.2558492486449595;-1.162742753608464;1.172;0.010081950089715781
32:51.7;0.04083950225608754;-0.23640890913819013;-1.173287402808466;1.172;0.011327881237930278
32:51.7;0.04799391288179303;-0.2169334328885279;-1.180264437074178;1.203;0.012288304631896998
32:51.7;0.05473967713644172;-0.19881631273296926;-1.1820145580121415;1.238;0.01286403082521583
32:51.7;0.06036768583949603;-0.183363296170637;-1.1771015421931736;1.265;0.013029593411198527
32:51.7;0.06418567315784199;-0.1716469063552408;-1.1645095826611214;1.27;0.012829719086472433
32:51.7;0.06563977442446316;-0.16438543702997824;-1.1438002354591503;1.251;0.01234185961413554
32:51.7;0.06442298620046139;-0.16186350281216588;-1.115201355965468;1.208;0.01162901886763323
32:51.7;0.060548965476608305;-0.1639069898041906;-1.0796112305088876;1.149;0.010714492256971648
32:51.7;0.054375606010878104;-0.16991843102912754;-1.038515670890381;1.08;0.00959528002942335
32:51.8;0.04657139945587104;-0.17896874428098772;-0.9938307923723321;0.943;0.008283405614800385
32:51.8;0.038028256938643715;-0.18992875995970016;-0.9476990643889961;0.943;0.006844907824723607
32:51.8;0.02973572414209425;-0.2016148184089817;-0.9022761488418213;0.89;0.005409292243312369
32:51.8;0.022638593435846992;-0.21292386950734365;-0.8595415581182124;0.8420000000000001;0.004143245520536831
32:51.8;0.01750168776007197;-0.22294319186872968;-0.8211505573272955;0.807;0.003204032687580249
32:51.8;0.01480513279701434;-0.23102861093402383;-0.788333754314959;0.7879999999999999;0.002696424077003979
32:51.8;0.01468920690029987;-0.2368481519360034;-0.7618482645961847;0.778;0.0026505550645095632
32:51.8;0.016957050656853465;-0.24038829945526333;-0.741981216197438;0.772;0.0030245206478395972
32:51.8;0.02113029789335815;-0.2419216733885436;-0.7285995973014006;0.772;0.0037245115422770213
32:51.9;0.026542927856087247;-0.2419401691725371;-0.7212339014171946;0.773;0.004631620196885459
32:51.9;0.03245283692623243;-0.24106549442716105;-0.7191794068675949;0.773;0.005626326896258634
32:51.9;0.03814813637264829;-0.23995495123237554;-0.7215991188315026;0.773;0.0066053986947457975
32:51.9;0.04302880727423555;-0.23921932221241485;-0.7276164079476333;0.7809999999999999;0.007489590060800395
32:51.9;0.04665417833667785;-0.23936245199661216;-0.7363911800899268;0.789;0.008223470681793153
32:51.9;0.04875668863849657;-0.2407444423799553;-0.7471777571064814;0.8009999999999999;0.008770299153933694
32:51.9;0.04922893459651925;-0.24356589846751847;-0.7593643339678477;0.812;0.009105150214053928
32:51.9;0.04809557295179479;-0.2478685255117625;-0.7724943796156337;0.82;0.009209198082574937
32:51.9;0.04548373605085954;-0.25354697876874505;-0.7862711849228042;0.831;0.009067486769109354
32:51.9;0.041602237166084674;-0.2603686941334276;-0.8005479585866032;0.848;0.008671471574833335
32:51.9;0.03673129158297528;-0.2680012504251087;-0.8153065329081643;0.863;0.008025903660062512
32:52.0;0.031215771813426062;-0.2760481092551526;-0.8306272591711013;0.887;0.007157560600714015
32:52.0;0.025452145513096748;-0.28409210200848367;-0.8466516946219703;0.887;0.00612192972062888
32:52.0;0.019863344447924924;-0.2917431273464275;-0.863539848459476;0.905;0.005004208438158825
32:52.0;0.014861970781320935;-0.29868473208091884;-0.881425788316511;0.922;0.003912687646422627
32:52.0;0.010806276445207635;-0.30471396573219195;-0.9003776804298116;0.9359999999999999;0.0029647846503141123
32:52.0;0.007955649950760497;-0.30976871445241827;-0.9203689063582853;0.956;0.002268167678306325
32:52.0;0.006433828606580267;-0.313936860416837;-0.94126594921367;0.982;0.001901183980434976
32:52.0;0.006208131003240738;-0.3174431937926244;-0.9628367828462775;1.013;0.0018974903058579073
32:52.0;0.007091407127845212;-0.32061306009479157;-0.9847796871112927;1.0490000000000002;0.0022389928706561452
32:52.0;0.008770416820296691;-0.3238159967348456;-1.0067666738256371;1.078;0.002859218626665321
32:52.1;0.010859751157005671;-0.32739736790073853;-1.0284901504795987;1.113;0.0036567493627730195
32:52.1;0.012973405812188836;-0.3316094711170465;-1.0496988849130822;1.113;0.004515914023472948
32:52.1;0.014798438141273206;-0.33655417213782973;-1.0702119179491967;1.12;0.005330164876679543
32:52.1;0.016152570614892767;-0.3421465814995141;-1.0899071153274045;1.127;0.006023422700471618
32:52.1;0.017013315854159803;-0.3481048721738078;-1.1086908713706032;1.139;0.006566130928994854
32:52.1;0.01751641952715249;-0.35396709495130374;-1.1264612557723985;1.157;0.006984325781562268
32:52.1;0.0179304813272746;-0.35913312226608946;-1.1430765310027724;1.18;0.007360761012033547
32:52.1;0.018618777630384054;-0.36292832103287204;-1.1583365686873808;1.218;0.00782720650391601
32:52.1;0.019997073042998914;-0.3646836524937846;-1.1719782901835958;1.254;0.008546775484855372
32:52.1;0.022489337794159382;-0.3638232672255953;-1.1836794280064833;1.264;0.00968503594882237
32:52.2;0.02647708460024644;-0.3599464741603275;-1.1930615003198866;1.2309999999999999;0.01137027368329214
32:52.2;0.032239545870032964;-0.35289059708234527;-1.1996872726416703;1.2309999999999999;0.013648881200739465
32:52.2;0.03989245971159814;-0.3427667221241825;-1.2030581163569547;1.234;0.016450385278223536
32:52.2;0.04934306470487337;-0.32996622887320637;-1.2026234895264223;1.235;0.01958056844078991
32:52.2;0.06027820767519039;-0.31513693428401923;-1.1978126626605048;1.2309999999999999;0.02275351706651858
32:52.2;0.07219284499761315;-0.2991275323715482;-1.188091305080455;1.235;0.025656674404994733
32:52.2;0.08445444067829432;-0.2829040583739428;-1.1730377613274454;1.235;0.028026809422955705
32:52.2;0.0963888700507338;-0.2674504485820858;-1.152427183763735;1.228;0.02970870448202466
32:52.2;0.10736767315853706;-0.25366979636996717;-1.1263071604359014;1.206;0.030676029497894008
32:52.2;0.11687656859797209;-0.2423006501471959;-1.095048162881725;1.168;0.031010963008878976
32:52.3;0.12455167459388973;-0.2338569459539015;-1.0593572710953794;1.073;0.030856189746946483
32:52.3;0.130181359706626;-0.22859521768065927;-1.020253774861739;1.073;0.03036156502985981
32:52.3;0.13368303909729842;-0.22650966348494167;-0.9790153035080547;1.021;0.02964507309326103
32:52.3;0.13506968875199493;-0.2273530770711746;-0.9371050777040196;0.9740000000000001;0.0287771000469898
32:52.3;0.13441933716264087;-0.2306786588511316;-0.8960858216297696;0.934;0.02778553561760359
32:52.3;0.13185597012944458;-0.23589524256898223;-0.8575232076718328;0.895;0.026672569975584367
32:52.3;0.12754504166211325;-0.24232799992834844;-0.8228834369117908;0.856;0.025433463077858362
32:52.3;0.12170189039361755;-0.24927835903214277;-0.7934310914205046;0.8190000000000001;0.024070832789613333
32:52.3;0.11460734664448766;-0.25607942981874715;-0.7701342697832539;0.789;0.022602350293965165
32:52.3;0.10662206271604595;-0.2621452920316169;-0.7535857927988574;0.7709999999999999;0.021063078426172756
32:52.4;0.09819031071531532;-0.2670132049140373;-0.7439505916687487;0.768;0.019504978116325795
32:52.4;0.0898265593278586;-0.2703769019001069;-0.7409480215946312;0.768;0.017995424472259484
32:52.4;0.0820833315049292;-0.2721077246766964;-0.7438736251853834;0.778;0.01661479573009396
32:52.4;0.07550329000949633;-0.2722603304069282;-0.7516596532415406;0.7979999999999999;0.015451529759575611
32:52.4;0.07056127599700068;-0.27106142772781716;-0.762968845283682;0.8190000000000001;0.014592878004496195
32:52.4;0.06760520075353714;-0.2688822402425856;-0.7763117314105814;0.838;0.014111668759621056
32:52.4;0.06680778759856981;-0.2661974967184595;-0.7901748189010306;0.851;0.014052520988672398
32:52.4;0.0681412378597981;-0.263535472310265;-0.8031470633933088;0.862;0.014422620452949326
32:52.4;0.07138272669493131;-0.26142428587945044;-0.8140350867572301;0.879;0.015190853937419632
32:52.4;0.07615135543412711;-0.26033902970300243;-0.8219612358257893;0.9;0.016295521220742622
32:52.5;0.08196917382714707;-0.26065324160102343;-0.8264397163723337;0.9129999999999999;0.01765732327185429
32:52.5;0.08833261548682257;-0.2625981941576175;-0.8274243397101797;0.9129999999999999;0.01919292283075728
32:52.5;0.09477841979642192;-0.266234720917541;-0.825319997076921;0.909;0.02082555215259937
32:52.5;0.10093171050803232;-0.2714428817630214;-0.8209518084201979;0.8959999999999999;0.022491776256771623
32:52.5;0.10653185190735316;-0.27793291320575736;-0.8154908575963856;0.8759999999999999;0.02414563063831554
32:52.5;0.11143874803494522;-0.2852771654212262;-0.8103417556315797;0.861;0.025761518156989006
32:52.5;0.11562489511080196;-0.29295874471598704;-0.8070033082198846;0.852;0.02733588463297406
32:52.5;0.11915774293259683;-0.3004296694558973;-0.8069174620715392;0.843;0.02888645197134523
32:52.5;0.12217556213514805;-0.30717037663139696;-0.8113224362477162;0.841;0.030447887214305105
32:52.5;0.12485978295853746;-0.3127434441318591;-0.8211245428357264;0.848;0.0320641567774596
32:52.6;0.12740714287641816;-0.3168363799267377;-0.8368008430231937;0.877;0.0337793219907878
32:52.6;0.13000425596118378;-0.31928992499906417;-0.8583413250650919;0.877;0.03562893223707597
32:52.6;0.13280523430943694;-0.32010921818109805;-0.8852357432328934;0.905;0.037633301015444744
32:52.6;0.13591145728466672;-0.3194561248710125;-0.9165087745721877;0.9470000000000001;0.03979274652816857
32:52.6;0.13935256302059396;-0.3176224641276492;-0.9508058538597743;1.004;0.04208409753084908
32:52.6;0.14306910263596073;-0.31498575829163106;-0.9865259052531555;1.067;0.04445752334306914
32:52.6;0.14690004620633598;-0.3119518255170021;-1.0219860690629696;1.12;0.046833265413951
32:52.6;0.1505814901968883;-0.30889198333110846;-1.055593562315817;1.158;0.04909926160408243
32:52.6;0.15376376672842193;-0.3060850450531549;-1.0859972264461992;1.183;0.05111223082401474
32:52.7;0.15605064423785558;-0.3036735801836305;-1.1121974949806284;1.21;0.05270532408470714
32:52.7;0.15705661451467853;-0.301640911617483;-1.1336043360687564;1.21;0.05370416576819058
32:52.7;0.15646965808658753;-0.29981290556343604;-1.1500429101857912;1.21;0.05395037923342688
32:52.7;0.15410349020062614;-0.29788723606998674;-1.1617141189090308;1.23;0.053329024228691874
32:52.7;0.14992700612044293;-0.295490422551253;-1.169120687490783;1.25;0.051794378138886835
32:52.7;0.1440636300185963;-0.29225793882617895;-1.1729674136029236;1.2409999999999999;0.04938631450532222
32:52.7;0.13675624301874414;-0.28792507701887393;-1.1740403638012455;1.199;0.04622848716482387
32:52.7;0.12829936703334746;-0.2824094363650679;-1.1730719858242642;1.162;0.04250386087266252
32:52.7;0.11895288455348671;-0.27586545244702293;-1.170608717185637;1.137;0.03841351489031585
32:52.7;0.10886457998815571;-0.26869768099438585;-1.1669066203516953;1.126;0.0341339559264408
32:52.7;0.09803126464903018;-0.26152716218110755;-1.1618810446421928;1.13;0.02978811851912706
32:52.8;0.08631565229136669;-0.2551120051946603;-1.1551269858440005;1.176;0.025436080050267533
32:52.8;0.07351513962202741;-0.2502326771067015;-1.1460100369306674;1.176;0.021081874802309275
32:52.8;0.0594614628217985;-0.2475633565580697;-1.1338092074942152;1.198;0.016690214994031425
32:52.8;0.04412451438242399;-0.24755531053370308;-1.1178811758313334;1.203;0.012210904340546062
32:52.8;0.02769708173453912;-0.2503538534052848;-1.0978141780453707;1.188;0.0076123216094218195
32:52.8;0.010643081680572321;-0.25576255650918733;-1.0735446044396493;1.163;0.002922297678396136
32:52.8;-0.006302229179250826;-0.2632599182417829;-1.0454175528050795;1.126;0.0017344777057232302
32:52.8;-0.022183495011774215;-0.272064025210231;-1.0141834515090782;1.0859999999999999;0.006120932769950108
32:52.8;-0.03592100281370183;-0.28123233699201344;-0.9809335824291956;1.042;0.009909535804493167
32:52.8;-0.04643491531752845;-0.28977991616451576;-0.9469851455604407;1.0;0.012742542976884905
32:52.9;-0.05277786816976167;-0.29679953802697295;-0.9137321097713895;0.91;0.0143131081059634
32:52.9;-0.05425649773528043;-0.3015683188826558;-0.8824842575628877;0.91;0.014439243436858179
32:52.9;-0.05052516401914536;-0.3036272199607677;-0.8543218807112495;0.8740000000000001;0.013105993998644514
32:52.9;-0.041638525953173286;-0.30282408952783924;-0.8299903419892878;0.843;0.010465471650879011
32:52.9;-0.028054312952794473;-0.2993179807607408;-0.8098473803108964;0.8240000000000001;0.006800418274779824
32:52.9;-0.010584553901028637;-0.2935490000920533;-0.7938661548072463;0.823;0.0024666097915501356
32:52.9;0.00969675421188886;-0.28618130882403253;-0.7816912334838041;0.8320000000000001;0.0021692164764646844
32:52.9;0.03157150239868758;-0.27802772450453783;-0.7727378531141407;0.843;0.006782901986051507
32:52.9;0.05379816438645666;-0.26996447448521993;-0.7663166328128793;0.8540000000000001;0.011129671019634886
32:53.0;0.07521621237883047;-0.26284496507110333;-0.7617611231147146;0.845;0.015060171824760583
32:53.0;0.09482318200608654;-0.25742148862804837;-0.7585367751648092;0.845;0.01851552212531584
32:53.0;0.11182095649509202;-0.2542824141480329;-0.756316196585856;0.845;0.02150517246027283
32:53.0;0.1256344619373805;-0.2538091189747863;-0.755013190641307;0.83;0.024075235545633823
32:53.0;0.1359115313077447;-0.25615317667865395;-0.7547741632167957;0.8170000000000001;0.026276836400989264
32:53.0;0.142514249709267;-0.2612322718814743;-0.7559308859232485;0.8079999999999999;0.028142793777474192
32:53.0;0.14550847515201018;-0.268743136088475;-0.758924325009293;0.799;0.029677283364905847
32:53.0;0.14515252919711816;-0.27819002414230254;-0.7642135814143265;0.799;0.030858933414105495
32:53.0;0.1418815465716707;-0.2889271976059466;-0.7721854300196576;0.8029999999999999;0.03165453527430569
32:53.0;0.13628203496753644;-0.3002137955417319;-0.7830787689270239;0.815;0.032038686618664554
32:53.0;0.12905201647427628;-0.31127923406122676;-0.7969352371369884;0.835;0.03201385503245482
32:53.1;0.12094509830663057;-0.3213959047978563;-0.813582537329087;0.9;0.03162497777138632
32:53.1;0.1127014322187785;-0.3299524666777105;-0.8326500528601237;0.9;0.03096302108561153
32:53.1;0.10497362349025313;-0.3365171721626091;-0.8536089562748836;0.9309999999999999;0.03015410081048898
32:53.1;0.0982585419863914;-0.3408806176776267;-0.8758262343467867;0.96;0.029335302674415864
32:53.1;0.0928458475616761;-0.34307165749697593;-0.8986244931319874;0.9840000000000001;0.028623687217201304
32:53.1;0.0887925224817869;-0.34334489109807054;-0.9213417447526049;1.001;0.02808844729122308
32:53.1;0.08592950175971173;-0.34214119993507225;-0.943385968121128;1.018;0.027735569011480308
32:53.1;0.08390070769708806;-0.34002597440695187;-0.9642805122957353;1.037;0.02750939934471887
32:53.1;0.08222859937987304;-0.3376135068415973;-0.9836980065896634;1.057;0.027308918240750196
32:53.1;0.08039640951344718;-0.33548880925089325;-1.0014805098501727;1.077;0.02701202814907088
32:53.2;0.07793569013867481;-0.33413808269468936;-1.01764259606679;1.1;0.026500717897159902
32:53.2;0.07450726795842112;-0.3338960289783171;-1.0323535587805446;1.1;0.02568256241270536
32:53.2;0.06996378885726601;-0.3349137890642588;-1.0458963437062525;1.101;0.024507273296715006
32:53.2;0.06438395331827744;-0.3371477960534883;-1.058605104038124;1.091;0.02297904356195433
32:53.2;0.05807313723890002;-0.3403683213391012;-1.0707895294667669;1.091;0.02116550021522932
32:53.2;0.05153090334746118;-0.3441859639827133;-1.0826594126112485;1.103;0.019202278645269074
32:53.2;0.045390662582821734;-0.3480930249806479;-1.0942643602484934;1.119;0.017289566248169616
32:53.2;0.04034004736909553;-0.351514950299951;-1.1054599705234782;1.14;0.015675565811082315
32:53.2;0.037033437873028666;-0.3538672421748049;-1.1159045592465087;1.165;0.014623840566183106
32:53.2;0.036009396325335265;-0.3546152521672179;-1.1250830687748212;1.179;0.014366727048240234
32:53.3;0.03762287872251274;-0.35333413544756237;-1.132350635781265;1.186;0.015052843531850265
32:53.3;0.04199709265109264;-0.3497628191346984;-1.1369888127725927;1.186;0.016701253140074836
32:53.3;0.048998472994169505;-0.3438432884285812;-1.1382709884471023;1.186;0.019177357499748318
32:53.3;0.058240440873765856;-0.33573743862013133;-1.1355366820692112;1.205;0.022203712473810554
32:53.3;0.06912121190024977;-0.3258162338048882;-1.1282737624302162;1.215;0.025409642345832407
32:53.3;0.08089456425313118;-0.31461910098685786;-1.1162020928273213;1.206;0.028408431648840826
32:53.3;0.09276305997508383;-0.3027876252640441;-1.0993450325155938;1.19;0.030877860902721304
32:53.3;0.10397587567519254;-0.2909862563195144;-1.0780723860494343;1.175;0.03261767385326502
32:53.3;0.11391080548840218;-0.2798279315480054;-1.0531014144680289;1.145;0.03356805523934622
32:53.4;0.12212249554133088;-0.26981923061682567;-1.02544987652943;1.01;0.033789596613193945
32:53.4;0.12834837476390146;-0.2613303731795376;-0.9963480999113813;1.01;0.03341883909288041
32:53.4;0.13247915747433497;-0.25458683653142106;-0.9671324304166984;1.01;0.03261891031088925
32:53.4;0.13451244446150518;-0.2496753332675039;-0.9391450975889023;0.973;0.0315406616173617
32:53.4;0.13450836072829817;-0.24655678630848554;-0.9136507015020428;0.945;0.030300265408026213
32:53.4;0.13256050184349355;-0.2450812769950763;-0.8917651629455584;0.92;0.028971753178232574
32:53.4;0.12878955588581986;-0.24500359232407024;-0.8743920168395961;0.905;0.027590481622933257
32:53.4;0.12335924033597322;-0.24600120891291075;-0.8621658935172903;0.893;0.02616373647359641
32:53.4;0.11650488195146107;-0.24769752386945862;-0.8554054613776364;0.883;0.024685265807846288
32:53.4;0.10855913522434923;-0.24969197159864856;-0.8540785779912209;0.8759999999999999;0.023150948172967974
32:53.4;0.09996009597581126;-0.251596918124138;-0.8577831448532033;0.872;0.02157294765564002
32:53.5;0.09123333890438941;-0.2530794350849184;-0.8657483158093631;0.882;0.019989506892922004
32:53.5;0.0829484045409823;-0.25390351017091856;-0.8768614232528149;0.882;0.0184674829239026
32:53.5;0.07565829760876534;-0.25396551819092383;-0.8897257118464347;0.9009999999999999;0.017095722557496633
32:53.5;0.06983402756299903;-0.2533149803171564;-0.902752558871672;0.9309999999999999;0.015969697566906825
32:53.5;0.06580553417052416;-0.2521544077190224;-0.9142881070278303;0.966;0.015170924725681335
32:53.5;0.06371886985495419;-0.25081518824400467;-0.9227668676797539;0.996;0.014747346649832585
32:53.5;0.0635176672757666;-0.24971079163214166;-0.9268758637385762;1.016;0.014701221617586253
32:53.5;0.06495328018913522;-0.24927416141003927;-0.9257065972064835;1.0270000000000001;0.01498827700486569
32:53.5;0.06762312194030946;-0.2498909972365023;-0.91887110567136;1.023;0.015527460109167009
32:53.5;0.07103148137044071;-0.25184159308349874;-0.9065625131008049;1.002;0.016217207990894905
32:53.6;0.07466189647513481;-0.2552602116584549;-0.8895492182050819;0.9329999999999999;0.016953217137600885
32:53.6;0.07804698771666742;-0.2601153014273264;-0.8691046262362834;0.9329999999999999;0.017643880513870693
32:53.6;0.08082285642172202;-0.2662097676364431;-0.8468865575918993;0.8959999999999999;0.018221470444094254
32:53.6;0.08276070074326006;-0.27319923374623795;-0.8247846900018964;0.858;0.018648513829059677
32:53.6;0.08377556327865845;-0.28062609083264234;-0.8047513516570219;0.826;0.01891938948302534
32:53.6;0.08391776363874631;-0.2879661449177367;-0.7886293475933475;0.807;0.019057602692973147
32:53.6;0.08335424361387213;-0.2946829040562525;-0.7779922288096032;0.7959999999999999;0.019109878021922325
32:53.6;0.08234459466953971;-0.30028342441478784;-0.7740122759064025;0.7879999999999999;0.019138782399790742
32:53.6;0.08121239648476404;-0.3043702008848214;-0.7773681654849455;0.79;0.019215478724643822
32:53.6;0.08030984668715732;-0.30668538981440896;-0.7882005500889865;0.8109999999999999;0.01941326655004309
32:53.7;0.07997404773646628;-0.3071448519922006;-0.8061196612965547;0.8759999999999999;0.019801214660783602
32:53.7;0.08047690720588407;-0.305859120440247;-0.8302617411103206;0.8759999999999999;0.020436557376307955
32:53.7;0.08197591028946608;-0.30313771559048414;-0.8593823867495242;0.9179999999999999;0.021355643870386822
32:53.7;0.08447616726711804;-0.2994737731219916;-0.8919718509990537;0.9620000000000001;0.022565457598340107
32:53.7;0.08781275446600643;-0.2955076171346226;-0.9263803753960038;1.001;0.024038957316784442
32:53.7;0.09165817886369045;-0.29197008476537556;-0.9609436228057249;1.0270000000000001;0.025716241113178613
32:53.7;0.09555493775470307;-0.2896090367769859;-0.9940983435846142;1.054;0.0275102535599452
32:53.7;0.09896829885270403;-0.28910529548145186;-1.024481165870374;1.083;0.02931272074854354
32:53.7;0.10135077272820062;-0.29098643180726047;-1.051008066229476;1.11;0.030996014289476733
32:53.8;0.10220884521866896;-0.2955479449610243;-1.0729340062464465;1.162;0.032410776481141476
32:53.8;0.10116431305509355;-0.30279137182400717;-1.0898897543244692;1.162;0.03338515542086898
32:53.8;0.09800513200986485;-0.31238775337805547;-1.1018894424174148;1.162;0.03373500972784778
32:53.8;0.09272248410651966;-0.3236736026277555;-1.1093036265320062;1.167;0.03329222129213552
32:53.8;0.08553181301915332;-0.335685842335288;-1.1127988695822848;1.173;0.03195047939278765
32:53.8;0.07687600657213366;-0.347239939212094;-1.1132500039345317;1.172;0.029717563001902828
32:53.8;0.06740796830587134;-0.35704820365382717;-1.1116327371293007;1.161;0.026754658879228312
32:53.8;0.05794795028299935;-0.36386441583447415;-1.1089058736678319;1.1520000000000001;0.023381498887824297
32:53.8;0.04941149304569707;-0.3666337410794833;-1.105895391919035;1.148;0.02003431305403607
32:53.8;0.042709228575166375;-0.3646273445191518;-1.103193764974847;1.1440000000000001;0.017179984212581486
32:53.8;0.038627943910381976;-0.3575446592429232;-1.1010861587296463;1.1320000000000001;0.015207337718747146
32:53.9;0.037709164582721576;-0.3455683184915137;-1.0995129297805404;1.1179999999999999;0.014327854799097112
32:53.9;0.040146385757110666;-0.32936068284947206;-1.0980762268789614;1.1179999999999999;0.014519467768193624
32:53.9;0.045724892003415285;-0.3099997433950765;-1.0960953896839887;1.131;0.015536828568067994
32:53.9;0.05382515782407105;-0.2888614184488176;-1.0927091065029637;1.15;0.016989453685541896
32:53.9;0.06349945414267508;-0.2674619629355431;-1.0870120430007553;1.155;0.0184614740974898
32:53.9;0.07361462329711958;-0.24728098188724756;-1.0782034545741306;1.159;0.019627072628518507
32:53.9;0.08303711629769994;-0.22959107669008877;-1.0657208919911048;1.155;0.020317522200581487
32:53.9;0.09082354145421524;-0.21531995705532858;-1.049335661059767;1.135;0.020520935205080748
32:53.9;0.09637547851930285;-0.20496536492075398;-1.0291950613606489;1.102;0.020330343713665783
32:53.9;0.09952353812111571;-0.1985755239082347;-1.0058062520943352;1.053;0.01987768732795585
32:54.0;0.10052143263566815;-0.19579794491582345;-0.9799672895603241;0.965;0.01928760832818378
32:54.0;0.099953517639238;-0.19598524071310025;-0.9526624568517427;0.965;0.018662099474012223
32:54.0;0.09858255462668608;-0.19833175050784815;-0.9249470360680762;0.932;0.01808461127801928
32:54.0;0.09717790422980209;-0.2020094617543087;-0.8978439739185755;0.905;0.017625445877274284
32:54.0;0.09636445573243291;-0.20627942252734466;-0.8722635528004399;0.887;0.017338858636420488
32:54.0;0.09652412409692317;-0.21056686419252665;-0.8489479356761345;0.8690000000000001;0.017254681832347164
32:54.0;0.0977659205272135;-0.21449712660869755;-0.8284391076537504;0.852;0.017372789790626408
32:54.0;0.09995864372347513;-0.21789582917859932;-0.8110674688991741;0.838;0.01766551304447687
32:54.0;0.10280186258207068;-0.2207621662261753;-0.7969577113169227;0.825;0.018086765483343228
32:54.0;0.10590537037038485;-0.22322738504791262;-0.7860491747857907;0.818;0.018582971947857806
32:54.1;0.10885462850410595;-0.22550971778241072;-0.7781286535278641;0.815;0.019101328316498932
32:54.1;0.11125348619543032;-0.22787279525765602;-0.7728734181704362;0.815;0.019593610890070196
32:54.1;0.11274795268909582;-0.23058971738857761;-0.7699010615816281;0.816;0.020016287028668856
32:54.1;0.11304052582960875;-0.23391224800495905;-0.768821688213174;0.8190000000000001;0.020328847498650295
32:54.1;0.11190323388563955;-0.23804423390989587;-0.7692878363183129;0.8240000000000001;0.020492227519524914
32:54.1;0.10919280872935903;-0.2431187532461005;-0.7710381809815546;0.8320000000000001;0.020468611434873912
32:54.1;0.10486686897283441;-0.24917901136203846;-0.7739315728462668;0.8390000000000001;0.020223313952970227
32:54.1;0.09899741164432693;-0.25616411456950455;-0.7779677927021531;0.843;0.01972893982058072
32:54.1;0.09177717107664428;-0.26390266866960777;-0.78329124103591;0.846;0.01897150213766297
32:54.1;0.08351435650431992;-0.272118809603107;-0.7901747716879999;0.848;0.017957375379807124
32:54.2;0.07461228815385845;-0.2804549268375885;-0.7989833863340556;0.85;0.01671903402114851
32:54.2;0.06553441258920714;-0.28851113156544045;-0.8101212685044706;0.85;0.015317292974431658
32:54.2;0.056761045313529664;-0.2958951258279205;-0.823969725602802;0.866;0.01383883244753385
32:54.2;0.04874710712414189;-0.3022728415494825;-0.8408258486833396;0.885;0.012389507153415953
32:54.2;0.04188814063417636;-0.3074117569923177;-0.8608504050092348;0.9079999999999999;0.011085090528303653
32:54.2;0.03649806311392293;-0.31121133478291807;-0.8840298087979986;0.932;0.010041350656327842
32:54.2;0.0327984476987134;-0.31371649881153785;-0.9101536233257783;0.956;0.009364947596455685
32:54.2;0.03091566998447311;-0.3151120855675652;-0.9388072573439782;0.98;0.009145767589628052
32:54.2;0.030880483762493527;-0.3156994896080829;-0.9693791184785474;1.005;0.00945043142904177
32:54.2;0.0326260995981442;-0.3158600326192019;-1.001081909614818;1.033;0.010316430265778208
32:54.3;0.035985002344049236;-0.31601124976744976;-1.0329880956051252;1.087;0.011746795154430065
32:54.3;0.040689172519586043;-0.3165614508006443;-1.0640786126052355;1.087;0.013705995967066436
32:54.3;0.046380447301048185;-0.3178655359075439;-1.093302610603961;1.127;0.01611828240170986
32:54.3;0.052635997442975854;-0.3201830568758531;-1.119646820967311;1.176;0.018869580929735466
32:54.3;0.05900857568493635;-0.3236391194016437;-1.142213336363342;1.22;0.02181340031248907
32:54.3;0.0650747079194398;-0.32819047004700913;-1.1602990249161453;1.249;0.024780389062019913
32:54.3;0.07048051019367042;-0.33360295482675456;-1.173461658631984;1.2570000000000001;0.02759102482715858
32:54.3;0.07497681320880886;-0.3394503238975758;-1.1815557905019642;1.253;0.030071662437651192
32:54.3;0.07844024236056053;-0.3451441546215126;-1.184728035286002;1.256;0.03207436854565822
32:54.3;0.08087948395979372;-0.34999796026316093;-1.1833716651083224;1.26;0.03349847613809949
32:54.4;0.08242432100406756;-0.3533169242729271;-1.1780488000790272;1.2;0.034307028283507617
32:54.4;0.0832941382804635;-0.35449427754437335;-1.1693947642292633;1.2;0.03452906461152133
32:54.4;0.0837479326574761;-0.35309320358533053;-1.158024687422994;1.173;0.03424374634519938
32:54.4;0.08402665485272579;-0.3489001155280718;-1.1444633445455228;1.167;0.03355212839602119
32:54.4;0.08430377019731405;-0.3419441116258465;-1.129112642166749;1.166;0.03254913089968056
32:54.4;0.08465824635884285;-0.3324823142292061;-1.1122609220791337;1.17;0.03130721934100337
32:54.4;0.08507692728752378;-0.3209539158397756;-1.094127758914368;1.171;0.02987600417474742
32:54.4;0.08548341323255522;-0.30791198739378955;-1.074927896114785;1.159;0.028293572359091405
32:54.4;0.08578166075841853;-0.2939493041128175;-1.0549317741316757;1.14;0.026600589410667154
32:54.4;0.08589685333563651;-0.27963569346377987;-1.0345016630706503;1.11;0.024848550097671125
32:54.5;0.08579625479395134;-0.2654778296714554;-1.0140914435678594;1.024;0.02309796437633703
32:54.5;0.08548208531790631;-0.2519029785528143;-0.9942115771906779;1.024;0.021408548685308955
32:54.5;0.08496405609079372;-0.23926118409023311;-0.9753732505312075;0.9890000000000001;0.019827973309754544
32:54.5;0.08422956438133919;-0.22783711055751657;-0.9580295406988303;0.971;0.018385181412474493
32:54.5;0.08322741438845405;-0.21786243389735638;-0.9425260816353871;0.9570000000000001;0.01709000267490436
32:54.5;0.08187120546101634;-0.20952181642625028;-0.9290668117745147;0.945;0.015937029695897383
32:54.5;0.08005909743354193;-0.20294956098902864;-0.9176963371945227;0.9309999999999999;0.014910692165060125
32:54.5;0.07770130140150833;-0.19821883015399389;-0.9082980949945025;0.9179999999999999;0.013989481064936454
32:54.5;0.07474627630908968;-0.19532920064105405;-0.900606528706323;0.9129999999999999;0.013148972760319944
32:54.5;0.07119977507749038;-0.19419970006861462;-0.8942318050966717;0.9109999999999999;0.01236452078197974
32:54.6;0.06713471734111084;-0.19467280592734842;-0.8886956209991377;0.91;0.011614633056508259
32:54.6;0.06269224040120575;-0.1965311626188761;-0.8834757078713371;0.91;0.010885285549365098
32:54.6;0.05807448939170161;-0.19952476465889835;-0.8780556809472027;0.912;0.010174293563254323
32:54.6;0.05352855505358599;-0.20340347819224783;-0.8719764634155955;0.9109999999999999;0.009493987548757304
32:54.6;0.049320551817144474;-0.20794813360014378;-0.8648853983322079;0.9079999999999999;0.008870365576127564
32:54.6;0.045701067736774244;-0.21299302151782276;-0.8565792385735488;0.903;0.008337949592493055
32:54.6;0.0428675339059295;-0.21843462992584972;-0.8470373290093136;0.899;0.007931449096832183
32:54.6;0.04093224738279735;-0.2242255805534952;-0.8364411260880844;0.892;0.007676904276144196
32:54.6;0.0399043267186873;-0.23035614567399276;-0.8251760237672331;0.879;0.007585188738259322
32:54.6;0.0396904437787754;-0.23682716191176567;-0.8138121872213878;0.86;0.007649651578398523
32:54.7;0.040114814730443524;-0.2436191531993088;-0.8030635909921446;0.826;0.007848129425942605
32:54.7;0.04095444004155927;-0.250663614747918;-0.7937289383770516;0.826;0.008148252995599613
32:54.7;0.041981562917149585;-0.2578223915810397;-0.7866226595388836;0.8140000000000001;0.008514236079730493
32:54.7;0.043003921170522645;-0.26487981100144753;-0.7825052643923652;0.8059999999999999;0.008913416141627646
32:54.7;0.04389551954410198;-0.27155066500783775;-0.7820199937259836;0.809;0.009321566905402248
32:54.7;0.044614021300724345;-0.277504830482454;-0.7856405982757688;0.8190000000000001;0.00972670703340998
32:54.7;0.04520330029736107;-0.28240554795305106;-0.7936341881668517;0.831;0.010131266424565005
32:54.7;0.04578143865484127;-0.2859543900114308;-0.8060418559298627;0.845;0.010552219064560069
32:54.7;0.04651652133889139;-0.28793384920655063;-0.822678214563501;0.866;0.011018689605083004
32:54.7;0.047595217583360744;-0.2882389865613935;-0.8431497962853406;0.889;0.011567001133089694
32:54.8;0.049191074503088544;-0.28689212714238743;-0.8668903767677735;0.948;0.012234018183156697
32:54.8;0.05143900516860642;-0.2840390054913282;-0.8932069776351582;0.948;0.013050364782093732
32:54.8;0.054419855544578004;-0.2799301899662281;-0.9213255213114965;0.976;0.014035252334683822
32:54.8;0.05815564110389083;-0.2748948041850135;-0.9504257299895331;1.0;0.015194155405463011
32:54.8;0.06261278034508015;-0.269312656663022;-0.9796614882914496;1.015;0.016519457806829476
32:54.8;0.06770833467130695;-0.2635881016614938;-1.0081694236746002;1.023;0.01799291201708711
32:54.8;0.0733146379617384;-0.258126525582887;-1.0350727753358593;1.032;0.019588185851837237
32:54.8;0.07926097922673318;-0.25331224130176583;-1.0594919287333404;1.0490000000000002;0.021272241932204013
32:54.8;0.08533481692647939;-0.24948481978222478;-1.08057587948528;1.075;0.023005181061147878
32:54.9;0.09128652875000262;-0.24691102725858735;-1.0975654240503012;1.187;0.02473874115614963
32:54.9;0.09683994516095064;-0.2457533917003462;-1.1098851051845426;1.187;0.026413872570258793
32:54.9;0.10170771747874009;-0.24604263617383912;-1.1172419065363177;1.187;0.027958347388610045
32:54.9;0.10560926048592172;-0.2476643941158179;-1.1197004796041385;1.205;0.02928649778092353
32:54.9;0.10829013043752299;-0.25036777176171415;-1.1177138803264624;1.208;0.030303859604267472
32:54.9;0.10954205391996992;-0.25379697524829425;-1.1121016586088706;1.195;0.030918029701392766
32:54.9;0.10922120370456895;-0.25753995825420806;-1.1039736247895267;1.156;0.031053480060114377
32:54.9;0.10726186107378709;-0.26118199027988975;-1.0946037650219114;1.11;0.03066517819027566
32:54.9;0.1036850917993455;-0.26435136388363256;-1.0852694537800145;1.071;0.029746471081500508
32:54.9;0.09860439983498087;-0.26674960331293923;-1.0770819798412354;1.036;0.028330147540442975
32:54.9;0.09222895357077424;-0.2681641793027971;-1.0708401259441673;1.0170000000000001;0.02648455517351465
32:55.0;0.08486141008360511;-0.2684650981758698;-1.0669366097467774;1.053;0.02430729850686594
32:55.0;0.07688632527597375;-0.2675897577195374;-1.065336364768424;1.053;0.021918223073900994
32:55.0;0.06874781374429659;-0.26552322281905527;-1.0656284311427455;1.091;0.019452131707245177
32:55.0;0.06091867900918803;-0.26228119862944216;-1.0671372344799799;1.13;0.017050531075853723
32:55.0;0.05386618479718077;-0.2579006906750362;-1.069068676535784;1.165;0.014851637038490807
32:55.0;0.04802134105536965;-0.25244083638951065;-1.070659954628514;1.18;0.012979126156935281
32:55.0;0.04375655103927675;-0.24599386542101895;-1.0713001359638001;1.173;0.01153130660613781
32:55.0;0.04137094161741028;-0.23870294646259774;-1.0705952411728854;1.1440000000000001;0.010572519482587823
32:55.0;0.04107885604250959;-0.23078109876500388;-1.0683665229509505;1.102;0.010128353453282937
32:55.0;0.042997961575625694;-0.22252494050164973;-1.0645887285597662;1.058;0.010186111471977176
32:55.1;0.04713636366359665;-0.2143183450283691;-1.0592912453487504;1.011;0.010701158725755913
32:55.1;0.05337957597473362;-0.20662280487957518;-1.0524551853537838;1.011;0.0116079889106699
32:55.1;0.061478957376660114;-0.199953034046011;-1.0439401822565986;1.005;0.01283305650219575
32:55.1;0.07104567648061391;-0.19483845004050473;-1.0334645830200724;1.0170000000000001;0.014305660618347971
32:55.1;0.08155749007806647;-0.19177406762545599;-1.020645862065592;1.042;0.015963525527671905
32:55.1;0.09238567261900253;-0.19116710228681807;-1.0050913442454537;1.06;0.017751020074004944
32:55.1;0.10284453612672793;-0.19328671545987428;-0.9865166193233735;1.068;0.019610453442882425
32:55.1;0.11225880734895817;-0.19822419200694488;-0.9648620512957982;1.058;0.02147050729271058
32:55.1;0.12003779431688437;-0.20587052114101023;-0.94037840286263;1.031;0.02323885985987269
32:55.1;0.1257409481530228;-0.21591745487878808;-0.9136608062399084;0.9890000000000001;0.02480558526918523
32:55.2;0.12911884349527938;-0.22788540302368007;-0.8856237957297315;0.907;0.02605885997626343
32:55.2;0.1301192090666669;-0.24117573206243745;-0.8574259316254997;0.907;0.026907393759230156
32:55.2;0.1288582625793718;-0.2551375637885796;-0.8303645387744986;0.875;0.02729954883582516
32:55.2;0.1255678531468978;-0.26913532398524237;-0.8057616184689238;0.847;0.027230508297073262
32:55.2;0.12053508108593497;-0.2826051406135655;-0.7848536770327008;0.821;0.02673512500703813
32:55.2;0.11405257631336409;-0.2950919887866577;-0.7686924992673474;0.804;0.02587111596261389
32:55.2;0.1063930684046574;-0.306263402878342;-0.7580641533400081;0.794;0.024700992196467503
32:55.2;0.09781122631006295;-0.31590074070303753;-0.7534339372572714;0.792;0.02328008311742908
32:55.2;0.08856400997491796;-0.3238746631110988;-0.7549224567728127;0.802;0.021653923143340536
32:55.2;0.07893414626690425;-0.33011564551884776;-0.7623137319165125;0.816;0.019863911283054043
32:55.3;0.06924236959023444;-0.3345910332192094;-0.7750915679278995;0.853;0.017957225321798418
32:55.3;0.05984133746926044;-0.33729624505382555;-0.7924964921344038;0.853;0.0159959540000332
32:55.3;0.05109287884210745;-0.3382611791843281;-0.8135940682854581;0.885;0.014061132669030316
32:55.3;0.04333510084207276;-0.33756756309455077;-0.8373472184274529;0.937;0.01224915420575141
32:55.3;0.03684671535616221;-0.3353701404402521;-0.8626872785721337;0.937;0.010660475244762891
32:55.3;0.03181617701563074;-0.33191323220003177;-0.8885784889591248;0.96;0.009383575577739176
32:55.3;0.028322349872173837;-0.3275348142310493;-0.9140720146245865;0.985;0.008479439869697162
32:55.3;0.026329584672277567;-0.3226532986208377;-0.9383496651210073;1.008;0.007971587570050105
32:55.3;0.02569579814377314;-0.3177362898542032;-0.9607590343856515;1.028;0.007844105191167811
32:55.3;0.02619028305895469;-0.31325467024002257;-0.9808392988161524;1.043;0.008047029712716518
32:55.4;0.027518152686752187;-0.3096293154259812;-0.9983344651925798;1.062;0.00850623571081356
32:55.4;0.029349156770843224;-0.30718045288348794;-1.0131905676486785;1.062;0.009134406663318589
32:55.4;0.03134939834919455;-0.3060893999253559;-1.0255349479912557;1.067;0.009840744702295647
32:55.4;0.03321504389277565;-0.30637863096190443;-1.0356393061660965;1.0759999999999998;0.010539058786115354
32:55.4;0.034707151595061145;-0.3079104382091539;-1.0438721007096392;1.0859999999999999;0.011155541983306668
32:55.4;0.035685736858178926;-0.31039995881992644;-1.0506470480239845;1.091;0.011637861068513425
32:55.4;0.03613954421303265;-0.3134377387143751;-1.056372405028355;1.0959999999999999;0.011966055266061544
32:55.4;0.036206933941214436;-0.3165202328944191;-1.0614029792553432;1.101;0.012163919254245868
32:55.4;0.036182947633457634;-0.3190901214742221;-1.065995476015007;1.104;0.012307579919711828
32:55.4;0.0365067080974533;-0.3205878263882828;-1.0702684126646993;1.0979999999999999;0.012526000027508939
32:55.5;0.0377223548054651;-0.32051085280885505;-1.0741704802331256;1.091;0.012987176671019141
32:55.5;0.04040993254665865;-0.3184729251506057;-1.0774648703194605;1.091;0.013866401203227154
32:55.5;0.04509215332662499;-0.3142542105862849;-1.0797388467575955;1.11;0.01530033032542043
32:55.5;0.052133489181731815;-0.307835796713934;-1.0804449157448188;1.133;0.01733957876638978
32:55.5;0.061653837059400855;-0.29941238405797344;-1.0789721977159439;1.148;0.019917742977154373
32:55.5;0.07347925323061962;-0.2893776720747422;-1.07473714170499;1.1520000000000001;0.022852410166071983
32:55.5;0.08714606153279059;-0.27828132401569955;-1.0672761375550164;1.136;0.02588264316433316
32:55.5;0.1019608928686215;-0.26676465054547827;-1.0563223428392248;1.115;0.028731505008931693
32:55.5;0.11710213710024522;-0.2554884051103357;-1.0418554155420727;1.1;0.031170478536690704
32:55.5;0.13173558552375247;-0.2450657266447966;-1.0241219311086969;1.081;0.033062626448063286
32:55.6;0.1451146029306242;-0.23600816769771618;-1.0036307339562835;1.037;0.03437257776104712
32:55.6;0.15664413649318665;-0.2286881247436071;-0.9811296942200725;1.037;0.03514666939515
32:55.6;0.1659031699642977;-0.22331898177198908;-0.9575695560212606;1.014;0.03547730759590813
32:55.6;0.17263361052044976;-0.21995284012164396;-0.9340569930601599;0.992;0.03546731433865732
32:55.6;0.17671051922112865;-0.21849339923688596;-0.9117943931686538;0.965;0.035204456310668715
32:55.6;0.17810975295168657;-0.21871988437088244;-0.8920026391204103;0.937;0.03474898376721629
32:55.6;0.17688581052729932;-0.22031814144876347;-0.8758264750002726;0.9109999999999999;0.03413196757973477
32:55.6;0.17316568440409127;-0.22291611077351547;-0.8642273149696093;0.884;0.0333604023270058
32:55.6;0.1671560357866675;-0.22612156169801145;-0.8578735817391632;0.861;0.03242554864648976
32:55.7;0.15915429787212262;-0.22956019204382433;-0.8570432332893355;0.846;0.03131249549425606
32:55.7;0.14955191426723374;-0.2329120226778233;-0.8615557412994449;0.863;0.03001008767237194
32:55.7;0.1388209463850405;-0.23594297132087946;-0.8707490848476825;0.863;0.028520364512535222
32:55.7;0.12748187947059464;-0.2385273131553292;-0.8835108667883258;0.89;0.026865719085753782
32:55.7;0.11605637998994847;-0.24065743763577388;-0.8983644588942907;0.925;0.025091167539973702
32:55.7;0.10501249713140738;-0.24244000267541996;-0.9136033404720432;0.961;0.02325963765195086
32:55.7;0.09471272239711248;-0.24407989097944713;-0.9274592567799198;0.995;0.021440512432460552
32:55.7;0.08537637782789924;-0.2458538195551431;-0.9382838444481675;1.021;0.019694679782057547
32:55.7;0.07706520700061949;-0.24807504845832878;-0.9447213323997592;1.038;0.018061139883637146
32:55.7;0.06969616541381975;-0.2510510643812279;-0.9458516496612175;1.043;0.016549846769001272
32:55.7;0.06307996724855248;-0.2550378551067049;-0.9412872919898357;1.033;0.015143222444181145
32:55.8;0.056978135643652686;-0.2601963690295017;-0.9312134651476525;0.9890000000000001;0.013805708960361195
32:55.8;0.05116621124147315;-0.26655761999483235;-0.9163697086791278;0.9890000000000001;0.012498131401136448
32:55.8;0.0454887514441006;-0.2740024435539226;-0.8979797496572279;0.9590000000000001;0.011192445685950148
32:55.8;0.039894128568866004;-0.28226058356503686;-0.8776399095902085;0.9279999999999999;0.009882699316898473
32:55.8;0.0344430332612444;-0.2909313569469656;-0.8571756373264899;0.897;0.008589378536370276
32:55.8;0.02929169769887246;-0.2995242507686134;-0.8384764439996097;0.867;0.007356434966857697
32:55.8;0.02465684229848936;-0.30751352824391986;-0.8233230829283169;0.84;0.006242692961321555
32:55.8;0.020772831357333744;-0.31439824070090394;-0.8132240223058985;0.8190000000000001;0.0053111186243327705
32:55.8;0.017852012351844238;-0.3197587014478224;-0.8092795665102926;0.812;0.004619639916531239
32:55.9;0.016056592131418843;-0.3233016380081467;-0.8120905641783936;0.8590000000000001;0.004215661629723639
32:55.9;0.015485227461538357;-0.3248884977905921;-0.8217215912911408;0.8590000000000001;0.004134058554175215
32:55.9;0.01617211497342017;-0.3245449549281202;-0.8377168404673684;0.8590000000000001;0.004396822451482652
32:55.9;0.018093873307886615;-0.32245316868775314;-0.8591599265303562;0.895;0.005012705685337899
32:55.9;0.02118019440569958;-0.3189300248947293;-0.884770792186883;0.94;0.005976626638478851
32:55.9;0.025325106140976945;-0.3143951411373674;-0.9130343444416441;0.9890000000000001;0.0072696619152601205
32:55.9;0.030395053670983527;-0.30933278681113935;-0.9423492891558739;1.031;0.00886014391303586
32:55.9;0.03622986135641028;-0.30425132050376796;-0.9711782857439744;1.06;0.010705281888488313
32:55.9;0.04263545245157445;-0.2996423946817666;-0.9981795597245785;1.087;0.012752132238131464
32:55.9;0.04937242629503779;-0.29594122091250463;-1.0223050067663693;1.1059999999999999;0.014937242068125217
32:56.0;0.05614881201550248;-0.2934887150704364;-1.0428566555368517;1.113;0.017185279347353474
32:56.0;0.06262508736135003;-0.29249688748931774;-1.0594996810280732;1.113;0.019407537055478086
32:56.0;0.06843509686203494;-0.29302163103316137;-1.072235546844763;1.113;0.021501500501328777
32:56.0;0.073222105934683;-0.2949497092629931;-1.0813433103159396;1.123;0.02335359722205191
32:56.0;0.0766863654221598;-0.2980052654873592;-1.087299707064156;1.122;0.024847995714411524
32:56.0;0.0786355875460199;-0.30177645615136584;-1.0906888370728491;1.109;0.025882448499226225
32:56.0;0.07902392958573032;-0.30575899565345516;-1.0921119138143451;1.105;0.0263879109508734
32:56.0;0.07796605031381208;-0.3094123235887768;-1.0921079400287061;1.115;0.02634563712139686
32:56.0;0.075721246253072;-0.3122237031003925;-1.0910951420655959;1.129;0.025795636333846916
32:56.0;0.07265079609340455;-0.31377255772207885;-1.089338534038283;1.13;0.024832371797700814
32:56.1;0.0691554786842747;-0.31378292237414684;-1.0869433660169063;1.128;0.023586462566540938
32:56.1;0.06560295622890239;-0.31215174835370685;-1.0838709804678874;1.12;0.02219559392070601
32:56.1;0.06225903871114575;-0.3089474142767929;-1.0799731748575745;1.12;0.020773034571761988
32:56.1;0.05924025963019509;-0.3043815481352082;-1.075041412184856;1.125;0.01938476181322244
32:56.1;0.05650313624584998;-0.2987623622529322;-1.0688660621429913;1.135;0.01804353917485048
32:56.1;0.0538770674989674;-0.2924386496645031;-1.0612974993906612;1.137;0.01672152413830291
32:56.1;0.05113577228280141;-0.2857433597348952;-1.0522968882520514;1.127;0.015375854202473936
32:56.1;0.04808961090583603;-0.2789454424175237;-1.0419634754733802;1.1079999999999999;0.013977291703188562
32:56.1;0.044672413551659226;-0.2722177862284242;-1.0305293940019746;1.078;0.012531882050400608
32:56.1;0.04099671293553491;-0.2656270913041359;-1.0183209463447922;1.041;0.011089349740654866
32:56.2;0.03736127168964701;-0.259148078812759;-1.0056941713244534;1.011;0.009737233326691786
32:56.2;0.03420952776877437;-0.25269955513626047;-0.9929598034838132;0.982;0.008583871833322895
32:56.2;0.03205129644805012;-0.2461942705451349;-0.9803164085167753;0.982;0.007735525368808779
32:56.2;0.03136873545928204;-0.2395900544816228;-0.967808649262282;0.975;0.0072736985298107225
32:56.2;0.032528589411424134;-0.23292910456989555;-0.955320217707855;0.9740000000000001;0.007238322963527535
32:56.2;0.03571750960683655;-0.22635654335555042;-0.9426011785537941;0.975;0.007620828738870877
32:56.2;0.0409101601314908;-0.2201160102414723;-0.9293215509314878;0.972;0.008368523119504577
32:56.2;0.04787222254727331;-0.21452599229205227;-0.9151385052905074;0.961;0.009398322407964387
32:56.2;0.05619223581724682;-0.2099443571707226;-0.8997634878736288;0.943;0.010614728352987539
32:56.2;0.06533080211337806;-0.2067295886538691;-0.8830179926931897;0.929;0.011925873101081692
32:56.3;0.07467616192461313;-0.20520533843663694;-0.8648718259672785;0.88;0.013253250092874709
32:56.3;0.08359911758772935;-0.20563112878475687;-0.8454640980710062;0.88;0.01453401898859549
32:56.3;0.09150340858169491;-0.20817875515077686;-0.8251121539360762;0.88;0.015717615622432655
32:56.3;0.09786973114297587;-0.21291299358617594;-0.804312632068323;0.86;0.016760055446011415
32:56.3;0.10229381228231504;-0.21977623826415024;-0.7837322234627994;0.836;0.01761967133574001
32:56.3;0.10451906554517768;-0.22857825266348744;-0.7641818664422197;0.812;0.018256904956603145
32:56.3;0.10446123057721482;-0.2389937512961326;-0.7465716230483075;0.7909999999999999;0.018638594596771644
32:56.3;0.10221945738885588;-0.25057172837312247;-0.7318493664326495;0.773;0.0187450818497919
32:56.3;0.09806869693412898;-0.26276019311541543;-0.720929699943606;0.7609999999999999;0.018577312835636718
32:56.3;0.09243166097471203;-0.27494745212333865;-0.7146204105104679;0.757;0.018161255691348317
32:56.4;0.08583294631194877;-0.28651712868084817;-0.7135536516516765;0.757;0.01754814618643859
32:56.4;0.0788414341436354;-0.29691042070920587;-0.718128219419228;0.7759999999999999;0.016810551015792125
32:56.4;0.07200927952233464;-0.3056865382990314;-0.7284677180612655;0.7759999999999999;0.016035226189549626
32:56.4;0.06581646161457741;-0.3125713811307768;-0.74439784162341;0.794;0.015314007211220023
32:56.4;0.060628162504350436;-0.31748657202765745;-0.7654453514962256;0.815;0.01473377242865844
32:56.4;0.05666894117346414;-0.32055538726773714;-0.7908610602258309;0.843;0.014366413782429756
32:56.4;0.05401504258088153;-0.32208589841936286;-0.8196676596579295;0.878;0.014260154598991683
32:56.4;0.05260448878538364;-0.3225336192553669;-0.8507302252154038;0.9129999999999999;0.014434098257434382
32:56.4;0.05226238510276606;-0.32244760028428787;-0.8828439427640744;0.9420000000000001;0.014877580766206181
32:56.4;0.052736065714742875;-0.3224058619017849;-0.9148317205471065;0.975;0.015554350141481302
32:56.5;0.05373289201163673;-0.32294749472241036;-0.94564357743793;1.073;0.01640966113884663
32:56.5;0.054954301211278526;-0.3245090586112637;-0.9744461882815617;1.073;0.01737746312117265
32:56.5;0.05612287974585896;-0.32737215445686196;-1.000685109140717;1.073;0.018385655613593906
32:56.5;0.05700255283158469;-0.3316276148245154;-1.0241040966693793;1.093;0.019359275333620835
32:56.5;0.05741369139108456;-0.33716008685941584;-1.0447192007921884;1.103;0.02022326180907432
32:56.5;0.057245293356282013;-0.3436548451781588;-1.0627577920582143;1.107;0.020907232772952637
32:56.5;0.05646598884416931;-0.35062582275288784;-1.078576365998928;1.111;0.021354122776205617
32:56.5;0.05513450250412571;-0.3574602708163913;-1.0925712737097555;1.1179999999999999;0.021532825349991274
32:56.5;0.053408528647965366;-0.36347317865819434;-1.1050973679660112;1.129;0.02145277744325177
32:56.5;0.05154891003632748;-0.3679654447659448;-1.1164081954039624;1.1520000000000001;0.02117627359057732
32:56.6;0.049914106642792395;-0.3702830402074575;-1.1266259119319608;1.181;0.020822691220322067
32:56.6;0.048939318535769494;-0.36987687977045913;-1.1357406132101926;1.225;0.020558634193889178
32:56.6;0.04909554180939929;-0.3663616458921521;-1.143629841207977;1.225;0.020570153743883296
32:56.6;0.05082591762438984;-0.3595668194875443;-1.1500840858354588;1.216;0.02101814727490638
32:56.6;0.05446214419464046;-0.34956986370612997;-1.1548272275512648;1.202;0.021985975295456848
32:56.6;0.06013581088164659;-0.336704397372701;-1.1575300281526528;1.202;0.023437658707456326
32:56.6;0.06771339506454895;-0.3215425363916793;-1.157822289372763;1.198;0.02520895996392008
32:56.6;0.07678485674180584;-0.30485339214285656;-1.1553107184777787;1.188;0.027043656606269208
32:56.6;0.08671758489265988;-0.2875382095158917;-1.1496071645346813;1.182;0.028665016754920253
32:56.6;0.09676159728885579;-0.27054381446291087;-1.14036888552984;1.177;0.029852863629638876
32:56.7;0.10617455476120756;-0.2547635289862631;-1.127349427325205;1.161;0.030494130401447096
32:56.7;0.11433244711733748;-0.24094296728649808;-1.1104557279202065;1.161;0.030590389172820327
32:56.7;0.12080073220520426;-0.22960961104144875;-1.0898046210865933;1.161;0.03022792073061751
32:56.7;0.12535475659783013;-0.22103775109956075;-1.065769282807094;1.137;0.029530477555447313
32:56.7;0.12795222828087013;-0.21524916471153951;-1.0390037171086963;1.103;0.028615835435753596
32:56.7;0.12867297291379062;-0.21204190095244224;-1.010434223506378;1.067;0.027568749776594105
32:56.7;0.1276507220106891;-0.21103722564045982;-0.9812122897037765;1.026;0.02643293107772006
32:56.7;0.12502325286594695;-0.2117356391274616;-0.9526306444854811;0.9840000000000001;0.02521792253460259
32:56.7;0.1209176918819467;-0.2135744404693833;-0.926010503159537;0.938;0.023914154929275264
32:56.7;0.11547161295668719;-0.21598103515707978;-0.9025732738917503;0.8959999999999999;0.022509887271425298
32:56.8;0.10887631041795279;-0.2184182502268337;-0.8833144317555218;0.8690000000000001;0.02100572351414619
32:56.8;0.10142195104024018;-0.22042010562295453;-0.8688992843678588;0.862;0.019424623350728785
32:56.8;0.09352515911269142;-0.22161825756484285;-0.8595974028952613;0.862;0.017816774625879297
32:56.8;0.0857247346383822;-0.22176043889976818;-0.8552644259009383;0.866;0.01625888016535692
32:56.8;0.07863841449995278;-0.2207227222840524;-0.8553704017500616;0.872;0.014846907779186607
32:56.8;0.07288331210587252;-0.21851729091369623;-0.8590669198976133;0.885;0.013681726486242001
32:56.8;0.06897470845509966;-0.21529613110701573;-0.8652821393776052;0.902;0.012849429277880374
32:56.8;0.0672276142599105;-0.2113481085335571;-0.8728321935953912;0.925;0.012401574352038666
32:56.8;0.06768723311170748;-0.2070835573425302;-0.8805374547328442;0.9440000000000001;0.012342416913354193
32:56.8;0.07010723988451838;-0.20300039168464556;-0.8873314919090993;0.9520000000000001;0.012628321803412964
32:56.9;0.07398244300206877;-0.19963097581915798;-0.8923500291102723;0.948;0.013179284708156054
32:56.9;0.07862894746302372;-0.19747676717495818;-0.8949895788552521;0.9309999999999999;0.013896852551291552
32:56.9;0.08329297907757308;-0.1969426739023744;-0.8949322160333297;0.9309999999999999;0.014680416180805502
32:56.9;0.08726274063609837;-0.198282597908895;-0.8921411728255567;0.9209999999999999;0.01543643582790299
32:56.9;0.08996030777018653;-0.2015638973168391;-0.8868363258338697;0.914;0.016080781598314404
32:56.9;0.09100102121084033;-0.2066548819342747;-0.8794577570099973;0.9129999999999999;0.016538911342825532
32:56.9;0.09021848166626437;-0.21323674417193;-0.870622337250125;0.904;0.01674894136520064
32:56.9;0.08765949615438734;-0.22083845451543038;-0.8610754021320481;0.893;0.016669203649166058
32:56.9;0.08355599373940169;-0.2288902635550937;-0.8516382428337922;0.883;0.016287712059876114
32:56.9;0.07828137489159082;-0.23678953189347302;-0.8431527647951673;0.8740000000000001;0.015628856808599406
32:57.0;0.07229779582481272;-0.24397138864425572;-0.8364262622882384;0.872;0.014753382953085186
32:57.0;0.0661000340626636;-0.24997565027144014;-0.8321801413596451;0.8640000000000001;0.013750444513713277
32:57.0;0.06016177514820501;-0.25450113166228117;-0.8310062388070001;0.8640000000000001;0.012723735845893236
32:57.0;0.05489016390759401;-0.2574398383126766;-0.8333339356184409;0.8640000000000001;0.011775770945279046
32:57.0;0.05059230693102751;-0.25888651251062944;-0.8394108474069926;0.871;0.010994322833214427
32:57.0;0.04745388559340997;-0.25912259520236475;-0.8492990217031783;0.88;0.010443298397995654
32:57.0;0.04552830257896343;-0.2585769941071132;-0.8628870180187306;0.897;0.010158399226209917
32:57.0;0.044735662883822996;-0.2577691773942942;-0.8799160875427746;0.919;0.010146730384736824
32:57.0;0.04487193173642637;-0.2572426599727306;-0.9000162029119108;0.945;0.010388864600002172
32:57.0;0.045628285815968665;-0.2574977261911176;-0.9227454600303773;0.9790000000000001;0.010841502363462855
32:57.1;0.04662022695298419;-0.25893119658423763;-0.9476246994224466;1.008;0.01143918631508427
32:57.1;0.04742647799845766;-0.26178934157193573;-0.9741584848364427;1.022;0.012094904748181702
32:57.1;0.047637241220599154;-0.2661381224423991;-1.0018357760662135;1.022;0.01270136006351407
32:57.1;0.04690845424130879;-0.2718527519524508;-1.0301108721677308;1.0290000000000001;0.013136172009807443
32:57.1;0.04501548555694973;-0.2786266844518209;-1.0583755398162902;1.0490000000000002;0.013274691602088422
32:57.1;0.041898891387084185;-0.28599882692893996;-1.0859403519602162;1.091;0.013012859927477432
32:57.1;0.03769511616768493;-0.29339611915109265;-1.112041704894529;1.1520000000000001;0.012298737323022453
32:57.1;0.03274432820545277;-0.3001860351875186;-1.1358804009678634;1.21;0.01116501152134299
32:57.1;0.02756756332237841;-0.30573172786121444;-1.1566826875310396;1.244;0.009748844136022849
32:57.1;0.02280997205232834;-0.30944498119729386;-1.1737625330139367;1.262;0.008284922287293875
32:57.2;0.01915669770534554;-0.31083808572245425;-1.186561859732059;1.22;0.007065538322298079
32:57.2;0.017236708245919906;-0.30957719893824237;-1.1946569552152266;1.22;0.006374799251453818
32:57.2;0.017531287851317554;-0.30553264257878787;-1.1977388036774825;1.22;0.006415545017674742
32:57.2;0.02029874822829656;-0.298814229600314;-1.195588421614405;1.202;0.0072519071059142974
32:57.2;0.025522200214626322;-0.2897801837274555;-1.1880675296838459;1.197;0.008786742944297763
32:57.2;0.032887578329664935;-0.27901361369206995;-1.1751366787175894;1.204;0.010783150613656018
32:57.2;0.041801217118791985;-0.26726568865930644;-1.1569040180081112;1.218;0.01292496764582265
32:57.2;0.051453127078782135;-0.2553693845253761;-1.1336967235708524;1.2229999999999999;0.014896268631978576
32:57.2;0.06092228637914715;-0.24413305127059817;-1.106134240083634;1.207;0.01645169346456874
32:57.2;0.06930921744839628;-0.23422917472990937;-1.07517453734124;1.175;0.017454642345649224
32:57.3;0.07587389124502611;-0.22609901452725917;-1.0421065289712101;1.129;0.017877350050264088
32:57.3;0.0801541984077083;-0.21989452462734313;-1.0084738283259223;0.998;0.017774824557233178
32:57.3;0.0820413024413796;-0.21547204262557626;-0.9759349805147864;0.998;0.01725219505939774
32:57.3;0.08179414468268581;-0.2124396719408662;-0.9460855402589455;0.9279999999999999;0.016439486289887912
32:57.3;0.0799867373992437;-0.210248136593262;-0.9202755728714225;0.8809999999999999;0.015476331817335683
32:57.3;0.07739663659839238;-0.20830657917705303;-0.89945167120532;0.856;0.014501165466477492
32:57.3;0.07485663855492598;-0.20609998483066647;-0.8840466873042164;0.843;0.013639029919941875
32:57.3;0.0730994237012043;-0.20328513244157193;-0.8739355268488712;0.851;0.012986704676206745
32:57.3;0.07262511580928571;-0.19974875269212464;-0.8684658864905181;0.871;0.012598640336916253
32:57.3;0.07361680972266689;-0.19562115219122417;-0.8665594735619649;0.9009999999999999;0.012479327431659885
32:57.4;0.07592025702939223;-0.1912464494026413;-0.866866560863752;0.9359999999999999;0.012586451341708554
32:57.4;0.07908929129712505;-0.18711784548500998;-0.867947008769971;0.9359999999999999;0.012844763222222581
32:57.4;0.0824810109129383;-0.18379388333418148;-0.8684469929612266;0.9359999999999999;0.01316522678997501
32:57.4;0.08537558996418206;-0.18181382842431323;-0.8672458425359392;0.935;0.013461791385912643
32:57.4;0.08709919083000378;-0.1816244305645011;-0.8635592058596959;0.9229999999999999;0.013660937496890251
32:57.4;0.08713354478028404;-0.18352361188126118;-0.8569959306386382;0.903;0.013704275792546395
32:57.4;0.08519566001233786;-0.18762474416803082;-0.8475729704192503;0.887;0.013548296210723051
32:57.4;0.08127342398816931;-0.19384482679224277;-0.8356963758001267;0.878;0.01316592239023604
32:57.4;0.07561285420939157;-0.20191697319920163;-0.822116950810288;0.873;0.012551685884660381
32:57.4;0.06866588895348118;-0.2114230169176133;-0.8078657348384037;0.8640000000000001;0.01172823071559842
32:57.5;0.06101711159174769;-0.2218385438379649;-0.794170149352344;0.81;0.010749845197308101
32:57.5;0.053309213063116874;-0.23258170119363228;-0.7823522049302221;0.81;0.009700187416452805
32:57.5;0.04618020929935592;-0.24305902353623124;-0.7737159611342106;0.81;0.008684587633188048
32:57.5;0.04021561150774713;-0.2527060690044812;-0.7694345570099078;0.79;0.007819554960557345
32:57.5;0.035912056505389194;-0.26102559003359505;-0.7704440564253257;0.779;0.00722211618846907
32:57.5;0.03364746247692467;-0.2676271205832022;-0.7773496069096836;0.78;0.007000012608615336
32:57.5;0.033655054040654414;-0.27226790123733335;-0.790353222708602;0.797;0.0072421574815652486
32:57.5;0.0360023522097435;-0.27488936749643145;-0.809215596793166;0.823;0.008008534725286207
32:57.5;0.04057950220607375;-0.2756400338607797;-0.8332616377037116;0.8490000000000001;0.009320310862118476
32:57.5;0.047102505188158485;-0.27487573559677625;-0.8614334696133358;0.875;0.011153268367748137
32:57.6;0.05513500042864703;-0.2731313541681662;-0.8923885817028817;0.99;0.013438566507275816
32:57.6;0.06412699668444459;-0.271064228136271;-0.9246321923693909;0.99;0.016072451315583262
32:57.6;0.07346295938957235;-0.2693766861690454;-0.9566624084709945;0.99;0.01893159191942878
32:57.6;0.08251054366092027;-0.2687287365426211;-0.9871063331766069;1.042;0.021887063466150578
32:57.6;0.09066635057238985;-0.26965072227265213;-1.0148381105176965;1.084;0.024811012707398737
32:57.6;0.09739983854982355;-0.27246496582442364;-1.0390785191078429;1.124;0.027575111128885346
32:57.6;0.10229588888057176;-0.2772270283691853;-1.0594704250776759;1.156;0.030045718092723543
32:57.6;0.1050929788300596;-0.2836966674965088;-1.0761167758522514;1.1740000000000002;0.032083913606494756
32:57.6;0.10571177616178652;-0.2913442306189338;-1.0895675853344433;1.188;0.033557064811570045
32:57.6;0.10426921609767169;-0.2993935309741812;-1.1007473521932691;1.189;0.03436261214593277
32:57.7;0.10107375695873701;-0.30689895111360327;-1.1108210784000232;1.176;0.034457036679230425
32:57.7;0.09659709687498348;-0.31285054003862134;-1.121006538396379;1.091;0.0338773264415518
32:57.7;0.09141902289656186;-0.3162952330663927;-1.1323556760485247;1.091;0.03274251862169143
32:57.7;0.08614855720235155;-0.31645833424800407;-1.1455452511799298;1.085;0.031230345973624198
32:57.7;0.08133345135293676;-0.3128497056575895;-1.1607226242648347;1.153;0.02953475700657341
32:57.7;0.07737662097498643;-0.30534038556875237;-1.1774389620478554;1.153;0.027818416979845547
32:57.7;0.07448005860469098;-0.29419485682382035;-1.194679073923114;1.205;0.026177389942107446
32:57.7;0.07263176636154915;-0.2800473189288249;-1.210978567741042;1.265;0.024631705432914083
32:57.7;0.07163910728200981;-0.2638224345279786;-1.2246061376696245;1.306;0.023145060521427147
32:57.7;0.07119740558594409;-0.24661657620016697;-1.2337774264777293;1.319;0.021663232085149312
32:57.8;0.0709719204977726;-0.22956446102850822;-1.2368623797246605;1.284;0.020151741951412838
32:57.8;0.07066990604610425;-0.2137158412249863;-1.2325576448956934;1.284;0.018615661279477697
32:57.8;0.0700878944320217;-0.19994125461353904;-1.2200134195012255;1.284;0.017096611139735218
32:57.8;0.06913025771127344;-0.18887649498714437;-1.1989158910444508;1.264;0.015654341630675514
32:57.8;0.06780174926811974;-0.1809044416778768;-1.1695265901083112;1.2329999999999999;0.014344989313309256
32:57.8;0.06618029339538395;-0.17616529315771612;-1.1326761714545257;1.189;0.01320549859156405
32:57.8;0.0643793781797784;-0.17458455450478072;-1.089710322068145;1.1340000000000001;0.01224795723696902
32:57.8;0.06251060115563593;-0.17590993606925442;-1.0423897900761512;1.068;0.011462363982372494
32:57.8;0.060655053772606694;-0.17975114181472537;-0.9927520641043756;0.998;0.010823792267007791
32:57.8;0.05884863979883139;-0.1856196773795609;-0.9429475853990069;0.9329999999999999;0.010300255449177611
32:57.9;0.057082529230018914;-0.19296868682350246;-0.8950673575936858;0.878;0.009859292885314518
32:57.9;0.05531625304622052;-0.20123406308972785;-0.8509805400016422;0.799;0.009472702097186233
32:57.9;0.05349766294795461;-0.2098765295660559;-0.8122008564946139;0.799;0.009119313115009013
32:57.9;0.051581961808960713;-0.21842134231887775;-0.7797985974250398;0.779;0.008785679920927868
32:57.9;0.04954255391210057;-0.22649083881419857;-0.754367087257772;0.765;0.0084647037448914
32:57.9;0.04736977769566471;-0.23382586634133395;-0.7360408880049337;0.762;0.008152594457713703
32:57.9;0.04505854875447617;-0.24029316962132452;-0.7245555397416991;0.769;0.007844952299151369
32:57.9;0.04259087822138508;-0.24587701841987655;-0.7193364863127703;0.78;0.007532976673523797
32:57.9;0.03992195673743603;-0.25065610041046144;-0.7196031757782859;0.789;0.007200840143728596
32:57.9;0.03697736647945367;-0.25477031850462234;-0.7244726219883982;0.7959999999999999;0.006825064901966839
32:58.0;0.0336645135522845;-0.2583844661925215;-0.7330479473575993;0.799;0.006376335002382678
32:58.0;0.02989571947478678;-0.26165565018036857;-0.7444824310349726;0.8009999999999999;0.0058236273948571475
32:58.0;0.025615794946873376;-0.2647092251071658;-0.7580166686746137;0.8009999999999999;0.005139911846917849
32:58.0;0.02082505188898015;-0.26762528558640475;-0.7729932264802237;0.81;0.004308131233986614
32:58.0;0.015590609231040133;-0.2704357031125806;-0.7888576382730363;0.821;0.00332602683073659
32:58.0;0.010043943941694016;-0.2731303381730712;-0.8051556380465882;0.846;0.0022087881360926807
32:58.0;0.0043683116049846316;-0.2756696528327555;-0.821534108407339;0.8690000000000001;0.0009893003638941605
32:58.0;-0.0012172202241528868;-0.2779996592995551;-0.8377484842915123;0.892;0.00028348303517703344
32:58.0;-0.006471480398488128;-0.2800650643123806;-0.8536744525611428;0.912;0.0015472299464358414
32:58.0;-0.011141995309708407;-0.28181832163129733;-0.8693186057448637;0.935;0.00272967643298014
32:58.1;-0.014977997985279176;-0.28322535945172184;-0.8848212914816851;0.958;0.003753543635836534
32:58.1;-0.017751317347597172;-0.28427057127010136;-0.9004446739820475;0.958;0.004543803314553968
32:58.1;-0.019284044592270882;-0.28496259568280263;-0.9165410793087891;0.958;0.005036605320493984
32:58.1;-0.019475018529291333;-0.2853402121562891;-0.933502293439345;0.966;0.005187477769945104
32:58.1;-0.018317146262482407;-0.2854765906788849;-0.9516973147817847;0.9840000000000001;0.004976536099354341
32:58.1;-0.015901382873467342;-0.28547943581072344;-0.9714094573418754;0.9990000000000001;0.004409730533695674
32:58.1;-0.012405979799766717;-0.2854833892391434;-0.9927822996386015;1.012;0.0035161382223267514
32:58.1;-0.00807188804263993;-0.2856311200739338;-1.0157810375235725;1.025;0.002341966905457438
32:58.1;-0.003168225728548095;-0.2860423833082391;-1.0401744820560355;1.04;0.0009426548355940884
32:58.1;0.002045315877899601;-0.2867747677606922;-1.0655432746275884;1.054;0.0006249890649730076
32:58.2;0.007350949239554054;-0.2877835804287253;-1.091318754051859;1.183;0.00230866571707004
32:58.2;0.01259389508758384;-0.2888903328119541;-1.1168485372013852;1.183;0.004063379264596095
32:58.2;0.01769057493278525;-0.28976960647333483;-1.1414703446362922;1.183;0.005851394935026836
32:58.2;0.022626752500132515;-0.2899622516200195;-1.1645699055030054;1.234;0.00764063146983275
32:58.2;0.02744970508839068;-0.288918618559695;-1.185609062519833;1.2590000000000001;0.009402746396630747
32:58.2;0.032256325693687686;-0.2860697816946281;-1.204121593033415;1.251;0.011111104306572162
32:58.2;0.037175498990928306;-0.28091915967055253;-1.2196779852204023;1.23;0.012737475222827775
32:58.2;0.04234079050755851;-0.27314245509296586;-1.2318265685740755;1.2209999999999999;0.014246157376665536
32:58.2;0.04784999939350351;-0.2626798754682398;-1.2400303918841664;1.222;0.01558622953612207
32:58.2;0.05371176032228376;-0.249801342870638;-1.2436266092929273;1.215;0.016686073817548018
32:58.3;0.059786276792350684;-0.23512570455750334;-1.2418319158068076;1.215;0.017456791935135458
32:58.3;0.06573603995146597;-0.219581908724403;-1.2338072027165408;1.256;0.017809322361857463
32:58.3;0.07100796846730695;-0.20431351901370687;-1.2187801595212913;1.256;0.017681925948055194
32:58.3;0.07486579237600947;-0.19054197846383408;-1.1962078153893017;1.2770000000000001;0.017063995635874244
32:58.3;0.07648044188539092;-0.1794107940065662;-1.1659480204519732;1.263;0.015998458761155986
32:58.3;0.07506906635901078;-0.17183290947306817;-1.1284045570230985;1.263;0.014555669619640338
32:58.3;0.07005559051719701;-0.16836333135697115;-1.0846126076493343;1.217;0.012792780758195016
32:58.3;0.06121723625632046;-0.16911743325562414;-1.036236934611033;1.138;0.010728059294649086
32:58.3;0.0487853549440831;-0.17374877850033119;-0.9854668406270455;1.035;0.008353207018730413
32:58.3;0.03347794288094416;-0.18149156342327058;-0.934811840988142;0.9209999999999999;0.0056798832736510065
32:58.4;0.016451066244390473;-0.1912639263635072;-0.8868256036513636;0.8170000000000001;0.002790392791365292
32:58.4;-0.0008300903009488695;-0.20181822863697924;-0.8438053562634344;0.733;0.00014136047874923678
32:58.4;-0.01678116142732629;-0.21191417663727816;-0.8075239232878368;0.733;0.002871689125745929
32:58.4;-0.029912611695839;-0.22048484816618746;-0.7790471028136204;0.74;0.005138031943934543
32:58.4;-0.039026119371294556;-0.22676859570073174;-0.758667902218356;0.763;0.006714133767089109
32:58.4;-0.04336125131848689;-0.2303893118102981;-0.7459594695451853;0.7909999999999999;0.007452111864491589
32:58.4;-0.04267395347086477;-0.2313771623938216;-0.7399243857869224;0.8220000000000001;0.007305849316065452
32:58.4;-0.03724060082618922;-0.23013048794858137;-0.7392040573465517;0.848;0.006335124867475795
32:58.4;-0.027793302410009883;-0.22732942947026225;-0.7423052586816486;0.858;0.004690059496595298
32:58.4;-0.015401987130846125;-0.22382063789416695;-0.7478014744496214;0.847;0.0025778829995064785
32:58.5;-0.0013245977653281397;-0.22049598059887807;-0.7544768155185333;0.821;0.00022035889909174111
32:58.5;0.013150644311942567;-0.21818551332940578;-0.7613988493997185;0.7809999999999999;0.002184666551375622
32:58.5;0.026847122385859262;-0.2175773933952904;-0.7679284477517818;0.7809999999999999;0.004485721105946631
32:58.5;0.038806104084553476;-0.2191676246820854;-0.7736912237359219;0.782;0.006580276086273898
32:58.5;0.048346559841647666;-0.22323509682321138;-0.778538721915268;0.7929999999999999;0.008402495133096982
32:58.5;0.05507967685498569;-0.22983507655076227;-0.7825188325076183;0.8140000000000001;0.009906095071790893
32:58.5;0.058889274639104205;-0.23880572203478176;-0.7858618761419768;0.8370000000000001;0.011051650810691751
32:58.5;0.059893161694652676;-0.24978477944317456;-0.7889777553691122;0.855;0.011803422956637954
32:58.5;0.05839755530906137;-0.2622361275353732;-0.792452518620451;0.867;0.012135577266297912
32:58.5;0.0548499779794823;-0.27548778131381235;-0.7970304381303992;0.875;0.012043527430058203
32:58.6;0.0497907154195243;-0.28878379186109526;-0.8035700988009228;0.875;0.0115543348425015
32:58.6;0.043802460115065674;-0.3013508672599727;-0.8129690135590332;0.867;0.010731117278294015
32:58.6;0.03746038658297717;-0.3124755252084756;-0.8260601954928735;0.867;0.009669409596466548
32:58.6;0.0312859983683224;-0.32158179644486756;-0.8434938269796834;0.87;0.008486397769091235
32:58.6;0.0257065117927322;-0.3282978125185428;-0.8656232235196112;0.9009999999999999;0.007305333351845728
32:58.6;0.021021112801803184;-0.33250195023170687;-0.8924142202256625;0.9009999999999999;0.006237583631890906
32:58.6;0.01737825357258087;-0.33434116850128376;-0.9233937298223008;0.93;0.005365162829153297
32:58.6;0.014770129795521657;-0.33421552630899526;-0.9576501647657583;0.972;0.004727350692730072
32:58.6;0.01304759368155712;-0.3327265285155176;-0.993894246866861;1.026;0.00431477376381851
32:58.6;0.011953160967392868;-0.33059302974376836;-1.030579693919141;1.087;0.004072471387068848
32:58.7;0.011165770808566844;-0.3285453019534651;-1.0660704592472294;1.145;0.003910838480644198
32:58.7;0.01035019368203303;-0.3272136509671758;-1.0988296355077642;1.2309999999999999;0.0037214334269165105
32:58.7;0.009205643187780225;-0.3270301652146154;-1.1275979544179475;1.2309999999999999;0.0033946595907433205
32:58.7;0.007510388687297996;-0.32815958860849603;-1.1515295958280043;1.25;0.002838066822350632
32:58.7;0.005160441275154758;-0.33046933691731034;-1.170263027989179;1.2590000000000001;0.0019957286589016242
32:58.7;0.00220020670885334;-0.33354201704801273;-1.1839209973854388;1.262;0.0008688339012066896
32:58.7;-0.0011585432447905298;-0.33672814552412805;-1.1930463658290698;1.26;0.0004654242311296186
32:58.7;-0.004535522531944567;-0.33923190580909046;-1.1984858565689265;1.248;0.0018439830908959095
32:58.7;-0.007406629432492172;-0.34021820740319014;-1.2012367975758;1.2209999999999999;0.0030269607954470047
32:58.7;-0.009160696159643924;-0.33892598649308686;-1.2022762449246371;1.198;0.0037328248600954324
32:58.8;-0.009186626358059216;-0.3347725066767966;-1.2023964965128693;1.193;0.00369788617766064
32:58.8;-0.006977414646847175;-0.3274363281536404;-1.2020722382654352;1.2009999999999998;0.0027463251962324005
32:58.8;-0.0022282239105884333;-0.31690985752256207;-1.2013793235211565;1.2009999999999998;0.0008483493503950293
32:58.8;0.005095419670022024;-0.3035142224437712;-1.1999753284360424;1.198;0.0018558006516341998
32:58.8;0.014735813802598708;-0.28787178732905133;-1.1971429040720225;1.197;0.005078310196005608
32:58.8;0.026171727749118315;-0.2708380053607851;-1.1918910272536987;1.206;0.008448479428818172
32:58.8;0.0386882389444133;-0.2534031637307919;-1.183104487783047;1.222;0.011598827669906735
32:58.8;0.05146832246951728;-0.23658067302582905;-1.16972601429455;1.244;0.014243063969753202
32:58.8;0.06368385065221224;-0.22129910838246875;-1.1509481727688244;1.262;0.01622051904175401
32:58.8;0.07456911031082375;-0.2083122814614558;-1.126385015449936;1.261;0.0174968835434887
32:58.9;0.08347012934572395;-0.1981376967726901;-1.0961895407703393;1.224;0.018129417513994474
32:58.9;0.08987258526008361;-0.19102897163325966;-1.061088045288851;1.078;0.018217043445286504
32:58.9;0.0934164034968039;-0.18698195695249742;-1.0223213861498912;1.078;0.017857073650269315
32:58.9;0.09390568314336359;-0.18576884534537427;-0.981508919062919;0.998;0.017122178038652163
32:58.9;0.09131926357750296;-0.18699127232422086;-0.9404653179350744;0.929;0.016059296692010377
32:58.9;0.08582170359236065;-0.19014222352980548;-0.9009994093234629;0.867;0.01470280528404439
32:58.9;0.07776912299026122;-0.1946668970342765;-0.8647212853516208;0.818;0.013091079405169355
32:58.9;0.06770208352720347;-0.20001528470712657;-0.8328841485828672;0.789;0.011278460313114374
32:58.9;0.056319370911454066;-0.20568384676290952;-0.806283140801776;0.779;0.009339971692965979
32:58.9;0.04443029833417305;-0.21124744261074416;-0.7852227293099263;0.7829999999999999;0.007369933204397074
32:59.0;0.0328869156614636;-0.21638345199342673;-0.7695512962457178;0.7959999999999999;0.005476268880280184
32:59.0;0.02250142124132951;-0.22088849166264277;-0.7587499318887951;0.8170000000000001;0.0037712185788986085
32:59.0;0.013959290145443391;-0.22468622449162087;-0.7520542769908367;0.8170000000000001;0.0023587883075423
32:59.0;0.007743323737787329;-0.22782383049308014;-0.7485853807089068;0.823;0.0013205897067821294
32:59.0;0.004083338503398184;-0.23045557083122864;-0.7474686350174556;0.813;0.0007033889936789691
32:59.0;0.0029400957185190596;-0.2328143150083191;-0.7479271101244158;0.813;0.0005119533924775952
32:59.0;0.004025398158238417;-0.2351743443030853;-0.7493435151284228;0.804;0.0007093813045390593
32:59.0;0.006855672033792752;-0.23780979106518135;-0.7512911151019039;0.794;0.0012248644147324192
32:59.0;0.010831735210374373;-0.2409529860708051;-0.753538168174783;0.784;0.0019666886103581866
32:59.0;0.015331936419642169;-0.24475709781731345;-0.7560337003371503;0.777;0.002837092261959358
32:59.1;0.01980211338327576;-0.24926812126608272;-0.7588841900518756;0.809;0.003745879378484857
32:59.1;0.02382653152551279;-0.2544108916439013;-0.7623286783230944;0.809;0.004621029956168234
32:59.1;0.027168756997381444;-0.25999138869378896;-0.7667139227381408;0.809;0.005415793326650761
32:59.1;0.029777880073332933;-0.26571533335236774;-0.7724664320098298;0.8220000000000001;0.006112093777903489
32:59.1;0.031761924693990494;-0.2712224145764825;-0.7800583304006096;0.835;0.006719848297452226
32:59.1;0.03333641847070341;-0.27613386419800984;-0.7899663214112194;0.843;0.007271888078174907
32:59.1;0.03476110824996392;-0.2801071380140066;-0.8026243873995937;0.85;0.00781502086276867
32:59.1;0.03627924309797558;-0.28288816702335834;-0.8183724383088706;0.857;0.008398930621904863
32:59.1;0.038070451584364624;-0.284351525731067;-0.8374060610092177;0.867;0.009065248030571283
32:59.1;0.0402220327921248;-0.2845212491058393;-0.859735386022072;0.88;0.009838831541515988
32:59.2;0.04271814702305033;-0.2835685917946929;-0.885162208294387;0.9;0.010722434358129532
32:59.2;0.04544424932287224;-0.2817872628853144;-0.9132826452732264;0.9670000000000001;0.011695141951025894
32:59.2;0.048204129411114446;-0.27955091609382093;-0.9435167150844306;0.9670000000000001;0.012714367548339479
32:59.2;0.050746676336538704;-0.2772601826424744;-0.975158998365258;1.008;0.013720519043034379
32:59.2;0.05279890075771534;-0.2752861027592283;-1.0074422297306262;1.053;0.014642974967189047
32:59.2;0.054102057186723375;-0.2739152193699044;-1.0396076919260069;1.103;0.015406338175976251
32:59.2;0.054448341215123146;-0.27330159942972587;-1.0709750423657405;1.147;0.015936985480924606
32:59.2;0.05371532590739836;-0.27343244216723855;-1.1009989200218748;1.172;0.016170935669688174
32:59.2;0.05189437769294598;-0.2741145872073376;-1.12929770837772;1.1840000000000002;0.01606426658675814
32:59.2;0.049109036128303044;-0.27498828371759576;-1.155645135415834;1.2009999999999998;0.015606305214616362
32:59.3;0.04561978812623145;-0.27557201352609173;-1.1799247123734151;1.22;0.014833467026110055
32:59.3;0.04181151811989019;-0.27533704100617523;-1.2020548841532104;1.219;0.01383836797491021
32:59.3;0.038159357494329554;-0.2738023078689451;-1.2218976111794437;1.219;0.012766533051065568
32:59.3;0.03516997733360006;-0.2706329885481818;-1.2391672406544614;1.209;0.011794587197053305
32:59.3;0.03330033523194989;-0.26572477372183667;-1.2533601517762796;1.236;0.011090638111279489
32:59.3;0.03286416266867325;-0.25925919618749516;-1.2637255453006344;1.236;0.010767366759260823
32:59.3;0.03394441816222045;-0.2517168146514053;-1.2692924491878903;1.256;0.010845318051451969
32:59.3;0.036332739180328935;-0.24383664844884975;-1.268959406932369;1.28;0.01124203287776485
32:59.3;0.039514841809005066;-0.23651961810855787;-1.2616424103151889;1.3130000000000002;0.011791354495573758
32:59.3;0.042716233130481694;-0.23068959331538888;-1.2464631146595386;1.3319999999999999;0.0122828849193046
32:59.4;0.045013109802950056;-0.2271380365016091;-1.2229460939889867;1.3430000000000002;0.012503632463384795
32:59.4;0.045496947369311785;-0.2263816392884669;-1.191186916033715;1.2930000000000001;0.01226883634607474
32:59.4;0.04346263658504149;-0.22855881236184497;-1.1519561764106774;1.2930000000000001;0.01144326609379472
32:59.4;0.038577695914892254;-0.2333835344889353;-1.1067158400093182;1.219;0.009964204314954941
32:59.4;0.030991675914097;-0.24016544335130716;-1.0575368801342615;1.128;0.00787138404092887
32:59.4;0.021359678922854144;-0.24789444513152964;-1.0069205268221395;1.0290000000000001;0.005331589568886207
32:59.4;0.010772871655598785;-0.25537780828356144;-0.9575428553881022;0.946;0.002634346279054813
32:59.4;0.0006054483833090035;-0.2614089382686436;-0.9119598058916994;0.872;0.00014433553107402424
32:59.4;-0.007698621605894191;-0.2649412084639212;-0.8723188001767029;0.818;0.0017792530524828876
32:59.4;-0.012863892683861858;-0.26523860710214237;-0.8401227061951908;0.792;0.0028664994946562467
32:59.5;-0.014002621638083692;-0.2619781088055524;-0.8160849039979496;0.79;0.0029937098135693818
32:59.5;-0.010768665131415568;-0.25528678404341837;-0.8001001965193348;0.8240000000000001;0.002199553761911533
32:59.5;-0.003411883867717847;-0.24571004680697658;-0.7913333544322179;0.8240000000000001;0.000663401770968865
32:59.5;0.007275882931325286;-0.23412262842191225;-0.7884009618822798;0.846;0.0013430007007975777
32:59.5;0.02010620181620847;-0.22160270294217427;-0.7896064668557399;0.873;0.003518161626196199
32:59.5;0.033696161900869485;-0.2092900899752006;-0.7931877285114061;0.897;0.005593776208215681
32:59.5;0.04668271290402768;-0.19824836980270344;-0.7975421241037128;0.905;0.007381070304589159
32:59.5;0.05790468059170933;-0.18935060872208806;-0.8014006148920229;0.9009999999999999;0.008786785957295963
32:59.5;0.06652147913402352;-0.1832051230499983;-0.8039312648385983;0.884;0.009797571238634126
32:59.5;0.07205841438325568;-0.18012949616021226;-0.804765076814376;0.861;0.010445726664210186
32:59.6;0.07438660388049287;-0.1801698717331104;-0.8039505290608584;0.79;0.010774725782715922
32:59.6;0.07365797979583008;-0.1831516022450222;-0.801857092707833;0.79;0.010817514866394302
32:59.6;0.07022264411766067;-0.18874134582492716;-0.7990590115379164;0.79;0.0105906613041513
32:59.6;0.06455371278960981;-0.19650354557513622;-0.7962306832161429;0.794;0.010100212845096644
32:59.6;0.05719346613760009;-0.20594357984796166;-0.7940721803520905;0.812;0.009353080150726258
32:59.6;0.04872158230564171;-0.2165385204722955;-0.7932674119559178;0.8320000000000001;0.008369050005295184
32:59.6;0.039737826310863075;-0.22776020970624042;-0.7944664967689266;0.8490000000000001;0.007190474469421922
32:59.6;0.03084788475592818;-0.23909546031326503;-0.7982784481374817;0.857;0.005887773904993618
32:59.6;0.022641176058940848;-0.2500669459582547;-0.8052596250813503;0.8540000000000001;0.0045592267965367285
32:59.6;0.015654035076853964;-0.2602569573752552;-0.8158881278447667;0.85;0.0033239866012702603
32:59.7;0.010319722794578405;-0.26933455835069137;-0.830523022827171;0.853;0.0023084038443501693
32:59.7;0.006914447395544905;-0.2770836228230136;-0.8493562940954371;0.887;0.0016272648506954186
32:59.7;0.005512514731191781;-0.28342469047548635;-0.8723703855087458;0.887;0.0013629764693479575
32:59.7;0.005963463396436757;-0.2884208036271191;-0.8993135732352746;0.9209999999999999;0.0015468075696343712
32:59.7;0.007900898620219162;-0.29226028780145596;-0.9297015700203969;0.9670000000000001;0.002146791471003291
32:59.7;0.010787684475141073;-0.2952167703529288;-0.9628479476173282;1.016;0.0030663870295954197
32:59.7;0.013995344557996116;-0.2975936879999823;-0.9979174651255216;1.062;0.004156252597779576
32:59.7;0.016906939040602878;-0.2996642420786248;-1.0339883405692516;1.0959999999999999;0.005238603774570716
32:59.7;0.01902399806013243;-0.30161856328922804;-1.0701076008035015;1.1159999999999999;0.006140267742756293
32:59.7;0.020052805172812112;-0.30352834079201757;-1.105329735904482;1.125;0.006727694092776612
32:59.8;0.01994736877920888;-0.3053351231199843;-1.1387391514816525;1.205;0.006935641459702275
32:59.8;0.018899260970700108;-0.3068617759147834;-1.1694634046525094;1.205;0.0067822571547116505
32:59.8;0.01728456147313394;-0.30783943311793516;-1.196682913508888;1.205;0.00636739374200834
32:59.8;0.015590999143269573;-0.3079397192408092;-1.2196407936986622;1.247;0.005855602655585249
32:59.8;0.01434578326733809;-0.3068062310611565;-1.2376586493459953;1.285;0.005447400699017481
32:59.8;0.014056015012600561;-0.3040862762201167;-1.2501623108001407;1.314;0.005343495335114203
32:59.8;0.015167175888950692;-0.2994681364981687;-1.2567115054026883;1.3230000000000002;0.005708091608308348
32:59.8;0.018037106608497104;-0.2927272178645643;-1.2570200261145537;1.2919999999999998;0.006637005445965011
32:59.8;0.02291362908716373;-0.2837766910240219;-1.2509579419339059;1.249;0.008134171179547943
32:59.8;0.029904508905235383;-0.272710944758734;-1.2385417453157852;1.236;0.010100663241066787
32:59.9;0.038943045113363245;-0.2598297586870025;-1.2199300761181557;1.247;0.012343938128362788
32:59.9;0.0497675657330709;-0.24563542834551538;-1.1954410573347052;1.234;0.014613881188834256
32:59.9;0.06193154620910679;-0.2307995929287059;-1.1655930925570122;1.234;0.01666072616945316
32:59.9;0.07484510899268582;-0.21610201233980486;-1.1311551796972261;1.2109999999999999;0.01829550597665147
32:59.9;0.08783558827815621;-0.20234996131955418;-1.0931843431279322;1.1740000000000002;0.019429742412113496
32:59.9;0.10021211403238042;-0.1902910428794512;-1.0530281794983725;1.125;0.02008068684389378
32:59.9;0.11132059098074254;-0.18053280878324016;-1.012277989693864;1.054;0.020343769956895352
32:59.9;0.12057890437772134;-0.1734796658892746;-0.9726701445924457;0.98;0.020346302456062143
32:59.9;0.12749135997180308;-0.16929258781033613;-0.9359467382952908;0.9159999999999999;0.020200858783286445
32:59.9;0.13165358501662908;-0.16787359573097707;-0.9036970560791233;0.868;0.01997275386740364
33:00.0;0.13276548892129303;-0.16887564203665445;-0.8772057280070884;0.838;0.019667704346786014
33:00.0;0.13066464651213414;-0.17173705127874486;-0.8573312661342931;0.8290000000000001;0.01923848026047279
33:00.0;0.1253774262027639;-0.17573732867629777;-0.8444321644176546;0.8290000000000001;0.01860579099194768
33:00.0;0.11716906118836402;-0.18006983452059278;-0.8383491629498737;0.847;0.0176880049328578
33:00.0;0.1065673172874766;-0.18392705298668094;-0.8384428245170841;0.8690000000000001;0.016433993001829315
33:00.0;0.09434082379640382;-0.18659318779592815;-0.8436765296003848;0.888;0.014851537499143348
33:00.0;0.0814269484303003;-0.18753481230862137;-0.8527287086602359;0.9009999999999999;0.013021497805720275
33:00.0;0.06881904362856352;-0.18647619655383516;-0.864116750697113;0.909;0.011089308344414494
33:00.0;0.057435104269373746;-0.18344568649747317;-0.8763186488716765;0.914;0.00923308794270633
33:00.0;0.04799600939248733;-0.17878326253112872;-0.8878848473120804;0.92;0.007618836123366083
33:00.1;0.04094051146478623;-0.17310480490502222;-0.8975387755207033;0.9259999999999999;0.006360856628802858
33:00.1;0.03639695887455763;-0.16722472268752084;-0.9042672472408705;0.961;0.0055037966971142865
33:00.1;0.03421785495588563;-0.16204602717463112;-0.9073992090210116;0.961;0.005031408341921365
33:00.1;0.034064798478842424;-0.15843395737902216;-0.9066649320912472;0.963;0.004893289524618851
33:00.1;0.035517223779753616;-0.15709220388323486;-0.9022240622905725;0.953;0.005033940172192569
33:00.1;0.03817468753923798;-0.1584598792062676;-0.8946540955275415;0.932;0.005411902526458041
33:00.1;0.04172646914390262;-0.16264567409651376;-0.8848979137436043;0.907;0.006005474464276241
33:00.1;0.04597322820842656;-0.1694120879711772;-0.8741755731106933;0.889;0.0068084470255166726
33:00.1;0.05080451466123816;-0.17821476239075654;-0.8638695908788325;0.885;0.007821574196426916
33:00.1;0.056154823901161124;-0.1882909813115538;-0.8553935624674968;0.884;0.009044458409407707
33:00.2;0.061967259135704035;-0.19878033594501446;-0.8500516950049312;0.8759999999999999;0.01047082847278317
33:00.2;0.06818463838644136;-0.20885354646943619;-0.8488951548480123;0.835;0.012088779348698207
33:00.2;0.07476982342168223;-0.21782708907286602;-0.852583965447126;0.835;0.013885943807189646
33:00.2;0.08174045504177167;-0.2252507764763386;-0.8612704142889138;0.81;0.015857797828370226
33:00.2;0.08919666546976515;-0.23096483357738207;-0.8745263581309705;0.836;0.01801637373647752
33:00.2;0.09732370243135775;-0.23512462725050035;-0.8913384615951185;0.836;0.020396675621941016
33:00.2;0.10635861903733397;-0.23818628969503206;-0.9101918491513512;0.898;0.023058040155663546
33:00.2;0.11652006160120858;-0.24084475781542547;-0.9292517803451076;0.977;0.026077821323542843
33:00.2;0.12791407915226463;-0.24392417144963624;-0.9466315470292863;1.062;0.029536168753083344
33:00.2;0.14044078026077542;-0.24823534314398535;-0.960706886186027;1.141;0.03349251439269319
33:00.3;0.1537284103918804;-0.25442678882986486;-0.9704149160462225;1.193;0.03795547548974559
33:00.3;0.16711307721034543;-0.2628578645129757;-0.9754699971809834;1.135;0.04284945750238556
33:00.3;0.1796701324611299;-0.2735147604801353;-0.9764445560905238;1.135;0.04798486141564963
33:00.3;0.19029313625221508;-0.2859791799294405;-0.9746950368859194;1.0590000000000002;0.053042782120755895
33:00.3;0.19781132947494454;-0.29945242596173327;-0.9721475852298813;1.0;0.05758524240742311
33:00.3;0.20113366333271077;-0.31283348014152973;-0.9709841761213864;0.965;0.061095629241933416
33:00.3;0.19940147484210746;-0.32484323189610737;-0.9732868012988006;0.95;0.06304389293547213
33:00.3;0.1921247968137645;-0.3341786766248778;-0.9807030421014015;0.953;0.06296506826147849
33:00.3;0.1792764450364981;-0.3396764630184375;-0.9941874033350513;0.9890000000000001;0.06054202493138535
33:00.3;0.16132558233831343;-0.3404668308418693;-1.0138522280128264;1.04;0.0556868573633702
33:00.4;0.13920268307416164;-0.336102049816204;-1.0389376279496876;1.0759999999999998;0.04860805494096394
33:00.4;0.1141961317555188;-0.3266437571687563;-1.067889664400621;1.124;0.03983383669261971
33:00.4;0.08779072590110848;-0.3126941832446602;-1.0985247569675298;1.124;0.030156316410906246
33:00.4;0.06147149489205619;-0.2953612564284137;-1.1282562442025015;1.175;0.020484956551572037
33:00.4;0.036523799722122;-0.27615503247318424;-1.1543623658496733;1.27;0.011643165593147846
33:00.4;0.013861095921955703;-0.25682198639448317;-1.1742742241468758;1.27;0.004180221529535352
33:00.4;-0.006087227797576927;-0.23913587671207104;-1.1858536452749442;1.291;0.0017262169787084706
33:00.4;-0.023398574965902544;-0.2246741203730923;-1.187626713274156;1.298;0.006243418058588251
33:00.4;-0.038577345131875794;-0.21461292666695989;-1.178946874142912;1.2919999999999998;0.009760733354940722
33:00.4;-0.05238416294135811;-0.20957497840922093;-1.1600715757924773;1.28;0.012735741176590298
33:00.5;-0.06561015837321943;-0.20955728774894192;-1.132141193890491;1.239;0.015565907587077769
33:00.5;-0.07885003872602282;-0.21395061024715575;-1.0970552644955713;1.07;0.018507337564887212
33:00.5;-0.09232882395819586;-0.22164258183917937;-1.057257456495791;1.07;0.021635715448176863
33:00.5;-0.10581938958413155;-0.23118400687347926;-1.0154628464837008;0.995;0.02484202970719168
33:00.5;-0.11866327514856155;-0.24099317757393285;-0.9743712167634679;0.948;0.02786413240669464
33:00.5;-0.1298865334286341;-0.24957113832377145;-0.9364029664818347;0.9209999999999999;0.03035437301393497
33:00.5;-0.13838642272330695;-0.25569741624597836;-0.9034842132493456;0.905;0.03196983472308173
33:00.5;-0.14315253098818806;-0.2585759585657156;-0.876901398127926;0.8959999999999999;0.03245920933458504
33:00.5;-0.1434791720780894;-0.2579107569845019;-0.8572374822444309;0.8909999999999999;0.03172192034117473
33:00.5;-0.1391260211472775;-0.2539065617432355;-0.8443910955509428;0.892;0.029828123622794772
33:00.6;-0.13039268680355354;-0.2472039208176881;-0.8376702222099942;0.895;0.027001112989231607
33:00.6;-0.11809172198519619;-0.23876515900255152;-0.8359435117506518;0.9059999999999999;0.023570421063962593
33:00.6;-0.10343045239142697;-0.22973095262898083;-0.8378247539325818;0.9059999999999999;0.019907701735900774
33:00.6;-0.08783431050526996;-0.22126870891049086;-0.8418619404267078;0.915;0.016361573749479517
33:00.6;-0.07275115009982076;-0.2144324331730898;-0.8467050429636609;0.92;0.01320877320327533
33:00.6;-0.059469136130364184;-0.210048752096762;-0.8512347280347338;0.9129999999999999;0.010633128661378445
33:00.6;-0.048972807661162805;-0.2086390327054026;-0.8546429329337799;0.897;0.008732433150035563
33:00.6;-0.041855622566951065;-0.21038386779162876;-0.8564644222212999;0.889;0.007541809671316233
33:00.6;-0.038296706056293386;-0.21513103351379723;-0.8565664520172629;0.89;0.007057088211197532
33:00.6;-0.03809559016843265;-0.22244171822185158;-0.8551083135326684;0.894;0.00724622935048179
33:00.7;-0.040748439843954806;-0.23166496529887579;-0.8524813756089439;0.895;0.008047412167835222
33:00.7;-0.045545961924314746;-0.24202793218586513;-0.849236232167562;0.88;0.009361466421871334
33:00.7;-0.05167497094465062;-0.2527291584493425;-0.8460017471598782;0.88;0.011048589861605984
33:00.7;-0.05830967165710625;-0.2630234816172484;-0.8434024273219882;0.8690000000000001;0.01293510518609415
33:00.7;-0.06468435630068468;-0.2722910671980229;-0.8419824658998836;0.868;0.014829813940024403
33:00.7;-0.07014566157492626;-0.28008742622173965;-0.8421447460953096;0.868;0.016545548611619828
33:00.7;-0.07418734516409588;-0.2861734207874853;-0.8441117349619431;0.878;0.017920868898084398
33:00.7;-0.07647170261478876;-0.29052461274542396;-0.8479128772355882;0.8859999999999999;0.018838005597575057
33:00.7;-0.07683954230804776;-0.29331975977127356;-0.8533998611393225;0.894;0.019234400638110823
33:00.7;-0.07530770153149827;-0.2949087933867485;-0.8602882640974301;0.9079999999999999;0.01910605894608088
33:00.8;-0.0720526438534025;-0.29576126829474014;-0.8682221472546445;0.9229999999999999;0.018502145037209997
33:00.8;-0.06738126104690664;-0.2963980782803754;-0.8768556361326675;0.961;0.01751227691475702
33:00.8;-0.061693016885723616;-0.29731287031429343;-0.8859408750716508;0.961;0.016250040867777843
33:00.8;-0.055438357410385455;-0.29889399605973677;-0.8954066515352211;0.993;0.014837060296422802
33:00.8;-0.04907655609260097;-0.3013599695023108;-0.9054102083039618;1.014;0.013390753911475414
33:00.8;-0.04303406844234608;-0.3047195666053909;-0.9163466570364839;1.01;0.012016349405057324
33:00.8;-0.037664489218375286;-0.3087631057308022;-0.9288047923085417;0.99;0.0108014467862469
33:00.8;-0.03321326689422917;-0.3130855266856347;-0.9434676432388488;0.9690000000000001;0.009810736180278194
33:00.8;-0.029792271688239957;-0.3171362203354352;-0.9609714021380593;0.956;0.009079458110756129
33:00.8;-0.02736926600214819;-0.32028713058724795;-0.9817505049071716;0.9640000000000001;0.008606048168082928
33:00.9;-0.025774682559687033;-0.3219096099306832;-1.0059022371346982;0.985;0.008346089566898997
33:00.9;-0.024723462113706476;-0.3214507780465648;-1.033099146659511;1.071;0.008210427500622163
33:00.9;-0.023845163384556913;-0.3185014492515061;-1.0625632253366142;1.071;0.008069869217767906
33:00.9;-0.022714351414939073;-0.312849584427526;-1.09309904503525;1.1179999999999999;0.007767753544363048
33:00.9;-0.020877196281595393;-0.30451409953994674;-1.123174649902485;1.145;0.007140471223081118
33:00.9;-0.017876881974714758;-0.2937537339592834;-1.1510412270515606;1.167;0.00604457885696962
33:00.9;-0.013283858187537877;-0.28104818905936335;-1.1748861755994675;1.2109999999999999;0.004386325085106527
33:00.9;-0.006733790104068086;-0.26705604760329404;-1.1930121028839988;1.276;0.0021453929137137157
33:00.9;0.0020292909506448866;-0.252560285319672;-1.2040261604745306;1.3230000000000002;0.0006170854427177398
33:00.9;0.013108360374940795;-0.2384097699052218;-1.2070133074091522;1.33;0.0037721111330535047
33:01.0;0.026409553413661902;-0.22545656407589862;-1.2016613956546942;1.304;0.00715494089962951
33:01.0;0.04160350694104006;-0.21448490081620394;-1.1883130481838364;1.218;0.010603702413498733
33:01.0;0.05810316279995089;-0.2061336527891001;-1.1679380911664683;1.218;0.013988414590731435
33:01.0;0.07507519563463494;-0.20082361010980734;-1.1420394155140503;1.181;0.017218381877721112
33:01.0;0.09150047856463926;-0.1987040995113777;-1.1125116396547952;1.1520000000000001;0.020227152846945783
33:01.0;0.10628651828891356;-0.19962897046239597;-1.0814659674033908;1.11;0.022946402380832343
33:01.0;0.11841546771704228;-0.20316619534775687;-1.0510289655806424;1.05;0.025285675923282586
33:01.0;0.12709558385796244;-0.20864224324099426;-1.023126219411614;0.985;0.027130757423980773
33:01.0;0.13188007914588093;-0.2152198694346006;-0.9992720755587551;0.9390000000000001;0.02836255258003558
33:01.0;0.13272458254755992;-0.22200257973859122;-0.9803972497319757;0.92;0.02888760076857168
33:01.1;0.12996888861195527;-0.2281509072106802;-0.9667482844440963;0.958;0.028666522690547074
33:01.1;0.12424949621380538;-0.23298962120267036;-0.9578801969518209;0.958;0.027729523489423556
33:01.1;0.11637135731034964;-0.2360860581946298;-0.952740892773361;0.958;0.026175274624992244
33:01.1;0.10717537558085628;-0.23728749819819067;-0.9498285135524235;0.99;0.024155446766577073
33:01.1;0.09742738681577948;-0.2367151297144071;-0.9473984632804835;1.0190000000000001;0.02184941164687099
33:01.1;0.08773987404893832;-0.23472003010640707;-0.9436960620399404;1.045;0.01943476535779692
33:01.1;0.07853115772659117;-0.23181216733511728;-0.9371858223452161;1.052;0.017060978568525346
33:01.1;0.07002349807479291;-0.22857673130998615;-0.9267448282394147;1.037;0.014833238903131485
33:01.1;0.06227611659727883;-0.2255926780443936;-0.9117924752033328;1.0070000000000001;0.0128098052369802
33:01.1;0.05524260257631452;-0.22336598954416578;-0.8923411160573674;0.9670000000000001;0.011010881321500424
33:01.2;0.048836571570709184;-0.22228513091727106;-0.8689670684655282;0.919;0.009433196886766783
33:01.2;0.04298757516563934;-0.22260007453767647;-0.8427149650756528;0.8270000000000001;0.008063971048741372
33:01.2;0.03767408635750141;-0.22442141647370778;-0.8149593567626779;0.8270000000000001;0.0068903769037710555
33:01.2;0.03292993015851355;-0.22773377285107557;-0.7872532085335835;0.795;0.005903814319652566
33:01.2;0.02882846448872366;-0.2324174829994258;-0.7611881993735109;0.774;0.005100142977924277
33:01.2;0.02545263139197647;-0.23827345863097135;-0.7382789106002321;0.76;0.004477430151968363
33:01.2;0.022861116593986288;-0.24504684641089375;-0.7198725258386789;0.7490000000000001;0.00403275794335969
33:01.2;0.021061527059651072;-0.2524464805977692;-0.7070816660696142;0.738;0.003759488437242157
33:01.2;0.01999872349713491;-0.26015958559082586;-0.700736960386876;0.73;0.0036458360335885624
33:01.2;0.019560886797216993;-0.2678638863364061;-0.7013563976995331;0.7290000000000001;0.003674865666584564
33:01.3;0.019599991470591396;-0.27524043712995216;-0.7091306367106693;0.741;0.0038255542932553862
33:01.3;0.019958601241042956;-0.28198944715533103;-0.723925278595975;0.7859999999999999;0.004074334668638134
33:01.3;0.020492334077776866;-0.28784910206311876;-0.7452999732951658;0.7859999999999999;0.004396300925247047
33:01.3;0.021078165165405675;-0.2926156756374639;-0.7725413336360162;0.81;0.004764881628142994
33:01.3;0.021603565435643887;-0.29616317312323226;-0.8047062334706988;0.879;0.005148655723331073
33:01.3;0.02193950858901277;-0.2984609982180632;-0.8406736468848325;0.879;0.005504804711304219
33:01.3;0.02190818817000477;-0.2995869162408089;-0.8792033519534747;0.919;0.005770569025168005
33:01.3;0.021259084818589218;-0.29973099948744625;-0.9190008431017989;0.9670000000000001;0.005855879567104491
33:01.3;0.01966425542261422;-0.2991861952278754;-0.9587905068662713;1.02;0.005640827032186981
33:01.3;0.01673939415249288;-0.29832266010272895;-0.9973973869335709;1.073;0.004980743817564438
33:01.4;0.012092638181129501;-0.297545828949811;-1.0338302734359694;1.124;0.003719839234020318
33:01.4;0.005395862335526406;-0.29724228141928055;-1.0673513110725488;1.177;0.001711901745954039
33:01.4;-0.0035359999127037686;-0.297721529169422;-1.0975139101392961;1.177;0.0011554004168214992
33:01.4;-0.014677897595589517;-0.2991638922687039;-1.124153627851478;1.171;0.004936267594714147
33:01.4;-0.027757935739788818;-0.30158374408892386;-1.1473281333677203;1.158;0.009604676407011977
33:01.4;-0.04225919004352416;-0.3048149268124978;-1.167218992833495;1.156;0.015035218548434844
33:01.4;-0.05745572231621112;-0.30852324436664685;-1.1840203199975046;1.172;0.02098844841493827
33:01.4;-0.07247008459398473;-0.31224895396879526;-1.1978409168406254;1.204;0.027105592467606736
33:01.4;-0.0863411655831522;-0.315476339977448;-1.208638834557067;1.226;0.03292162360404497
33:01.4;-0.09810145237329874;-0.3177166690616167;-1.2161968909213112;1.217;0.03790699226875211
33:01.5;-0.10687009636401731;-0.31858253134377684;-1.2201417205459204;1.217;0.04154209905776362
33:01.5;-0.11196155332469779;-0.3178355550547702;-1.2200081872048112;1.294;0.0434144335284651
33:01.5;-0.11299346946234792;-0.3154024329307361;-1.2153472570238248;1.294;0.04331305012604394
33:01.5;-0.1099673647451133;-0.3113622465888284;-1.205863557947442;1.32;0.04128838926761976
33:01.5;-0.10329855184464629;-0.3059083333359841;-1.1915564288252662;1.327;0.03765304949496669
33:01.5;-0.09378135883589521;-0.299290419836179;-1.1728333781769962;1.315;0.03291892571119787
33:01.5;-0.0824868274806209;-0.2917499203094227;-1.1505662012402214;1.274;0.027688980075951865
33:01.5;-0.07060428636205501;-0.2834644565143411;-1.1260666531906482;1.204;0.022536879158518718
33:01.5;-0.0592538631371455;-0.2745130979130937;-1.1009734582468742;1.128;0.017908391920803634
33:01.5;-0.04930629169755624;-0.26486722394724677;-1.0770633549271627;1.065;0.014066038782967106
33:01.6;-0.04124540916660454;-0.2544071886416404;-1.0560175515850512;1.0170000000000001;0.011080927962554114
33:01.6;-0.035100238235703844;-0.24296077684216005;-1.0391842344614348;0.97;0.008862143561920192
33:01.6;-0.030459753801133548;-0.2303562911197984;-1.0273763194884145;0.97;0.007208684485515478
33:01.6;-0.026566303230497832;-0.2164832274960132;-1.0207344159490028;0.9640000000000001;0.005870405990238756
33:01.6;-0.02246900659043127;-0.20135468192895817;-1.0186718940780135;0.9690000000000001;0.004608715799276252
33:01.6;-0.017209881412133796;-0.18516403257310865;-1.0199066722746495;0.9890000000000001;0.003250086660329922
33:01.6;-0.010010652167521308;-0.1683248699792782;-1.0225760321511246;1.016;0.0017230832806542332
33:01.6;-0.0004269357394360825;-0.15148155458498538;-1.0244245134302714;1.048;6.625249337626678e-05
33:01.6;0.011558250908608209;-0.1354810682448984;-1.0230473164246487;1.07;0.0016020145302175215
33:01.6;0.02551784123215447;-0.12130505294267105;-1.01616345661919;1.087;0.00314547614161658
33:01.7;0.04064166931142593;-0.10997093809682322;-1.0018876851092966;1.095;0.004477839324545081
33:01.7;0.055859995635984226;-0.10241849378155574;-0.9789698963604221;1.071;0.005600781360921955
33:01.7;0.07000174567520345;-0.09940066209311937;-0.946975088825201;1.071;0.006589260877365125
33:01.7;0.0819545068395402;-0.10139534361621294;-0.9063835219900322;1.0270000000000001;0.007531870669091405
33:01.7;0.0907995840700053;-0.10854927983705251;-0.8585967292605458;0.955;0.008462526377457572
33:01.7;0.09590840039734047;-0.12065839050466774;-0.8058422111063839;0.865;0.009325329544368616
33:01.7;0.09699686476114229;-0.13718337355352178;-0.750982259015428;0.767;0.009992838138291622
33:01.7;0.09413919993630908;-0.15729604074304013;-0.6972486997120892;0.679;0.01032466590635653
33:01.7;0.08774510601991754;-0.17995010055964544;-0.6479382883285313;0.614;0.010230777531144106
33:01.7;0.0785055944840528;-0.20396915341892355;-0.6061083180158839;0.565;0.00970544257123122
33:01.8;0.06731395138924096;-0.22814430663468338;-0.5743087016356552;0.5379999999999999;0.008819828018007146
33:01.8;0.05517025964352664;-0.25133371431625545;-0.5543780674960263;0.557;0.00768708737610597
33:01.8;0.04308058448272342;-0.2725552710886203;-0.5473204894977746;0.557;0.006426549825669744
33:01.8;0.031962875514560084;-0.2910620645323168;-0.5532684810966807;0.593;0.005147156564331317
33:01.8;0.02256866194072865;-0.30639149160870566;-0.571528420010932;0.634;0.00395203100650275
33:01.8;0.015424919819594577;-0.31838353865205116;-0.6006974987851357;0.679;0.0029500497781732816
33:01.8;0.010798808349371707;-0.327167711069759;-0.6388362535323575;0.731;0.0022570221611788355
33:01.8;0.008689263469042285;-0.3331208740807458;-0.6836773384333263;0.7859999999999999;0.0019789553605589955
33:01.8;0.008848709027237858;-0.3368018801957673;-0.7328496011595447;0.841;0.0021840836990940442
33:01.8;0.010832724971711928;-0.3388722578001144;-0.784096853865414;0.893;0.0028783489577448064
33:01.9;0.014068322323218127;-0.3400133147258199;-0.8354718852636044;1.028;0.003996410340247616
33:01.9;0.017927401661995534;-0.34084896039278323;-0.8854844978019334;1.028;0.00541078509521276
33:01.9;0.02179321366361458;-0.34188149688997793;-0.9331794505099613;1.028;0.006952836874520745
33:01.9;0.02511276087233576;-0.34344516549601506;-0.9781285433821992;1.051;0.008436218143157826
33:01.9;0.027433972615139936;-0.3456796750582647;-1.0203436134455675;1.069;0.009676292686262905
33:01.9;0.028430688997028608;-0.3485235039809721;-1.0601364091646621;1.088;0.010504640796959326
33:01.9;0.027920111765144952;-0.35172465049880197;-1.0979552366836505;1.11;0.010782130740285363
33:01.9;0.025876181010886932;-0.3548652190737016;-1.1342239955036595;1.136;0.010415076084810694
33:01.9;0.022438706839308185;-0.3573962942050461;-1.1692045572395708;1.169;0.009376448423507409
33:01.9;0.017914201781208214;-0.3586808636665399;-1.2028982911897792;1.204;0.0077292005561719465
33:02.0;0.012763060940888995;-0.3580446674604547;-1.2349959336727125;1.2429999999999999;0.005643617617209784
33:02.0;0.007569767805016214;-0.3548367882741049;-1.2648773674542646;1.325;0.0033975012063756846
33:02.0;0.0029958285045792498;-0.34850103441613905;-1.2916544686957043;1.325;0.0013485509862230525
33:02.0;-0.00028417369361973823;-0.33865383548801464;-1.314243997639869;1.3459999999999999;0.00012647825731552787
33:02.0;-0.001663978065402353;-0.3251572835597671;-1.331459161435515;1.374;0.0007203920875623295
33:02.0;-0.0007011114030144596;-0.30817287496752616;-1.3421159473077207;1.374;0.00028998229144744733
33:02.0;0.0027887529548213676;-0.28818452032492087;-1.3451536899663707;1.4169999999999998;0.0010810669736836254
33:02.0;0.00866409697563298;-0.2659844016255714;-1.3397643856728878;1.4469999999999998;0.003087506653915639
33:02.0;0.016441173572767268;-0.24261869369663078;-1.3255150088222056;1.449;0.005287394610219852
33:02.0;0.025342502225292832;-0.21929457264935523;-1.3024362957377527;1.4240000000000002;0.007238254802227736
33:02.1;0.03440687236128271;-0.1972582561332264;-1.271050028010755;1.22;0.008626666925784258
33:02.1;0.04263748649384915;-0.17766390425291265;-1.2323259093936922;1.22;0.009335044145850586
33:02.1;0.04915050305340226;-0.1614590261101543;-1.1875904764039777;1.22;0.009424471424499032
33:02.1;0.05328861835751045;-0.14930694107734535;-1.1384235892781214;1.139;0.00905770859320681
33:02.1;0.054681575996805995;-0.14155223854730134;-1.0865616535184008;1.0759999999999998;0.008410312612193337
