Time;AccX;AccY;AccZ;Acc-old;Acc-trns
25:22.0;-0.08058366676431346;-0.28945419006787615;-1.0908194603486556;1.13;0.025443669337678724
25:22.0;-0.06757819250637218;-0.26286912883588603;-1.0787917083890362;1.13;0.01916389388113299
25:22.1;-0.055356607317077665;-0.23718091468360958;-1.0659946096041308;1.1079999999999999;0.013996009013855747
25:22.1;-0.044503777778002955;-0.21327761944532778;-1.0518161799273096;1.1079999999999999;0.009983481331827937
25:22.1;-0.03546084900736524;-0.191924261965318;-1.0358259304206383;1.1059999999999999;0.007049621294011855
25:22.1;-0.028480282796306617;-0.17370890674279876;-1.017844085493297;1.078;0.005035558453929266
25:22.1;-0.02360185770479957;-0.1590039023444673;-0.9979743863610377;1.035;0.0037451857801431253
25:22.1;-0.020652837053747805;-0.14794871852679445;-0.9765930347179316;0.993;0.002984039371042557
25:22.1;-0.019271612662781604;-0.14045873727227928;-0.9542965867314407;0.9570000000000001;0.0025831533469953282
25:22.1;-0.018952468585434458;-0.13625974010250338;-0.9318212807652444;0.93;0.0024063897345801568
25:22.1;-0.01910840927612902;-0.13494235838517135;-0.9099501576028929;0.8809999999999999;0.002346337249259794
25:22.1;-0.019145691568818027;-0.1360267643243763;-0.8894236372207397;0.8809999999999999;0.0023163495257791885
25:22.1;-0.018538130612139686;-0.13902581639379405;-0.8708665299690753;0.8809999999999999;0.002244465795476998
25:22.2;-0.01688748307826351;-0.143496183600173;-0.8547383320580269;0.856;0.002071278316210668
25:22.2;-0.013961128122410009;-0.14907185440778561;-0.8413053955812945;0.8370000000000001;0.0017509342614001908
25:22.2;-0.009705379883874925;-0.15547949455935697;-0.8306303487324892;0.8220000000000001;0.0012534108622417458
25:22.2;-0.004237199705977377;-0.16253771737418377;-0.8225779209063391;0.813;0.0005665133364002767
25:22.2;0.0021816026757553986;-0.17014297726415187;-0.8168406830674693;0.81;0.00030319849797825647
25:22.2;0.009183386087574928;-0.17824502609476697;-0.8129885333607507;0.821;0.0013307751522008344
25:22.2;0.016342032895863615;-0.1868161072758204;-0.8105421723652861;0.848;0.0024745487539862116
25:22.2;0.023222828286345674;-0.19582018562887646;-0.8090637333451363;0.893;0.003679216150894854
25:22.2;0.029428300808666756;-0.20518850909782632;-0.8082483161298805;0.893;0.00488048554741217
25:22.2;0.03463345449102801;-0.2148041785045071;-0.8079934162247996;0.893;0.00601099489909261
25:22.3;0.038605825769320534;-0.22449545344125957;-0.808425057194219;0.88;0.007006484447585134
25:22.3;0.04120993570161288;-0.23403877117938085;-0.8098697369937227;0.857;0.007810969046134113
25:22.3;0.042399642434256084;-0.24317416536099218;-0.8127746572201214;0.8290000000000001;0.008380111201826235
25:22.3;0.042203771337198825;-0.251633379609899;-0.8175913323994524;0.8059999999999999;0.008682719888237145
25:22.3;0.040710378737496486;-0.2591757606839526;-0.8246481141965707;0.797;0.008700980488479209
25:22.3;0.0380534748540274;-0.2656231574212877;-0.8340425569349907;0.8079999999999999;0.008430405534644638
25:22.3;0.03440316150736467;-0.27088527333387763;-0.8455816410519952;0.836;0.007880237281319723
25:22.3;0.029957238731246102;-0.27497090215105047;-0.858785760812448;0.927;0.007074135169307796
25:22.4;0.024932007402443425;-0.2779851952412509;-0.8729531142172626;0.927;0.006050201416791379
25:22.4;0.019552911403788092;-0.2801158366295955;-0.8872628875764565;0.927;0.004859609937324521
25:22.4;0.014047982910514399;-0.28161162010480023;-0.9008912127574632;0.958;0.0035639934086825168
25:22.4;0.008645450444892995;-0.2827568330042705;-0.9131239481995413;0.991;0.002232186450197922
25:22.4;0.0035735783124302457;-0.28384499854085987;-0.9234587320247698;1.015;0.000936703282711104
25:22.4;-0.0009407255134026715;-0.2851557347849333;-0.9316863643447924;1.032;0.000249927918513246
25:22.4;-0.004677450725653935;-0.28693793659068506;-0.9379368809938529;1.034;0.0012588407856004287
25:22.4;-0.007434324085510562;-0.28940069906741706;-0.9426774044600936;1.023;0.002028169104107961
25:22.4;-0.00904188107546921;-0.29271068377562615;-0.9466567327634369;1.004;0.0025054739570169386
25:22.5;-0.009380064372126717;-0.2969919189529506;-0.9508025986356269;0.9620000000000001;0.0026487490338330862
25:22.5;-0.008393057758448003;-0.30232262874454247;-0.9560891550569737;0.9620000000000001;0.0024259914112579276
25:22.5;-0.006099313427044292;-0.3087246515930535;-0.9634005865326882;0.9620000000000001;0.0018140914092614768
25:22.5;-0.002594469206173766;-0.3161441789886317;-0.9734169008307978;0.971;0.0007984221790368487
25:22.5;0.0019540163924712272;-0.324426466411358;-0.9865398725287069;0.997;0.0006254017925436722
25:22.5;0.007319931524956327;-0.3332904496611182;-1.0028662845891003;1.034;0.0024466560386730827
25:22.5;0.013236656435837638;-0.3423110984618835;-1.022205815986428;1.073;0.004631670164845277
25:22.5;0.01941801589098596;-0.3509168695223683;-1.044132773259595;1.11;0.007114834891657089
25:22.5;0.025580136882852676;-0.358406708641831;-1.0680558382055811;1.1440000000000001;0.009792034897975619
25:22.5;0.03146338331154335;-0.3639879767181336;-1.093289479157886;1.169;0.012520671703078141
25:22.5;0.03685206669033643;-0.36683515085361385;-1.1191134621942525;1.227;0.015128884677221233
25:22.5;0.04158820965904472;-0.3661679114767364;-1.14481010460391;1.227;0.01743347493652136
25:22.5;0.04557636826280533;-0.36134511900812455;-1.1696718009650233;1.227;0.019263088866560335
25:22.6;0.04877921859162263;-0.35196841117450917;-1.1929776437983959;1.242;0.020481927842867172
25:22.6;0.05120672531211922;-0.3379826618860409;-1.213949421075851;1.245;0.021009804818835114
25:22.6;0.05290398036020924;-0.31974790814279036;-1.2317083813661134;1.232;0.020835501446354144
25:22.6;0.05394328934837107;-0.29804994262023354;-1.2452583831559088;1.228;0.020021008128540674
25:22.6;0.054424285413269144;-0.2740312806114025;-1.2535164212259222;1.245;0.01869488953884801
25:22.6;0.05448224567481282;-0.24905512828727944;-1.255399340842276;1.2830000000000001;0.017034617459737784
25:22.6;0.05430021219522018;-0.2245373591325504;-1.2499591663599539;1.319;0.015240034947170163
25:22.6;0.054116446833712736;-0.2017832685082319;-1.236543777466637;1.307;0.0135028027310456
25:22.6;0.0542184993749607;-0.18185618829944525;-1.2149504752440619;1.307;0.011979374789860575
25:22.6;0.05492028514644422;-0.16549368391867994;-1.1855405870154838;1.307;0.010775331342166293
25:22.7;0.05652472582601954;-0.15307552924423606;-1.1492897738351338;1.245;0.009944289900332378
25:22.7;0.05927737054396313;-0.14463822924785516;-1.1077564226664356;1.1640000000000001;0.009497653115234587
25:22.7;0.06331764172564817;-0.13992720579890275;-1.0629624594130693;1.0759999999999998;0.009417699303195842
25:22.7;0.06863616535527772;-0.13847697934115866;-1.0171994063815673;0.99;0.00966800110614932
25:22.7;0.07504755248819947;-0.13970633461937135;-0.9727902874611805;0.9209999999999999;0.010199335025353584
25:22.7;0.0821866009775437;-0.14301161525826894;-0.9318464415578884;0.8740000000000001;0.010952586265988978
25:22.7;0.08953259714303605;-0.1478429829246516;-0.8960556121282048;0.8370000000000001;0.011860878667373993
25:22.7;0.09646149780469596;-0.15375559979145648;-0.8665276857820096;0.804;0.012851901430485512
25:22.7;0.10231892877617758;-0.1604345149641068;-0.8437134362035877;0.804;0.013849967542637873
25:22.7;0.10649998256862993;-0.1676953095259994;-0.8274030407877749;0.804;0.014777043942815041
25:22.8;0.10852028148566006;-0.17546408840400754;-0.8168029307813394;0.8240000000000001;0.015553081343636874
25:22.8;0.10806859264947175;-0.18374260251823463;-0.8106797151322087;0.853;0.01609750858622791
25:22.8;0.10503799505598592;-0.19256686364999087;-0.8075502417128203;0.8809999999999999;0.016334187328101157
25:22.8;0.09953507350928897;-0.20196849950701082;-0.8058898330830344;0.902;0.016200762572700568
25:22.8;0.09186712475462532;-0.21194592269070414;-0.8043281568477996;0.9059999999999999;0.015660962963801966
25:22.8;0.08250912816350174;-0.22244837493282216;-0.8018053867376462;0.903;0.01471635328863315
25:22.8;0.07205501429053741;-0.23337261670529394;-0.7976696449823746;0.888;0.013413347310867893
25:22.8;0.0611597742029267;-0.24457005335966725;-0.7917082172026688;0.83;0.011842252155204402
25:22.9;0.050479732908571655;-0.255859913718739;-0.784118595895223;0.83;0.010127471997281595
25:22.9;0.04061832216501938;-0.2670421535862464;-0.7754375187377358;0.83;0.008411018955248654
25:22.9;0.032082602541018634;-0.2779053816360347;-0.7664488885920108;0.813;0.006833603032050738
25:22.9;0.025251433295647198;-0.28823050297586905;-0.758083645088889;0.797;0.005517509644779805
25:22.9;0.020353756061869784;-0.2977946514882395;-0.7513171735902561;0.7879999999999999;0.004553913474538593
25:22.9;0.01745704977465271;-0.30637899093462584;-0.7470698269804977;0.78;0.003995683018846704
25:22.9;0.01646786155967106;-0.31378100370852025;-0.746118962563308;0.772;0.003855422103835069
25:22.9;0.017145468016852225;-0.31983069496327476;-0.7490315407077901;0.779;0.004107424524630151
25:22.9;0.019127803211256702;-0.32441041014272753;-0.7561249680561285;0.799;0.004691950873669867
25:22.9;0.021967639795579936;-0.3274770946753963;-0.7674602248464608;0.865;0.005521031234417325
25:23.0;0.025175620070023448;-0.3290831092299716;-0.7828634490755499;0.865;0.00648592294410924
25:23.0;0.02826457890151702;-0.3293894483506589;-0.8019632563081261;0.865;0.007466321264134536
25:23.0;0.030789251124813073;-0.32866577315051954;-0.824230338192642;0.885;0.008340694251239048
25:23.0;0.03237822830689115;-0.3272745351222903;-0.8490151319099623;0.905;0.008996647951358142
25:23.0;0.032757986553844945;-0.3256392914509154;-0.8755879717826548;0.929;0.009340148653474144
25:23.0;0.031769443792154135;-0.3241991962083661;-0.9031867335724045;0.956;0.009302487498044406
25:23.0;0.02937694808187887;-0.32335348371021166;-0.9310731360974162;0.99;0.008844392676258063
25:23.0;0.025669456637338554;-0.32340204952780566;-0.9585949810550473;1.024;0.007957828849420714
25:23.0;0.02085354303922357;-0.324490326761059;-0.9852481053858932;1.058;0.006666950272824769
25:23.1;0.015237349648855753;-0.326567339101449;-1.0107285454388546;1.12;0.005029406194289404
25:23.1;0.009205239644255094;-0.32936418586857813;-1.0349624862986886;1.12;0.003137878193395198
25:23.1;0.003185426147238127;-0.33239710995940497;-1.0581007131467062;1.129;0.0011203450169034027
25:23.1;-0.002385528254196529;-0.33499709135364375;-1.0804695631570538;1.129;0.0008634518776791808
25:23.1;-0.007098814615643225;-0.3363674521921444;-1.102481545008618;1.14;0.0026325166628813146
25:23.1;-0.010609447918865509;-0.3356700209850469;-1.124518782965179;1.151;0.00400471906073636
25:23.1;-0.012671157665578055;-0.33213610183136383;-1.1468066822186922;1.156;0.004826392015569512
25:23.1;-0.013166839053205521;-0.3251902479001532;-1.1692963896104127;1.161;0.005006608689190801
25:23.1;-0.01213016389011945;-0.3145651637507313;-1.1915765845010509;1.166;0.004546730934631508
25:23.1;-0.009754840170591512;-0.3003800880526325;-1.212837316707554;1.18;0.003553807087964501
25:23.1;-0.006390090870086129;-0.283159049403216;-1.231905327100934;1.2830000000000001;0.002229024351167488
25:23.1;-0.0025224134727328327;-0.2637823797666801;-1.247354726079905;1.2830000000000001;0.0008299502045188962
25:23.1;0.001256845101925699;-0.2433861309599323;-1.2576735605826144;1.2830000000000001;0.0003847206651671408
25:23.2;0.004300282707679329;-0.22323210921434913;-1.2614548533442504;1.3119999999999998;0.00121094768833879
25:23.2;0.005971811178895694;-0.20456336484351667;-1.2575876689138517;1.334;0.0015362864371775517
25:23.2;0.005731094607339171;-0.18845482151572143;-1.2454317122642038;1.345;0.00134513152396014
25:23.2;0.0032265677488513772;-0.17567631566826622;-1.2249552814463622;1.3359999999999999;0.0006943432817196472
25:23.2;-0.0016196175546014553;-0.16659354344942548;-1.1968108649653888;1.311;0.00032292090745824367
25:23.2;-0.008557470209355716;-0.16113000773646707;-1.1623254211083458;1.268;0.001602690121941239
25:23.2;-0.01700815824904758;-0.15880163564843072;-1.123391821543617;1.2009999999999998;0.003034195201237906
25:23.2;-0.026127496213246195;-0.15881990599791568;-1.0822628507379402;0.966;0.004490921661552347
25:23.2;-0.034924497077764356;-0.1602418804582629;-1.0412749503102687;0.966;0.005827356859184489
25:23.2;-0.04240497485689669;-0.1621326442368274;-1.0025586350055082;0.966;0.006892821908290807
25:23.3;-0.047705275194016794;-0.16370608704547746;-0.967797453655484;0.912;0.007558153512739394
25:23.3;-0.0501938734694682;-0.1644230414545441;-0.9380689960928406;0.873;0.007741910946042408
25:23.3;-0.04953290800743181;-0.1640398397879331;-0.9137730301445917;0.855;0.007424744234384646
25:23.3;-0.04569774840581123;-0.162608464111555;-0.8946455238933818;0.861;0.006647968354580853
25:23.3;-0.038955850653912244;-0.16043484366612243;-0.8798569388278238;0.8859999999999999;0.005498996597837008
25:23.3;-0.02981134401127551;-0.15800719428818816;-0.8681830735241842;0.9159999999999999;0.004089495475035477
25:23.3;-0.018926900884251998;-0.15590984229719235;-0.8582216379721883;0.941;0.0025325177625938936
25:23.4;-0.007036888713845025;-0.15473770809332296;-0.8486176716326872;0.924;0.0009240360482371515
25:23.4;0.0051342485990819135;-0.15502255756694167;-0.8382614692578293;0.924;0.0006671927142226957
25:23.4;0.016936403160615482;-0.1571765377149972;-0.8264328218298552;0.924;0.0021999684775342375
25:23.4;0.027833999674958743;-0.16145449349422453;-0.8128776144976665;0.879;0.003653010480518521
25:23.4;0.03742227973111177;-0.16793505898446076;-0.7978122121844832;0.8370000000000001;0.005013861022752185
25:23.4;0.045425164685844205;-0.17651974712647703;-0.7818609184814121;0.794;0.006269303755700706
25:23.4;0.05168101156180183;-0.18694772616457522;-0.7659438744268153;0.755;0.007400279794071495
25:23.4;0.056121790772941625;-0.1988224341766891;-0.75114159361574;0.732;0.008381441499868794
25:23.4;0.05875102424315716;-0.2116461043538662;-0.7385635807228952;0.723;0.009183613753463606
25:23.4;0.05962532786785346;-0.22485967158085657;-0.7292430964094915;0.726;0.009777204041395319
25:23.4;0.058842607570793064;-0.23788671164798028;-0.7240701711845935;0.7879999999999999;0.010135443327371192
25:23.4;0.05653763271111327;-0.2501788937026484;-0.7237616495118425;0.7879999999999999;0.010237262866844878
25:23.4;0.05288412809102215;-0.26125765033372467;-0.7288540698736922;0.7879999999999999;0.01007012701328808
25:23.5;0.048101717523754;-0.2707469964585406;-0.7397002359805828;0.8059999999999999;0.009633408757204878
25:23.5;0.04246500218837023;-0.27839707271066627;-0.7564561233503813;0.82;0.008942924370826288
25:23.5;0.036310413999105944;-0.28410154337896293;-0.7790539172304035;0.8270000000000001;0.008036599190257928
25:23.5;0.030035558540194206;-0.28791048331759705;-0.8071636021934122;0.8340000000000001;0.006979989364552828
25:23.5;0.024087249227443052;-0.2900364120062243;-0.8401516384717709;0.845;0.005869450020021707
25:23.5;0.01893771250188059;-0.2908484162133922;-0.8770520997138079;0.867;0.004830806199683506
25:23.5;0.01505083585586029;-0.2908492923041357;-0.9165698198343273;0.897;0.004012307261398521
25:23.6;0.01284121451688647;-0.29063334815193614;-0.9571321705356649;1.037;0.0035720987787926073
25:23.6;0.012630136048095349;-0.29082702101023;-0.9969925333610341;1.037;0.0036621378609509557
25:23.6;0.014604574492466053;-0.2920187817020737;-1.0343701044111269;1.037;0.004411392017298733
25:23.6;0.018785279922178415;-0.294686351029284;-1.0676053804908607;1.105;0.005910013132575748
25:23.6;0.025007721853486823;-0.299127870799342;-1.0953221934963508;1.177;0.008193564888348593
25:23.6;0.03291759352784008;-0.30540237121574104;-1.1165925430371197;1.24;0.011225228908814444
25:23.6;0.0419829705471261;-0.3132852069993139;-1.1310871145595254;1.2830000000000001;0.01487678571905553
25:23.6;0.05152701323424792;-0.32224461191012255;-1.1391785390248694;1.296;0.01891526492968955
25:23.6;0.060784466158623686;-0.3314459309600995;-1.1419623126621323;1.284;0.02300684518024466
25:23.6;0.06897919811523871;-0.3397920869564427;-1.141171346642078;1.255;0.026747442388577323
25:23.7;0.0754108956974299;-0.3460102240039307;-1.138979148863099;1.15;0.02971931563197372
25:23.7;0.0795338179899214;-0.3487870263851697;-1.1377119545665553;1.15;0.031560543603207494
25:23.7;0.08101398548532227;-0.34693728450706;-1.1395149113858907;1.15;0.03202808595462388
25:23.7;0.07975954825101753;-0.33957648648761957;-1.1460254928528406;1.126;0.031039489824458203
25:23.7;0.07592485746029384;-0.32626897094445984;-1.1580955945092941;1.09;0.028688257340502912
25:23.7;0.06989032994021427;-0.3071294601700414;-1.1755924433058493;1.071;0.025234537704408953
25:23.7;0.06222146638736067;-0.28286058053062385;-1.19730899600778;1.093;0.02107263845401226
25:23.7;0.05361277497957927;-0.25471631853477167;-1.2210140107272405;1.136;0.016674226756304807
25:23.7;0.044822887479980415;-0.22439122880003848;-1.2436579640912662;1.209;0.012508541172955622
25:23.7;0.03660487362966551;-0.1938454443585751;-1.261725661601049;1.3;0.008952811629289334
25:23.8;0.0296348735583684;-0.16508814281945275;-1.2716966274181563;1.4669999999999999;0.00622160564551904
25:23.8;0.024445753281201223;-0.13995509318090268;-1.2705449503531032;1.4669999999999999;0.004346925194329191
25:23.8;0.02137663964982955;-0.11992018869308085;-1.2561909772634516;1.4669999999999999;0.0032202338379332444
25:23.8;0.020547994303857814;-0.10596957677690053;-1.2278232434179763;1.4240000000000002;0.00267353877448604
25:23.8;0.021865555575021192;-0.09854621163207836;-1.186040397098727;1.337;0.002555641499600909
25:23.8;0.02504965018500195;-0.09755697480822946;-1.1328001436100033;1.217;0.0027683008456274036
25:23.8;0.02968167836326449;-0.10242925329651338;-1.0711922198757435;1.084;0.0032567158748165047
25:23.8;0.035257597405216334;-0.11220349539006402;-1.005076035973809;0.9590000000000001;0.0039761065965246015
25:23.8;0.04123969482756524;-0.12564943591245256;-0.9386403446460492;0.851;0.004863794342242369
25:23.8;0.04710216585403486;-0.14139630054858604;-0.875947974667438;0.764;0.0058338765791770735
25:23.8;0.05236993632411301;-0.1580687024066038;-0.8205238349196123;0.682;0.006792335592038287
25:23.8;0.05665085860197813;-0.17441679160207918;-0.7750342615895672;0.682;0.007658005808120672
25:23.8;0.0596593353053872;-0.18942405602392148;-0.7410921233235984;0.682;0.008375017813159476
25:23.9;0.06122833352310919;-0.20237751315506414;-0.7192016315907799;0.6940000000000001;0.00891179849571673
25:23.9;0.06130872259236751;-0.21289510440513795;-0.7088324597195015;0.7240000000000001;0.009251912979639112
25:23.9;0.059957727455994335;-0.22091470535497817;-0.708595209726957;0.759;0.00938572881229003
25:23.9;0.05731951151579818;-0.22665203811535314;-0.7164832705536178;0.792;0.00930825267196844
25:23.9;0.0536007882839667;-0.23053489968629876;-0.730144863020251;0.821;0.009022292266562324
25:23.9;0.04904433753060308;-0.23312255962006237;-0.7471510903048011;0.8440000000000001;0.008542433567555477
25:23.9;0.04390348467033035;-0.2350207579234075;-0.7652318179283525;0.858;0.007895838086424429
25:23.9;0.03842005892662993;-0.2368025063651872;-0.7824601804945538;0.875;0.007118796312953567
25:23.9;0.032807508083849704;-0.23894283477228934;-0.7973758115505168;0.875;0.0062507238612055935
25:23.9;0.027241038783199945;-0.2417728213582211;-0.8090446678702007;0.875;0.005328483716876328
25:24.0;0.021856616546964608;-0.24545591093926483;-0.8170595247583715;0.87;0.004383390127536486
25:24.0;0.016758307654174343;-0.24998784059760829;-0.8214902790810561;0.862;0.0034415293120377416
25:24.0;0.01203029033597445;-0.25521919346265276;-0.8227968890217149;0.85;0.00252628347623282
25:24.0;0.007748823635816025;-0.26089593600764394;-0.8217199990849917;0.847;0.0016612192213423045
25:24.0;0.003990667664622826;-0.2667097198197213;-0.8191649314703298;0.84;0.0008718780758064039
25:24.0;0.0008359846141400947;-0.27234847944796436;-0.8160932007348952;0.8370000000000001;0.00018580739688143437
25:24.0;-0.001635594389439509;-0.2775395928764859;-0.8134322585696468;0.838;0.0003692512297838017
25:24.1;-0.003356284715932667;-0.2820812100312571;-0.8120097602673906;0.856;0.0007687660618332415
25:24.1;-0.004286623435008155;-0.28586036281593447;-0.8125134601081447;0.856;0.0009956342746290578
25:24.1;-0.004431028520483735;-0.28885838962059646;-0.8154727566456128;0.856;0.0010437560067025837
25:24.1;-0.0038453605581425013;-0.291145384062603;-0.8212555694185963;0.879;0.0009194440447921421
25:24.1;-0.0026334219485830944;-0.2928661448928825;-0.8300748262761096;0.8909999999999999;0.0006401870202122122
25:24.1;-0.0009363856785843337;-0.29422106959250005;-0.8419990224036313;0.8909999999999999;0.00023197443201922391
25:24.1;0.0010758106554555548;-0.29544710783979933;-0.8569611118769052;0.89;0.00027238093035291674
25:24.1;0.0032043630771376136;-0.29680416619261873;-0.8747636136388277;0.907;0.0008319599527998813
25:24.1;0.005214598494466558;-0.2985684151563343;-0.895084572956316;0.941;0.0013935700681659208
25:24.1;0.006830234976196368;-0.30102806048710645;-0.9174916900640804;0.98;0.0018864476795862686
25:24.2;0.007736070375881303;-0.3044746809945539;-0.9414664957689457;1.018;0.002217565545472538
25:24.2;0.007591458192734551;-0.3091853597101331;-0.9664319450249582;1.018;0.0022683778765801364
25:24.2;0.006053630319249298;-0.3153944749395495;-0.9917742329273898;1.018;0.0018935762506619364
25:24.2;0.0028093022839367466;-0.3232569120914888;-1.0168569853513216;1.03;0.0009234346545459913
25:24.2;-0.0023868018279216857;-0.3328065369794142;-1.0410373512449762;1.06;0.0008269409937991848
25:24.2;-0.009668462226087669;-0.3439159344569792;-1.0636979288843036;1.12;0.0035369426391944135
25:24.2;-0.019012843199360554;-0.3562661475850259;-1.0843000327243468;1.1909999999999998;0.007344649834364466
25:24.2;-0.030198435178737368;-0.36933616851500084;-1.1024466433694293;1.234;0.012296000107855486
25:24.2;-0.04277204882574252;-0.3824177468122755;-1.1179292169507358;1.206;0.018285734038515845
25:24.2;-0.056032943948215765;-0.3946541825818279;-1.1307340435427047;1.1740000000000002;0.02500464070292131
25:24.3;-0.06904466906683036;-0.40509922017615;-1.1410029048535295;1.2009999999999998;0.031913784609954254
25:24.3;-0.08068467098082166;-0.4127938135486002;-1.1489643346222072;1.2009999999999998;0.038267558974604175
25:24.3;-0.089736778740133;-0.416858263210955;-1.1548587427553503;1.2009999999999998;0.043200398897296044
25:24.3;-0.09502600914881483;-0.41659428724483066;-1.158874062203516;1.2229999999999999;0.04587668653029896
25:24.3;-0.09558733021230902;-0.4115868355350473;-1.1611014898290946;1.256;0.04568061998983704
25:24.3;-0.09084310795199207;-0.40178829531853005;-1.1615171421977641;1.258;0.042395024314403826
25:24.3;-0.08074598699572963;-0.38756508978965387;-1.1599897389728027;1.247;0.036301096700251716
25:24.3;-0.06584483298173764;-0.36969304292843985;-1.156308275648774;1.2329999999999999;0.02814729158800976
25:24.3;-0.047252881229454216;-0.3492948238627402;-1.1502234126369821;1.218;0.018984652317269264
25:24.3;-0.02652116603261165;-0.3277181321401494;-1.1414990542615755;1.21;0.00992130135423762
25:24.4;-0.005435925451742367;-0.30636642603292213;-1.1299687193159509;1.169;0.001881833015316171
25:24.4;0.014227527960628303;-0.28651395874772406;-1.1155866616765182;1.169;0.0045475611345697645
25:24.4;0.030947633071516104;-0.2691484282793301;-1.0984628525452869;1.169;0.009149653800003488
25:24.4;0.04364907759180817;-0.2548761566497113;-1.0788732094301443;1.133;0.012002582200872306
25:24.4;0.05181735250685637;-0.24390229680900752;-1.0572389143888654;1.092;0.013361777943323595
25:24.4;0.055527531054934;-0.2360783235477134;-1.0340743806566328;1.046;0.013555522265833024
25:24.4;0.05538772281774496;-0.23099794359383313;-1.0099140791443628;1.0;0.012921295261859232
25:24.4;0.05240537543452073;-0.22811698279327605;-0.9852380085693145;0.973;0.011778083071178065
25:24.4;0.047799551527030304;-0.22687163230807247;-0.9604175980239592;0.9690000000000001;0.010415116371648549
25:24.4;0.04279678641951898;-0.22677380783031204;-0.9356968358758293;0.976;0.00908111577972986
25:24.5;0.0384514953314195;-0.22747037232163475;-0.9112104299098817;0.937;0.007969971240169313
25:24.5;0.03552060754067619;-0.22876261636150805;-0.8870288389779829;0.937;0.007207807511070762
25:24.5;0.03440254547703515;-0.23059218471046913;-0.863214924601266;0.937;0.006847847846414191
25:24.5;0.0351353629539954;-0.23300523949579688;-0.8398769718280857;0.8959999999999999;0.006875840676642816
25:24.5;0.0374436160466041;-0.23610583899772933;-0.8172046298724849;0.853;0.007224625326312399
25:24.5;0.040822029493256605;-0.2400067685479112;-0.7954804245906054;0.826;0.00779376988085182
25:24.5;0.044640151473188706;-0.24478498802502346;-0.7750698992286287;0.807;0.008469373987018004
25:24.5;0.04824855950420935;-0.2504477313473966;-0.7564004458726307;0.797;0.009140148039785878
25:24.5;0.05106815107256049;-0.25691309320707395;-0.7399376039141219;0.792;0.009708038084319293
25:24.5;0.052649767706715915;-0.2640072487320553;-0.7261614927434293;0.7829999999999999;0.01009358688759245
25:24.6;0.05269969847975673;-0.27147926037394854;-0.7155409668006835;0.763;0.010237155287614241
25:24.6;0.05107553364151842;-0.27903141375225393;-0.7085027637395152;0.763;0.010097353506088445
25:24.6;0.047763751537666474;-0.28635823662200033;-0.7053967580682672;0.763;0.009648094959471235
25:24.6;0.04285165355125641;-0.29318560350404577;-0.7064612882138056;0.762;0.00887561785164146
25:24.6;0.036502125408546096;-0.2993049713413097;-0.7117917763657376;0.753;0.007776515631778053
25:24.6;0.028935896561921592;-0.30460189639290786;-0.7213154712685216;0.7609999999999999;0.006357623326263384
25:24.6;0.02042449014648367;-0.30907817381643293;-0.7347775930317203;0.794;0.004638477622242655
25:24.6;0.011292981694011075;-0.3128642597331984;-0.7517453285737755;0.816;0.002656044311589622
25:24.6;0.0019240076763193086;-0.3162160280835908;-0.7716326192500352;0.828;0.00046946287928793004
25:24.6;-0.007249259144141173;-0.31949072704502884;-0.7937437531344314;0.843;0.0018383669471993178
25:24.7;-0.01576794202382734;-0.32310264495805935;-0.8173314100879943;0.914;0.004164028725873164
25:24.7;-0.023186423881293758;-0.32746614418178865;-0.8416625465348286;0.914;0.006390549145149362
25:24.7;-0.029114558062711373;-0.3329378360756083;-0.8660814804427094;0.914;0.008395220490565698
25:24.7;-0.03325290160489736;-0.3397690005720366;-0.8900605181142387;0.9570000000000001;0.010056175330651894
25:24.7;-0.035417016175380574;-0.3480741672306551;-0.9132370071274538;0.996;0.011258156063518609
25:24.7;-0.03555191519668038;-0.3578139929731695;-0.9354410134463595;1.033;0.01189971962666044
25:24.7;-0.033737701806168266;-0.3687850561638886;-0.9567131898902833;1.063;0.011903387484458922
25:24.7;-0.03018462850016304;-0.3806105764242634;-0.9773050430720743;1.078;0.011227855823426915
25:24.7;-0.025214096294887568;-0.39273301483379636;-0.997651779863348;1.08;0.009879155020206629
25:24.7;-0.019223063710744302;-0.40441630520521105;-1.0183124791464995;1.08;0.00791648381834238
25:24.8;-0.012632790715175847;-0.4147681054075865;-1.0398805732738083;1.126;0.005448640060111831
25:24.8;-0.005828726672913047;-0.42278961101556617;-1.0628740313701182;1.126;0.0026192671353163924
25:24.8;0.0008954643707598832;-0.4274539020813203;-1.0876159863331887;1.126;0.0004163064877170506
25:24.8;0.0073759271834338055;-0.4278089161071714;-1.1141167263456488;1.148;0.003515581307298619
25:24.8;0.01359088632139955;-0.4230993218206985;-1.1419713166448235;1.167;0.0065666717073233965
25:24.8;0.019645643263315377;-0.41289613718776536;-1.1702914281534624;1.185;0.009492947904297217
25:24.8;0.025731365665491626;-0.3972110754760601;-1.1976918446007372;1.215;0.012241348958891837
25:24.8;0.03206174662853758;-0.3765627895382319;-1.222350337477293;1.255;0.014757754349659282
25:24.8;0.03879896204186293;-0.35196496266753413;-1.2421511338891142;1.2890000000000001;0.016962660896973628
25:24.8;0.04599007743630252;-0.3248246258218349;-1.2549055661750756;1.3219999999999998;0.018746669947433132
25:24.9;0.05353948086038576;-0.2967671813258757;-1.2586238910683498;1.389;0.019997973973296498
25:24.9;0.06123140916353621;-0.2694299696917453;-1.2517965938412083;1.389;0.02065161033861426
25:24.9;0.06879052131117053;-0.24427496789705408;-1.2336360526816088;1.389;0.020729776444159454
25:24.9;0.07595004367421698;-0.22245685936157966;-1.2042338786907192;1.3430000000000002;0.02034626377642692
25:24.9;0.08250156427474224;-0.2047556476571245;-1.164605328755547;1.265;0.01967328328042974
25:24.9;0.08831500839179378;-0.1915631375745159;-1.1166136662133244;1.167;0.01889075845802939
25:24.9;0.09332731864049461;-0.18290793792925109;-1.0627885363025429;1.058;0.018142127021193374
25:24.9;0.09750667372113875;-0.1785066132181646;-1.0060703558206674;0.9620000000000001;0.017511244192975572
25:24.9;0.1008078365130267;-0.17783136496885985;-0.949523954074096;0.883;0.017021921430532137
25:24.9;0.10313820224930483;-0.18018578562740195;-0.8960662651522519;0.838;0.01665252952254558
25:25.0;0.10435026840529088;-0.184781011076916;-0.8482445203404717;0.807;0.016355806819076352
25:25.0;0.1042651002242555;-0.190805740503276;-0.8080860214807825;0.807;0.016076370106802726
25:25.0;0.10271727815118978;-0.19748552437382846;-0.7770227342037623;0.807;0.015762042560293496
25:25.0;0.09960401779214355;-0.20412985024217664;-0.7558778006399501;0.802;0.015368623269870789
25:25.0;0.09492389472507598;-0.21016885718822106;-0.7448910723713019;0.79;0.014860611512042194
25:25.0;0.08879744627334345;-0.2151825962462147;-0.7437609433729624;0.777;0.014211534967721635
25:25.0;0.0814669338861768;-0.21892374034759932;-0.751689265645585;0.767;0.013406412541053535
25:25.0;0.07327620154778602;-0.22133132233151523;-0.7674289514788374;0.767;0.012446407225670477
25:25.0;0.06463464459352082;-0.22253084676989796;-0.7893440645987116;0.778;0.011353295280231735
25:25.0;0.055971617989300344;-0.2228159845760841;-0.8154968648200857;0.8;0.010170364089633873
25:25.1;0.047689633431678834;-0.22260910183104196;-0.8437733438139083;0.937;0.008957621401088023
25:25.1;0.040125706385467405;-0.2224026338847145;-0.8720449955208088;0.937;0.007782184292779053
25:25.1;0.03352838982957321;-0.22268963707017367;-0.8983448189443236;0.937;0.006707424181273581
25:25.1;0.028053223448285394;-0.22389500360076062;-0.9210283428534598;0.992;0.005784957437132789
25:25.1;0.023773721750545575;-0.2263166161455556;-0.9389020848442873;1.026;0.005051657754369281
25:25.1;0.020701039884666313;-0.23008256808800684;-0.9513127165452324;1.0390000000000001;0.0045310533990118584
25:25.1;0.018804382199497188;-0.23512998935009183;-0.9581886081099994;1.043;0.004236606196367801
25:25.1;0.018026374043968594;-0.24121054327053373;-0.9600232392035355;1.034;0.004174326464866934
25:25.1;0.018291834818015495;-0.24792417426405508;-0.9577958770172146;1.016;0.004343592849937443
25:25.1;0.019512146029272343;-0.25477691529581775;-0.9528343960177124;0.99;0.004736772632595374
25:25.2;0.02158869763473823;-0.2612534514254001;-0.9466343488823277;0.915;0.005339132998276844
25:25.2;0.024417177221621157;-0.26689229707056283;-0.9406587103632407;0.915;0.006130043780710282
25:25.2;0.02789112999194754;-0.2713510327703656;-0.9361518850611441;0.915;0.007085066074749728
25:25.2;0.03190156810825703;-0.27445191067373736;-0.9340006756209327;0.912;0.008177592778989549
25:25.2;0.036331112460458975;-0.27620377161618637;-0.9346616068186747;0.9259999999999999;0.009379133215222516
25:25.2;0.04104407233321179;-0.2768009698082074;-0.9381586824866872;0.953;0.010658457404979251
25:25.2;0.045875745191218585;-0.27660176571775436;-0.9441453587490152;0.992;0.01198055514712848
25:25.2;0.05062500708345458;-0.27608911060370195;-0.9520159290493005;1.0290000000000001;0.013306339187870206
25:25.2;0.05505430814045278;-0.27581750007868816;-0.9610427758608322;1.054;0.01459337846485719
25:25.2;0.058900444705374776;-0.27635069251539746;-0.9705109587161711;1.065;0.015797180289604498
25:25.3;0.06189769746357461;-0.27819646568541445;-0.9798241448329832;1.048;0.01687229807820874
25:25.3;0.06381126943872456;-0.2817453086020873;-0.9885663118128634;1.048;0.01777296494223932
25:25.3;0.06447415362421059;-0.28721875947099595;-0.9965178976245554;1.048;0.0184537042009596
25:25.3;0.0638184951134042;-0.2946309456726486;-1.0036359054997417;1.036;0.01887126914715674
25:25.3;0.061895209411949106;-0.30376561950773;-1.0100115040314879;1.0270000000000001;0.01898986929251705
25:25.3;0.058879858426085535;-0.3141705004537949;-1.015819493252246;1.0270000000000001;0.018790948551180558
25:25.3;0.05506545587302525;-0.3251706277886973;-1.0212742757312856;1.046;0.018286598992091736
25:25.3;0.05084416357388179;-0.3359031557831934;-1.0266036815098591;1.084;0.01753307169201822
25:25.3;0.04668002340399387;-0.34537619513525264;-1.0320425678928191;1.1320000000000001;0.016638764562759575
25:25.3;0.04307322019426179;-0.3525511843951056;-1.037835332531872;1.15;0.01576006379714216
25:25.4;0.0405139919940833;-0.3564421178492259;-1.0442280391670193;1.103;0.0150795854949247
25:25.4;0.039425381815334344;-0.35621942091993397;-1.0514354545909597;1.103;0.014766450662496343
25:25.4;0.0401002141481391;-0.35130440929140977;-1.0595852093330178;1.103;0.014926781651803334
25:25.4;0.04264305874273832;-0.3414421499613502;-1.0686562855926511;1.099;0.01555978262736803
25:25.4;0.04692759572966563;-0.3267437393319398;-1.0784313863952169;1.092;0.01653590993507784
25:25.4;0.052577996646298475;-0.3076914739933055;-1.0884777726258328;1.0959999999999999;0.017609177111634972
25:25.4;0.058983816157911644;-0.285103444517133;-1.0981663852983854;1.119;0.018467303111376
25:25.4;0.06535712984329106;-0.2600595575554035;-1.1067327428620448;1.149;0.01881085561927932
25:25.4;0.07083299167409099;-0.23379684841291248;-1.1133727544463154;1.167;0.018438043142860135
25:25.4;0.07460144020969335;-0.20758549676805976;-1.1173561554978286;1.188;0.0173035752246183
25:25.5;0.07604751539677373;-0.1825995808945386;-1.1181351651526643;1.185;0.015526698219735038
25:25.5;0.07487014841749846;-0.1598011762529391;-1.1154273254748925;1.185;0.01334534929475849
25:25.5;0.07115308918786294;-0.13986009571075542;-1.1092568252110797;1.185;0.011038744741501802
25:25.5;0.06536971638390598;-0.12312625937281342;-1.099944943506847;1.1520000000000001;0.008853158385299202
25:25.5;0.05831574264436083;-0.10965683657120144;-1.0880465470009413;1.104;0.0069577528634522144
25:25.5;0.05097833994363838;-0.09928649220264636;-1.0742378300200663;1.0490000000000002;0.0054372123993799175
25:25.5;0.044365782818530104;-0.0917230033593225;-1.0591720049881868;0.997;0.004310155205155027
25:25.5;0.03933300065768935;-0.08664927370716952;-1.0433310937292624;0.9540000000000001;0.0035558559308018975
25:25.5;0.03643984826272291;-0.08381314131697452;-1.0269081994744838;0.9329999999999999;0.003136319510629693
25:25.5;0.035870354348313496;-0.08308810107634172;-1.00975270861414;0.9359999999999999;0.003009466596859875
25:25.6;0.037425952876914685;-0.08449213746560034;-0.9913993832103634;0.997;0.003135001895550722
25:25.6;0.04058634464611151;-0.08816125218140622;-0.9711812346254111;0.997;0.003475025302868765
25:25.6;0.044614037301897704;-0.09428851830710532;-0.9484019473373319;0.997;0.003989539544545152
25:25.6;0.04867337225162545;-0.10304927256779187;-0.9225293727614384;1.013;0.004627181871237907
25:25.6;0.051943568208025974;-0.11453156599858702;-0.8933719364605518;1.005;0.005314828858191507
25:25.6;0.05371528370852884;-0.12868402420569086;-0.8612059708372538;0.9670000000000001;0.005952913058163288
25:25.6;0.05346320890953512;-0.14528786255795925;-0.8268288649110663;0.9059999999999999;0.0064224389714843426
25:25.6;0.050888484436450984;-0.1639554568613603;-0.7915250994040082;0.836;0.006604045907222685
25:25.6;0.045929363664357285;-0.18415338948230292;-0.7569503489321846;0.7709999999999999;0.006402322381521824
25:25.6;0.03874415421026702;-0.20524479798686673;-0.7249556753172025;0.7190000000000001;0.005764873703964337
25:25.7;0.02967389057285687;-0.22654434282836158;-0.6973837150105686;0.662;0.004688128576930224
25:25.7;0.01919381139888314;-0.24737690254195463;-0.675871916151633;0.662;0.00320911123795798
25:25.7;0.007863222653214307;-0.26712867223186937;-0.6616950519447831;0.662;0.001389885313133086
25:25.7;-0.0037193592007932867;-0.28528224140683556;-0.6556681656888712;0.6809999999999999;0.0006957079384060904
25:25.7;-0.014954622397685942;-0.30143619172215913;-0.6581139614454524;0.7040000000000001;0.0029666885138701768
25:25.7;-0.02527694173543525;-0.31531612136089654;-0.6688846382904013;0.738;0.005331162556414704
25:25.7;-0.034186457314214866;-0.3267826953590419;-0.6874222559909869;0.778;0.007679567062303518
25:25.7;-0.04127769706859934;-0.33583776027192963;-0.7128407274587987;0.8109999999999999;0.009881832521200139
25:25.7;-0.04626204328869302;-0.3426263083683993;-0.7440136283531626;0.8370000000000001;0.011793057291011207
25:25.7;-0.04898038094675582;-0.347430644276908;-0.7796561092378105;0.862;0.013267630454007216
25:25.7;-0.04940229913725001;-0.35065314553978433;-0.8183960748781247;0.912;0.01417713379357651
25:25.7;-0.04761133022236563;-0.3527854355718963;-0.8588356606920166;0.912;0.014425505205922555
25:25.8;-0.043781820369838916;-0.3543642598352124;-0.899606952879516;0.9440000000000001;0.013957143119614566
25:25.8;-0.0381571990514251;-0.3559172905166334;-0.9394284550887474;0.992;0.012758196445007404
25:25.8;-0.031037627282345062;-0.3579047729630008;-0.9771700708936885;1.05;0.010854908337108978
25:25.8;-0.02277898917861783;-0.36066417571402853;-1.0119290904977847;1.1;0.008313569578323646
25:25.8;-0.013798544912123829;-0.36436387170461043;-1.0431092133944022;1.151;0.00524443106296567
25:25.8;-0.004577544309910045;-0.3689695737154485;-1.070486285178538;1.197;0.0018080241160810893
25:25.8;0.004350762298636769;-0.3742262279736101;-1.0942411851660043;1.22;0.001781609974326821
25:25.8;0.012437358172708092;-0.37965893231718567;-1.114941571006248;1.216;0.005264702950008858
25:25.9;0.019181332984984527;-0.3845971338741902;-1.1334614076701501;1.202;0.008361641930590425
25:25.9;0.024213230075579944;-0.3882241414478094;-1.1508411475445677;1.202;0.010818091448323443
25:25.9;0.027376659141343188;-0.38964922315760137;-1.168106528042795;1.202;0.01246053571949162
25:25.9;0.028782724538838973;-0.38799655429327107;-1.1860719242982423;1.194;0.013245574383516086
25:25.9;0.02881981245426924;-0.3825056707632286;-1.2051542125389814;1.187;0.01328530874057502
25:25.9;0.028112057888882023;-0.37263743518004677;-1.2252220051422054;1.185;0.012834941946159716
25:25.9;0.027427503875714902;-0.3581749071268514;-1.2455063046417347;1.198;0.012235659206131295
25:25.9;0.027546375554948585;-0.3393030141826372;-1.2645978015153418;1.24;0.011819649667746072
25:25.9;0.02911305375374108;-0.31664803233661143;-1.2805479028175066;1.2919999999999998;0.011804847610717591
25:25.9;0.032506144381952325;-0.29125867015066087;-1.291074103547161;1.351;0.012223497622162465
25:26.0;0.03776175217038886;-0.26451843291461763;-1.2938483858174632;1.413;0.01292383685816026
25:26.0;0.04457007877671835;-0.2379985234021497;-1.2868253076505942;1.413;0.013650144780805788
25:26.0;0.05233923357070791;-0.2132834158928536;-1.2685530273741568;1.413;0.014160972275487667
25:26.0;0.06030188697694821;-0.1918059322350864;-1.2384142546895514;1.369;0.014323820820469079
25:26.0;0.06764101740986248;-0.1747113761127619;-1.196762915049692;1.308;0.014142931526109443
25:26.0;0.07361664331813542;-0.1627545517847703;-1.1449441758487309;1.2309999999999999;0.01371808428234769
25:26.0;0.07767412175401028;-0.15623360093924935;-1.085202465308982;1.139;0.013169265878275098
25:26.0;0.0795140513783308;-0.15496933045174704;-1.0204941351762151;1.04;0.012574772941567504
25:26.0;0.0791118873439219;-0.15833643756135088;-0.9542296478681703;0.955;0.011952961504702616
25:26.0;0.0766885079610134;-0.16534528166684542;-0.8899739614955218;0.889;0.011284943654590589
25:26.1;0.07264477621464628;-0.17476455812156175;-0.831133587772099;0.7240000000000001;0.010551849465240447
25:26.1;0.06748001975522451;-0.18526772158389848;-0.7806601816918505;0.7240000000000001;0.009759711725105832
25:26.1;0.061714764825829826;-0.1955808878532489;-0.7408045182645991;0.7240000000000001;0.008941679808019546
25:26.1;0.055831935663913146;-0.2046122118394629;-0.7129481500272141;0.693;0.008144645410558636
25:26.1;0.05024098273700628;-0.21155206390849723;-0.6975191027980184;0.6729999999999999;0.007413640090271946
25:26.1;0.04526127380320635;-0.2159403869424051;-0.6939832987950093;0.6659999999999999;0.006782810229943139
25:26.1;0.04111761162468104;-0.21769791820180004;-0.7009068391537162;0.679;0.00627397023185209
25:26.1;0.03794098687670189;-0.21711727324063784;-0.7160917451100886;0.71;0.005898908591665794
25:26.1;0.03576968981780171;-0.21481286482976578;-0.7367858605038153;0.76;0.005661307490984017
25:26.1;0.0345490143304366;-0.21163401276486332;-0.7599574772928792;0.813;0.005556616455007355
25:26.2;0.034131662290775605;-0.20855114714926198;-0.7826116995527191;0.9359999999999999;0.005570784506154403
25:26.2;0.03428392225475705;-0.20652987991412108;-0.8021107802210128;0.9359999999999999;0.005679469182153943
25:26.2;0.034702766928208444;-0.20641055619933787;-0.816450362273299;0.9359999999999999;0.005848248170229356
25:26.2;0.0350465101075475;-0.20880906564775076;-0.8244490891448796;0.9440000000000001;0.0060333423679308565
25:26.2;0.03497817958193731;-0.21404860304539466;-0.8258305886591827;0.9309999999999999;0.006183018785787124
25:26.2;0.034216411110617254;-0.22212650023811312;-0.8211977990784151;0.898;0.00624140847174095
25:26.2;0.03258390916057832;-0.23271759145599755;-0.8119106931664255;0.8540000000000001;0.006156596074156325
25:26.2;0.030041551014193337;-0.24521331077284927;-0.7998864052972344;0.809;0.005892433742558172
25:26.2;0.026699753993754436;-0.2587920359539438;-0.7873500883605137;0.775;0.005440340068205481
25:26.2;0.022805981473122832;-0.2725124613056109;-0.7765714618468681;0.755;0.004826324961849855
25:26.3;0.01871352517586021;-0.2854192870406795;-0.7696217193989494;0.7829999999999999;0.004110704307828308
25:26.3;0.014839261639708761;-0.296648298090434;-0.7681774069729036;0.7829999999999999;0.0033815489864342154
25:26.3;0.011617474862957446;-0.30551626966553574;-0.7733850093996962;0.7829999999999999;0.0027449967461904675
25:26.3;0.009454363253951433;-0.3115839171555667;-0.7857889616374596;0.8059999999999999;0.002314798761366271
25:26.3;0.008685162294877377;-0.3146878430184191;-0.8053208861710958;0.8390000000000001;0.0022010345848200246
25:26.3;0.009535047773725606;-0.3149439409299581;-0.8313456409614546;0.884;0.0024965355511734006
25:26.3;0.012086221999700098;-0.31272597531071866;-0.8627554973953034;0.922;0.003260935870071198
25:26.3;0.016254895710492413;-0.30862182979702807;-0.8980988828055305;0.9520000000000001;0.00450541691731463
25:26.3;0.021782492114802862;-0.30336990005122766;-0.9357290529487284;0.981;0.006183440239145163
25:26.3;0.028245716591170988;-0.2977799643503278;-0.9739617124929205;1.023;0.008192000222552875
25:26.4;0.035088941429666745;-0.29264552259633086;-1.0112337507097013;1.156;0.010383976737246406
25:26.4;0.04167707182015759;-0.28865714966282435;-1.0462499011251216;1.156;0.01258678886344953
25:26.4;0.047359288834854185;-0.28632780763894133;-1.0780928345023848;1.156;0.014619242150180912
25:26.4;0.05153126522326845;-0.28593937799121066;-1.1062722409090953;1.175;0.016300720045323153
25:26.4;0.0536887998481291;-0.28751505048647746;-1.1307063904299999;1.183;0.017453966020186
25:26.4;0.053472591308899295;-0.2908180128054504;-1.151648267899765;1.1840000000000002;0.017909043528109757
25:26.4;0.05070575057582656;-0.2953751659072589;-1.169574636021301;1.187;0.017516976032209027
25:26.4;0.045423409907180884;-0.300524045935138;-1.1850560327514206;1.196;0.016176994800081133
25:26.4;0.03788964521403463;-0.30547967295107076;-1.1986253142893522;1.194;0.013873508391516956
25:26.4;0.028592031861265216;-0.30941511712053976;-1.2106619365256173;1.188;0.010710492357965406
25:26.5;0.01820283934609459;-0.3115472074516653;-1.2213079349252982;1.2429999999999999;0.006926090750684224
25:26.5;0.007504524953064697;-0.31121881892651326;-1.230427121198425;1.2429999999999999;0.0028737233154272354
25:26.5;-0.0027072236886738297;-0.30797016473514044;-1.237610064754068;1.2429999999999999;0.0010318501209946106
25:26.5;-0.01172201990639252;-0.30159225444576643;-1.2422198683437617;1.276;0.00439158314355187
25:26.5;-0.01900059146123248;-0.2921570174315103;-1.2434718317504505;1.2990000000000002;0.006902706282234336
25:26.5;-0.024241806080938053;-0.28002038832787485;-1.2405380541307052;1.305;0.008421020360190629
25:26.5;-0.027424166160836583;-0.2657964018018289;-1.2326625875928372;1.296;0.008985179218665316
25:26.5;-0.02881032550564744;-0.25030313202808446;-1.2192700101543872;1.287;0.008792539758239884
25:26.5;-0.028903742787783928;-0.23448500883082055;-1.200053182819395;1.274;0.008133353705664448
25:26.5;-0.028356331288339184;-0.21931850385077012;-1.1750296992089753;1.255;0.007307589781009717
25:26.6;-0.02784168791624072;-0.2057098160596879;-1.1445589736996495;1.126;0.006555242338868336
25:26.6;-0.027921665751155126;-0.19439728489380512;-1.1093185815947044;1.126;0.006021265904783536
25:26.6;-0.0289372897365133;-0.18587631702499333;-1.0702499303658382;1.126;0.005756614134436811
25:26.6;-0.030947690682735066;-0.18036300120970428;-1.0284864079793483;1.058;0.005740824327460471
25:26.6;-0.03372829359953246;-0.17780209968611976;-0.9852671962078032;0.983;0.00590860936486437
25:26.6;-0.03682710505596506;-0.17791327721878245;-0.9418349804557862;0.9159999999999999;0.006170931942668675
25:26.6;-0.039666179405405594;-0.18026276586159903;-0.899326434154899;0.87;0.006430485468123724
25:26.6;-0.041664276196869035;-0.18434585526277383;-0.8586766362648097;0.8390000000000001;0.006595183225319433
25:26.6;-0.04235017881601014;-0.18966595791998161;-0.8205589347635202;0.82;0.006591047111699984
25:26.6;-0.04143819830857939;-0.19579702183808248;-0.7853721845385733;0.809;0.006372098228291211
25:26.7;-0.038848784165267214;-0.20241879629978582;-0.7532750846886239;0.77;0.005923547458821304
25:26.7;-0.034676285328227925;-0.20932137449614355;-0.7242575439209167;0.77;0.005257014479487461
25:26.7;-0.029125732280674305;-0.21638521816949366;-0.6982335169352173;0.77;0.004400531509841887
25:26.7;-0.022447877306058853;-0.2235493009062446;-0.6751371324655333;0.7440000000000001;0.0033879780721907337
25:26.7;-0.014892684016080977;-0.2307795041827094;-0.6550035782288312;0.7190000000000001;0.0022511989808420467
25:26.7;-0.006688405410835934;-0.23804495060745012;-0.6380209024242005;0.6990000000000001;0.0010158193241637018
25:26.7;0.0019543120840940075;-0.245305314490679;-0.6245482506988685;0.6859999999999999;0.0002994103927173726
25:26.7;0.010819731970291405;-0.2525080220389061;-0.6151041015254878;0.682;0.0016805069206307865
25:26.7;0.019658883568151903;-0.2595908739408945;-0.6103307704356352;0.682;0.003114680737128299
25:26.7;0.028172332073431942;-0.2664842205227248;-0.6109401591479949;0.679;0.004586622219102903
25:26.8;0.03601583246119713;-0.2731085063052922;-0.6176434925433172;0.6809999999999999;0.006075283578399889
25:26.8;0.0428296628803149;-0.27936754594339963;-0.6310668563115468;0.6809999999999999;0.007550852389989967
25:26.8;0.048280961050182904;-0.28514301375115697;-0.6516558050382167;0.6809999999999999;0.00897133161418319
25:26.8;0.052105017359706615;-0.29029807584762757;-0.6795762696308653;0.6940000000000001;0.010279261331689842
25:26.8;0.05413669383167215;-0.2946959733945095;-0.7146245240846635;0.7190000000000001;0.011401023672514625
25:26.8;0.05432864677743813;-0.2982332299100647;-0.7561636172623171;0.76;0.012251822526970735
25:26.8;0.05275461714227182;-0.3008799171742123;-0.8031042403738444;0.8170000000000001;0.012747516870678292
25:26.8;0.04959729591668888;-0.30271488708681904;-0.8539429163239335;0.877;0.012820962172410594
25:26.8;0.045123127499078666;-0.30394388298025093;-0.9068613576425689;0.94;0.012437511550072946
25:26.8;0.03964887735559457;-0.30489215399022446;-0.9598814713299553;1.011;0.011603653506003196
25:26.9;0.03350622042007062;-0.3059692870170094;-1.0110610018547863;1.198;0.010365270374013733
25:26.9;0.027011729298930944;-0.3076112581162404;-1.0587002472913176;1.198;0.008796858964679488
25:26.9;0.02044914842053534;-0.3102105430871509;-1.101515039643862;1.198;0.006987506297684269
25:26.9;0.01406701435753149;-0.31404634842536694;-1.1387353075993525;1.23;0.0050305846964894645
25:26.9;0.008088858821534003;-0.31922434112220205;-1.1701163787860114;1.2409999999999999;0.0030214284431687457
25:26.9;0.00272873334774616;-0.3256329659045899;-1.1958762081813792;1.235;0.0010626143805511367
25:26.9;-0.0017957986869538084;-0.3329229808073423;-1.2165799957956933;1.228;0.0007273477424017776
25:26.9;-0.005257594028493685;-0.340515401494932;-1.2329948544074405;1.23;0.0022074205051698225
25:26.9;-0.007420557098343174;-0.34763903015919556;-1.2459396910373768;1.236;0.0032141198125049445
25:26.9;-0.008043927018580586;-0.3533945414860869;-1.2561550245823518;1.249;0.0035708466402657453
25:27.0;-0.0068867554322245995;-0.3568403213733448;-1.2642104723662322;1.3230000000000002;0.00310676186532283
25:27.0;-0.003712289809590004;-0.3570936771536101;-1.2704549399451424;1.3230000000000002;0.0016841598122469938
25:27.0;0.0017006436424026033;-0.3534363273507981;-1.275000887321195;1.3230000000000002;0.0007663638182981359
25:27.0;0.009527327504393033;-0.3454090385861491;-1.2777284813232421;1.304;0.004204780872466612
25:27.0;0.019841839959363915;-0.33288228916421886;-1.278302294979564;1.287;0.008443182960087652
25:27.0;0.03254539462492148;-0.316095267189291;-1.2762047591950763;1.3;0.013128886536635758
25:27.0;0.047301469945848724;-0.2956593277317019;-1.2707952681383365;1.3219999999999998;0.01777222534322382
25:27.0;0.06350607426679455;-0.27252352231336024;-1.2613970945973128;1.3319999999999999;0.021830872174981152
25:27.0;0.08031276141319925;-0.247900883530193;-1.247400892018324;1.3259999999999998;0.024835258429350145
25:27.0;0.09671359176682347;-0.22315776598515621;-1.2283631961998824;1.3130000000000002;0.026511012430813947
25:27.1;0.11165901225119798;-0.19967620797728589;-1.2040781327895997;1.2;0.026845702397167572
25:27.1;0.12418839268072447;-0.17870922187757804;-1.1746121928573907;1.2;0.026068886110209567
25:27.1;0.13354149025217105;-0.16125592959159799;-1.140308487744893;1.2;0.024555810235888546
25:27.1;0.13923004734990893;-0.1479796200250817;-1.1017728438866943;1.139;0.022700056727218546
25:27.1;0.14106310153018048;-0.13917689147971793;-1.0598454392252725;1.077;0.020807652962838513
25:27.1;0.13913094037813883;-0.13479207681175673;-1.0155552549500502;1.021;0.019045467740009564
25:27.1;0.13375827350220978;-0.1344660070821629;-0.9700603972327165;0.9740000000000001;0.017447449024545952
25:27.1;0.125440009875891;-0.1376076928764497;-0.9245844288688799;0.94;0.01595972369153148
25:27.1;0.11477374022414567;-0.14347739912557958;-0.8803573815348817;0.9079999999999999;0.0144972303652157
25:27.1;0.10240010269129406;-0.1512705643670935;-0.838562953924782;0.8759999999999999;0.01298944189524746
25:27.2;0.08895672434898036;-0.16019447500587009;-0.8002879325380265;0.775;0.01140440375112051
25:27.2;0.07504694709521997;-0.16953205825028356;-0.7664721567052529;0.775;0.009751720554610205
25:27.2;0.061222474715038465;-0.17868913883207663;-0.7378653222198326;0.775;0.008072092620785497
25:27.2;0.04797697920250744;-0.18722431143314408;-0.714998374559418;0.745;0.006422442080069721
25:27.2;0.03574446513627013;-0.1948638037723123;-0.6981683461203986;0.7170000000000001;0.004862953684944981
25:27.2;0.02489514475580908;-0.20150440938741446;-0.6874298251155011;0.6970000000000001;0.0034484789594298416
25:27.2;0.015725067706257957;-0.2072051554314001;-0.6825919301020229;0.69;0.0022240995917912555
25:27.2;0.008441222452502901;-0.2121661564242263;-0.6832276802877064;0.6920000000000001;0.0012236209591198345
25:27.2;0.0031474715951642627;-0.21669374748115144;-0.688704060262433;0.708;0.0004697219369935026
25:27.2;-0.0001629819032908192;-0.22115396558033854;-0.6982364611724252;0.732;2.5167300801736704e-05
25:27.3;-0.0016052867267987605;-0.22591981963678442;-0.7109638036435746;0.782;0.0002578424612232339
25:27.3;-0.0013908897232591721;-0.23131987478422164;-0.7260326562642161;0.782;0.00023359406382898534
25:27.3;0.00019170170806639963;-0.2375956295161953;-0.7426737858114881;0.7979999999999999;3.3826925352633946e-05
25:27.3;0.002800054227505456;-0.2448733731055025;-0.760257302538871;0.81;0.0005212770516417361
25:27.3;0.006062127289240695;-0.2531537099005974;-0.7783213827539895;0.823;0.0011944509202868462
25:27.3;0.009600720536840163;-0.26231937539371797;-0.7965774282631125;0.838;0.0020061444186894083
25:27.3;0.013059002882215256;-0.272159479666484;-0.8148979652190962;0.862;0.0028962544699285566
25:27.3;0.016127991097890825;-0.2824057991369853;-0.8332938353405142;0.8959999999999999;0.0037953519463275473
25:27.3;0.018573557429058654;-0.2927743902840444;-0.8518848470130119;0.9279999999999999;0.004632432196800411
25:27.3;0.02025680675116283;-0.30300479621063703;-0.8708633603121875;0.945;0.005345280580867226
25:27.4;0.02114112072710811;-0.31289068314135965;-0.8904466170302323;0.941;0.005890179447941744
25:27.4;0.021282789579409215;-0.3222990251417902;-0.9108156764337025;0.941;0.006247669392851158
25:27.4;0.020807628759755756;-0.33117761719010946;-0.9320472763422142;0.9390000000000001;0.0064227572722769495
25:27.4;0.019879579607032755;-0.3395516017553625;-0.9540546300775165;0.961;0.006440005276133496
25:27.4;0.018667572688558464;-0.34750889184807965;-0.9765574698969011;1.003;0.006335072347977731
25:27.4;0.017315580135114136;-0.3551726003132892;-0.9990969858825114;1.051;0.006144466067979654
25:27.4;0.015919572354576552;-0.3626585624380436;-1.0210985365144345;1.0979999999999999;0.005895178866138625
25:27.4;0.014514458501086807;-0.3700202514130603;-1.0419695951608097;1.14;0.005596047320657316
25:27.4;0.013073456359272345;-0.3771899960965864;-1.0612094127312772;1.168;0.005233011398497485
25:27.4;0.011520496633268734;-0.38392979260811005;-1.078504111796245;1.186;0.004770290427710071
25:27.4;0.009753450540415983;-0.3898046910257719;-1.093785787762701;1.194;0.004158508784890799
25:27.4;0.007674714077046311;-0.3941882466846688;-1.1072434930483708;1.194;0.0033497239041788557
25:27.5;0.005227224211117475;-0.39630596440270155;-1.1192837952330748;1.199;0.0023186860724266857
25:27.5;0.0024353490526431544;-0.39531986836540445;-1.1304458760249756;1.215;0.0010883275731303132
25:27.5;-0.0005534569893218792;-0.3904521199740387;-1.1412797870711382;1.2209999999999999;0.00024662879847504117
25:27.5;-0.0034403298042192045;-0.3811345145906014;-1.1521986762537797;1.1909999999999998;0.0015107956612693046
25:27.5;-0.005784145414147037;-0.36715713636274644;-1.1633216391170147;1.139;0.0024705348418760102
25:27.5;-0.007069408024868431;-0.3487833824552279;-1.1743355053461424;1.124;0.002895549711191402
25:27.5;-0.006832377453693593;-0.32680425115769507;-1.1844145820752612;1.143;0.002644620096484829
25:27.5;-0.004816196030789765;-0.3025147300300091;-1.1922360182896243;1.1740000000000002;0.0017370524001195094
25:27.5;-0.0011084114167094759;-0.2776040398858739;-1.1961101355341959;1.2570000000000001;0.000368042475259861
25:27.5;0.003784993219861882;-0.2539667623528274;-1.194214376558289;1.2570000000000001;0.001147953465590114
25:27.6;0.008961201819735948;-0.2334650390518596;-1.1848892318215192;1.297;0.002478939148229751
25:27.6;0.013248666126723695;-0.21768608843403636;-1.1669395973149082;1.321;0.0033655125028304324
25:27.6;0.015425450506264971;-0.2077348958901692;-1.1398871738735223;1.311;0.0036526594241437786
25:27.6;0.014482903383986693;-0.20409078602187997;-1.1041282673239283;1.256;0.003263612293647203
25:27.6;0.009870987484496404;-0.20654682804921737;-1.0609645510054555;1.169;0.0021631169709090793
25:27.6;0.001663020781416054;-0.21423994234063362;-1.0124966406170357;1.0659999999999998;0.0003607378478765144
25:27.6;-0.009401685982803843;-0.22576729113033236;-0.9613971459929957;0.9690000000000001;0.0020406550218909757
25:27.6;-0.022008868686684977;-0.23937328002536581;-0.9106008444038248;0.897;0.004797350378987812
25:27.6;-0.034476423005087256;-0.25318107966990794;-0.86296033880052;0.795;0.007532589219835916
25:27.6;-0.045034866254440434;-0.26543384696668904;-0.8209191755262323;0.795;0.009813085413985612
25:27.7;-0.052120630656267916;-0.27470809942649166;-0.7862522280705352;0.78;0.011257527470626449
25:27.7;-0.054621039685662266;-0.2800688054618012;-0.7599098635924308;0.775;0.011624834621606683
25:27.7;-0.05202822797476719;-0.28114921572822077;-0.7419794162186822;0.774;0.010853448960914308
25:27.7;-0.0444841334695383;-0.2781510568297627;-0.7317567601820627;0.78;0.009054252313906073
25:27.7;-0.03272111128728221;-0.27177137799178647;-0.7279075100970752;0.787;0.006473035093488937
25:27.7;-0.017921314608227497;-0.26307314655818104;-0.7286883845213359;0.8009999999999999;0.0034354863717046278
25:27.7;-0.001528872361757748;-0.25332496135820026;-0.7321947977513935;0.823;0.00028358016686511403
25:27.7;0.014950411735034867;-0.24383678073220538;-0.7366021274610909;0.8420000000000001;0.0026852537890513627
25:27.7;0.030132843547584793;-0.2358135645991276;-0.7403729760315186;0.8420000000000001;0.005260892872051249
25:27.7;0.042902527032768034;-0.23024108940155572;-0.7424092610506926;0.8420000000000001;0.00733346267486627
25:27.8;0.05250506497256087;-0.2278111064756925;-0.7421365232475375;0.823;0.008876870801569662
25:27.8;0.058584129321718255;-0.2288870741297249;-0.7395179519017401;0.795;0.009916307108422175
25:27.8;0.06116513960953654;-0.23350674028815707;-0.7350057354357844;0.77;0.010497699107780412
25:27.8;0.06059773544947903;-0.24141447117938977;-0.7294459370559676;0.7559999999999999;0.010671188807347303
25:27.8;0.05747217580020728;-0.2521148181948916;-0.7239577646125124;0.753;0.010489849125541146
25:27.8;0.05252447201569905;-0.2649387514173033;-0.719806721049707;0.76;0.010016663359940255
25:27.8;0.04654297659699962;-0.27911447890794183;-0.7182847124336761;0.765;0.009331106445257833
25:27.8;0.0402870703627337;-0.29383619872904726;-0.7206025134772357;0.768;0.008530348155394874
25:27.9;0.03442574984778917;-0.3083268136012926;-0.7277949387187352;0.785;0.007725093319939325
25:27.9;0.02949830761771839;-0.3218925294591032;-0.7406384915686205;0.785;0.007032573451155098
25:27.9;0.025892152718512484;-0.33396686804257525;-0.7595840647497543;0.8009999999999999;0.006568215431714518
25:27.9;0.023829128157856573;-0.34414162494041634;-0.7847107032574122;0.821;0.006435094579461622
25:27.9;0.02335442250625961;-0.3521846686785403;-0.8157081979170959;0.8540000000000001;0.006709256662449817
25:27.9;0.024328434307629907;-0.3580463706712552;-0.8518953308564031;0.904;0.007420611139677273
25:27.9;0.026426483667763068;-0.3618552046543652;-0.8922768738647234;0.9640000000000001;0.00853245172818258
25:27.9;0.02915168967370146;-0.36389997904538063;-0.9356361480367291;1.028;0.009925508258154742
25:27.9;0.0318641220827837;-0.36459464675427894;-0.9806520203101637;1.0859999999999999;0.011392713406557039
25:27.9;0.03382723405154511;-0.3644240223412486;-1.026022347113843;1.128;0.012648246054962457
25:28.0;0.03427132732814577;-0.36387413342643476;-1.0705733122428458;1.188;0.01335053046159693
25:28.0;0.03247182407936326;-0.36335601346675467;-1.1133368649728757;1.188;0.01313607523874152
25:28.0;0.0278367827592233;-0.36313378893988446;-1.1535858597346114;1.22;0.011660995433025198
25:28.0;0.019994781230688048;-0.3632667328226251;-1.190827058637419;1.253;0.00864949952273771
25:28.0;0.008871887364613805;-0.36357314317619865;-1.2247606458787228;1.2819999999999998;0.003950563413585318
25:28.0;-0.005254320727897592;-0.36362438502336775;-1.255215674933531;1.304;0.0023982139933068627
25:28.0;-0.02173351639337649;-0.3627788943498953;-1.2820668201628829;1.319;0.01010840590389778
25:28.0;-0.03956111858586551;-0.3602623079163683;-1.3051371615684355;1.314;0.018601310629352674
25:28.0;-0.057444255103358544;-0.355287332445617;-1.324098257413525;1.2890000000000001;0.027023807552629012
25:28.0;-0.07392358125852927;-0.3471916020724942;-1.3383900599746525;1.287;0.0343506463030831
25:28.0;-0.08754868659705213;-0.33556523178789865;-1.3471913279883272;1.3769999999999998;0.03957818467360923
25:28.0;-0.09708108285575617;-0.3203448189180634;-1.3494651352451021;1.3769999999999998;0.04196758559084939
25:28.1;-0.10167833747910678;-0.301858806039941;-1.3440828346975224;1.416;0.04125326448939144
25:28.1;-0.10101383697639628;-0.28081554514721013;-1.3300073133846515;1.431;0.037727327531596765
25:28.1;-0.09530728619778284;-0.2582345447969255;-1.3065031847853508;1.429;0.03215517776885578
25:28.1;-0.08526647888939824;-0.23533413032605796;-1.2733354042072569;1.406;0.025550891668934296
25:28.1;-0.07196227181508835;-0.213397125814451;-1.2309169873639652;1.354;0.01890262838101721
25:28.1;-0.05667214369084215;-0.19363559601712083;-1.1803741051328829;1.2770000000000001;0.012953123633027561
25:28.1;-0.04072780949125323;-0.1770713238050197;-1.1235120872377433;1.18;0.008102462614228778
25:28.1;-0.02538951231177495;-0.16444583264984647;-1.0626841640142433;1.082;0.004436918382474908
25:28.2;-0.011753352251878641;-0.1561703767473973;-1.0005826529417268;0.9129999999999999;0.0018365949235233606
25:28.2;-0.00068795739935783;-0.1523186279184637;-0.9399882557456949;0.9129999999999999;9.85001728428871e-05
25:28.2;0.007205230345826401;-0.15265521781148828;-0.8835211980033478;0.847;0.0009717991089357857
25:28.2;0.011612308978947123;-0.15668841008303802;-0.8334289410916801;0.7959999999999999;0.001516435819097111
25:28.2;0.012510681086930495;-0.16373671755261496;-0.7914249927996349;0.752;0.001621200743556522
25:28.2;0.010157336818855375;-0.17300256155449661;-0.7585807433636641;0.721;0.0013330124370206785
25:28.2;0.005061068316132214;-0.18364737401550205;-0.7352719220744369;0.703;0.0006833998893788547
25:28.2;-0.0020621027098291383;-0.19486239143262368;-0.7211830453396687;0.6990000000000001;0.00028979028979089777
25:28.2;-0.010349190682196325;-0.20592919895925157;-0.715371735670294;0.716;0.001524600634412679
25:28.2;-0.018862377195784697;-0.21626442318788175;-0.7163906519947105;0.747;0.002922344536421334
25:28.3;-0.026666476968384194;-0.2254444820187294;-0.7224576469575764;0.807;0.0043432781697000915
25:28.3;-0.032903265977705556;-0.2332095165883779;-0.7316549178262239;0.807;0.005614247741140274
25:28.3;-0.03685417630784219;-0.2394497441390664;-0.7421303782477414;0.828;0.006549095082760625
25:28.3;-0.03798580122256786;-0.24418038672072948;-0.7522759397937673;0.8390000000000001;0.006977650948132783
25:28.3;-0.035977582315204114;-0.2475117174627649;-0.7608666780018796;0.845;0.0067754212813379965
25:28.3;-0.030735271504608475;-0.24961939832762658;-0.7671538407964164;0.848;0.005885696310027532
25:28.3;-0.022395317367224037;-0.25071859336838875;-0.7709095939516292;0.85;0.004328597600144851
25:28.3;-0.011323538342307196;-0.251043583354381;-0.7724242045760411;0.85;0.002195771554439852
25:28.3;0.0018935427785212544;-0.25083254985396525;-0.7724581790988545;0.845;0.00036688840787621924
25:28.3;0.016472648379152965;-0.2503156409055315;-0.7721526981515163;0.8390000000000001;0.003183864735815663
25:28.4;0.03148370999619723;-0.2497044253165909;-0.7729028689985874;0.795;0.006076269975749416
25:28.4;0.0459296496070236;-0.24918211067873364;-0.7762023111539851;0.795;0.00888351671689693
25:28.4;0.05884520209532397;-0.2488952663586614;-0.7834740966818124;0.795;0.01147499058987169
25:28.4;0.06939572529815206;-0.2489484024119509;-0.7959067153275365;0.795;0.013750048556167332
25:28.4;0.07696110151877958;-0.24940267588658266;-0.8143114586647877;0.8059999999999999;0.015630142224081826
25:28.4;0.08119452524630803;-0.2502799344288216;-0.8390137849424383;0.826;0.01704990155021474
25:28.4;0.08204505043538417;-0.25157301887430217;-0.8697894834328808;0.85;0.017952734159374126
25:28.4;0.0797358906313384;-0.25326136573710223;-0.9058549957957112;0.888;0.018292854409075993
25:28.4;0.07470193283621555;-0.2553276628792831;-0.9459181943284605;0.94;0.018041942229744055
25:28.4;0.06750153158445159;-0.25776913284323916;-0.9882910796037395;1.001;0.017196078257136548
25:28.5;0.058722411365237065;-0.2605978927101656;-1.031057349247653;1.169;0.015778205304900244
25:28.5;0.04890017108679291;-0.26382827691262073;-1.0722724690886978;1.169;0.013833652917069852
25:28.5;0.038463620518325116;-0.26745302815521865;-1.1101581586632998;1.169;0.011420432089062005
25:28.5;0.0277146554373157;-0.27141292569382036;-1.1432554250641778;1.21;0.00859969960123556
25:28.5;0.016841972430541675;-0.27556543984554177;-1.1705230147749928;1.2409999999999999;0.005432474028455274
25:28.5;0.00596050468293729;-0.2796589130045272;-1.1913870271033233;1.263;0.001985932877036668
25:28.5;-0.0048355199592406755;-0.2833203700197862;-1.2057478117967972;1.272;0.0016518760745654324
25:28.5;-0.015418412468708367;-0.28606613825569766;-1.2139440823497856;1.2790000000000001;0.005354325820348773
25:28.5;-0.02558221782065315;-0.28734336321681486;-1.2166728886831562;1.286;0.008943617020976522
25:28.5;-0.0350166849506396;-0.2866053814968552;-1.2148661183514355;1.2830000000000001;0.012192360341820129
25:28.6;-0.04331178979769402;-0.28341321726194135;-1.2095284758961022;1.145;0.014847123745829926
25:28.6;-0.050003003827665246;-0.2775428176680874;-1.201554627853243;1.145;0.016675144574857692
25:28.6;-0.05465403501915529;-0.26907191634279826;-1.1915630596614173;1.145;0.01752296661261455
25:28.6;-0.05695872254195564;-0.25842510267457125;-1.1797921461385448;1.127;0.017366025672760046
25:28.6;-0.05683981876106555;-0.24636458727109764;-1.1660887471323937;1.145;0.01632911211327309
25:28.6;-0.05452244961819474;-0.23392215076834075;-1.1499955141464868;1.185;0.01466705276920896
25:28.6;-0.05055807932493273;-0.22227698622005623;-1.1309222954333076;1.229;0.012709188838150799
25:28.6;-0.04578080112052875;-0.212596692502447;-1.1083662321213386;1.247;0.01078755884452334
25:28.6;-0.041195806241561536;-0.20587040844227672;-1.0821267667321544;1.238;0.009177514356871058
25:28.6;-0.03782001629154354;-0.20276721931565483;-1.0524573085893296;1.2;0.008070936777755647
25:28.7;-0.036507802895598386;-0.20354637638540288;-1.0201110056520546;0.988;0.007580476495415794
25:28.7;-0.037797223666223186;-0.20803076758590494;-0.9862731461511537;0.988;0.0077550513997866975
25:28.7;-0.04180492335749895;-0.21563891168234453;-0.9524129545278615;0.988;0.00858578199267351
25:28.7;-0.0481860640924189;-0.22546303228575051;-0.9201030240269881;0.925;0.009996161305431125
25:28.7;-0.056166003985085644;-0.23638224062866958;-0.8908372124855876;0.873;0.011827330197234844
25:28.7;-0.06464339770703709;-0.24720056133006224;-0.8658594922247601;0.838;0.013836334418756657
25:28.7;-0.07235427549171346;-0.25679473460798247;-0.846018653458855;0.83;0.015719193223799454
25:28.7;-0.07807100289439022;-0.26425227031182646;-0.8316714507924239;0.847;0.01715774776598746
25:28.7;-0.0807957282829399;-0.2689796437335096;-0.822653231240692;0.8690000000000001;0.01787823419025081
25:28.7;-0.07990523536979961;-0.2707619188794729;-0.8183222787230469;0.892;0.017704643788424002
25:28.8;-0.07521682328479995;-0.2697603256825664;-0.8176686306618753;0.9009999999999999;0.016590917407880997
25:28.8;-0.0669694720370346;-0.26644875737201196;-0.8194636924760015;0.9009999999999999;0.01462245490171022
25:28.8;-0.055740752687488244;-0.261509805657446;-0.8224184005900093;0.9009999999999999;0.011988190219082985
25:28.8;-0.042331424594867995;-0.25572008149755243;-0.8253208569398043;0.884;0.008934094436408921
25:28.8;-0.027642733346393472;-0.24984673998828097;-0.8271382273526864;0.866;0.0057125861725245185
25:28.8;-0.012562990195355768;-0.24456542223981834;-0.8270828114989885;0.858;0.00254118960851887
25:28.8;0.0021201065317642412;-0.2404050652148395;-0.8246509822880629;0.86;0.00042031169908542245
25:28.8;0.015766766045110108;-0.23772292425683073;-0.8196451290666743;0.8690000000000001;0.0030721297194031866
25:28.8;0.027888572107008455;-0.23670816786767168;-0.8121843752061255;0.882;0.005361596824233268
25:28.8;0.03812026294915352;-0.23740630829113393;-0.8027022547453211;0.89;0.007264448099125482
25:28.9;0.04618299220675752;-0.23975322353591466;-0.791923349385945;0.8270000000000001;0.008768588117697214
25:28.9;0.0518612636811822;-0.24360823578775723;-0.7808119562764103;0.8270000000000001;0.009864646260191108
25:28.9;0.055002935447188164;-0.24878005795954866;-0.7704945279496958;0.8270000000000001;0.010543164709946089
25:28.9;0.055538467810993405;-0.2550448468675829;-0.7621645433207113;0.797;0.010795908337035818
25:28.9;0.053510485369119495;-0.2621592322935849;-0.7569779365446243;0.774;0.010619089185307474
25:28.9;0.04910288819542193;-0.2698721486797277;-0.7559467987931693;0.764;0.010017430473525565
25:28.9;0.04265602538756441;-0.2779383647804295;-0.7598439361007266;0.7659999999999999;0.009008516663690772
25:28.9;0.034656047293417466;-0.2861345231929314;-0.7691343142039557;0.784;0.007626960114641442
25:28.9;0.025694933783953246;-0.29427595402541235;-0.7839458975780845;0.812;0.0059277294137523836
25:28.9;0.016407233007928;-0.30223070632731786;-0.8040842931447636;0.8490000000000001;0.003987268765459323
25:29.0;0.0073951871231445416;-0.3099270063200656;-0.8290861454733706;0.95;0.0019002390856697204
25:29.0;-0.0008435938662570257;-0.31735125048461643;-0.8582955642291074;0.95;0.00022977908479659073
25:29.0;-0.007970729580809433;-0.3245349333205389;-0.8909397864605505;0.95;0.0023046653927932164
25:29.0;-0.01383164900998551;-0.3315309636874544;-0.9261846966632853;0.976;0.004247130999867119
25:29.0;-0.01844641644633701;-0.33838276978132065;-0.9631680099436409;1.004;0.006012046068116093
25:29.0;-0.021973506610501417;-0.3450918430711373;-1.0010222673194544;1.036;0.007590629623213178
25:29.0;-0.02466068344534895;-0.3515894586061164;-1.0389013861377365;1.081;0.009007728333506795
25:29.0;-0.026798490504353123;-0.35771660112679443;-1.0760188263228103;1.137;0.01031500154799364
25:29.0;-0.028685541673011957;-0.36321373625136505;-1.1116982804625384;1.203;0.01158276522674177
25:29.0;-0.03060399426209224;-0.3677198914520855;-1.1454292489976543;1.2590000000000001;0.012890314216374528
25:29.1;-0.03279598301064161;-0.37077981025176787;-1.1769108099188628;1.3130000000000002;0.014311339437752585
25:29.1;-0.035432996034707905;-0.37186002540737123;-1.2060610006866979;1.3130000000000002;0.015891198207756432
25:29.1;-0.03857825643463044;-0.37037856701039784;-1.2329711235678782;1.3130000000000002;0.01761738105869651
25:29.1;-0.04214979857939124;-0.36575453456207213;-1.2577967550214533;1.29;0.019390798469164236
25:29.1;-0.04589587930403185;-0.35747940834914094;-1.280597404463784;1.244;0.021010546192005663
25:29.1;-0.04939716959914035;-0.3452033144992418;-1.3011578757531579;1.209;0.022187430848797086
25:29.1;-0.05210909028093085;-0.3288223152254153;-1.3188402462635274;1.224;0.02259784190466565
25:29.1;-0.05344588810683788;-0.3085507744414906;-1.3325187185369936;1.284;0.021974259929390446
25:29.1;-0.05288956017117539;-0.2849631577729214;-1.3406335973820562;1.3559999999999999;0.020205461257810253
25:29.1;-0.050094196924298964;-0.25898955017756836;-1.3413681540092721;1.416;0.01740274078451019
25:29.2;-0.04495652236777519;-0.23185407976223696;-1.3329170204338985;1.4340000000000002;0.013893464787494161
25:29.2;-0.03763628682799716;-0.20496204608783036;-1.313791641265699;1.4340000000000002;0.010134602325580952
25:29.2;-0.02853041760401586;-0.17976172298669651;-1.2831035369911041;1.4340000000000002;0.006580623632181376
25:29.2;-0.018218474762732407;-0.15761057937784398;-1.240776205442218;1.367;0.003562795025008527
25:29.2;-0.007395496847267311;-0.13966040714079944;-1.1876536604774244;1.2770000000000001;0.0012266777040475633
25:29.2;0.0031983984436212334;-0.12676307611961332;-1.1254934301459554;1.178;0.0004563187342795907
25:29.2;0.012844593377759743;-0.11940049158099326;-1.0568521360926844;1.081;0.0016208420853855024
25:29.2;0.020902903061570863;-0.11764774032475488;-0.9848872413173568;0.993;0.0024220143279303553
25:29.2;0.026856181520039584;-0.12117673863502733;-0.9131040934455527;0.917;0.0029715552741949253
25:29.2;0.03034230361502118;-0.12930132045328102;-0.8450738292008887;0.846;0.003315478089047191
25:29.3;0.031173937866218318;-0.14105873966458346;-0.7841421274745393;0.66;0.0034481523916177407
25:29.3;0.029346897362956464;-0.15531667651282907;-0.733151666451454;0.66;0.003341751164863356
25:29.3;0.025037972063949494;-0.17088890481945873;-0.6942115833549511;0.66;0.0029703311718469877
25:29.3;0.018592289806367224;-0.18664289454094285;-0.6685454945780973;0.634;0.0023199322797666697
25:29.3;0.01049888634243893;-0.20159027030445678;-0.6564284324523413;0.633;0.0013893132740597453
25:29.3;0.0013528821160215892;-0.2149564216003556;-0.6572048340716494;0.648;0.0001911221968586309
25:29.3;-0.008195237011012147;-0.22622427059579664;-0.6693783438019613;0.679;0.0012410016885010184
25:29.3;-0.01749853107427546;-0.2351471139827678;-0.6907666747876413;0.7240000000000001;0.0028423177249714405
25:29.3;-0.025972166227624025;-0.24173091407145045;-0.7187104746311985;0.7709999999999999;0.00451226235197867
25:29.3;-0.0331426371570899;-0.24619260764406173;-0.7503182123942662;0.815;0.006122200644634384
25:29.4;-0.038681793835752654;-0.2489035546824612;-0.7827243568206859;0.929;0.007536098275537674
25:29.4;-0.042423667637117565;-0.25032682679271717;-0.8133337833523603;0.929;0.008637427554184278
25:29.4;-0.04436449716247744;-0.2509559225837338;-0.8400218046513582;0.929;0.009352410747725618
25:29.4;-0.04464741464933391;-0.2512611297085955;-0.8612654635571202;0.945;0.009661813637749091
25:29.4;-0.04353349971262844;-0.2516474664822403;-0.8761999096007869;0.9440000000000001;0.009598853169624532
25:29.4;-0.04136075910189887;-0.25242536070861266;-0.8846099245836828;0.937;0.009235773929745549
25:29.4;-0.03849340273753867;-0.2537930810003059;-0.8868717991613235;0.927;0.00866416924037181
25:29.4;-0.03526674116057042;-0.2558292380059159;-0.8838601908598215;0.9179999999999999;0.007974419555060647
25:29.4;-0.03193721986693454;-0.25849469586697543;-0.8768332743480457;0.9079999999999999;0.007238786477555043
25:29.4;-0.02864993521356423;-0.2616450041644944;-0.867307003387967;0.892;0.006501430798545184
25:29.5;-0.025434262638494447;-0.2650548592895453;-0.8569267113750989;0.867;0.005776949919970443
25:29.5;-0.02222985184684173;-0.26845342624577806;-0.8473441883732644;0.867;0.005056678875592544
25:29.5;-0.01893350666182122;-0.27156476247865313;-0.8401097825420674;0.867;0.004319569987143313
25:29.5;-0.015450924220166274;-0.27414557235583853;-0.8365872715722175;0.875;0.0035436184260793442
25:29.5;-0.011739600190985341;-0.27601528354154703;-0.8378928004049049;0.885;0.0027150316453469214
25:29.5;-0.007834975617429485;-0.27707719511543566;-0.8448526714212994;0.892;0.0018340848077643345
25:29.5;-0.0038563269392361084;-0.2773304410362139;-0.8579725932100583;0.894;0.0009175818270917623
25:29.5;7.154884827127264e-06;-0.27687163491221656;-0.8774137127410667;0.897;1.7381431051463848e-06
25:29.5;0.0035252708610422783;-0.2758845533585681;-0.9029769056776484;0.9059999999999999;0.0008782062418071112
25:29.5;0.006462274545450026;-0.2746168116431263;-0.9341035845895636;0.9259999999999999;0.001657706208658452
25:29.6;0.008608888262864942;-0.27334407116407905;-0.96990369164639;1.053;0.0022823662772725926
25:29.6;0.009802717009159807;-0.27232500364061485;-1.0092135684397674;1.053;0.0026941207959916957
25:29.6;0.009934363219759572;-0.27175355634360127;-1.0506715644742597;1.053;0.0028364964833549723
25:29.6;0.00894212596721558;-0.27171649660260844;-1.0927951916053076;1.109;0.002655189764314346
25:29.6;0.006800495512181118;-0.2721622909153711;-1.1340564840111378;1.169;0.0020989553314198148
25:29.6;0.0035082893009592735;-0.2728849687616696;-1.1729620527857396;1.224;0.0011229462661960332
25:29.6;-0.0009165751819604575;-0.2735266960853627;-1.2081376383038482;1.2690000000000001;0.00030288950672623555
25:29.6;-0.00642875918378928;-0.2736040891642361;-1.2384054161708582;1.3130000000000002;0.002178274384171647
25:29.6;-0.012931261038206084;-0.272562063767802;-1.2628383007035402;1.344;0.004450963499478376
25:29.6;-0.020243063997711933;-0.26985244932331504;-1.280778464572926;1.34;0.006996432186063987
25:29.7;-0.02807739198794662;-0.2650251534348807;-1.291814941831513;1.285;0.00961267287695528
25:29.7;-0.036049457089077815;-0.25781445007154763;-1.2957283473729355;1.285;0.012042591198627798
25:29.7;-0.04371842333447988;-0.2482047789643583;-1.2924252680683181;1.285;0.01402426374324512
25:29.7;-0.05065397973457413;-0.23646480192539746;-1.281889667815468;1.2770000000000001;0.015354324824917009
25:29.7;-0.056514338563589;-0.22314206249582885;-1.2641694669845962;1.272;0.015942094851251098
25:29.7;-0.06112102645356306;-0.2090153254904473;-1.239402332392523;1.263;0.015833651393852854
25:29.7;-0.06450946245157504;-0.19500927475167265;-1.2078741948414105;1.247;0.015194989110875237
25:29.7;-0.06693230815938205;-0.1820844934319017;-1.1700969687447909;1.236;0.014260364238370503
25:29.7;-0.06880361708193655;-0.17112045414867832;-1.126886018113149;1.225;0.013267624900555455
25:29.7;-0.07059187081139619;-0.1628085101320332;-1.0794124690876585;1.198;0.012405641431678952
25:29.8;-0.07268865444722898;-0.15756738612713006;-1.0292043061045466;0.986;0.011787848751163713
25:29.8;-0.07528785397244359;-0.15548948013281366;-0.9780834762069865;0.986;0.011449904162103891
25:29.8;-0.07830508227023747;-0.1563244087588622;-0.9280520928368873;0.986;0.011360281667313642
25:29.8;-0.08135447040589709;-0.1595047026921149;-0.8811529935767096;0.899;0.011434211870612535
25:29.8;-0.08378792347824492;-0.1642146673967825;-0.8393168972405035;0.821;0.011548334076534111
25:29.8;-0.08479190073110009;-0.16949675789962382;-0.804198247484625;0.767;0.01155789882852153
25:29.8;-0.08352647367583321;-0.17438213863777402;-0.7770131639039638;0.738;0.011317604751557925
25:29.8;-0.07928156759507995;-0.17802601181691613;-0.7584073786670851;0.726;0.010704299233836099
25:29.8;-0.07161888968979857;-0.179825521401658;-0.7483823562098851;0.7340000000000001;0.009638344656135538
25:29.8;-0.06046727074844062;-0.17949880321397285;-0.7462976123774606;0.753;0.008100167064824273
25:29.9;-0.04614692673154463;-0.17710912987727964;-0.750952790120527;0.81;0.006137568723661136
25:29.9;-0.02931881150585384;-0.17303108692990302;-0.7607346942497055;0.81;0.003859257177274695
25:29.9;-0.010882709623110644;-0.16787353595176607;-0.7737975029472606;0.81;0.0014136653178579608
25:29.9;0.008139669578709404;-0.1623836459628082;-0.7882418784947606;0.8270000000000001;0.0010418580905337696
25:29.9;0.026711452239736283;-0.1573507485330508;-0.802273079961003;0.84;0.0033720075108441623
25:29.9;0.043867492573286114;-0.15351937202793167;-0.8143336221333254;0.853;0.005484137850168584
25:29.9;0.05877703610050745;-0.1515178562207076;-0.8232109682441376;0.868;0.007331327960344934
25:29.9;0.07078055940320811;-0.15180855832707066;-0.8281191913857943;0.8859999999999999;0.008898219118249525
25:29.9;0.07940504164617698;-0.15466229238291593;-0.8287510787761192;0.897;0.010177863628442564
25:29.9;0.08436631463999318;-0.16015505691876006;-0.8252944598533095;0.9;0.011151124487456823
25:30.0;0.08556680373036847;-0.16818262387946942;-0.8184055371413673;0.841;0.011777550970908502
25:30.0;0.08309298970693055;-0.17848775501143133;-0.8091371382428727;0.841;0.012000378591106501
25:30.0;0.07721209931439434;-0.19069436042743512;-0.7988301359597478;0.841;0.01176190454175543
25:30.0;0.06836450310323658;-0.20434453952035753;-0.7889821075812012;0.81;0.011022011327434987
25:30.0;0.05714773845024673;-0.21893842403993477;-0.7811044196826376;0.7829999999999999;0.009773050236836394
25:30.0;0.04428924625642498;-0.23397822392408557;-0.7765769027411326;0.765;0.008047448363238847
25:30.0;0.030606860066858237;-0.2490143312502364;-0.7765143316227053;0.759;0.0059182403125140285
25:30.0;0.0169575775621031;-0.2636869415124074;-0.78166416795807;0.767;0.003495204888308549
25:30.0;0.004175777840404234;-0.27775541689770733;-0.7923539163795955;0.7859999999999999;0.000919007660740665
25:30.0;-0.006996783520380765;-0.29110916214882193;-0.8085002697197521;0.8170000000000001;0.0016467758162574846
25:30.1;-0.015983666039170823;-0.3037565183383582;-0.8296823230287932;0.966;0.004028226112421081
25:30.1;-0.022438613618712383;-0.3157915946851913;-0.855264475414226;0.966;0.006060340421589419
25:30.1;-0.026288412026353358;-0.3273428214879473;-0.8845354206180079;0.966;0.007611712968527622
25:30.1;-0.027741501001267484;-0.33851060162484425;-0.9168259991075902;1.0070000000000001;0.00860972243559813
25:30.1;-0.02725791616213688;-0.3493037638840164;-0.9515866922523841;1.044;0.009060335436893241
25:30.1;-0.02548501296559314;-0.3595848951136545;-0.9884241452977346;1.077;0.009057944284047497
25:30.1;-0.023169428147917493;-0.3690333363899965;-1.027100044665351;1.103;0.00878200464974843
25:30.1;-0.021057877223877627;-0.37713284796542934;-1.0674939091122821;1.1340000000000001;0.008477627999693042
25:30.1;-0.01979804659411177;-0.38318941222376457;-1.109533578918942;1.163;0.008417367581963374
25:30.1;-0.019848080514157068;-0.3863827129080353;-1.1531016852661555;1.19;0.008843085159674064
25:30.2;-0.02140204878623054;-0.3858511433916516;-1.197929365282239;1.274;0.009892506682266876
25:30.2;-0.024340921725678307;-0.38080348111115925;-1.2434882357928707;1.274;0.011526026414314631
25:30.2;-0.02822232761165088;-0.3706418262672244;-1.2888900527089735;1.274;0.013482273346320427
25:30.2;-0.03232282071711384;-0.35507546369505094;-1.332807338773631;1.287;0.015296683877855342
25:30.2;-0.03573879072770973;-0.3342070770976011;-1.3734389304069228;1.31;0.01640456992367537
25:30.2;-0.03753590863073015;-0.30857746681192505;-1.4085509836828711;1.374;0.01631487362277293
25:30.2;-0.036917712533525444;-0.279159507961573;-1.4356157257111513;1.4580000000000002;0.014795355844968673
25:30.2;-0.033372238322414725;-0.24729762829535035;-1.4520472546511893;1.544;0.011983565050182379
25:30.2;-0.02675922695136778;-0.21459602102538475;-1.4555039628047148;1.609;0.008358120348809771
25:30.2;-0.017316879474168195;-0.18276661851538634;-1.4442016303981473;1.635;0.004570822346458824
25:30.3;-0.005589082347601643;-0.1534564021657567;-1.4171722288421864;1.442;0.0012154809411375844
25:30.3;0.007702612404022231;-0.12808121993679356;-1.374421937789218;1.442;0.0013559496978843794
25:30.3;0.021800082695748704;-0.10769490549756071;-1.3169803735926489;1.442;0.003091951004811002
25:30.3;0.03602133107839597;-0.092912982609279;-1.2468578101559324;1.318;0.004173045199157227
25:30.3;0.049823824301618955;-0.08389355407449081;-1.1669216618880536;1.193;0.0048776131685590385
25:30.3;0.06282023417003;-0.08036613378686666;-1.0806960293442835;1.075;0.005456022878548821
25:30.3;0.0747597503641955;-0.08169670669694659;-0.9921003210185234;0.9670000000000001;0.006059377118255413
25:30.3;0.08549044443808111;-0.08697816442467274;-0.905157878448114;0.865;0.006730574702301436
25:30.3;0.09491673926688866;-0.09513525388813474;-0.8237066224371458;0.779;0.007438011566537496
25:30.3;0.1029627396029398;-0.10503360219032785;-0.7511361659334814;0.7070000000000001;0.008123197694289245
25:30.4;0.1095477499123012;-0.11558413068033942;-0.690168786167007;0.598;0.00873890436201863
25:30.4;0.11457550044633455;-0.12583531004926002;-0.6426993508492288;0.598;0.009266210197093578
25:30.4;0.11793498103669547;-0.13504543156703527;-0.6097091676775779;0.598;0.009710582086310744
25:30.4;0.11951011731302605;-0.14272857088215793;-0.5912612557833892;0.594;0.010085443748458458
25:30.4;0.1191968143238587;-0.14867272928892475;-0.5865687513199156;0.603;0.010394770026630544
25:30.4;0.11692587795545531;-0.15293266787792784;-0.5941172742493824;0.623;0.01062387823014456
25:30.4;0.11268821623590819;-0.15580064644616204;-0.6118226447274993;0.647;0.01074170711684824
25:30.4;0.1065568099759624;-0.15775833026274474;-0.6372098657925808;0.6779999999999999;0.010711640846568294
25:30.4;0.09869976156417558;-0.15941449147314132;-0.667601930606491;0.7090000000000001;0.010504163802822458
25:30.4;0.08937989832476816;-0.16143469217825526;-0.7003087236871224;0.7390000000000001;0.010104766040224106
25:30.5;0.07893866752935584;-0.16446974788368718;-0.7328075475823682;0.825;0.009514057059308658
25:30.5;0.06776651059952823;-0.16908919245218457;-0.7629051422422881;0.825;0.008741813077978763
25:30.5;0.05626750805783844;-0.17572453940607258;-0.7888676695939104;0.825;0.007799993720553042
25:30.5;0.044827342044027225;-0.18462598465482843;-0.8095081055298473;0.857;0.006699725590764221
25:30.5;0.03378901225838484;-0.19583580007276044;-0.8242310404242069;0.882;0.005454017774600758
25:30.5;0.023437099151957096;-0.2091807914424934;-0.8330410474158816;0.899;0.004084059499808517
25:30.5;0.013991917853982211;-0.22428416223961634;-0.8365167102882846;0.9059999999999999;0.0026251279423073876
25:30.5;0.005614385883619447;-0.24059535076065425;-0.8357468407201445;0.899;0.0011289227715300509
25:30.5;-0.001581835026165203;-0.2574361727855546;-0.8322258672989097;0.882;0.00033890031188764884
25:30.5;-0.00751828925219465;-0.2740621133052862;-0.8277109450050558;0.86;0.001705480391935116
25:30.6;-0.012146708830215888;-0.2897364167057245;-0.8240512001573911;0.8420000000000001;0.0029001195573384003
25:30.6;-0.015453200516946193;-0.3038093342576785;-0.8230077695377765;0.8420000000000001;0.0038638787365030784
25:30.6;-0.017468207459896603;-0.3157879209578424;-0.8260884812541371;0.8420000000000001;0.004556909689751239
25:30.6;-0.018276715064201993;-0.3253812868849276;-0.8344189045332565;0.857;0.004962206674210456
25:30.6;-0.01802504176624203;-0.33251452359404043;-0.8486627613859873;0.878;0.005086535091769964
25:30.6;-0.016922685351176216;-0.3373131025727577;-0.868995287402289;0.9059999999999999;0.0049604367005560744
25:30.6;-0.015238037521278138;-0.34006283200648957;-0.895126616244188;0.94;0.00463844783484188
25:30.6;-0.013286828477271626;-0.34115176642142797;-0.9263677571784814;0.981;0.004199062933712373
25:30.6;-0.01141322563279519;-0.34100210652547047;-0.9617283703032997;1.021;0.003742983326830988
25:30.6;-0.009965245778266312;-0.34000061059832853;-1.0000337973145024;1.064;0.003388304161084135
25:30.7;-0.009267611880373184;-0.33843506524167055;-1.0400478394425008;1.176;0.0032620942723090678
25:30.7;-0.009595171825673652;-0.33644362294269964;-1.0805842043879024;1.176;0.0034883790702155255
25:30.7;-0.0111480882962115;-0.3339839857588872;-1.1205851140878351;1.176;0.004172255463606514
25:30.7;-0.014027935417350158;-0.33082867178688835;-1.1591513800940225;1.208;0.0053794398488039635
25:30.7;-0.01821336483344559;-0.3265897341808748;-1.195526297386727;1.236;0.007111346659177756
25:30.7;-0.02353481979119742;-0.3207732004682335;-1.2290495171806097;1.266;0.009278512026783587
25:30.7;-0.029650159737748254;-0.3128609288024606;-1.2590966434936175;1.291;0.01167985453343328
25:30.7;-0.03602907971292418;-0.3024123823110944;-1.2850148552317167;1.295;0.014001059036827666
25:30.7;-0.04196263126548647;-0.2891701419794438;-1.3060646214211402;1.2770000000000001;0.01584823223167657
25:30.7;-0.04661792579357595;-0.27314678461771036;-1.3213831851455125;1.271;0.016825881066188753
25:30.8;-0.049149652925834314;-0.25467332949438665;-1.3299908882897902;1.347;0.016647636600733647
25:30.8;-0.04885753882972731;-0.23440042403658093;-1.330856610435866;1.347;0.015241273097229223
25:30.8;-0.04535239792561957;-0.21325573225491193;-1.323021077151659;1.347;0.012795808481977646
25:30.8;-0.03868276237881987;-0.19236531517568617;-1.3057600077417018;1.374;0.009716449804970695
25:30.8;-0.02938579879591804;-0.1729432990401767;-1.2787631911601371;1.386;0.006498772987787571
25:30.8;-0.018445188358336407;-0.15615506392250844;-1.2423023361190242;1.368;0.0035782153040272656
25:30.8;-0.007155093017066745;-0.14296952837022048;-1.1973537139248989;1.329;0.0012248452833853892
25:30.8;0.003091218360317295;-0.13402586964431978;-1.145639833483091;1.268;0.0004746422822853739
25:30.8;0.011047712108080747;-0.12954101849195354;-1.0895641778021836;1.183;0.00155931002850982
25:30.8;0.01584363137560488;-0.12927787761158296;-1.032030511865622;1.083;0.0021138369264614263
25:30.9;0.017143473754811192;-0.13258330366541843;-0.9761602199067303;0.823;0.002218752035409444
25:30.9;0.01520823738016328;-0.13848938113712406;-0.9249496976890539;0.823;0.0019481099835526629
25:30.9;0.010853208586935937;-0.14585512975795198;-0.8809357057656129;0.823;0.001394517827750586
25:30.9;0.005315618148982198;-0.15351984783501943;-0.8459334884925527;0.778;0.0006903264675083398
25:30.9;5.1231130187274634e-05;-0.1604471597504532;-0.8208772763488822;0.754;6.747520364569284e-06
25:30.9;-0.003514236482537671;-0.16584763459674096;-0.8057617085185528;0.755;0.0004696203303804027
25:30.9;-0.004237553763677145;-0.16926899286376473;-0.7996775612229986;0.777;0.0005735978852587413
25:30.9;-0.001461592514983399;-0.17064229090744487;-0.8009386809505562;0.8140000000000001;0.00019976171204591926
25:30.9;0.0048761312317995905;-0.17027564500005343;-0.8072913530102636;0.856;0.0006702830236531434
25:30.9;0.014253212776508201;-0.16879367293744937;-0.8161841496114504;0.8859999999999999;0.00196361837947193
25:31.0;0.025683651307835304;-0.16703049829617622;-0.8250639816797174;0.937;0.003539485766114412
25:31.0;0.03791492326759154;-0.16589559615151472;-0.8316585041975266;0.937;0.00523106445949775
25:31.0;0.04964555538160693;-0.16623926310488166;-0.8342083609013357;0.937;0.006884755423887466
25:31.0;0.059710155792008675;-0.16874212044384274;-0.8316240263221693;0.925;0.008379126258643805
25:31.0;0.06720265986915165;-0.17384269799684887;-0.8235569127213267;0.9;0.009621361512200737
25:31.0;0.07153441716794837;-0.1817065842396639;-0.8103871848109935;0.865;0.010533635159816004
25:31.0;0.07243801748863639;-0.1922334938279387;-0.7931392967828591;0.828;0.011044475167471582
25:31.0;0.0699337523536219;-0.20509376691535475;-0.7733421894449465;0.792;0.011092029007993661
25:31.0;0.06427703977205099;-0.21978367466536655;-0.7528548849563585;0.763;0.010635614083671847
25:31.0;0.05590073859878199;-0.23569060475323717;-0.7336789396313899;0.742;0.009666424642794831
25:31.1;0.04535834017225405;-0.2521624384135593;-0.7177768557948839;0.732;0.008209694566338478
25:31.1;0.03326955376222832;-0.2685756503425975;-0.7069115240534064;0.732;0.0063165316038082545
25:31.1;0.020271661445354985;-0.28439377351077166;-0.7025170678232281;0.732;0.004050105239671585
25:31.1;0.006981764273472708;-0.29920838258740984;-0.7056059260372094;0.745;0.0014740124700334456
25:31.1;-0.006028589178140298;-0.3127609413614157;-0.7167118005519594;0.7609999999999999;0.0013513652792129652
25:31.1;-0.01824936838004276;-0.32494835598066074;-0.7358659529712968;0.778;0.004363760345459445
25:31.1;-0.02924246152479143;-0.3358137620013759;-0.7626057303731257;0.802;0.007488804298286784
25:31.1;-0.038650020711466865;-0.34552215539872044;-0.7960166361878426;0.835;0.010630355183042041
25:31.1;-0.04620435409558377;-0.3543220163530566;-0.8348103325456606;0.8759999999999999;0.013666863535106332
25:31.1;-0.05174121990091817;-0.3624972646178193;-0.877439779948736;0.929;0.016457304983184515
25:31.2;-0.055214018483885664;-0.3703158876545817;-0.9222474862120492;1.112;0.018856851519680036
25:31.2;-0.05670240631876674;-0.377981180407112;-0.9676292205397035;1.112;0.02073865760372511
25:31.2;-0.056408484192159804;-0.38558951953220866;-1.0121785683535707;1.112;0.022015410515603774
25:31.2;-0.054636660958463874;-0.39309741328292935;-1.0547779666791184;1.156;0.02265402552098301
25:31.2;-0.051757141014374744;-0.4003010602389069;-1.0946254224647212;1.185;0.022678929411573453
25:31.2;-0.04815659314479832;-0.4068317257170505;-1.1312087194388687;1.197;0.022162222563831668
25:31.2;-0.04418281699190552;-0.4121688091862804;-1.1642443925627741;1.21;0.021201797411847165
25:31.2;-0.040092383378075885;-0.41567091037739584;-1.1935976182355448;1.232;0.019891587784899967
25:31.2;-0.03601033559969848;-0.41662433125009174;-1.2191999710646009;1.262;0.01829139136482388
25:31.2;-0.031908905742529206;-0.4143079303702267;-1.2409799941136939;1.301;0.0164058953788487
25:31.3;-0.027609034096013133;-0.40807238253255834;-1.2588137731387465;1.3230000000000002;0.014182405640622411
25:31.3;-0.02280626137224941;-0.3974288291754706;-1.272494212871741;1.3230000000000002;0.011533716719538373
25:31.3;-0.017121534007111784;-0.38213598984823743;-1.2817152361760575;1.3230000000000002;0.008385947931220246
25:31.3;-0.010175293451900887;-0.36226998791888626;-1.2860717937665997;1.2990000000000002;0.004740722264985272
25:31.3;-0.0016768823498479306;-0.3382618629998115;-1.285083259682003;1.2990000000000002;0.0007289317987850884
25:31.3;0.008489123011888223;-0.310893256637637;-1.2782504102414458;1.317;0.0033735726702194386
25:31.3;0.020205345876729907;-0.28124741731494723;-1.265150460866923;1.3419999999999999;0.007189472224059314
25:31.3;0.03311361025868141;-0.2506191147530783;-1.2455598666689867;1.35;0.010336781372754712
25:31.3;0.04666099190440083;-0.22039415599641918;-1.2195771324464402;1.3430000000000002;0.012541899423500091
25:31.3;0.06018653527838638;-0.19191571624005602;-1.1877078923933102;1.317;0.013718907467230505
25:31.4;0.07302405135798834;-0.16635722845123768;-1.150879596767792;1.099;0.013980976024167405
25:31.4;0.08459443632482312;-0.14462013685148623;-1.1103773211718733;1.099;0.013584421613031849
25:31.4;0.09446736405857792;-0.12727158198550734;-1.0677256111448157;1.099;0.012837276628689704
25:31.4;0.10238364695710102;-0.11453028592894082;-1.0245549321656373;1.0190000000000001;0.012013960191407566
25:31.4;0.10824101376099292;-0.10629785733382306;-0.9824747222482985;0.9620000000000001;0.01130414571081369
25:31.4;0.1120538221336198;-0.102223259259605;-0.9429570257579674;0.92;0.010801107768315629
25:31.4;0.113900696650394;-0.10178459988274283;-0.9072351433599927;0.89;0.01051788260545479
25:31.4;0.11387429885058198;-0.104373079440837;-0.8762263959136697;0.866;0.010414311054953497
25:31.4;0.11204522999806052;-0.10936706708420668;-0.850484513944338;0.846;0.010421886719879446
25:31.4;0.10844767896253493;-0.11618956042455443;-0.8301806938241487;0.8290000000000001;0.010460681992997262
25:31.5;0.10308829167468303;-0.12434782034418362;-0.8151094339323873;0.8009999999999999;0.010448728375964127
25:31.5;0.09597345816279006;-0.13345671857354285;-0.8047166692906301;0.8009999999999999;0.01030705476571456
25:31.5;0.0871460253117229;-0.14324682838531347;-0.7981510102355767;0.8009999999999999;0.00996363172229415
25:31.5;0.076721280714155;-0.15355791732076676;-0.7943397815175498;0.805;0.009358244124484856
25:31.5;0.06491283271358575;-0.16432025661257382;-0.7920884238268329;0.818;0.008448805888683858
25:31.5;0.05204071271165532;-0.17552756210241746;-0.7901973457920075;0.8340000000000001;0.0072181204223685565
25:31.5;0.03851762949219822;-0.18720496447751644;-0.7875864254070073;0.845;0.005679042712359829
25:31.5;0.024815719139785773;-0.19937529402581022;-0.7834139607566176;0.85;0.0038760512672021104
25:31.5;0.011422687670451286;-0.21202795910583447;-0.7771752080142666;0.851;0.0018822632942649552
25:31.5;-0.0012017664229767794;-0.22509510808164218;-0.7687672095765656;0.846;0.00020796055772297667
25:31.6;-0.0126617833210089;-0.23843856519122786;-0.7585111432101198;0.8079999999999999;0.002289988716165692
25:31.6;-0.022650372354282782;-0.25184790906910387;-0.7471306774472117;0.8079999999999999;0.004261968783868109
25:31.6;-0.03096261986381642;-0.2650461363416438;-0.7356928221321777;0.8079999999999999;0.006037479893551338
25:31.6;-0.03749732487987952;-0.2776988839687365;-0.7255205823556777;0.784;0.0075548206274332124
25:31.6;-0.04224926408186582;-0.28942758940189234;-0.7180832696505504;0.7659999999999999;0.008780795937717956
25:31.6;-0.0452950228285624;-0.2998305161263437;-0.7148688300925123;0.754;0.00970851210571507
25:31.6;-0.04677467812932794;-0.30851389978125654;-0.7172472975849521;0.75;0.010350336366632087
25:31.6;-0.04687207375850799;-0.31513112675780897;-0.7263397978200715;0.752;0.010728655779169965
25:31.6;-0.04579781431261129;-0.3194245835454956;-0.7429088650506828;0.76;0.010867974980313106
25:31.6;-0.04377867724385837;-0.321263492903179;-0.7672846064841184;0.7829999999999999;0.010791467262822712
25:31.7;-0.041054219800204975;-0.32067110012976574;-0.7993374432695085;0.914;0.010523198968328153
25:31.7;-0.03787810386595618;-0.3178358393917357;-0.8384967009325865;0.914;0.010094677660974697
25:31.7;-0.03452016511685666;-0.313103637615456;-0.8837978271428688;0.914;0.009552430951010276
25:31.7;-0.03126538780507868;-0.3069508514020095;-0.9339373760221509;0.971;0.00896293853897929
25:31.7;-0.02840608593147201;-0.2999384024799943;-0.9873303214432168;1.026;0.008412129410352416
25:31.7;-0.026222944463029748;-0.29264953417333744;-1.0421774724334831;1.074;0.007997807992959238
25:31.7;-0.024950887146719992;-0.2856178570259118;-1.0965476580601095;1.121;0.007814457974604736
25:31.7;-0.024730450806102935;-0.27925658146609145;-1.148471820891135;1.166;0.00793150850213315
25:31.7;-0.025555037312269224;-0.2738011763038777;-1.1960453195088538;1.21;0.008368728235370868
25:31.7;-0.027233218935633116;-0.2692763948798329;-1.2375374203517515;1.255;0.009075187395532645
25:31.8;-0.02938475849565487;-0.2654959533124498;-1.2715063376963427;1.4;0.009919700521929163
25:31.8;-0.03147666733278406;-0.26209838180744827;-1.2969091819186822;1.4;0.01069947944600148
25:31.8;-0.032889633299290545;-0.2586154008424165;-1.3131821831310146;1.4;0.011169619970150046
25:31.8;-0.03299822592109527;-0.2545631060662005;-1.3202634048571495;1.4;0.01109038540367149
25:31.8;-0.03125364070103194;-0.24954336711833794;-1.3185456658597912;1.3559999999999999;0.010283520576792871
25:31.8;-0.02726578428045682;-0.24334039721029632;-1.3087689041002142;1.2919999999999998;0.008683507320659306
25:31.8;-0.020882483933552687;-0.23599526584328528;-1.2918772056706431;1.254;0.006366587061793657
25:31.8;-0.012256990072896268;-0.2278421305979981;-1.268875463367628;1.237;0.003543536143770651
25:31.8;-0.0018866953935689282;-0.21949331289613583;-1.2407208350690293;1.225;0.0005138036177991997
25:31.8;0.009398062708265592;-0.21176566825643664;-1.2082710059449822;1.219;0.0024046852844326495
25:31.9;0.020511965081939074;-0.20555216143994204;-1.1722909154047607;1.167;0.004942705284786043
25:31.9;0.03025886732403068;-0.20166032657847013;-1.1335037150637226;1.167;0.00691665448019823
25:31.9;0.03751557917047767;-0.20065367392490407;-1.0926652229733034;1.167;0.00822518911691265
25:31.9;0.04141507597775772;-0.20273167609869047;-1.0506389030522865;1.131;0.008821319481598594
25:31.9;0.04149757095332351;-0.20766974850862346;-1.0084462977974562;1.089;0.008690578545335314
25:31.9;0.0378105143762374;-0.21482524532254305;-0.9672707247791652;1.035;0.007856804480214271
25:31.9;0.030941854973919367;-0.223206191905333;-0.9284033505535488;0.976;0.006411937544388451
25:31.9;0.02197431255352626;-0.23159331371095565;-0.8931350964473527;0.915;0.00454525726753852
25:31.9;0.012359552125788598;-0.23869963528036844;-0.862609727535724;0.8590000000000001;0.0025448889746990514
25:31.9;0.0037246812764350247;-0.2433457342591799;-0.8376625729770113;0.8109999999999999;0.0007592450425865376
25:32.0;-0.002364690285775854;-0.2446246203731742;-0.8186758789082934;0.784;0.0004735724470110976
25:32.0;-0.004648505965220768;-0.24203098388642305;-0.8054838148012268;0.784;0.0009062357218059834
25:32.0;-0.0023774057707250476;-0.23553581254158726;-0.7973548950091418;0.784;0.0004464901958590396
25:32.0;0.004563906654456726;-0.2255957920597642;-0.7930666022832015;0.8140000000000001;0.0008165398959096795
25:32.0;0.01563864762155592;-0.2130951968759426;-0.7910689848222421;0.8490000000000001;0.002636253762134739
25:32.0;0.029744129965867568;-0.19922837792001413;-0.7897142739888664;0.882;0.004679747888376793
25:32.0;0.04538105011344518;-0.18534376237383965;-0.7875124396611008;0.9179999999999999;0.006623841603861003
25:32.0;0.06087150115615296;-0.17277887671761383;-0.7833640948034024;0.9329999999999999;0.008238882709773061
25:32.0;0.07458465794019792;-0.16271422865086543;-0.7767253725068368;0.915;0.009426327536604802
25:32.0;0.08513112499792547;-0.1560641679819752;-0.7676725601289048;0.871;0.010199234832246924
25:32.1;0.09149902276513382;-0.15341159674098184;-0.7568556165097475;0.722;0.010623990752590177
25:32.1;0.0931236913302416;-0.1549840653361073;-0.7453584144131623;0.722;0.010757525638285501
25:32.1;0.08989971378903311;-0.1606625105099599;-0.7345102437327048;0.722;0.010608908776570636
25:32.1;0.0821502023512275;-0.17001293063269823;-0.7256988941553335;0.7020000000000001;0.01013554374677723
25:32.1;0.07056413796705474;-0.18233554103653163;-0.7202170280020822;0.7020000000000001;0.009266564555573616
25:32.1;0.056107200656951746;-0.19673008615184492;-0.7191517805599577;0.7190000000000001;0.007937978957185426
25:32.1;0.03991212144323047;-0.21217551860300618;-0.7233173794718195;0.742;0.006125322860952616
25:32.1;0.023159598894747748;-0.22761847885119688;-0.7332262451508925;0.7659999999999999;0.003865240771238449
25:32.1;0.006965040926653935;-0.2420621028834381;-0.7490898196363636;0.7879999999999999;0.0012629448010106025
25:32.1;-0.0077132739170175536;-0.25464699659202894;-0.7708388659851224;0.81;0.0015140524371043099
25:32.2;-0.02013324516213665;-0.26471838547448023;-0.7981549276328316;0.894;0.004253878551171652
25:32.2;-0.029791959666914735;-0.2718746397616146;-0.8305054385155294;0.894;0.006726826880232394
25:32.2;-0.03641855082405625;-0.27599244832239694;-0.8671734711155425;0.894;0.008716173021132867
25:32.2;-0.039948394687534014;-0.2772254302858137;-0.9072770079951529;0.9259999999999999;0.010047830575641674
25:32.2;-0.040490385650735664;-0.2759767063506622;-0.9497845447074525;0.9620000000000001;0.01061327552289449
25:32.2;-0.03829640998978792;-0.27284965396509253;-0.9935422674622592;1.002;0.010381684318998637
25:32.2;-0.03373868095344079;-0.26858285576400764;-1.0373251100702112;1.057;0.009399857665134468
25:32.2;-0.027295764277760787;-0.26397503901207636;-1.07991533226676;1.125;0.007781222410370904
25:32.2;-0.019542073326106385;-0.2598045749382495;-1.1202032936359794;1.196;0.005687406606565375
25:32.2;-0.01113092239657305;-0.2567475839708001;-1.157295392306457;1.2570000000000001;0.0033073620928091153
25:32.3;-0.0027611615631469425;-0.25529992707505067;-1.1906052806091392;1.295;0.0008392866484368491
25:32.3;0.0048762421926989786;-0.255710701815966;-1.219901799221725;1.295;0.0015211044749814057
25:32.3;0.011165748359987362;-0.2579367363643322;-1.2452944702892392;1.295;0.003586518671472302
25:32.3;0.015638165150950782;-0.2616272653270249;-1.2671531959162106;1.2790000000000001;0.005184393056717937
25:32.3;0.018036569634755396;-0.2661452445496867;-1.285976010938591;1.274;0.006173131390030708
25:32.3;0.018371050101132866;-0.2706283656337372;-1.3022301055133931;1.2830000000000001;0.006474332919380805
25:32.3;0.016953454908947035;-0.2740888600511717;-1.316194216554358;1.2919999999999998;0.006116029595359507
25:32.3;0.014399225093175955;-0.2755438359213642;-1.3278271282986451;1.288;0.005268310438645681
25:32.3;0.01158152518754392;-0.27415687342628864;-1.3366829315618833;1.265;0.0042441751392419454
25:32.3;0.009526689135598468;-0.2693631578932336;-1.3418934646167537;1.26;0.003443485247105227
25:32.4;0.009254457233738536;-0.260952505163208;-1.3422378248010136;1.3940000000000001;0.003241469179014946
25:32.4;0.011590283154703855;-0.24909796777401724;-1.3363049644119847;1.3940000000000001;0.0038580674165893396
25:32.4;0.01699670997036688;-0.23433296542924914;-1.3227264620714172;1.3940000000000001;0.005268273270883774
25:32.4;0.025471019153283272;-0.21748601296724415;-1.3004345116242404;1.422;0.007203874538840995
25:32.4;0.036536344032834435;-0.19958026225549885;-1.2688999907737555;1.415;0.009252733873677907
25:32.4;0.04932602313220964;-0.1817070867636492;-1.2283131417640518;1.376;0.011009233075556303
25:32.4;0.06273682680243015;-0.16489175876835677;-1.1796732878758798;1.2990000000000002;0.01220346737206501
25:32.4;0.07561123479921085;-0.14997494302341952;-1.1247635904546385;1.197;0.012754583625062241
25:32.4;0.08690664319715996;-0.1375304803450545;-1.0660081644671902;1.089;0.012741262585693369
25:32.4;0.09581956106571954;-0.12783113014049252;-1.0062331471643862;0.993;0.012325070872264093
25:32.5;0.10184892226359132;-0.12086325784940964;-0.9483714110104828;0.8109999999999999;0.011674255332952042
25:32.5;0.1047995873760025;-0.11638072432266593;-0.8951617965831248;0.8109999999999999;0.010917976815945406
25:32.5;0.10474167088128046;-0.11398072634014716;-0.8488959797112966;0.8109999999999999;0.010134571585117769
25:32.5;0.10194730545495921;-0.11318375207631083;-0.8112496489117275;0.782;0.009360830043876249
25:32.5;0.09682182083780655;-0.11350547617078216;-0.7832027852186143;0.767;0.008607247355799584
25:32.5;0.08983897531056985;-0.11451499413520187;-0.7650302817541245;0.763;0.007870562480016798
25:32.5;0.08148634655774192;-0.11587749296947919;-0.7563410635822237;0.758;0.007141700234278676
25:32.5;0.07222516087691344;-0.1173809541562211;-0.756150105636404;0.7490000000000001;0.006410533447466052
25:32.5;0.06246568187398476;-0.11894759718664187;-0.762973798801998;0.745;0.0056690042514619225
25:32.5;0.05255546352282566;-0.1206316921442878;-0.7749455661313063;0.75;0.0049130421317368535
25:32.6;0.042775587012804386;-0.12260529569982027;-0.7899538753918425;0.8370000000000001;0.004142923759476328
25:32.6;0.03334134572589369;-0.12513264772318883;-0.8058022813382667;0.8370000000000001;0.003361880340460939
25:32.6;0.024407319083613845;-0.12853393469312746;-0.8203809959924413;0.8370000000000001;0.0025736736295686653
25:32.6;0.0160777900680679;-0.13314041781440028;-0.8318338873924414;0.87;0.0017806266864858235
25:32.6;0.008420655519978112;-0.13924470795446486;-0.8387098884401959;0.897;0.0009834139469536978
25:32.6;0.0014803994796644497;-0.14705168083426115;-0.8400924659480954;0.9129999999999999;0.00018288412410029465
25:32.6;-0.004713654026367346;-0.15663668281138984;-0.8356971869161642;0.9179999999999999;0.0006170212488640203
25:32.6;-0.01014481627558072;-0.16791757870581886;-0.8259226729631024;0.915;0.001406953479884464
25:32.6;-0.014809959853232883;-0.18064559743937458;-0.811841042133282;0.9009999999999999;0.002171962216569384
25:32.6;-0.018718680022601814;-0.19441693911910574;-0.7951188670285205;0.872;0.00289361922137849
25:32.7;-0.021884825791025506;-0.20870322040111938;-0.7778676696306867;0.763;0.003552858946574684
25:32.7;-0.024308568319753802;-0.22289494206415061;-0.7624368025480768;0.763;0.004131078487029982
25:32.7;-0.025954636213788858;-0.23634995182581836;-0.7511776791019898;0.763;0.004608007091707978
25:32.7;-0.026737221624275498;-0.2484411348177552;-0.7462125645883918;0.74;0.004956810745921766
25:32.7;-0.026520464542703303;-0.2586034425266229;-0.7492295799860255;0.7340000000000001;0.005138428812296679
25:32.7;-0.025138213010436;-0.2663832688196757;-0.761314492206148;0.742;0.005098065873804079
25:32.7;-0.02243163533475012;-0.27148945171138394;-0.7828298084494422;0.762;0.004767396253552417
25:32.7;-0.018298552946838315;-0.27383889530576633;-0.813354841787174;0.7879999999999999;0.004075603602475194
25:32.7;-0.012744477520510715;-0.27358613213667055;-0.8516994735945335;0.82;0.0029696310398025574
25:32.7;-0.005923757065042282;-0.2711265357557472;-0.8960009102497184;0.866;0.001439056069547283
25:32.8;0.0018395684124630834;-0.26706689776410913;-0.9439058121165514;1.0959999999999999;0.0004637294373486557
25:32.8;0.010057276294951007;-0.2621643551143378;-0.9928209638362275;1.0959999999999999;0.0026177306812181114
25:32.8;0.01810825230294003;-0.25724271293364187;-1.0401881631979426;1.0959999999999999;0.004845421091660619
25:32.8;0.025290665973044305;-0.25309832659808656;-1.083732034576688;1.175;0.006936996102743209
25:32.8;0.030890322321952577;-0.2504047094144575;-1.1216532000072157;1.2409999999999999;0.0086760796848408
25:32.8;0.03425976542158902;-0.24962300284714267;-1.1527603923307115;1.276;0.009858436295243373
25:32.8;0.034898272816433026;-0.2509286811410975;-1.1765327335620785;1.274;0.010302870760444328
25:32.8;0.032520021083937874;-0.25416901163910677;-1.19309845257289;1.245;0.009861652637319834
25:32.8;0.027100341806728993;-0.2588658713283543;-1.2031276047202186;1.21;0.008440365567132176
25:32.8;0.018895879836186614;-0.2642736797852471;-1.2076566209151;1.199;0.0060306551795451906
25:32.9;0.008439282929101698;-0.26949230843734046;-1.2078776206289368;1.178;0.0027471024503721592
25:32.9;-0.003490560668169949;-0.27361878774728665;-1.2049299670116564;1.178;0.0011508081018774333
25:32.9;-0.015925876209792116;-0.27590451437621405;-1.1997277613247053;1.178;0.005271629147519246
25:32.9;-0.027802028572177628;-0.27588048997750547;-1.1928477260211872;1.157;0.009149186509887176
25:32.9;-0.038087143526986805;-0.2734274593117717;-1.184490040545255;1.1740000000000002;0.012335363247215528
25:32.9;-0.04593598963678222;-0.2687867582400492;-1.1745142810820925;1.2;0.014501711081144002
25:32.9;-0.05083486508001413;-0.26251720530608436;-1.1625436400943459;1.218;0.015514175931991007
25:32.9;-0.05269640406561372;-0.2554058680913256;-1.148119849405036;1.234;0.015452511557514245
25:32.9;-0.051874100474409386;-0.24834487164028266;-1.130880096552333;1.245;0.014568751501519182
25:32.9;-0.04908942132501942;-0.24219376167680845;-1.1107200994645265;1.234;0.013205519657968545
25:33.0;-0.0452887366361046;-0.23765149751382894;-1.0879076689057148;1.157;0.011709080703636496
25:33.0;-0.04146410558956765;-0.23515987274882807;-1.0631214217936107;1.157;0.010366171449843588
25:33.0;-0.038476801673696624;-0.2348521092434516;-1.0374071481271072;1.092;0.009374382413367766
25:33.0;-0.03691575346560921;-0.23655009555968404;-1.012059978143931;1.0270000000000001;0.00883773786471108
25:33.0;-0.037010300371819994;-0.239804743009675;-0.9884505271328207;0.9690000000000001;0.00877274116148212
25:33.0;-0.038604983395624626;-0.24396872835400651;-0.9678224603753637;0.9229999999999999;0.009115347487782479
25:33.0;-0.041196004667205445;-0.24828995683707947;-0.9510963840872939;0.897;0.009728340933730113
25:33.0;-0.044022962679647976;-0.2520149531762995;-0.9387148608238196;0.889;0.01041452027993866
25:33.0;-0.04620361267369081;-0.25449114008219376;-0.9305557039841356;0.899;0.01094185555599697
25:33.0;-0.04689117636870711;-0.25525559022002636;-0.9259294440727815;0.922;0.011082667017031393
25:33.1;-0.045424135373423755;-0.2540976089674531;-0.9236636770326168;0.996;0.010661077814618348
25:33.1;-0.04143680475129919;-0.2510857867597581;-0.9222607141447563;0.996;0.009595378209698127
25:33.1;-0.034911499655210704;-0.24655687106300975;-0.9200983426508709;0.996;0.007919903010674943
25:33.1;-0.0261699141724189;-0.24106971072265423;-0.9156374439004964;0.9990000000000001;0.0057765493691271765
25:33.1;-0.01581082979361829;-0.23533020606257105;-0.9076088403016375;0.991;0.0033769999630429547
25:33.1;-0.004607304714907126;-0.23009651670120077;-0.895163236985921;0.983;0.0009489847173931759
25:33.1;0.006615170063270328;-0.22607924892813558;-0.8779730243201886;0.965;0.0013130549089946243
25:33.1;0.017093047861279062;-0.2238540328723155;-0.8562766845365515;0.935;0.0032764123205792205
25:33.1;0.02620918490993325;-0.22380117241491645;-0.8308605659724573;0.8959999999999999;0.004873534213654006
25:33.1;0.03353543962960918;-0.22608117349163256;-0.8029788940359724;0.852;0.006087970410897678
25:33.2;0.03883338848468816;-0.2306474223296673;-0.7742209100745955;0.748;0.006934558070628767
25:33.2;0.04202385983633905;-0.23728809634036557;-0.7463451864572951;0.748;0.007442376346368384
25:33.2;0.043143457002476904;-0.2456816663158959;-0.7211110625124098;0.748;0.007643457382809635
25:33.2;0.04230675757485851;-0.25545023101626746;-0.7001340046267611;0.7290000000000001;0.007566537921548912
25:33.2;0.039685120943749604;-0.2662028574244026;-0.6847747359252904;0.7090000000000001;0.007234160670238714
25:33.2;0.03550164464136383;-0.27756914087912143;-0.6760586029865276;0.701;0.006661990321224369
25:33.2;0.030033138926733614;-0.2892256660212611;-0.6746221930582021;0.7040000000000001;0.005860007595865555
25:33.2;0.02360729480333157;-0.30091675311434757;-0.6806900051593289;0.7140000000000001;0.004835506421078987
25:33.2;0.016586418389488176;-0.31246906614700254;-0.6940856811856706;0.738;0.00359726747296802
25:33.2;0.009335782809656952;-0.3237985817545911;-0.7142798331507496;0.774;0.002159205959936297
25:33.3;0.002181519112374932;-0.3349080560605305;-0.7404712216562381;0.88;0.0005409944391014977
25:33.3;-0.004632186896378345;-0.34587283119769335;-0.77168871786366;0.88;0.0012363592245615783
25:33.3;-0.010975239934928434;-0.35681304059254493;-0.8068922983622788;0.88;0.003159877975734558
25:33.3;-0.016844559138826102;-0.3678526595961002;-0.8450541268824885;0.927;0.005236222304966566
25:33.3;-0.02235503354447701;-0.3790698851128405;-0.8852160915443068;0.98;0.007501427383374636
25:33.3;-0.027710272483524607;-0.39044601958143593;-0.9265303234601422;1.028;0.010024470302246362
25:33.3;-0.03315609978131878;-0.40182035270731997;-0.9682849518342692;1.068;0.012900262600930431
25:33.3;-0.03892023137856583;-0.4128582468437328;-1.009909727835745;1.101;0.016227773336897955
25:33.3;-0.04514476366229147;-0.42303957685512067;-1.0509559290087813;1.12;0.020071179155735763
25:33.3;-0.05182436448528245;-0.4316737877949267;-1.0910515811178825;1.137;0.024408154644234004
25:33.4;-0.05876765789545287;-0.4379450061392662;-1.1298409942253678;1.238;0.0290787202645432
25:33.4;-0.06559447350689382;-0.44098565751055274;-1.1669198588322913;1.238;0.033754582926044184
25:33.4;-0.07176744936981255;-0.4399717918801677;-1.2017719525165063;1.238;0.03794673451580832
25:33.4;-0.07664588812507078;-0.4342310052849003;-1.2337110146193064;1.274;0.04106039596003148
25:33.4;-0.07955205947005532;-0.4233530023455819;-1.261838359070462;1.296;0.04249695342218089
25:33.4;-0.07984767747808626;-0.40728772620455134;-1.2850342231388108;1.3030000000000002;0.04179057098853056
25:33.4;-0.07701936258660069;-0.3864084667569725;-1.3020003727432776;1.3259999999999998;0.0387487469107974
25:33.4;-0.07076471174091442;-0.3615182434974583;-1.3113648555330106;1.3769999999999998;0.03354829865658043
25:33.4;-0.06106160081017279;-0.33379090388458793;-1.311846699178235;1.432;0.026737806140561534
25:33.4;-0.04820061225676169;-0.3046548551159357;-1.3024571430124343;1.466;0.01912599774741697
25:33.5;-0.03276769107087246;-0.2756391776552424;-1.2826940419266355;1.339;0.011585368804921002
25:33.5;-0.015579866421691159;-0.24821009657677617;-1.252684794123103;1.339;0.004844232500534633
25:33.5;0.002405876769220437;-0.22362961591863809;-1.2132535556266533;1.339;0.0006527611056315879
25:33.5;0.02018529579215023;-0.20285989579704744;-1.1659089067823591;1.232;0.0047741486358753756
25:33.5;0.03678709513003277;-0.18651804453093299;-1.1127535149552863;1.138;0.0076351104474618
25:33.5;0.05133934154928291;-0.17487123024993179;-1.0563219616128774;1.054;0.009483419649231587
25:33.5;0.06312330575972695;-0.16785956657437792;-0.9993673653666735;0.9790000000000001;0.010589147443418493
25:33.5;0.07161369361351393;-0.16513828278321963;-0.9446283445522333;0.9159999999999999;0.01117132819813151
25:33.5;0.07650413539589859;-0.1661344147056347;-0.8946056461981692;0.861;0.011370410707224976
25:33.5;0.07771747959419634;-0.17011491249877916;-0.8513692427375227;0.8190000000000001;0.011255869529050212
25:33.6;0.07539984612909333;-0.17626275787133927;-0.8164096372812079;0.7609999999999999;0.010850234969756657
25:33.6;0.06989787411203291;-0.18375527315574675;-0.7905436720791403;0.7609999999999999;0.01015382431102123
25:33.6;0.06172172775043076;-0.19183556835330687;-0.7738832745679013;0.7609999999999999;0.00916310510895147
25:33.6;0.05149851526415329;-0.1998681726185366;-0.7658703522442311;0.769;0.007883037776806857
25:33.6;0.03991943283374483;-0.2073747750581527;-0.7653716381585244;0.7879999999999999;0.006335963330325488
25:33.6;0.027683225598605962;-0.21405083361886487;-0.7708193279956296;0.8140000000000001;0.004567580512136121
25:33.6;0.015441004921269664;-0.21976518838530976;-0.7803799300621286;0.841;0.0026481376301056288
25:33.6;0.0037494755197264446;-0.22454472835574338;-0.792132682185024;0.865;0.000666916278389951
25:33.6;-0.006961624864769062;-0.2285464920899671;-0.8042390778842107;0.88;0.0012795885594889833
25:33.6;-0.016405271215171578;-0.2320202438594185;-0.8150875057591014;0.8909999999999999;0.0031025124257441942
25:33.7;-0.02443656892777529;-0.23526555049424533;-0.8234017884632275;0.885;0.004733805093289169
25:33.7;-0.031038317579437973;-0.23858819881132678;-0.8283086131149803;0.885;0.006133936960564217
25:33.7;-0.03629607166714495;-0.24226045551882425;-0.8293651610763791;0.885;0.00729269316621778
25:33.7;-0.04036657984055344;-0.24648854630725428;-0.8265524864250563;0.87;0.008224114241077619
25:33.7;-0.04344412131141912;-0.2513899009092982;-0.8202414739084345;0.855;0.008958196184654363
25:33.7;-0.045729500861685285;-0.2569819740374755;-0.8111387060043445;0.843;0.009532224179425307
25:33.7;-0.04740556167585229;-0.2631831015872538;-0.8002205765218396;0.8440000000000001;0.009983826191759358
25:33.7;-0.0486208942048739;-0.2698242639303009;-0.7886630580252362;0.848;0.010346547151028326
25:33.7;-0.0494810913782949;-0.2766697690158557;-0.7777696717409491;0.845;0.010647606235208995
25:33.7;-0.050046070908650854;-0.28344518204339714;-0.7688939789163426;0.833;0.010907005352598025
25:33.8;-0.050332719850042076;-0.28987139755077507;-0.7633508309427322;0.7979999999999999;0.011137300719102065
25:33.8;-0.05032298707666774;-0.29570252303555505;-0.7623162003179618;0.7979999999999999;0.01134374855616511
25:33.8;-0.04997769309727364;-0.30076235962262443;-0.7667252042329311;0.7979999999999999;0.011524960062158841
25:33.8;-0.04925581480276916;-0.30497338486612485;-0.7771832777481862;0.805;0.011674623808455348
25:33.8;-0.04813763064311262;-0.3083743555405757;-0.7939031667441142;0.82;0.011785024763863108
25:33.8;-0.046647656665420506;-0.3111239465053721;-0.8166760992220229;0.8420000000000001;0.011852586043452533
25:33.8;-0.044871487128611685;-0.31348699068286556;-0.8448830577222781;0.873;0.011884655226508431
25:33.8;-0.042962163954130314;-0.3158010013455425;-0.8775491867939594;0.912;0.01190614367464316
25:33.8;-0.041135724975888945;-0.31842534915039333;-0.9134393686578866;0.956;0.011964829517450376
25:33.8;-0.03965778774517152;-0.3216800687372968;-0.9511876674383941;1.011;0.01213441510934258
25:33.9;-0.03882176896371529;-0.3257826713247166;-0.989447711357207;1.1540000000000001;0.012513999954268178
25:33.9;-0.038918133288545195;-0.330790707484803;-1.0270412365108434;1.1540000000000001;0.013221879148121096
25:33.9;-0.040195731199472395;-0.3365577531099152;-1.063071168044073;1.1540000000000001;0.014381423405126811
25:33.9;-0.0428187932223471;-0.3427109138278556;-1.096969346352986;1.178;0.016097441300442855
25:33.9;-0.04682419953432235;-0.3486571287867693;-1.1284713287390908;1.187;0.018422961331405256
25:33.9;-0.05208422081873379;-0.35362334545554996;-1.1575323691241945;1.1909999999999998;0.02131965852704351
25:33.9;-0.058280795474180094;-0.35673247270744507;-1.1842066259251947;1.2;0.02462042818830252
25:33.9;-0.06489844555999484;-0.35711126604084314;-1.2085129544717053;1.213;0.02800845521350464
25:33.9;-0.07124529207494505;-0.3540163323811626;-1.230312429987917;1.213;0.0310309364179679
25:33.9;-0.07651374239050596;-0.34695425257708423;-1.2492237999849636;1.224;0.03316285477676101
25:34.0;-0.07988725985239367;-0.33577032664501455;-1.2645995340432956;1.3259999999999998;0.033921328732047666
25:34.0;-0.08068257104555746;-0.32069113897410984;-1.2755718098614042;1.3259999999999998;0.033004381759532325
25:34.0;-0.07849604889644765;-0.30232020330231313;-1.2811567820508332;1.3259999999999998;0.030403056596958255
25:34.0;-0.07331578233465252;-0.28159136105457894;-1.2803925171057677;1.3530000000000002;0.026433819947368837
25:34.0;-0.06557137283233792;-0.259682148523289;-1.2724886776567106;1.36;0.021667574516790765
25:34.0;-0.056108593335556504;-0.23789114333472822;-1.256970702491986;1.345;0.01677771488086604
25:34.0;-0.046087580055919834;-0.2174934727285359;-1.2337986054441958;1.319;0.012367286101401328
25:34.0;-0.036816108524652114;-0.19959788547673818;-1.2034390310568481;1.284;0.008843372331305211
25:34.0;-0.02954558110804488;-0.18502909644646698;-1.1668748405813607;1.245;0.006379062249336755
25:34.0;-0.025269775661860706;-0.17425200090661017;-1.125544863964722;1.1909999999999998;0.004956121797367066
25:34.1;-0.02456740424543043;-0.16734516805225358;-1.0812157191620522;0.992;0.004445133412285493
25:34.1;-0.027515942237775773;-0.1640226601624573;-1.0358035123761171;0.992;0.004674827816835264
