Time;AccX;AccY;AccZ;Acc-old;Acc-trns
24:41.5;-0.025566917489071677;-0.1861429995496778;-0.8261121544991753;0.852;0.003931552593782001
24:41.6;-0.020685879470282467;-0.20547765563594952;-0.8020451773835855;0.843;0.003409081812531084
24:41.6;-0.01610727253919386;-0.22477377356508985;-0.778058520501855;0.843;0.002816954983944283
24:41.6;-0.012064574078392077;-0.24388748302477023;-0.7549182183085428;0.831;0.0022212703130025033
24:41.6;-0.008774001353459703;-0.26261418118541785;-0.7335670221188553;0.8140000000000001;0.0016902683932167087
24:41.6;-0.006424533180131098;-0.28067880630075825;-0.7151136436693093;0.797;0.0012895145930961105
24:41.6;-0.005166588297348051;-0.297738430616747;-0.7007843266601383;0.778;0.0010780108472480995
24:41.6;-0.0050963663814322015;-0.3133994353554263;-0.6918362910082355;0.7559999999999999;0.001104999779912297
24:41.6;-0.006236430527576835;-0.32724964477679386;-0.6894397085722468;0.741;0.0014070565938450583
24:41.6;-0.008517154645588058;-0.33890286678876813;-0.6945420684667694;0.727;0.0020047874338264657
24:41.6;-0.011766082266329818;-0.3480495895656331;-0.7077356257708881;0.725;0.0028983048532598686
24:41.7;-0.015711724328763;-0.3545051435409744;-0.7291520000532576;0.81;0.004061294310610011
24:41.7;-0.020004254420324774;-0.3582464020252443;-0.758402641826421;0.81;0.0054350562592206395
24:41.7;-0.02424991496647637;-0.359429631904077;-0.7945709603816623;0.81;0.006925590149508852
24:41.7;-0.028053200945265023;-0.3583850151895911;-0.8362542960437498;0.872;0.008407572617473871
24:41.7;-0.031061964102946024;-0.35558693963865473;-0.8816572136338702;0.941;0.009738105607669674
24:41.7;-0.03301094296757974;-0.3516024614207021;-0.928737452102176;1.012;0.010779603734085498
24:41.7;-0.03375708885676584;-0.3470232960941204;-0.9753930584467204;1.078;0.011426238317273404
24:41.7;-0.033299445922664754;-0.3423893782897675;-1.0196649584292485;1.131;0.011625584183471628
24:41.7;-0.03177975083646928;-0.33811387991469205;-1.0599247596132568;1.175;0.011389076878411314
24:41.7;-0.029464963157277306;-0.3344201366634833;-1.0950218209580336;1.209;0.01078999133806851
24:41.8;-0.026716261878210336;-0.33129999419091366;-1.1243713873549332;1.232;0.00995192066893423
24:41.8;-0.02394953107728188;-0.32850070288147826;-1.1479739929466033;1.232;0.009031613976994335
24:41.8;-0.021590961052108063;-0.32554446648596724;-1.1663648289053568;1.232;0.008198165983407215
24:41.8;-0.0200294306007596;-0.32178196142017157;-1.180500381443973;1.226;0.007608454181693703
24:41.8;-0.019566172690945;-0.31647857255276196;-1.19159681450077;1.229;0.007378694453786154
24:41.8;-0.020364030120493256;-0.30892832018214655;-1.2009381248895645;1.227;0.007555132508427582
24:41.8;-0.022404477118030626;-0.2985835801076863;-1.209672678069449;1.203;0.008092237220165513
24:41.8;-0.02546724056979284;-0.2851803153151588;-1.2186179894870197;1.178;0.0088505247442737
24:41.8;-0.029148574479084;-0.26883423992792027;-1.2280978197318038;1.166;0.009623540142913058
24:41.8;-0.03292696857982166;-0.25008547380315327;-1.2378399247101897;1.17;0.010193062845250256
24:41.9;-0.03627141983759745;-0.22987598478610896;-1.2469604422376968;1.2329999999999999;0.01039706682859542
24:41.9;-0.03877059015049307;-0.20945790067830644;-1.254046825131286;1.2329999999999999;0.010183871509737366
24:41.9;-0.04024685544325706;-0.190250942998716;-1.2573303393828346;1.2329999999999999;0.009627381175802896
24:41.9;-0.04081787462447161;-0.17367787132076973;-1.2549259630648952;1.2930000000000001;0.008896372918857852
24:41.9;-0.04088334323265413;-0.16099954046739576;-1.2451154935026612;1.351;0.008195598545441399
24:41.9;-0.04103618933336315;-0.15316306897115872;-1.2266435065113743;1.39;0.00770973496833409
24:41.9;-0.04191685006686277;-0.15067963168440487;-1.1989795852782752;1.3869999999999998;0.007572773680105477
24:41.9;-0.04404467847077033;-0.15355207647909858;-1.1624900356179777;1.3319999999999999;0.00786209661993162
24:41.9;-0.04766884326905204;-0.16126826400797867;-1.1184720504655459;1.24;0.008598222124766368
24:41.9;-0.052678463815150296;-0.17286635219567048;-1.06903001448472;1.139;0.00973494423856649
24:42.0;-0.058597476147443636;-0.18706520634031626;-1.0168083530493206;0.877;0.01114579455154038
24:42.0;-0.06466455476668488;-0.20243695355916583;-0.9646336307781227;0.877;0.012627532174130143
24:42.0;-0.06997053857940161;-0.2175863178292143;-0.9151485624751484;0.877;0.013932799948097636
24:42.0;-0.07361364130409243;-0.23130407902841266;-0.8705157489626357;0.8270000000000001;0.014822389617494543
24:42.0;-0.07484198681266874;-0.24267845380828293;-0.8322279060164949;0.802;0.015115370667781996
24:42.0;-0.07316599402978145;-0.25116217010591363;-0.801024230946231;0.7959999999999999;0.014720045681325889
24:42.0;-0.06842776787989821;-0.2565960400208702;-0.7769027900797164;0.799;0.013641087803868152
24:42.0;-0.06081841828834082;-0.25918915693430317;-0.7592182115021512;0.8059999999999999;0.01196791696419809
24:42.0;-0.05084312356716098;-0.25945859123748083;-0.7468467662323327;0.815;0.009852167443864664
24:42.0;-0.03924354430396819;-0.25813734736921035;-0.7383919888868118;0.823;0.0074800765632550975
24:42.1;-0.026893805381403655;-0.25606530569306807;-0.7324000815146042;0.818;0.005043724792801516
24:42.1;-0.014689999019982981;-0.2540806108096409;-0.7275568080080395;0.818;0.002715564987261874
24:42.1;-0.0034539246337312534;-0.25292651046821263;-0.7228450012318769;0.818;0.0006314695177014527
24:42.1;0.006133487960520264;-0.253182461795669;-0.7176504535689255;0.807;0.0011144333476192597
24:42.1;0.013564784344729278;-0.2552220121692145;-0.7118106416168399;0.795;0.0024643109025358017
24:42.1;0.01851082143656524;-0.25919583578019634;-0.7056058200820278;0.777;0.003385445803459583
24:42.1;0.020808857090455463;-0.26503661245247806;-0.699697088819099;0.755;0.0038589057064057873
24:42.1;0.020444528019105186;-0.2724826991404036;-0.6950210147203992;0.737;0.0038718092916095173
24:42.1;0.017534354490767665;-0.2811185636239789;-0.6926545009058291;0.727;0.0034142551107426908
24:42.1;0.012309863821992456;-0.2904298135033692;-0.6936663079987824;0.718;0.002479962109683394
24:42.2;0.00510087134210055;-0.29986845184471705;-0.6989726499577328;0.726;0.0010691418499360443
24:42.2;-0.003683870371511098;-0.308920778671882;-0.7092138049741248;0.726;0.0008071024047327235
24:42.2;-0.013577561073630187;-0.31716853643810666;-0.7246668056198664;0.7509999999999999;0.003120687141231899
24:42.2;-0.024076139561667348;-0.3243352981463871;-0.7452054843059321;0.782;0.005819117291605947
24:42.2;-0.03466043669731441;-0.330313422660524;-0.7703131348878536;0.8220000000000001;0.008819166777871909
24:42.2;-0.044824071777121215;-0.3351692394282548;-0.7991457080070661;0.867;0.012006085452553564
24:42.2;-0.05410997047853758;-0.33912520867751883;-0.8306365487620617;0.915;0.01524222637976996
24:42.2;-0.06215241857404557;-0.34251955545650836;-0.8636283526753503;0.9640000000000001;0.018385282042491184
24:42.2;-0.06871516440784682;-0.3457472604243532;-0.8970142751331507;1.011;0.021311336769482166
24:42.2;-0.0737139861130793;-0.3491905485548666;-0.9298679333996244;1.052;0.023935011915397132
24:42.3;-0.0772158563971976;-0.35315012137259766;-0.9615421405575658;1.078;0.02622008980177994
24:42.3;-0.07941405707171774;-0.3577882793848132;-0.9917198970084035;1.093;0.0281781528043298
24:42.3;-0.08058552378122517;-0.363091687730431;-1.0204090703974293;1.102;0.029857101885856347
24:42.3;-0.0810400803728944;-0.3688569700426081;-1.047882861488722;1.1079999999999999;0.03132352249864538
24:42.3;-0.0810699512808295;-0.37469878368553544;-1.0745781963248355;1.121;0.03264225999775062
24:42.3;-0.08090403903266014;-0.3800780518711601;-1.1009704515871626;1.136;0.033854675738740965
24:42.3;-0.08066855450805095;-0.3843470346855783;-1.1274443533217406;1.1520000000000001;0.0349560961718652
24:42.3;-0.08035590104687526;-0.38680758513429464;-1.1541787103386656;1.171;0.035874496652019826
24:42.3;-0.07980631256641038;-0.3867791784700774;-1.1810589719657507;1.202;0.03645624334561853
24:42.3;-0.07870875509759935;-0.3836735025984255;-1.2076273008209701;1.2429999999999999;0.036468489271527925
24:42.4;-0.07662723787818097;-0.377070979502825;-1.2330745160801626;1.271;0.03562834118495378
24:42.4;-0.07305619979134684;-0.36679029620728737;-1.2562732957375753;1.2770000000000001;0.03366348259850941
24:42.4;-0.06750377917576421;-0.3529370206251971;-1.2758510423446032;1.2919999999999998;0.030396618675348146
24:42.4;-0.05959296658929105;-0.33591724168377846;-1.2903035233449278;1.3359999999999999;0.025829689421833772
24:42.4;-0.04915944036404701;-0.31640949716768385;-1.2981493207503196;1.381;0.02019208153268191
24:42.4;-0.03631865967107849;-0.2952984077506348;-1.2981143495299687;1.405;0.013922071780197944
24:42.4;-0.021480424011580054;-0.27358058630115417;-1.2893203824618182;1.406;0.0075768549648890324
24:42.4;-0.005305105084754214;-0.25225728019381605;-1.271442823631375;1.3840000000000001;0.0017015101130900803
24:42.4;0.011386225035267532;-0.2322306765381322;-1.2448062289044564;1.341;0.003291554899740747
24:42.4;0.02772331678254887;-0.2142203335223851;-1.2103983574574724;1.28;0.007188432587054464
24:42.5;0.042892735258573296;-0.19871090846598582;-1.1697993695102087;1.205;0.009970497611389037
24:42.5;0.05621785852321247;-0.18593459573134197;-1.125037817763462;1.13;0.01175984570028175
24:42.5;0.06720485448047674;-0.17588564434363405;-1.0783962125054851;1.063;0.01274704130378775
24:42.5;0.07555832905100858;-0.16836125196533633;-1.0321941764692812;1.002;0.013130640048738925
24:42.5;0.08117616941036322;-0.16302143980096054;-0.9885764559384975;0.9490000000000001;0.013082283046933032
24:42.5;0.08413261093644846;-0.15945912886646943;-0.9493283742010752;0.909;0.012735916867867805
24:42.5;0.08465495076039495;-0.15727118198555678;-0.9157351262658036;0.883;0.01219189982525844
24:42.5;0.08309592582220374;-0.1561221168036933;-0.8884947414223304;0.86;0.011526541647169465
24:42.5;0.07990208364622986;-0.1557937715576436;-0.8676883408394312;0.8390000000000001;0.010801198756774334
24:42.5;0.07557822447736667;-0.1562156424991878;-0.852807045812348;0.8270000000000001;0.010068667150225426
24:42.6;0.07064826570851866;-0.1574722360966197;-0.8428327713958179;0.856;0.009376632896509352
24:42.6;0.06561386025576843;-0.15978646815164807;-0.8363669055603299;0.856;0.008768643759207401
24:42.6;0.06091401967857596;-0.1634816965344055;-0.8317945963979373;0.856;0.008283282820486302
24:42.6;0.05688976878899785;-0.16892763912645706;-0.8274675741870894;0.877;0.00795217383940066
24:42.6;0.05375625411066429;-0.17647645967454442;-0.8218886305776835;0.8909999999999999;0.007797021893897857
24:42.6;0.051583320377263646;-0.1863963854821877;-0.813881739147255;0.898;0.007825427726634122
24:42.6;0.05028607911541796;-0.19881213375438114;-0.8027301562777687;0.895;0.008025280839782302
24:42.6;0.04962784822815073;-0.21366212806538376;-0.7882645557197909;0.883;0.008358435471846233
24:42.6;0.04923793934591696;-0.23068024576291773;-0.7708874976459189;0.858;0.00875590975433206
24:42.6;0.048646121467443584;-0.24940563929140896;-0.7515280197038636;0.825;0.009118001645598022
24:42.7;0.04733348453037792;-0.269219380264453;-0.7315301068994373;0.743;0.00932195499287552
24:42.7;0.04479550508409125;-0.28940024588527974;-0.7124926598379646;0.743;0.009236633850833391
24:42.7;0.04060912051493805;-0.30918530401047317;-0.6960918802368103;0.743;0.00873995094198347
24:42.7;0.034494286004184804;-0.32782167619404384;-0.683917279382876;0.7290000000000001;0.007733719262751839
24:42.7;0.026362136841755056;-0.344605809580485;-0.677338107690598;0.723;0.00615330886404086
24:42.7;0.016344028918594704;-0.3589150184463517;-0.6774041368550111;0.735;0.003973732221678722
24:42.7;0.004797064584250761;-0.3702357366576639;-0.6847825051930498;0.7609999999999999;0.00121620436649107
24:42.7;-0.007716644316639197;-0.37818896465270146;-0.699732103210978;0.787;0.0020420629907715606
24:42.7;-0.020476948868629267;-0.3825516866164311;-0.7221121675471522;0.8109999999999999;0.005656659401206465
24:42.7;-0.032675580904402965;-0.38327355679008535;-0.7514168545792176;0.833;0.009410508827078012
24:42.8;-0.043502435663054076;-0.3804887681235766;-0.7868266444360565;0.9309999999999999;0.013023702664710687
24:42.8;-0.052237482954382304;-0.37452231300619776;-0.8272668614445365;0.9309999999999999;0.016184734037555576
24:42.8;-0.05833351391252607;-0.3658878531945982;-0.87146157962019;0.9309999999999999;0.01860006129199056
24:42.8;-0.06147569479550053;-0.3552724053725937;-0.9179759875527685;0.973;0.020049162842382787
24:42.8;-0.06161065808101027;-0.34350256368255006;-0.9652542129547553;1.011;0.02042807935123815
24:42.8;-0.05894464752848622;-0.33148927507066694;-1.0116682202896539;1.052;0.01976750988447494
24:42.8;-0.053913535319682224;-0.32015334004621415;-1.055587850445434;1.1;0.018220077969103663
24:42.8;-0.04712990779251263;-0.31033991977173275;-1.0954710631837274;1.15;0.01602267943206233
24:42.8;-0.03931509182832307;-0.3027346047224553;-1.12996546830961;1.199;0.013448892828711784
24:42.8;-0.031225334768053205;-0.2977942274822179;-1.1580073333951373;1.24;0.010767991098676589
24:42.9;-0.02358082959994884;-0.29570238117070824;-1.1789019470119364;1.245;0.008220374184094105
24:42.9;-0.01700448879234136;-0.29635366356155274;-1.1923716909105602;1.245;0.006008769398138514
24:42.9;-0.011974446355969578;-0.2993645542399063;-1.1985663576473473;1.245;0.004296530541459793
24:42.9;-0.008790320995029062;-0.3041060814353402;-1.198039692664055;1.25;0.0032025878127192892
24:42.9;-0.007549430463865548;-0.30975538433962363;-1.1916994694643834;1.2830000000000001;0.002786761484311223
24:42.9;-0.008128271320837106;-0.31536677276596753;-1.1807328413225529;1.27;0.0030266748553454074
24:42.9;-0.0101703006903107;-0.31996269164515595;-1.1665010965377176;1.185;0.0037959307964623044
24:42.9;-0.013092672928355732;-0.32263873762689066;-1.1504017483710167;1.137;0.004859531052492643
24:42.9;-0.016132848315062814;-0.32266914309528943;-1.1337147535512913;1.122;0.005901634164245709
24:42.9;-0.018449648884978343;-0.31959706742514254;-1.117466174935654;1.127;0.006589087537980395
24:43.0;-0.019272093910412853;-0.3132972165776682;-1.1023390999711271;1.119;0.006655805953961609
24:43.0;-0.01806523133538728;-0.304001978602027;-1.0886436423234533;1.119;0.005978685081446146
24:43.0;-0.014668530638111564;-0.29228609739354033;-1.0763421040660428;1.119;0.004614717289953351
24:43.0;-0.009365944448569972;-0.2790086499037671;-1.0651182804133241;1.1079999999999999;0.0027833452721408914
24:43.0;-0.002864557625442459;-0.26521336864211315;-1.0544780018541282;1.099;0.0008011069493786193
24:43.0;0.00381869739944138;-0.2519935643896415;-1.0438672226541748;1.0959999999999999;0.001004500034510935
24:43.0;0.009541654415904748;-0.24033937280985854;-1.0327924909136952;1.102;0.002368436133588338
24:43.0;0.013254455917853078;-0.2309960047884609;-1.0209265436960093;1.111;0.0031257977131824467
24:43.0;0.014201773505227508;-0.22436352749839897;-1.008179949280773;1.122;0.003212424263559425
24:43.0;0.012064972446568862;-0.22046035127495417;-0.9947191641262071;1.089;0.002645801842619625
24:43.1;0.007015790269086956;-0.2189575544117346;-0.9809162522416635;0.956;0.0015068445842929509
24:43.1;-0.00032484865958674403;-0.21927308725712244;-0.9672332285622874;0.956;6.889657272219618e-05
24:43.1;-0.00901020620882056;-0.22070010078298777;-0.9540705780867199;0.9059999999999999;0.0018972203094131468
24:43.1;-0.017948314421472947;-0.22254034361166583;-0.9416248783193336;0.887;0.003761060743163906
24:43.1;-0.02610490652454155;-0.2242209822910836;-0.9297950509191178;0.899;0.0054423394168487535
24:43.1;-0.03268395463835945;-0.22538064048445244;-0.9181623728756889;0.917;0.0067634876105893285
24:43.1;-0.03724070562318358;-0.22591264858168283;-0.9060543723232365;0.94;0.007622768119117861
24:43.1;-0.0397013596767987;-0.22595637501549465;-0.8926847404258911;0.97;0.008008074234164424
24:43.1;-0.040296668358533294;-0.22583774423190178;-0.8773415686247864;0.995;0.007984254562482909
24:43.1;-0.03944499175408684;-0.2259761172578267;-0.8595807924520981;0.9990000000000001;0.007661981771063072
24:43.2;-0.037628955878437245;-0.22678674476514044;-0.8393777747801249;0.897;0.007163038753086401
24:43.2;-0.03529892009236841;-0.2286053984280596;-0.8172038067612539;0.897;0.006594445479685915
24:43.2;-0.0328170439217512;-0.23164575559422768;-0.7940205338245989;0.897;0.0060360876715600505
24:43.2;-0.03044002291988153;-0.23598523526308274;-0.7712030503238511;0.845;0.005539856883872896
24:43.2;-0.028331243622788757;-0.2415710840488941;-0.750402083445268;0.7929999999999999;0.005135758788620217
24:43.2;-0.026589754198388344;-0.24823985093538886;-0.7333545901344534;0.721;0.004840607162072006
24:43.2;-0.025281449369240625;-0.25574323265299703;-0.7216643571456115;0.6659999999999999;0.0046659639035471255
24:43.2;-0.024461690157438785;-0.2637745112216514;-0.7165906095421462;0.637;0.0046237080127996604
24:43.2;-0.02418798470793939;-0.27199498693125457;-0.7188884254063883;0.708;0.004729574559844274
24:43.2;-0.024526220206582898;-0.28006416093191305;-0.7287325666172517;0.79;0.00500560226404829
24:43.3;-0.025549157261643654;-0.2876756108361425;-0.745727987313158;0.802;0.00548100333077833
24:43.3;-0.027322176590999732;-0.29459382653574306;-0.7689829707063326;0.802;0.006189501292053792
24:43.3;-0.02987875597647808;-0.3006826790357788;-0.7972157990514288;0.836;0.007162206185373261
24:43.3;-0.03319818520560502;-0.30591864213631453;-0.8288807835326915;0.885;0.008418066604301222
24:43.3;-0.03719711901774017;-0.3103886152593248;-0.8623113225642277;0.943;0.009955869065231741
24:43.3;-0.041736649706236785;-0.31427652340457085;-0.8958745962727078;0.9990000000000001;0.011751051952958504
24:43.3;-0.04663805642890413;-0.3178419953514553;-0.9281230488058455;1.048;0.013758062562843499
24:43.3;-0.05169844537963654;-0.3213914461080621;-0.9579222308712426;1.081;0.01591629755282517
24:43.3;-0.05670071043193459;-0.3252415311078801;-0.9845351290747272;1.089;0.018156231604939926
24:43.3;-0.06141623673392905;-0.32967835768980036;-1.007649081528405;1.093;0.02040247963615428
24:43.4;-0.06560130195450029;-0.3349193978831017;-1.0273420450089423;1.081;0.02257188468352698
24:43.4;-0.06899109222206834;-0.3410841278588686;-1.0439977772455928;1.081;0.024567111942163388
24:43.4;-0.07129936837845452;-0.3481742945527101;-1.0581898727773251;1.081;0.026269148027012728
24:43.4;-0.07223306696426589;-0.35606155081976837;-1.070558574685672;1.079;0.027534143308565965
24:43.4;-0.0715252202516416;-0.364482956048038;-1.0817018161972876;1.095;0.028199667484117053
24:43.4;-0.06897912394644494;-0.37304777664705213;-1.0920961793485389;1.159;0.028102374570959623
24:43.4;-0.06451144665626417;-0.3812541852915031;-1.1020553378904436;1.159;0.027105336508425122
24:43.4;-0.058185942348824786;-0.3885071514034229;-1.111722835761372;1.1740000000000002;0.025131222562518866
24:43.4;-0.05023289499082641;-0.3941330596826914;-1.1210871120755839;1.206;0.02219578107959005
24:43.4;-0.041046107965007725;-0.39740114139180466;-1.1300035302133284;1.216;0.018432357859161815
24:43.5;-0.03114831667470861;-0.39756905360706735;-1.1382094152900784;1.196;0.014095137834314334
24:43.5;-0.021126058223694028;-0.39396058688495583;-1.1453242628924518;1.196;0.009532344055668562
24:43.5;-0.011550058507043949;-0.38606591045660105;-1.1508394294648512;1.196;0.005131689517724016
24:43.5;-0.0029028704199139384;-0.37364322477268946;-1.1541126137784983;1.162;0.0012517942411404118
24:43.5;0.004472311638677041;-0.3567996385048519;-1.1543862762689558;1.17;0.001842076317508597
24:43.5;0.010398445533304101;-0.33603115983898296;-1.1508486298468943;1.1840000000000002;0.004021297253905257
24:43.5;0.014868894669101013;-0.31220580367973;-1.1427489291377648;1.245;0.00530481789511415
24:43.5;0.018031770227685023;-0.28648778805289116;-1.1295575852636508;1.297;0.005835161160635896
24:43.5;0.02015682134173626;-0.260219183409097;-1.1111314899271612;1.301;0.005828097545983074
24:43.5;0.0215883433774539;-0.23478283075110884;-1.0878252581228998;1.261;0.005513721046041467
24:43.6;0.022689831724318314;-0.21146722168033655;-1.0604966136913272;0.983;0.005088427845445502
24:43.6;0.02378767226294624;-0.1913512509994687;-1.0303940908290457;0.983;0.004690148694225533
24:43.6;0.025121704692887676;-0.17522428942310844;-0.9989689363040306;0.983;0.004397394180750652
24:43.6;0.026810087283644438;-0.163548832261774;-0.9676775409559037;0.9209999999999999;0.004243032292073634
24:43.6;0.028833299238722826;-0.15646184094236965;-0.9378193873001084;0.8859999999999999;0.004230794992340076
24:43.6;0.031038036171508604;-0.15380464394944446;-0.9104246696877254;0.8690000000000001;0.004346179918697129
24:43.6;0.033158696508945124;-0.15517154182250348;-0.8861948449668318;0.87;0.004559725984128199
24:43.6;0.03485291296696705;-0.15996989236546064;-0.8654965369424252;0.883;0.004825503876974255
24:43.6;0.035746863318599935;-0.16748642216062645;-0.8484004015787111;0.889;0.005079470126105159
24:43.6;0.03548481679673531;-0.17695534152931447;-0.834746504304224;0.887;0.005241563518695959
24:43.7;0.03377622399367785;-0.1876235534689886;-0.8242145581822368;0.852;0.005223225000176669
24:43.7;0.030434125741176488;-0.19880748000332418;-0.8163834420218357;0.852;0.004939554013445116
24:43.7;0.025400693537833936;-0.20993647868640017;-0.8107758227962457;0.835;0.004323488147604979
24:43.7;0.018757833234852167;-0.22058039408487515;-0.8068926226501438;0.83;0.0033386071838044282
24:43.7;0.01072241717942917;-0.23046166590879036;-0.8042446602626575;0.835;0.001987373906568963
24:43.7;0.001627371962103002;-0.23945328438498703;-0.8023872370533218;0.846;0.00031267390648080174
24:43.7;-0.008108457126423057;-0.247563506321623;-0.80095953748607;0.861;0.0016078125969835944
24:43.7;-0.018017302333917604;-0.25490895977700484;-0.7997248441187348;0.8690000000000001;0.003672953708570433
24:43.7;-0.02762085918074895;-0.2616798556066995;-0.7986022264262385;0.871;0.0057721550945156125
24:43.7;-0.036464459124359194;-0.26810288218127154;-0.7976786157710338;0.877;0.007798286892516331
24:43.8;-0.04414310809986387;-0.27440754204133727;-0.7971928877513109;0.836;0.009656558316278492
24:43.8;-0.05031850873212658;-0.2807995899952261;-0.7974906279908328;0.836;0.011268077334346897
24:43.8;-0.05472901985919305;-0.2874419005589492;-0.7989578504561967;0.836;0.01256873630185815
24:43.8;-0.057196126053090976;-0.2944414883304816;-0.8019480134617165;0.828;0.01350553630967011
24:43.8;-0.0576312176167919;-0.30184251954013214;-0.8067155577238916;0.8290000000000001;0.014033262376816796
24:43.8;-0.05604506140852823;-0.3096260277002128;-0.8133658340550729;0.83;0.014114345237398943
24:43.8;-0.05255926402891984;-0.31771611376867875;-0.8218303081429587;0.848;0.013723682768651605
24:43.8;-0.04741550452379352;-0.3259917283207896;-0.8318744443569709;0.885;0.012858335086343656
24:43.8;-0.040976292054899645;-0.33430344599394596;-0.8431398381029425;0.9179999999999999;0.0115497642572801
24:43.8;-0.033711510491947864;-0.3424942874936824;-0.8552132556627627;0.937;0.009874292049997953
24:43.9;-0.026167893200869877;-0.3504220746588857;-0.8677080335974139;0.992;0.007956715569127788
24:43.9;-0.018923844580677824;-0.357978877618355;-0.8803404905074906;0.992;0.005963722843350969
24:43.9;-0.012538050183308945;-0.3651020702158875;-0.8929849184339346;0.992;0.004087788555604778
24:43.9;-0.007501794856872207;-0.37177302075769453;-0.9056958462726228;1.002;0.0025259539570692707
24:43.9;-0.004199529473125359;-0.3780031909736525;-0.9186953289686091;1.006;0.001458369616949841
24:43.9;-0.002876224700796358;-0.3838107187410092;-0.9323308936139932;0.998;0.0010292241925561072
24:43.9;-0.003610528990522619;-0.3891928552471784;-0.9470131667740841;1.005;0.001330735408021929
24:43.9;-0.006298594414111844;-0.3941016488813484;-0.9631434583777346;1.022;0.0023907979505859473
24:43.9;-0.010657203751920443;-0.39842966806227853;-0.9810420924192251;1.038;0.004165648107000065
24:43.9;-0.016251456447959178;-0.40200768868113707;-1.0008868942195752;1.057;0.00653900471092459
24:44.0;-0.022544294611343635;-0.4046107938867251;-1.0226685114987286;1.077;0.009328439506898979
24:44.0;-0.028958676195667627;-0.4059676442530183;-1.04616653971777;1.121;0.012299032579888331
24:44.0;-0.03494115546121757;-0.40577003429647757;-1.070947183103282;1.121;0.015183968251334454
24:44.0;-0.040017206415817866;-0.40368367761691426;-1.0963798215995362;1.155;0.01771124093649332
24:44.0;-0.043832000247839634;-0.3993639963479632;-1.1216688252666098;1.193;0.019634726178767246
24:44.0;-0.04617355195110917;-0.39248213225614387;-1.1458967811948357;1.226;0.020766278504112112
24:44.0;-0.04697732232057404;-0.3827667401630768;-1.1680722345711234;1.246;0.021003523298220857
24:44.0;-0.04631398066763593;-0.37006376204733604;-1.187172488394641;1.2409999999999999;0.020347098768842952
24:44.0;-0.04436608419136116;-0.3544065925883995;-1.202177176050074;1.225;0.018902592386288924
24:44.0;-0.04140245995955977;-0.336076234844344;-1.2121010767892435;1.226;0.016865638443224543
24:44.1;-0.037757551247419946;-0.3156241567266779;-1.2160452887550957;1.275;0.014491849166336118
24:44.1;-0.03381658054674578;-0.2938395629905856;-1.2132816401397353;1.275;0.012055954099159239
24:44.1;-0.0300001074072679;-0.27166674901420224;-1.2033649710405407;1.275;0.009807462599770982
24:44.1;-0.02673858871993164;-0.250096104721453;-1.1862492406241147;1.28;0.007932705951250117
24:44.1;-0.024430842532121463;-0.23005001399548552;-1.1623798358730364;1.276;0.006532941601906586
24:44.1;-0.023388166247381718;-0.2122781589727642;-1.132737900860706;1.245;0.005623813587830855
24:44.1;-0.023774823970902043;-0.19727903374585837;-1.098814467315367;1.182;0.005153741257020083
24:44.1;-0.025561187139791823;-0.18526468663833975;-1.0624990917433974;1.0959999999999999;0.005031555107278196
24:44.1;-0.028504440090934634;-0.17617480204406408;-1.0258853536365167;0.9940000000000001;0.005151754229756387
24:44.1;-0.032164271613086715;-0.16973079845981826;-0.9910189822813247;0.907;0.00541023772459433
24:44.2;-0.03595178220720748;-0.16551020717217277;-0.9596343971126173;0.833;0.0057101959658313155
24:44.2;-0.03920238498270509;-0.16302165813458377;-0.932934025947226;0.833;0.005962230040458794
24:44.2;-0.04125923185089374;-0.16176996255828555;-0.9114569891058073;0.833;0.006083523676634832
24:44.2;-0.041554164975622455;-0.1613102199662929;-0.8950615160967024;0.861;0.005999697135251082
24:44.2;-0.03967718706854324;-0.16129241173380052;-0.8830175562395933;0.9640000000000001;0.0056509849309294
24:44.2;-0.035428154933746736;-0.16149542455587942;-0.8741798381945178;0.9690000000000001;0.0050016067635709135
24:44.2;-0.028844994484639664;-0.16184771255964983;-0.8671932098617371;0.8859999999999999;0.00404848835764809
24:44.2;-0.02020538423230557;-0.16243310616771128;-0.8606842521167101;0.897;0.0028247857884676052
24:44.2;-0.01000364220694202;-0.16348174605907909;-0.8534181805977347;0.925;0.0013956910973267765
24:44.2;0.0010932571635415044;-0.16534441301367536;-0.8444223113127125;0.934;0.00015264112426499726
24:44.3;0.01230739055846501;-0.16844642077429603;-0.8330769052511184;0.856;0.0017270816302772333
24:44.3;0.022824291863903973;-0.17322133077724902;-0.8191668781194027;0.856;0.0032387025769540414
24:44.3;0.031869365620924565;-0.1800345261966121;-0.8028927829468929;0.856;0.004606666503141199
24:44.3;0.03877392385305048;-0.18911305399497128;-0.7848476911243011;0.828;0.00575501746838421
24:44.3;0.04302460582380195;-0.20049577364239501;-0.7659653251452874;0.8;0.00660740963478954
24:44.3;0.04429654982094978;-0.2140108744446971;-0.7474409317508531;0.7829999999999999;0.0070856976994868445
24:44.3;0.04247146382227064;-0.22928149746058876;-0.730628526074918;0.764;0.0071148027390485
24:44.3;0.03763970575199314;-0.24575602554822243;-0.7169221263505732;0.743;0.0066316619325691405
24:44.3;0.030085422221375953;-0.26275816735638974;-0.7076298669969348;0.7290000000000001;0.005593948836313463
24:44.3;0.020255588008353777;-0.2795528483092841;-0.7038504052009212;0.721;0.003985558072982829
24:44.4;0.008715346355072137;-0.29542403616765484;-0.7063623888330626;0.7490000000000001;0.0018186873453408126
24:44.4;-0.003905606988733328;-0.3097565730586073;-0.7155383629974069;0.7490000000000001;0.0008656493219193674
24:44.4;-0.01696700229228614;-0.3221079399943445;-0.7312934466987517;0.7490000000000001;0.003996669446921551
24:44.4;-0.029863338681768683;-0.3322556528544543;-0.7530778415212673;0.782;0.007472236470917273
24:44.4;-0.04205720593977422;-0.3402139059896958;-0.7799210828334003;0.8290000000000001;0.011159458938030171
24:44.4;-0.05310223123268595;-0.3462206001908524;-0.8105316875248973;0.888;0.014901695079838184
24:44.4;-0.06265676915364558;-0.35069773831729834;-0.8434460544581754;0.9490000000000001;0.018533535453504658
24:44.4;-0.07048694818468222;-0.3541888553171157;-0.8772080491368596;1.004;0.021900105529339
24:44.4;-0.07645745577937506;-0.3572804275899676;-0.9105511094270695;1.06;0.024873299288715484
24:44.4;-0.08051034865182717;-0.3605180387776108;-0.9425508703894893;1.1059999999999999;0.0273579471349977
24:44.5;-0.08263473584957041;-0.3643291982078454;-0.9727186583509285;1.095;0.029284908244479782
24:44.5;-0.08283385386161528;-0.3689622068080089;-1.001016006158287;1.095;0.030593613269910207
24:44.5;-0.08110100203404076;-0.3744464219678722;-1.0277876748883525;1.095;0.03121183558573574
24:44.5;-0.07741770661276914;-0.3805766580090367;-1.0536291276282126;1.082;0.03104346699362171
24:44.5;-0.0717819181870784;-0.386923438782725;-1.0792162075613592;1.087;0.02997426602278924
24:44.5;-0.06426277820361984;-0.39286866454378966;-1.1051291444162004;1.121;0.027901009684627043
24:44.5;-0.05506618126298514;-0.3976618648158468;-1.1317014071722127;1.155;0.024781680910561932
24:44.5;-0.044586639324099946;-0.4004883579114352;-1.1589155609193111;1.178;0.02069409455203137
24:44.5;-0.03342099917397134;-0.4005409233394282;-1.186356013046976;1.215;0.01588112851230362
24:44.5;-0.022329403188271823;-0.3970917591078668;-1.2132180050095918;1.2590000000000001;0.010757388087739161
24:44.6;-0.01214389576898171;-0.389567392013414;-1.238364464985528;1.3219999999999998;0.0058585360997995585
24:44.6;-0.0036422897056976097;-0.3776281089544887;-1.2604162175994087;1.3219999999999998;0.0017336155056000854
24:44.6;0.002579184223803118;-0.3612430007098807;-1.2778598538671933;1.3219999999999998;0.0011905976775742043
24:44.6;0.006197742168504989;-0.3407414067348219;-1.2891650440511488;1.314;0.002722494043910073
24:44.6;0.00719902958566376;-0.3168223543904136;-1.292914325609754;1.328;0.002948896451628408
24:44.6;0.005855648906996289;-0.2905145299946949;-1.2879517201623365;1.385;0.002191000472660141
24:44.6;0.0026646185214464655;-0.2630917381531267;-1.2735448006991568;1.4169999999999998;0.0008928047242261691
24:44.6;-0.0017356607212163733;-0.23595729213262456;-1.2495330630033687;1.4080000000000001;0.0005117360245790874
24:44.6;-0.006651647253553614;-0.21051490635641235;-1.216419220645372;1.339;0.0017033164352862828
24:44.6;-0.011414473065489398;-0.1880438151697797;-1.1753640578746434;1.246;0.0025228261709705243
24:44.7;-0.015448788549510387;-0.16959247201993957;-1.1280719953224032;1.014;0.00295554664214035
24:44.7;-0.018326349451092298;-0.15590072417503953;-1.0765939220927583;1.014;0.0030759269679348465
24:44.7;-0.019799702321653432;-0.14735670241436427;-1.0231051657001016;1.014;0.002985030909719938
24:44.7;-0.019813522294104876;-0.14399041649757982;-0.9697137271767375;0.9490000000000001;0.0027665518834411114
24:44.7;-0.01849427287279546;-0.14550057207276917;-0.9183198011679963;0.884;0.0024711318075386975
24:44.7;-0.016120863760833104;-0.15130709384678753;-0.8705202856976383;0.825;0.002123373991395809
24:44.7;-0.013080231254695006;-0.16062095234777052;-0.8275526460536948;0.785;0.0017386543460865577
24:44.7;-0.009813341531018004;-0.17252383750314146;-0.7902829439431356;0.789;0.0013379769524264132
24:44.7;-0.006759194700358679;-0.18605126503692426;-0.759241127394281;0.882;0.0009547887853723194
24:44.7;-0.0043056998867742596;-0.20027322745916376;-0.7346883328193947;0.861;0.0006335338076790397
24:44.8;-0.0027549419787640493;-0.21436669799007563;-0.7166796851423897;0.713;0.0004232479558111218
24:44.8;-0.002305645878420203;-0.22767401993967187;-0.7050896753088154;0.713;0.0003701267180845004
24:44.8;-0.0030493220898179497;-0.239740699679858;-0.6996020817111387;0.713;0.0005114417311368703
24:44.8;-0.004973088356230444;-0.2503278494332214;-0.6996963918718783;0.7170000000000001;0.0008710537967578489
24:44.8;-0.007964773551517569;-0.2593991536227588;-0.7046593276514413;0.74;0.001455865292247127
24:44.8;-0.011822119859492898;-0.2670857156644846;-0.713629808352159;0.769;0.002253299923858797
24:44.8;-0.01627140083252728;-0.2736333224010262;-0.7256712793074571;0.792;0.0032309769679845003
24:44.8;-0.0209977914403008;-0.27933958086699573;-0.7398577059859266;0.815;0.004339645924880331
24:44.8;-0.025683024080752712;-0.2844931299783438;-0.7553557768675175;0.828;0.005519115685453768
24:44.8;-0.030041602185282845;-0.2893281024795169;-0.7714880053387062;0.84;0.0067056809753784355
24:44.9;-0.03384808310756468;-0.29400128055429514;-0.7877684062956327;0.877;0.007839382588104255
24:44.9;-0.036952106927433656;-0.29859036317121623;-0.8039090075664957;0.877;0.008869964625102603
24:44.9;-0.039281397042594174;-0.3031053405802547;-0.8197985255772369;0.877;0.009760850172517434
24:44.9;-0.04083482319091673;-0.3075048136156402;-0.835456644588586;0.888;0.010490749462360711
24:44.9;-0.04166857532800657;-0.3117137276066201;-0.8509711787238176;0.883;0.011052981215600088
24:44.9;-0.04187942422373369;-0.3156432026174158;-0.8664293585674021;0.88;0.011453291209094675
24:44.9;-0.041589677060543874;-0.3192136313895837;-0.8818571897416384;0.897;0.011707528857538877
24:44.9;-0.04093750348600273;-0.32237977231325077;-0.8971819655826184;0.9279999999999999;0.011840489955217633
24:44.9;-0.04007336222262438;-0.32515332199796865;-0.912229744036011;0.966;0.011886341569254727
24:44.9;-0.03915965583526176;-0.32761650461431335;-0.9267604386864415;0.991;0.01188973363244837
24:45.0;-0.038368553793197265;-0.3299213320750125;-0.9405319496790648;1.047;0.011905821855144695
24:45.0;-0.037873776196784135;-0.33227294765937376;-0.9533760532586745;1.047;0.011997695403252082
24:45.0;-0.037835701794200045;-0.33489900649096965;-0.9652653422400138;1.047;0.012231011266229445
24:45.0;-0.03838244496626157;-0.3380084551796763;-0.9763549275495508;1.058;0.012666829431604784
24:45.0;-0.03959054525493797;-0.3417436719966861;-0.9869927632212468;1.062;0.013353832761418731
24:45.0;-0.04146936569551471;-0.34613181678931904;-0.9977001811182644;1.067;0.014320855595191263
24:45.0;-0.04395394340942725;-0.35104404558636143;-1.0091257326903738;1.079;0.015570578071452875
24:45.0;-0.04690838702409887;-0.35617272265379274;-1.021974899758961;1.071;0.017074633293973913
24:45.0;-0.05013556124043354;-0.36103452923071966;-1.0369200402322836;1.077;0.018768946168644905
24:45.0;-0.05338691144131488;-0.3650001422878651;-1.05450021449621;1.064;0.020548234001957353
24:45.1;-0.056373134619479515;-0.3673429751933488;-1.0750262276292184;1.14;0.02226193874546013
24:45.1;-0.05878180178677681;-0.36729862193031615;-1.0985048303379714;1.14;0.023717240847054438
24:45.1;-0.06030397479848934;-0.3641336099271349;-1.1245860432026384;1.14;0.024694452086072915
24:45.1;-0.06066614633461478;-0.35722707775772017;-1.1525308788240969;1.168;0.024977176868682886
24:45.1;-0.059664404317324324;-0.34616534511063485;-1.1812021209938477;1.18;0.02439625225677428
24:45.1;-0.05720070553514773;-0.3308393786746083;-1.2090901998090167;1.205;0.022881120231072048
24:45.1;-0.05332007175783466;-0.31152515728018654;-1.234389036537769;1.2570000000000001;0.020503873084266322
24:45.1;-0.04824180384348647;-0.28892274812269814;-1.2551311470903714;1.3090000000000002;0.017494211897187778
24:45.1;-0.04237208252414859;-0.2641340430880709;-1.269378211684027;1.344;0.01420676602983665
24:45.1;-0.036284779266788025;-0.23856987636913402;-1.2754468090215043;1.3730000000000002;0.011040848294616613
24:45.2;-0.03066381942785064;-0.21379236782992248;-1.2721370029065908;1.383;0.008339736543766605
24:45.2;-0.026213194266861927;-0.19131764532757717;-1.2589274845282412;1.383;0.0063135800055254595
24:45.2;-0.023554641464763455;-0.17242167189156152;-1.2361026688482937;1.383;0.00502022167057239
24:45.2;-0.02313772856467291;-0.15799220637541003;-1.2047826299143607;1.3230000000000002;0.004404180233761255
24:45.2;-0.025178566517421043;-0.148449678676812;-1.166837130407688;1.2229999999999999;0.004361345611429466
24:45.2;-0.029630810974533465;-0.1437379949144717;-1.1246830183648349;1.109;0.004790107478778265
24:45.2;-0.03618510487074437;-0.14337562053797087;-1.0809895204664952;1.004;0.005608240507677423
24:45.2;-0.04429183776664128;-0.14655191589505634;-1.0383399743162673;0.924;0.006739920514714241
24:45.2;-0.05320544389636374;-0.15224986736684737;-0.9989102436158105;0.865;0.008091694181094504
24:45.2;-0.062052411519185835;-0.15937709717491308;-0.964220106557259;0.831;0.009535879619819665
24:45.3;-0.0699230487217684;-0.1668912604710382;-0.9349984076001633;0.894;0.010911006681656024
24:45.3;-0.07597683362753953;-0.17390874357457214;-0.9111793822768145;0.894;0.01203944568611543
24:45.3;-0.07954060265944277;-0.1797858246735396;-0.8920206164611879;0.894;0.01275613819800923
24:45.3;-0.08017879496832976;-0.1841633377092974;-0.8763123787599898;0.977;0.012939623760562603
24:45.3;-0.07772692803174079;-0.18697205719765703;-0.8626370519380746;1.031;0.012536500377529935
24:45.3;-0.0722931283552115;-0.18840364973271917;-0.8496282872960129;0.966;0.011572183013270329
24:45.3;-0.06423729908246559;-0.18885761889586436;-0.8361765673179389;0.9179999999999999;0.010144246062099694
24:45.3;-0.05413341849219763;-0.18887645149793253;-0.8215468832705242;0.882;0.008399929104952488
24:45.3;-0.04271623323336002;-0.18907791633280205;-0.8054081898358838;0.8390000000000001;0.0065050374059136325
24:45.3;-0.030814388078098495;-0.19008764557683616;-0.7877976242878623;0.792;0.004614472967495337
24:45.4;-0.019275009365816036;-0.19247278892822955;-0.7690477222289125;0.746;0.0028531015337219124
24:45.4;-0.008887764293283895;-0.19668042072738262;-0.7497027884001889;0.746;0.0013105173748912816
24:45.4;-0.00031957330810484976;-0.20298790032253194;-0.7304458743617236;0.746;4.7383669465782015e-05
24:45.4;0.005929343339477959;-0.21147273965912256;-0.7120474806897883;0.741;0.0008928324058046801
24:45.4;0.009544158802582452;-0.22200697037220835;-0.6953337593168519;0.738;0.001473321689986681
24:45.4;0.010392749383191163;-0.23427656814030437;-0.6811637048249859;0.7390000000000001;0.001658482170654266
24:45.4;0.008508800242621996;-0.2478213423701208;-0.6704041561263946;0.732;0.0014136559685037496
24:45.4;0.004067002732030896;-0.26208747059171533;-0.6638945457055382;0.718;0.0007076521398925031
24:45.4;-0.0026460158643084593;-0.27648539682515194;-0.6623979913334338;0.705;0.00048460026640549875
24:45.4;-0.011264028313902597;-0.29044875230486;-0.6665419205940581;0.696;0.0021806738576832245
24:45.5;-0.021376665571603306;-0.3034918902039135;-0.6767580363197868;0.7559999999999999;0.00439056564730141
24:45.5;-0.03256524202721544;-0.31526170845409707;-0.6932331882841041;0.7559999999999999;0.00711712971427757
24:45.5;-0.04443150120315531;-0.3255751723397061;-0.7158783867287327;0.7559999999999999;0.010355749029166214
24:45.5;-0.05661114335312097;-0.33443360592571336;-0.7443194374861088;0.795;0.014091953396657416
24:45.5;-0.06877038449012407;-0.34201044751258286;-0.7779139034397216;0.8440000000000001;0.018296682793158072
24:45.5;-0.08059187579848771;-0.3486146157199734;-0.8157989156650524;0.892;0.022920283176198406
24:45.5;-0.0917599652464385;-0.3546333510972319;-0.85696722893378;0.95;0.027886693975942907
24:45.5;-0.10195341214307037;-0.36046012257937937;-0.9003593430499615;1.014;0.03308833140182175
24:45.5;-0.11084822784974314;-0.3664172346107189;-0.9449530841927078;1.061;0.038380876983818535
24:45.5;-0.11812888045047346;-0.372686808398135;-0.9898297765585319;1.104;0.043577330580533084
24:45.6;-0.12350666304354666;-0.37926493788481075;-1.0341993050339837;1.103;0.04844370207770367
24:45.6;-0.126746857065387;-0.38594930441756853;-1.0773781048717486;1.103;0.052703032724935706
24:45.6;-0.12770577090391388;-0.3923606592366764;-1.1187339375083143;1.103;0.056056088676054106
24:45.6;-0.12637464422791014;-0.39799035238634706;-1.157629122735721;1.224;0.05822398607903481
24:45.6;-0.12292102518222628;-0.40226339695003943;-1.193394264291177;1.3030000000000002;0.05900932361182723
24:45.6;-0.11770877858648399;-0.4046040712014738;-1.2253433906458515;1.337;0.05835753164888817
24:45.6;-0.1112732680351448;-0.4044889272613837;-1.2528151878466296;1.357;0.056387714265826894
24:45.6;-0.10424138976912009;-0.40147875229147806;-1.2752139854604287;1.3430000000000002;0.05336860189655835
24:45.6;-0.09721343108585792;-0.3952351820667147;-1.2920320175763866;1.32;0.0496426714145406
24:45.6;-0.09064564772641309;-0.3855367231912213;-1.3028517254773457;1.3090000000000002;0.04553105368951852
24:45.7;-0.08477413693330195;-0.372305744301133;-1.3073428176747315;1.359;0.04126222085654333
24:45.7;-0.07960087886031132;-0.355647132491403;-1.3052731457970397;1.359;0.036952053434682504
24:45.7;-0.07493406621115156;-0.33588920686886825;-1.296541948399066;1.359;0.03263336970510375
24:45.7;-0.07045735030921763;-0.3136119039192637;-1.281229537846122;1.371;0.028310385825312707
24:45.7;-0.06580584800865244;-0.28964546872983976;-1.259649764034244;1.37;0.024009385145869047
24:45.7;-0.060639564733323936;-0.2650259228933188;-1.232388184967089;1.32;0.01980578028277172
24:45.7;-0.05471134248070372;-0.2409051711466022;-1.2003070246906746;1.253;0.015820341049512767
24:45.7;-0.04792157852363673;-0.21843187722036891;-1.1645036432181624;1.18;0.012189558750641292
24:45.7;-0.04034453071613882;-0.1986322222743133;-1.126224288842615;1.111;0.00902525037948334
24:45.7;-0.03221519255416827;-0.18231635624752965;-1.086750520627592;1.063;0.006382873258428499
24:45.8;-0.023882466260486068;-0.17002065870567373;-1.0472832915204766;0.98;0.004252507048245843
24:45.8;-0.015747889882958718;-0.16198279424962828;-1.0088490858813817;0.98;0.0025734602267435927
24:45.8;-0.008208115883812114;-0.15814424613698183;-0.9722461425774969;0.98;0.0012620399516727518
24:45.8;-0.001609038962355164;-0.1581779366987831;-0.9380357951223501;0.96;0.00023874367679537452
24:45.8;0.003788681428629883;-0.1615387891747525;-0.9065676167093929;0.9329999999999999;0.0005548366157749211
24:45.8;0.00783373561108447;-0.16753240412916195;-0.8780185054930508;0.902;0.0011523154905817405
24:45.8;0.010494996651217163;-0.17539464897346288;-0.8524302834721272;0.871;0.0015691248993774344
24:45.8;0.01185355161631548;-0.18437380516789753;-0.8297406465031475;0.848;0.0018133852524652866
24:45.8;0.012073236288885762;-0.19380632063900458;-0.8098099476232664;0.8390000000000001;0.0018948495999565915
24:45.8;0.011354706965152684;-0.20317709041845566;-0.7924484025337067;0.8340000000000001;0.00182819140036211
24:45.9;0.009886329777116383;-0.2121564913355416;-0.7774457455798846;0.8109999999999999;0.0016306528309297872
24:45.9;0.007807817583276428;-0.22060986740798416;-0.7646016894190137;0.8109999999999999;0.0013170123427235921
24:45.9;0.0051967906195664465;-0.2285798135652743;-0.7537539069262267;0.8109999999999999;0.0008953702695499087
24:45.9;0.002079074994105652;-0.23624561482731513;-0.7447997237538353;0.794;0.00036582503078513796
24:45.9;-0.0015431836277592851;-0.24386690650001897;-0.7377071242382097;0.775;0.0002776223677372175
24:45.9;-0.005655418609044712;-0.2517204116317809;-0.7325125281922523;0.764;0.0010427933348480486
24:45.9;-0.010198219277731494;-0.26003950088036587;-0.7293076807871629;0.764;0.001934080102210339
24:45.9;-0.015047974934027937;-0.26896575171716935;-0.7282214753925748;0.767;0.002947396237149797
24:45.9;-0.020014628799600025;-0.2785195199766897;-0.7294017251981287;0.7659999999999999;0.004066024246389433
24:45.9;-0.02485623847881642;-0.28859359448914257;-0.7329993756178883;0.769;0.0052580619566111745
24:46.0;-0.029307381985313373;-0.2989706480394771;-0.7391563160137168;0.83;0.006476522369794456
24:46.0;-0.033115561964102015;-0.30935999350415816;-0.7479961377366315;0.83;0.007662943698048354
24:46.0;-0.036077344892015806;-0.31944292228433424;-0.7596132280710726;0.83;0.008754278473159523
24:46.0;-0.03806669232923629;-0.3289146861682909;-0.7740537094531613;0.8590000000000001;0.00969168976020077
24:46.0;-0.039051116115930755;-0.3375172204809808;-0.7912850201287465;0.87;0.01042947220318336
24:46.0;-0.03909326900846308;-0.3450629885330794;-0.8111553729959657;0.861;0.010942194156879676
24:46.0;-0.038336388613121684;-0.3514517326790399;-0.8333482254300133;0.856;0.011228025815978366
24:46.0;-0.03697548638789289;-0.3566808701770915;-0.8573436309850502;0.875;0.011307032461271333
24:46.0;-0.03522266785900296;-0.360849095646177;-0.8824054488818854;0.9079999999999999;0.011215433120468892
24:46.0;-0.03327969468626439;-0.3641513557274263;-0.907612900763156;0.951;0.010999220915869681
24:46.1;-0.031329071940669424;-0.3668626913156458;-0.9319437798511622;1.065;0.010711265684010469
24:46.1;-0.029545592800556065;-0.3693097938512746;-0.9543978162116054;1.065;0.01041388961657144
24:46.1;-0.028118293415200345;-0.3718318417629103;-0.9741315094391134;1.065;0.010184814597872356
24:46.1;-0.027266981277582494;-0.3747341964071387;-0.9905740997187152;1.0959999999999999;0.010121557690803485
24:46.1;-0.02724121522646812;-0.378238846308807;-1.0035088745186087;1.12;0.010339840159928334
24:46.1;-0.028297146268549893;-0.38243525382905574;-1.0131164095157348;1.127;0.01096376982151765
24:46.1;-0.030653785494720864;-0.3872359899687228;-1.0199766723993324;1.128;0.012107377047356
24:46.1;-0.03443509448241698;-0.39234344121530296;-1.025024661948227;1.1159999999999999;0.01384847624687832
24:46.1;-0.039607928791627396;-0.39723625473299395;-1.029457612060609;1.103;0.016197182677652976
24:46.1;-0.04592745379362356;-0.40118612715531;-1.034598493852837;1.094;0.01906295038930588
24:46.2;-0.05290202664137657;-0.4033146622197969;-1.0417270067855153;1.078;0.022226457224121414
24:46.2;-0.059789492885130836;-0.4026920000213119;-1.0518955687814946;1.078;0.025326227130233095
24:46.2;-0.0656354873214382;-0.39846453847649776;-1.0657540517101884;1.078;0.02787310711050303
24:46.2;-0.06936124089272293;-0.3899893797136452;-1.08340957237746;1.075;0.029306388531956426
24:46.2;-0.06990270973143389;-0.37695546518597267;-1.104344581264747;1.095;0.029099709933047307
24:46.2;-0.06639111302563976;-0.35947725551559845;-1.1274114207188053;1.137;0.02690690818492197
24:46.2;-0.058347514695407415;-0.3381460966828381;-1.1509161560487902;1.18;0.02270755774170661
24:46.2;-0.045849572211435076;-0.3140205174201881;-1.1727949119291095;1.261;0.016885556796854422
24:46.2;-0.02962437643773609;-0.28854124476514437;-1.190868981316982;1.308;0.010179374724575054
24:46.2;-0.011027838482639784;-0.26337416758805066;-1.2031437132393825;1.34;0.003494468087734028
24:46.3;0.008108512906575197;-0.2402057048475276;-1.2081005091731216;1.361;0.0023530307208788357
24:46.3;0.02574334051636848;-0.22052903151475775;-1.2049296672987626;1.361;0.006840571222622598
24:46.3;0.03994129710459071;-0.20546217022852553;-1.193662390501923;1.361;0.00979570158109002
24:46.3;0.049163725795608515;-0.19562841174008266;-1.1751756730997795;1.281;0.011302629963860597
24:46.3;0.052484175803751504;-0.19111096584667348;-1.1510622302999538;1.172;0.011545501249152126
24:46.3;0.049708485900691435;-0.19147947635415102;-1.1233825106467965;1.081;0.010692528692816835
24:46.3;0.04139194037142435;-0.19587913271428412;-1.0943438034848358;1.014;0.008872739711029774
24:46.3;0.028752556511942577;-0.20316680186972447;-1.0659687784587475;0.9690000000000001;0.006226925856288015
24:46.3;0.013491016892589108;-0.21207230337228586;-1.0398132316248367;0.941;0.002974979510748637
24:46.3;-0.002457936746441294;-0.22136188455970224;-1.016776185823454;0.9279999999999999;0.0005532213241552649
24:46.4;-0.01720429139734347;-0.22998519533246672;-0.9970254154611009;1.003;0.003944962682798295
24:46.4;-0.029164439972711245;-0.2371911521881945;-0.980041068402002;1.003;0.0067794802702557935
24:46.4;-0.03726030126320865;-0.24259931268199394;-0.9647598022138674;1.003;0.008720775929603946
24:46.4;-0.041025543542633436;-0.246215926078267;-0.9497885681354657;1.028;0.009593949383074599
24:46.4;-0.040610544676513836;-0.24839200986352025;-0.9336549628756916;1.033;0.009418090211141246
24:46.4;-0.036697120410307794;-0.24973255957237422;-0.9150623408934648;1.0290000000000001;0.00838605753622329
24:46.4;-0.03034722401342042;-0.2509760916521163;-0.8931171392723376;1.0190000000000001;0.006802362096909606
24:46.4;-0.022817637563499485;-0.25286813360477445;-0.8674977413206459;0.993;0.005005334813029823
24:46.4;-0.01537486850057852;-0.2560497950120006;-0.8385418656637935;0.9520000000000001;0.003301114535447534
24:46.4;-0.009139720017680913;-0.26097591185951086;-0.8072404219166989;0.905;0.0019254676055634277
24:46.5;-0.004979974285293938;-0.2678700082314146;-0.775138930013967;0.768;0.0010340242890745554
24:46.5;-0.0034552641294593595;-0.27671558470282376;-0.7441650396125322;0.768;0.0007115151213823545
24:46.5;-0.004805386613572262;-0.28727560181619904;-0.7164174766380016;0.768;0.0009889930713762132
24:46.5;-0.008967921815415442;-0.299129702768315;-0.6939522440988666;0.7340000000000001;0.0018615767116106803
24:46.5;-0.015613934912831634;-0.3117232899274809;-0.6785840237989558;0.7070000000000001;0.0033028225908009034
24:46.5;-0.024195255074508124;-0.3244267542465388;-0.6717067801731289;0.693;0.005272621529521645
24:46.5;-0.033998550742502805;-0.3366021226250533;-0.6741407991936861;0.691;0.007714856753041253
24:46.5;-0.04420217075797911;-0.34767165432296354;-0.6860220198806105;0.6970000000000001;0.010542677894857992
24:46.5;-0.05393421447563595;-0.35718183859438424;-0.7067523005589106;0.7090000000000001;0.013615103814147904
24:46.6;-0.06233381471487058;-0.36485638838462536;-0.7350277276255904;0.74;0.01671665513201445
24:46.6;-0.06861905785882051;-0.3706323783628683;-0.7689562702851135;0.946;0.019556437755562987
24:46.6;-0.07216075721728755;-0.3746738414181029;-0.8062577809819147;0.946;0.021798588533104225
24:46.6;-0.07255270141790604;-0.37735659296279045;-0.8445118358647502;0.946;0.023121247908664613
24:46.6;-0.06966418427307638;-0.37921934751571934;-0.8814085181509461;1.014;0.023285055966295216
24:46.6;-0.06366393618021172;-0.3808828499531591;-0.914973967726871;1.071;0.02218674758456014
24:46.6;-0.05501015438154417;-0.38294975445146207;-0.943757516798263;1.109;0.019881313924969862
24:46.6;-0.04440461323446765;-0.3859063071323536;-0.9669627764608251;1.122;0.016569893779302947
24:46.6;-0.03271340283542167;-0.39004591600075034;-0.9844999280979162;1.1159999999999999;0.012561952454788597
24:46.6;-0.02086518687922482;-0.3954259065430631;-0.9969462676560412;1.093;0.008225440204616002
24:46.6;-0.009745869658843503;-0.40185948023028956;-1.005420438859744;1.0659999999999998;0.003937699102302055
24:46.7;-0.00011036929509647647;-0.40893930173809895;-1.011392765343314;1.052;4.5648547442765653e-05
24:46.7;0.0074749868578324555;-0.416085415842142;-1.0164647696623736;1.052;0.003161442285346613
24:46.7;0.01265900405730879;-0.4226067714464093;-1.0221527556180994;1.052;0.005468293221820813
24:46.7;0.01531086797333192;-0.42776572866814566;-1.0297032142826312;1.065;0.0067440047454604725
24:46.7;0.01551508051636679;-0.4308399914699674;-1.039956284875641;1.078;0.006951605629121605
24:46.7;0.013562152555785802;-0.43118132970004563;-1.0532634938563712;1.102;0.006159218407547212
24:46.7;0.009936121692218821;-0.42827128325574393;-1.0694595444167405;1.128;0.00455093064816548
24:46.7;0.005296603920319066;-0.4217719588419039;-1.0878839371755853;1.145;0.0024302881240303494
24:46.7;0.00044958607857074304;-0.41156618207392176;-1.1074469282096207;1.153;0.00020491580654381092
24:46.8;-0.0037019247640309857;-0.3977769809037466;-1.126736866606432;1.16;0.0016591656195351324
24:46.8;-0.006233533256701485;-0.3807568914983067;-1.1441682981049803;1.27;0.0027156385422244574
24:46.8;-0.006296013882502178;-0.3610476328935691;-1.1581625793387575;1.27;0.002632689901552835
24:46.8;-0.003214869585581971;-0.3393244833155945;-1.167334965004411;1.27;0.00127342699050157
24:46.8;0.003427639961472333;-0.3163430554540569;-1.1706526815145453;1.286;0.0012693505242953088
24:46.8;0.013740588377575285;-0.29289671719907817;-1.167538398444972;1.265;0.0046988437812486615
24:46.8;0.02750512651437967;-0.2697844601470036;-1.1579089897905817;1.2309999999999999;0.008592212372586191
24:46.8;0.04418407778101541;-0.24778782485542777;-1.1421490023100855;1.1909999999999998;0.01250456311187208
24:46.8;0.0629547592113991;-0.2276538756892014;-1.1210266038063104;1.135;0.01606643549674638
24:46.8;0.0827616269425793;-0.210077170731837;-1.0955693631929904;1.084;0.01904792876989175
24:46.8;0.10238930803285336;-0.19567335229266528;-1.0669235693879977;1.041;0.021375663427664043
24:46.9;0.12055719523827857;-0.18494176035079388;-1.036222265142151;0.983;0.02310367370401854
24:46.9;0.13602989698107956;-0.17822119222320051;-1.0044850940056806;0.983;0.024352144392710027
24:46.9;0.14772728300094837;-0.1756488895154074;-0.9725670231710326;0.983;0.025236298673133296
24:46.9;0.1548151941606577;-0.17713427557866837;-0.9411605430327376;0.988;0.025809518291503387
24:46.9;0.15676665780860835;-0.18235469187592923;-0.9108390283035245;0.9840000000000001;0.02603827879467753
24:46.9;0.1533927298346908;-0.19077521664193417;-0.8821161762168657;0.966;0.025813834302535095
24:46.9;0.144844426842164;-0.20169174202516804;-0.8554941359663275;0.9329999999999999;0.02499234133137792
24:46.9;0.1315874667417979;-0.21429364644506585;-0.8314801963778408;0.887;0.02344637630937505
24:46.9;0.11435425396046445;-0.22773865628640766;-0.8105647549492919;0.845;0.021109443999159077
24:47.0;0.09408091856842754;-0.24122978807557996;-0.7931673133721372;0.815;0.01800102739530294
24:47.0;0.07183862783898434;-0.254083589309791;-0.7795676277157562;0.7929999999999999;0.014229460703286567
24:47.0;0.04876772935681741;-0.2657800331741726;-0.7698425785043254;0.7929999999999999;0.009978305902297221
24:47.0;0.026020742365615412;-0.275987756162702;-0.7638255610723496;0.7929999999999999;0.005485341695755052
24:47.0;0.004714379623832043;-0.28456403848208034;-0.7610969969707235;0.784;0.0010210442760709567
24:47.0;-0.01411657974565112;-0.2915352839979436;-0.7610070317808891;0.78;0.0031319100450197656
24:47.0;-0.029572781832198615;-0.29706791686303274;-0.7627287150970345;0.789;0.0067006668703833575
24:47.0;-0.040954304577244076;-0.3014394318561786;-0.7653407283930376;0.818;0.009448316737001297
24:47.0;-0.04782909826427541;-0.30501420490198156;-0.7679378065297624;0.8640000000000001;0.011203102449678618
24:47.0;-0.05009183244812884;-0.3082204821304273;-0.7697608537894808;0.907;0.011884590878965283
24:47.1;-0.047993580321350544;-0.31151825462707217;-0.7703287307977983;0.9279999999999999;0.011517089622277257
24:47.1;-0.042123148839559574;-0.3153479464795533;-0.7695454179101476;0.884;0.010222216916298795
24:47.1;-0.0333329135278767;-0.32006017920909496;-0.7677562213073469;0.884;0.008190836634647636
24:47.1;-0.022622609281025028;-0.3258429886437087;-0.7657362473689109;0.852;0.005644562431135209
24:47.1;-0.011009110759121402;-0.3326733003639208;-0.7646077244892818;0.8420000000000001;0.0028003277814591357
24:47.1;0.000590016005720486;-0.340315791150683;-0.7656939345583333;0.8370000000000001;0.0001537450356343393
24:47.1;0.011441116152194992;-0.34837505598131946;-0.7703265008397777;0.804;0.0030703669664848845
24:47.1;0.021040039400630775;-0.35638512799231237;-0.7796322372781176;0.778;0.005845960948881008
24:47.1;0.029119745327165977;-0.3639078288419788;-0.7943354554787598;0.784;0.008417496008230971
24:47.1;0.035626288125372586;-0.37061433779262554;-0.8146164928785077;0.813;0.010755881063314734
24:47.2;0.04067366654827511;-0.37633421826855107;-0.8400612810722259;0.8540000000000001;0.012858727726616222
24:47.2;0.04449012028401325;-0.38106428114845287;-0.8697181204255877;1.022;0.0147448493903432
24:47.2;0.047366453512032815;-0.38493785534241604;-0.9022477972746035;1.022;0.01645081133180326
24:47.2;0.04961218503628535;-0.3881651932811204;-0.9361228353788057;1.022;0.018027594626259077
24:47.2;0.05152150911078191;-0.3909618460262044;-0.9698249571502522;1.084;0.0195351301042723
24:47.2;0.05334969105156646;-0.3934797862643371;-1.002011438602512;1.13;0.021034249201733534
24:47.2;0.05529979604814584;-0.3957511467566368;-1.0316415511480406;1.163;0.022577431709945358
24:47.2;0.057518003470204866;-0.39765200338748874;-1.0580556864791342;1.176;0.024200007640265822
24:47.2;0.06009413935337525;-0.39889211095100574;-1.0809973127297328;1.173;0.025912671011984897
24:47.2;0.06306399873630711;-0.3990334378850879;-1.1005754717829042;1.17;0.0276955901874593
24:47.3;0.06641142622045573;-0.39753694656974736;-1.1171780589831175;1.176;0.029494613016302903
24:47.3;0.07006962773805434;-0.3938348708279479;-1.131354252008836;1.188;0.031220696704390104
24:47.3;0.07392178158772209;-0.38742238191544803;-1.1436854778727035;1.188;0.03275395430235606
24:47.3;0.07780088616968074;-0.37795569931926676;-1.1546618469875922;1.188;0.03395316454577515
24:47.3;0.08148910514219702;-0.36533814495396766;-1.1645788098396426;1.189;0.034670767174869374
24:47.3;0.08471846511590238;-0.34977703042606495;-1.173466878212015;1.194;0.034772843108299964
24:47.3;0.08717692848550575;-0.3318001086604344;-1.1810641799664423;1.198;0.03416265266617311
24:47.3;0.08852480235916592;-0.3122261376737861;-1.1868370066933842;1.207;0.03280388661664048
24:47.3;0.08842426037650235;-0.2920902363753609;-1.190047699303498;1.2209999999999999;0.030736389077561363
24:47.3;0.08657923675606673;-0.27253203421011457;-1.1898624270919518;1.255;0.0280755363436097
24:47.4;0.08277746041278065;-0.25466207910824296;-1.1854832214669235;1.271;0.02499031844775039
24:47.4;0.07692586548402329;-0.23942827946548906;-1.1762805065819595;1.225;0.021665002114293636
24:47.4;0.06907560776231064;-0.22750645401307093;-1.161900875495023;1.225;0.018259442570765363
24:47.4;0.05943757926924488;-0.21923384652487007;-1.1423335804516075;1.225;0.01488543946447976
24:47.4;0.048388423174153705;-0.21459320930783804;-1.1179295468390005;1.18;0.011608387037480327
24:47.4;0.03646260959423237;-0.2132439982612784;-1.0893707704323625;1.126;0.008470329063907532
24:47.4;0.02432389701413694;-0.21459053044882725;-1.0575917266159283;1.071;0.0055202882291057204
24:47.4;0.012712756307701098;-0.21787438781400517;-1.0236638725693927;1.015;0.0028353278135416914
24:47.4;0.0023738772448047094;-0.22227784070083675;-0.988664091575156;0.963;0.0005216787991324035
24:47.4;-0.006025053223954425;-0.2270248414406885;-0.9535521638501145;0.9259999999999999;0.0013043036954642603
24:47.5;-0.011969319599509294;-0.23146631369546228;-0.9190809566579998;0.903;0.0025463085380031535
24:47.5;-0.015154862548821238;-0.23513890170910487;-0.8857565724957109;0.89;0.0031563915400998534
24:47.5;-0.015518294986960455;-0.23779197561099802;-0.8538544620001484;0.89;0.0031508305701356946
24:47.5;-0.01323637954155522;-0.23938452408942643;-0.8234838977450335;0.89;0.0026092782462283264
24:47.5;-0.00869848500896437;-0.24005801183732672;-0.7946813164813713;0.8759999999999999;0.0016594066525860084
24:47.5;-0.0024585323133398374;-0.24009242406809464;-0.7675067764329269;0.8490000000000001;0.00045304004922674685
24:47.5;0.0048254705174856465;-0.23985325213847286;-0.742119300592269;0.809;0.0008589324382419442
24:47.5;0.01245465199013434;-0.23973803815122152;-0.7188156578304274;0.769;0.002146278487851378
24:47.5;0.019746916801403946;-0.24012993134817054;-0.6980296759923518;0.738;0.003309935109935155
24:47.5;0.02608491792851291;-0.24136195373797487;-0.680300066006582;0.7170000000000001;0.0042831057805355925
24:47.6;0.030953699748177806;-0.24369200003766375;-0.6662196703206692;0.703;0.005025407564485522
24:47.6;0.03396819410664025;-0.24728700538803333;-0.6563779114370271;0.6890000000000001;0.005513504223024407
24:47.6;0.034890462690458035;-0.25221454494959455;-0.6513045716408471;0.6890000000000001;0.005731403487583043
24:47.6;0.033636706625617005;-0.25844028729653234;-0.6514200103697434;0.6890000000000001;0.005662846344542998
24:47.6;0.03027455779365267;-0.26583065899957903;-0.6569947548497443;0.693;0.005287431799054974
24:47.6;0.025011377569003863;-0.2741618530152764;-0.6681198058158405;0.703;0.004581408163004474
24:47.6;0.01817444489079604;-0.2831371722373054;-0.684688779417716;0.721;0.003523313241517438
24:47.6;0.010184289285604806;-0.29241374141395343;-0.7063937786851332;0.75;0.0021036591335690923
24:47.6;0.0015222667168859163;-0.301637723531165;-0.7327368391461695;0.787;0.0003364530217996468
24:47.6;-0.007307302339296326;-0.31048462109951674;-0.763057355453844;0.82;0.0017312283418723607
24:47.7;-0.01581985985079853;-0.3186980668027166;-0.7965745031122266;0.85;0.004016136472319221
24:47.7;-0.02359516610353008;-0.32611847191338406;-0.8324427097261532;0.96;0.006405496407275729
24:47.7;-0.03031709160981885;-0.3326941482429843;-0.8698141879951935;0.96;0.008773223345040897
24:47.7;-0.03580018529464183;-0.3384718905426813;-0.9078956686805815;0.96;0.011001295390016876
24:47.7;-0.039996653335155966;-0.3435689975733258;-0.9459874867080879;1.012;0.012999391194865964
24:47.7;-0.042982286605162685;-0.3481321111041859;-0.9835051493295804;1.057;0.014716693244103613
24:47.7;-0.04492396444303389;-0.3522900542426809;-1.0199909620531185;1.089;0.01614264815089106
24:47.7;-0.046033467839860724;-0.3561088099258946;-1.0551181901716606;1.123;0.01729647172135804
24:47.7;-0.046514130282906276;-0.35955638566364145;-1.0886839231365326;1.156;0.018207642632745033
24:47.7;-0.04650878446929868;-0.36248274015234994;-1.120587284382345;1.18;0.018891568242924102
24:47.8;-0.04605792644880524;-0.3646161076620354;-1.1507933519219602;1.195;0.019325804274309768
24:47.8;-0.04507495031148224;-0.3655743530781599;-1.1792864668575311;1.24;0.019432572269669223
24:47.8;-0.04334188386670097;-0.3648901006600415;-1.2060181326527837;1.24;0.019073206154846725
24:47.8;-0.04052644520694908;-0.3620503704958919;-1.2308543959615186;1.24;0.01805985206010605
24:47.8;-0.03622000705174782;-0.356552386052087;-1.2535289540969283;1.272;0.016188486498945828
24:47.8;-0.029995231060026096;-0.3479746727982635;-1.2736120740060293;1.3;0.013293428820280034
24:47.8;-0.021481002411754466;-0.3360561384643301;-1.2905059211628376;1.31;0.00931593346506519
24:47.8;-0.010449767334931333;-0.32076799339982226;-1.303472431198447;1.318;0.00436917558825637
24:47.8;0.0030938581900255115;-0.30235993612769346;-1.311695602182764;1.3559999999999999;0.001227037147712126
24:47.8;0.018844011335766457;-0.28136678133864274;-1.3143758005588198;1.4040000000000001;0.006968924089790662
24:47.9;0.03617120445296663;-0.25857074112044004;-1.3108435277371564;1.4269999999999998;0.012260077195828828
24:47.9;0.05416727649143461;-0.2349232287029738;-1.3006671092183177;1.327;0.01655118599429794
24:47.9;0.07175496383349683;-0.211440756252148;-1.2837273382353074;1.327;0.019476613378533385
24:47.9;0.08783070194793349;-0.18910080800475243;-1.2602475673959044;1.327;0.020931271260936943
24:47.9;0.10139897798977587;-0.16876291695847434;-1.2307834687821693;1.266;0.02106164340289977
24:47.9;0.11167171726077892;-0.15112399218282663;-1.1961790999239517;1.206;0.020187048308426672
24:47.9;0.11812584049456105;-0.1367006186847474;-1.1574952182584728;1.155;0.018691088651121842
24:47.9;0.12052087421755661;-0.12582632610668104;-1.1159217304491809;1.11;0.016922616951142888
24:47.9;0.11888281125996958;-0.11865523645972972;-1.072690507878192;1.067;0.015131445334024923
24:47.9;0.11346571905501637;-0.11516891715975174;-1.029000665412169;1.0290000000000001;0.013446696689692662
24:48.0;0.10470419949447639;-0.11518783685953922;-0.9859605899106038;0.996;0.011891325835075574
24:48.0;0.09316561629745054;-0.11839038090875141;-0.9445457880855866;0.904;0.010418257679186613
24:48.0;0.0795058879908437;-0.12434011293103615;-0.9055720098229227;0.904;0.008952277595946237
24:48.0;0.0644304403825895;-0.1325182215514026;-0.8696866453775626;0.904;0.007425564928001011
24:48.0;0.048660264004605935;-0.14235714890455953;-0.8373790674494943;0.8690000000000001;0.005800639059456614
24:48.0;0.03290017547466408;-0.15327417406288427;-0.8090007127522322;0.8370000000000001;0.004079586097153446
24:48.0;0.017806352798143077;-0.164705860033758;-0.7847805859136572;0.81;0.0023016128616013395
24:48.0;0.003954583541442309;-0.1761427192027069;-0.7648281878671076;0.78;0.0005327572108363871
24:48.0;-0.008185825575639835;-0.18716040417159233;-0.7491257601382718;0.755;0.0011477074273701514
24:48.0;-0.018268494453705573;-0.19744230205733926;-0.7375181498338244;0.737;0.002660208496016705
24:48.1;-0.02607576332930376;-0.20678939403815666;-0.7297114574312431;0.7290000000000001;0.003934743770774513
24:48.1;-0.03151470946156214;-0.21511597599388635;-0.7252908323933391;0.765;0.004916976821020159
24:48.1;-0.034605214776570116;-0.22243295206905903;-0.7237616508135029;0.765;0.0055710395629828945
24:48.1;-0.03546306906559777;-0.22882261459062372;-0.7246086438425077;0.765;0.00588001957588939
24:48.1;-0.03428186342957946;-0.2344099481144708;-0.7273611536661767;0.7879999999999999;0.005845081379217774
24:48.1;-0.031316707049692756;-0.23933582325982292;-0.7316529011563148;0.804;0.00548389204142343
24:48.1;-0.0268708723235306;-0.24373674703121867;-0.7372665460583735;0.807;0.0048286675322128025
24:48.1;-0.021284381527252507;-0.2477340286659713;-0.7441539169999476;0.8059999999999999;0.003923823577708648
24:48.1;-0.014922035235643777;-0.2514326874427079;-0.7524259043310269;0.804;0.0028230172860046524
24:48.1;-0.008157861685609183;-0.2549277576852466;-0.7623130867387594;0.8009999999999999;0.0015853561405620089
24:48.2;-0.0013536157891815572;-0.25831399610731204;-0.7741052317457725;0.797;0.0002706720125734485
24:48.2;0.005168758947135679;-0.26169522475152474;-0.7880816321884395;0.825;0.0010659903719987744
24:48.2;0.011156314989543328;-0.26519063128707737;-0.804444195047571;0.825;0.0023799885461446963
24:48.2;0.016446907853842913;-0.26893598672643193;-0.8232625539658167;0.825;0.003641426437455016
24:48.2;0.02097452568062301;-0.27307858291722853;-0.8444387753657432;0.852;0.004836686696110484
24:48.2;0.024754849610127135;-0.27776646068004396;-0.8676995059287315;0.895;0.005966359904681318
24:48.2;0.0278550903072607;-0.2831338646860847;-0.8926206695832234;0.9420000000000001;0.007039848724752462
24:48.2;0.030356754059374588;-0.28928448883312136;-0.9186812008048132;0.98;0.008067617685129876
24:48.2;0.03232082162825388;-0.2962728478460126;-0.945333358411504;1.004;0.009052306033189458
24:48.2;0.033762489653291476;-0.3040839529765426;-0.9720748088895175;1.025;0.009979933674539466
24:48.3;0.03463903806755023;-0.31261280749436254;-0.998512304112036;1.055;0.010812497265185149
24:48.3;0.03485166468971861;-0.3216465049375708;-1.0244123342080513;1.1440000000000001;0.011483576357926413
24:48.3;0.034260501434467634;-0.330851734665126;-1.0497332016999887;1.1440000000000001;0.011898879448823941
24:48.3;0.03271072102955574;-0.3397703069940979;-1.0746266483491798;1.1440000000000001;0.011943542126248817
24:48.3;0.030066911760721772;-0.3478264567171214;-1.099397299446055;1.158;0.011497571037369599
24:48.3;0.02625311780549907;-0.35435154856229123;-1.124419772929733;1.1740000000000002;0.010460289312080552
24:48.3;0.0212955582945859;-0.35863176425784027;-1.1500252111411429;1.195;0.008783045732481103
24:48.3;0.015361626305171417;-0.35998020888626586;-1.1763723418339382;1.206;0.006505199586893123
24:48.3;0.008782896161426171;-0.35782688847104566;-1.203317746375565;1.205;0.003781734554921562
24:48.3;0.0020466846264277474;-0.3518116729327239;-1.2303026339903167;1.2009999999999998;0.0008858763879997275
24:48.4;-0.004254631209846299;-0.34186128588744863;-1.2562789644867134;1.207;0.0018272498347343454
24:48.4;-0.00951512261098547;-0.3282333639790888;-1.2797005533160397;1.286;0.0039967360740898765
24:48.4;-0.013230607514364078;-0.3115181460973483;-1.2985973862086626;1.286;0.005352265645011517
24:48.4;-0.015107832549924568;-0.29259860645898184;-1.3107345351145223;1.286;0.0057941423185091144
24:48.4;-0.015135994155792183;-0.2725755144734929;-1.3138441565844015;1.35;0.005420528668427853
24:48.4;-0.013600385513956453;-0.25266270523780915;-1.3059148794485067;1.4140000000000001;0.004487528615661748
24:48.4;-0.011032893309409238;-0.23405942345758682;-1.2855126668079115;1.454;0.003319647037972645
24:48.4;-0.008106541350773587;-0.2178153890905711;-1.25208545102202;1.464;0.002210844165425776
24:48.4;-0.005493687489860368;-0.20471080440119652;-1.206187865020151;1.426;0.0013564996015549516
24:48.4;-0.0037188353711777897;-0.19517151427822121;-1.149566325770326;1.3430000000000002;0.0008343675749462624
24:48.5;-0.003041015486734145;-0.18923312993324823;-1.0850658138757596;1.2229999999999999;0.0006244129267330254
24:48.5;-0.0033934649382037804;-0.18656097225767337;-1.016353333402749;0.848;0.0006434412192637621
24:48.5;-0.0043913425096739145;-0.1865227475646423;-0.9475012822820689;0.848;0.0007760843440040515
24:48.5;-0.0053992623699694745;-0.1882978654852627;-0.8825214572275922;0.848;0.0008972327187841373
24:48.5;-0.005640664082166616;-0.19100049212398848;-0.8249449367584638;0.748;0.0008887706094065742
24:48.5;-0.004331964572014045;-0.19379849423609163;-0.7774974903185203;0.6829999999999999;0.0006527310772132712
24:48.5;-0.0008253243273850226;-0.19601854237207417;-0.7418791942196898;0.649;0.00012002037893273676
24:48.5;0.005260454166686654;-0.19722950012632826;-0.7186536580009428;0.647;0.0007456152045583046
24:48.5;0.013944090373215227;-0.19729427647615264;-0.7072591530578057;0.68;0.0019457330326442162
24:48.5;0.024840715080649133;-0.19638081164355412;-0.7061446053133891;0.7240000000000001;0.003444742710670496
24:48.6;0.037187860059853306;-0.1949278402779329;-0.7130129801366697;0.76;0.005168594904767896
24:48.6;0.04994053062311145;-0.19356945426008057;-0.7251358017289754;0.8540000000000001;0.007009859702229329
24:48.6;0.061920299737578156;-0.19303200496449838;-0.7396911824658244;0.8540000000000001;0.008841232536359666
24:48.6;0.07198381757627499;-0.1940234127412406;-0.7540762297681828;0.8540000000000001;0.010531840311571948
24:48.6;0.0791706490800942;-0.19713408929818943;-0.7661562141203221;0.866;0.011957579165351593
24:48.6;0.08280541181521357;-0.2027616031341112;-0.7744337425237081;0.87;0.01300255516105084
24:48.6;0.08254856560787042;-0.21106426414575555;-0.778137972213077;0.867;0.013557538552489713
24:48.6;0.07840011861476806;-0.2219448999410292;-0.7772396316232477;0.857;0.013524363247598717
24:48.6;0.0706644488112216;-0.2350633330747515;-0.772398256946273;0.843;0.012830014604818332
24:48.6;0.0598877197907003;-0.24987381556312;-0.7648495063982204;0.825;0.011445493340451513
24:48.7;0.04678098342617502;-0.2656831659596417;-0.7562427787830316;0.8029999999999999;0.009399280834248413
24:48.7;0.03214078090745758;-0.28172541110734983;-0.7484426418199367;0.7559999999999999;0.00677705435264254
24:48.7;0.016776768701219233;-0.2972455365619254;-0.7433138610899306;0.7559999999999999;0.0037067721421157893
24:48.7;0.0014541289709810135;-0.31157906993848106;-0.742517246687604;0.7559999999999999;0.00033641685718189244
24:48.7;-0.013145096368211201;-0.32421372229029577;-0.7473437045433841;0.7659999999999999;0.003185044812792946
24:48.7;-0.026444179565143108;-0.33482721709479696;-0.7586037545700566;0.7879999999999999;0.006716852919993263
24:48.7;-0.03798473236865795;-0.34330284144201556;-0.7765778143937144;0.82;0.010126781699286555
24:48.7;-0.04743769965045901;-0.3497250295236295;-0.8010252311988676;0.855;0.01328912946893954
24:48.7;-0.054615830157896054;-0.35435582470476246;-0.8312454031855926;0.8959999999999999;0.016087455988916703
24:48.7;-0.05948636070482977;-0.357593738989456;-0.866180579882286;0.9359999999999999;0.018425350110364124
24:48.8;-0.062177885843885033;-0.35991850031349215;-0.9045482211703814;0.977;0.0202428587946444
24:48.8;-0.06297312376393804;-0.3618267998623994;-0.944989826666915;1.11;0.02153193703406217
24:48.8;-0.06228225524800718;-0.3637652194962398;-0.9862177666155989;1.11;0.022343866341692126
24:48.8;-0.060598311844650976;-0.36606699829888983;-1.0271336103018591;1.11;0.022784948139116797
24:48.8;-0.05844084963082543;-0.36889869718694734;-1.0668951071819404;1.15;0.023000928403440975
24:48.8;-0.05629398274646088;-0.3722215355987279;-1.1049281530382573;1.1840000000000002;0.023152479667439274
24:48.8;-0.05454353506760366;-0.3757716127709596;-1.140895680850086;1.209;0.023383697633991993
24:48.8;-0.05341887322085977;-0.3790636252705687;-1.1746356919498984;1.228;0.023785376366650443
24:48.8;-0.05294661039475025;-0.38142251736427;-1.2060763394630167;1.242;0.0243567471614428
24:48.8;-0.05292441235578272;-0.3820453262559907;-1.2351370011115224;1.263;0.024973882713249167
24:48.9;-0.05292432988405034;-0.38009102833463704;-1.2616281397762954;1.2830000000000001;0.02537899110389651
24:48.9;-0.052335541516304915;-0.3747899171307308;-1.285164777257769;1.3019999999999998;0.025208292827673354
24:48.9;-0.05045049345183314;-0.36555786013467767;-1.3051078954561084;1.3019999999999998;0.024069549499812676
24:48.9;-0.04658396567162507;-0.3520980750099719;-1.3205469505377623;1.3019999999999998;0.021659775674780855
24:48.9;-0.04020218642468493;-0.33447471638356485;-1.3303361838285683;1.339;0.017888518354665442
24:48.9;-0.031037794843420077;-0.31314545131009064;-1.3331944394514588;1.3769999999999998;0.0129577757410949
24:48.9;-0.019169313279799535;-0.2889430944867591;-1.3278672936960152;1.41;0.0073548454082004375
24:48.9;-0.00504524938840096;-0.263002827894698;-1.313331983565991;1.431;0.0017426797206199218
24:48.9;0.010559745289801005;-0.23664335630429179;-1.2890081182609925;1.435;0.0032210940946581336
24:48.9;0.026652312372919776;-0.21122249110128044;-1.254928132657502;1.4180000000000001;0.007064703023258946
24:49.0;0.04216822988043683;-0.1879932318318512;-1.2118229641052631;1.3659999999999999;0.009606534856761075
24:49.0;0.05612619709448051;-0.16798393725877822;-1.1610928299206509;1.063;0.01094713103057229
24:49.0;0.06775407323499634;-0.15191863703400438;-1.1046670145198578;1.063;0.011370455182599323
24:49.0;0.07656604416307468;-0.14018382587855352;-1.044799974702975;1.063;0.011214173512586852
24:49.0;0.08238497361152469;-0.13283856342472236;-0.9838649735914186;0.9740000000000001;0.010767321401940052
24:49.0;0.08531606615240303;-0.1296579421093487;-0.9241769814597379;0.898;0.010223158495350113
24:49.0;0.08568448910342953;-0.13019722028695052;-0.8678453375888768;0.835;0.00968158044332627
24:49.0;0.08395342979645934;-0.13386446312926248;-0.8166542552632917;0.7909999999999999;0.009177871508765843
24:49.0;0.08064036703528303;-0.1399920137107079;-0.7719775283860962;0.7609999999999999;0.00871486000560305
24:49.0;0.07624626658647167;-0.14790028964659974;-0.7347326554223789;0.733;0.008285466207429037
24:49.1;0.07120569178177734;-0.15695062837669138;-0.7053725046566512;0.708;0.007883086568121067
24:49.1;0.06585906706672418;-0.1665866787315408;-0.6839080109344242;0.6940000000000001;0.007503321146535814
24:49.1;0.06044436825097413;-0.176364590898596;-0.6699551842379481;0.6940000000000001;0.007141887259673139
24:49.1;0.055104097812713325;-0.18597064525269597;-0.6628011422870808;0.6940000000000001;0.006792216844176588
24:49.1;0.04990290915992869;-0.19522448273959678;-0.6614837940143367;0.696;0.006444353475805791
24:49.1;0.044851104647192;-0.20406894345490562;-0.6648787766022395;0.7;0.006085447639342974
24:49.1;0.03992978620267036;-0.2125500181209898;-0.6717880893511552;0.71;0.005701517094847483
24:49.1;0.03511456318022344;-0.2207894266183788;-0.6810275794217973;0.726;0.0052799552493902665
24:49.1;0.030395639896355874;-0.228950659048588;-0.6915120611352074;0.74;0.0048123028200145
24:49.1;0.025792153365798244;-0.2372006140200575;-0.70233592785455;0.752;0.004296831237848345
24:49.2;0.021358054310847457;-0.2456721811438464;-0.7128453288943776;0.7759999999999999;0.003740356316880161
24:49.2;0.017177052639919685;-0.2544343171989681;-0.7226965978298601;0.8190000000000001;0.0031584960916783773
24:49.2;0.013346973208782533;-0.2634735786073313;-0.731893244940812;0.8190000000000001;0.00257375733771212
24:49.2;0.009958590043144375;-0.2726871933904669;-0.7407909929658557;0.8190000000000001;0.0020116771817072438
24:49.2;0.007076277429366383;-0.28188674197508373;-0.7500617744350715;0.8220000000000001;0.0014961548144155595
24:49.2;0.004725308496929457;-0.29081360909981024;-0.7606147682459478;0.8270000000000001;0.0010452246584559798
24:49.2;0.0028868760440932447;-0.2991680666554423;-0.7734804073813898;0.8240000000000001;0.0006680249586383935
24:49.2;0.0015002939034498093;-0.3066505462679634;-0.7896686225783566;0.816;0.0003632996411270911
24:49.2;0.00047153682923746027;-0.3130089043394093;-0.8100174106343639;0.821;0.00011955470300950876
24:49.2;-0.0003132461420644686;-0.3180827740387918;-0.8350528820247834;0.833;8.320316759357934e-05
24:49.3;-0.0009717563459629094;-0.3218366739087834;-0.8648841767437762;0.851;0.00027048978479655284
24:49.3;-0.0016110249689810395;-0.32437654731744175;-0.8991525442664985;0.9740000000000001;0.0004698779830422369
24:49.3;-0.002318273443794903;-0.32594776298099104;-0.9370411689311726;0.9740000000000001;0.0007080620810034913
24:49.3;-0.00315872033264582;-0.32691458146531643;-0.9773360021486045;0.9740000000000001;0.0010092281720779463
24:49.3;-0.004179215027974034;-0.32772176779289613;-1.0185233731689278;1.034;0.0013949897144414213
24:49.3;-0.00541560559907738;-0.32883982746875207;-1.0589210280506836;1.111;0.001885797314155414
24:49.3;-0.0069013958850386225;-0.33069739524885394;-1.0968445193832528;1.195;0.0025032993367979216
24:49.3;-0.008674110481641033;-0.33360742954079986;-1.1307969371367659;1.262;0.0032722410375141103
24:49.3;-0.010774755062599832;-0.33769673547218554;-1.1596506111449605;1.301;0.004219504261625007
24:49.3;-0.013236455207410307;-0.34285007325670747;-1.1827822101853158;1.31;0.0053676071749509955
24:49.4;-0.01606152050036631;-0.3486813492566641;-1.200130666549879;1.2990000000000002;0.006721154945775023
24:49.4;-0.019191145007199786;-0.35454427948105344;-1.2121652719254967;1.261;0.008247706671414015
24:49.4;-0.022476573377291788;-0.35958832557054743;-1.2197731181660316;1.261;0.00985858859998719
24:49.4;-0.02566254047220999;-0.36285177094708554;-1.224093153518623;1.261;0.011398386084444434
24:49.4;-0.028392360938083176;-0.3633738699353336;-1.2263296868313498;1.2409999999999999;0.012652094971553155
24:49.4;-0.030240005706781512;-0.3603104098260753;-1.2275715030054655;1.23;0.013375359894230825
24:49.4;-0.030769073326951165;-0.3530433108602281;-1.2286350616010715;1.232;0.013346436014898036
24:49.4;-0.029612783075233132;-0.34127514289158817;-1.2299474152707803;1.234;0.012429979906875633
24:49.4;-0.026563596231992843;-0.32509580974349467;-1.2314818443190447;1.2309999999999999;0.010634724790363965
24:49.4;-0.021655563546733123;-0.30500705823618357;-1.2327541604577885;1.2309999999999999;0.008142464174659211
24:49.5;-0.015217124717038151;-0.28189326332335696;-1.2328828475078453;1.2309999999999999;0.005288580359132812
24:49.5;-0.007871013753374187;-0.25693527296145763;-1.2307112502010187;1.286;0.002488917903154677
24:49.5;-0.0004693460024651543;-0.2314794166811025;-1.2249798699931866;1.286;0.00013308663811526577
24:49.5;0.006025109255461358;-0.20689013791584202;-1.2145221013213672;1.286;0.0015139451393001615
24:49.5;0.010684281385731255;-0.18441664741512018;-1.1984486769075282;1.295;0.002361374559870518
24:49.5;0.012761063935555044;-0.16508885870277634;-1.1762908344692835;1.2770000000000001;0.0024781030533356633
24:49.5;0.011816205336213408;-0.14964476830422008;-1.1480814258226488;1.228;0.0020300758194709938
24:49.5;0.007804226643508726;-0.13849130551662872;-1.1143612252114141;1.159;0.0012044211541006884
24:49.5;0.001097778711949869;-0.13170289786648168;-1.076109261579391;1.081;0.00015558456314481757
24:49.5;-0.007559607030076593;-0.12905735907318852;-1.0346118200895558;1.008;0.0010093910038781444
24:49.6;-0.01716693495752084;-0.13010071982897137;-0.9912977126304044;0.951;0.0022139946403708496
24:49.6;-0.026624599461731457;-0.1342276091163283;-0.9475724420163217;0.871;0.003386393012247466
24:49.6;-0.034905524561085643;-0.1407632602785709;-0.9046821025840354;0.871;0.00444507901018009
24:49.6;-0.04120119326283072;-0.1490352973605357;-0.8636304714199676;0.871;0.0053030642602073024
24:49.6;-0.045013989315130856;-0.15842751262872984;-0.8251573002212161;0.852;0.005884571626919763
24:49.6;-0.046185199954181425;-0.16841357756588093;-0.7897658091965228;0.8270000000000001;0.006142968069991548
24:49.6;-0.04486507901355028;-0.17857320111110447;-0.7577754908853547;0.7979999999999999;0.0060710704895362766
24:49.6;-0.041442020317165776;-0.1885948558887705;-0.7293784782702653;0.765;0.0057006411904937755
24:49.6;-0.036452157986585465;-0.1982692868610675;-0.704686989488929;0.736;0.005093014840384349
24:49.6;-0.030489427661419183;-0.20747759404582092;-0.6837682405635985;0.7140000000000001;0.004325431116214091
24:49.7;-0.024130715947086;-0.21617632353472963;-0.6666692319354897;0.7040000000000001;0.00347767302016572
24:49.7;-0.01788371121115473;-0.2243800605694363;-0.6534360384459671;0.6940000000000001;0.002622074290202942
24:49.7;-0.012158378441288137;-0.23214078330053914;-0.6441308498220978;0.6940000000000001;0.0018180306565955132
24:49.7;-0.007257733795018263;-0.23952382206581338;-0.6388468576401464;0.6940000000000001;0.0011105714655585163
24:49.7;-0.003380984830679241;-0.24658259079630615;-0.6377180562831981;0.696;0.0005316604411359669
24:49.7;-0.0006325507705925335;-0.2533366294263407;-0.6409192860582196;0.7020000000000001;0.0001027062133140935
24:49.7;0.0009672201313166792;-0.25975810073736;-0.6486521181318513;0.7040000000000001;0.0001629694755582921
24:49.7;0.0014714195212965574;-0.26577060198541164;-0.6611144971647224;0.708;0.00025853546960486005
24:49.7;0.0009963624619979145;-0.2712619790006127;-0.6784559127131351;0.7140000000000001;0.00018336984362307695
24:49.7;-0.00028853317542832453;-0.2761102028483463;-0.7007246012408955;0.7240000000000001;5.582459429062854e-05
24:49.8;-0.0021715650166781266;-0.28021837394257526;-0.7278178628826866;0.74;0.0004428862075220009
24:49.8;-0.0044112157054125665;-0.2835522392976867;-0.7594482257575847;0.856;0.0009499255045935624
24:49.8;-0.006750671791682864;-0.2861719680011588;-0.7951318491045429;0.856;0.001536077873497228
24:49.8;-0.008934204057882948;-0.28824978119911876;-0.8341930564076865;0.856;0.002148282667066255
24:49.8;-0.010725396766211412;-0.29006712942483265;-0.8757749295503747;0.899;0.002724610292168121
24:49.8;-0.011927315319527128;-0.2919894423238346;-0.9188568392971258;0.94;0.0032000569078920113
24:49.8;-0.012403296386732115;-0.2944212794805314;-0.962289804620243;0.9840000000000001;0.003514084511950487
24:49.8;-0.012094547028866183;-0.2977481544670233;-1.0048576951943875;1.034;0.003618622244273887
24:49.8;-0.011029210314155498;-0.30227300025888526;-1.045363816501015;1.094;0.003485067857564859
24:49.8;-0.009318315424004278;-0.308155680356138;-1.0827358743125448;1.151;0.00310906721633205
24:49.9;-0.007136710661731165;-0.3153636240398783;-1.1161368341241102;1.195;0.0025120433417609098
24:49.9;-0.004690588294592885;-0.3236406844350459;-1.1450642829440447;1.275;0.0017382822466451868
24:49.9;-0.002176771351943135;-0.3324991534753643;-1.169417863155378;1.275;0.0008463949833613132
24:49.9;0.00025848989762218273;-0.34123677947234066;-1.1895149248114103;1.275;0.00010492266295867032
24:49.9;0.0025537069361973594;-0.34897911132051096;-1.206042173420863;1.281;0.0010748131794104635
24:49.9;0.004754722171078371;-0.35474838081667154;-1.2199447542283302;1.28;0.0020577174048363065
24:49.9;0.007022961606668191;-0.3575593502877031;-1.2322657942539323;1.273;0.003094374168617044
24:49.9;0.009625064390519363;-0.3565364696938997;-1.243955222357253;1.25;0.004268864316263918
24:49.9;0.012897061459769606;-0.3510373200844932;-1.2556718395588204;1.213;0.0056848657669661025
24:49.9;0.01717888100788689;-0.3407601534215101;-1.2676107138355883;1.197;0.0074204386323598595
24:50.0;0.02272642478604601;-0.3258124805318875;-1.2793947918388866;1.215;0.00947334633064464
24:50.0;0.02962351614184948;-0.30672391671626875;-1.2900653932100097;1.329;0.011721844936796268
24:50.0;0.03772165001589543;-0.2844003736312408;-1.298182746480227;1.329;0.013926971176968277
24:50.0;0.04662581513196557;-0.2600345663973824;-1.3020132875305221;1.329;0.015786030456556435
24:50.0;0.055730194715914116;-0.2349955168526082;-1.2997613667135435;1.357;0.017022124460966105
24:50.0;0.06429845334210826;-0.21071085366274325;-1.2898099571004251;1.376;0.017474837997055032
24:50.0;0.07157520335576678;-0.18854624878522358;-1.2709467924830211;1.38;0.017151727033532013
24:50.0;0.07690480832126753;-0.16968886651147802;-1.2425524761844495;1.3630000000000002;0.016215172826919817
24:50.0;0.07982932173000744;-0.15504808460555267;-1.2047241371299144;1.318;0.014911332572148646
24:50.0;0.08014449275860179;-0.14518735203127303;-1.1583128402734295;1.252;0.013478089618504545
24:50.1;0.07790632138264407;-0.1402964334415208;-1.1048643146225996;1.169;0.012076143792619898
24:50.1;0.07339396344026887;-0.1402063878995815;-1.046468447146425;0.9359999999999999;0.010768476885788898
24:50.1;0.06704492061300772;-0.1444410651895434;-0.9855456433236316;0.9359999999999999;0.009544063184292607
24:50.1;0.05938318564602858;-0.15229090394271066;-0.9246195610640384;0.9359999999999999;0.008361814587700422
24:50.1;0.050957571200632094;-0.1628934073079208;-0.8661217003428314;0.87;0.007189375171514935
24:50.1;0.0422977062227439;-0.17531151778436357;-0.812241041699655;0.8079999999999999;0.0060229907527934575
24:50.1;0.03388649160155977;-0.18860859563571733;-0.764806367175961;0.752;0.004888094385582513
24:50.1;0.026144261093521592;-0.20192010320008605;-0.7251916939347103;0.7090000000000001;0.003828324588347944
24:50.1;0.01941937104490654;-0.2145188482522508;-0.6942494188851592;0.682;0.0028921188850306156
24:50.1;0.013980557917662992;-0.22586712928108382;-0.6722825141490566;0.6679999999999999;0.0021228990889397333
24:50.2;0.010008855527624998;-0.2356480577384557;-0.6590656436670623;0.665;0.0015544507187235607
24:50.2;0.007590830743658973;-0.24377062495098234;-0.6539189974137996;0.726;0.0012100258075669285
24:50.2;0.006717281952029332;-0.25034797917072243;-0.6558279001915811;0.726;0.0011028782101969714
24:50.2;0.007289877964914822;-0.2556536699889487;-0.6635885555852186;0.726;0.0012367194104578028
24:50.2;0.009134677862252272;-0.2600637809235485;-0.6759551824746024;0.764;0.0016057983625038018
24:50.2;0.012019935467022104;-0.2639932441215543;-0.6917696186803439;0.789;0.002195110734784126
24:50.2;0.01567614428851979;-0.26783392807848233;-0.710060990606442;0.807;0.0029812644197243113
24:50.2;0.01981693663749559;-0.2719014983753877;-0.7301044310815825;0.8109999999999999;0.003933988679682919
24:50.2;0.024159794555184223;-0.2763969343408092;-0.7514310031564186;0.8059999999999999;0.005017825661991844
24:50.2;0.028445617485471746;-0.2813868612469179;-0.7737904396432712;0.8059999999999999;0.006193591250010216
24:50.3;0.03245562622178789;-0.2868054091178088;-0.797079577289246;0.8109999999999999;0.007419574719052478
24:50.3;0.03602324636643701;-0.2924783863346888;-0.8212561716287045;0.8809999999999999;0.008652772244208976
24:50.3;0.03903858651834449;-0.2981660500925386;-0.8462561681769699;0.8809999999999999;0.009850405840040995
24:50.3;0.04144433824272763;-0.30361495357329354;-0.8719246040254844;0.8809999999999999;0.010971532648359561
24:50.3;0.04322371354908006;-0.30860779073369354;-0.8979653398369104;0.92;0.011978116583655312
24:50.3;0.04438253661042804;-0.3130043154927844;-0.9239166465117902;0.9570000000000001;0.012834981213772682
24:50.3;0.04492875666936007;-0.31677028523945355;-0.9491599914809065;0.9940000000000001;0.013508535231227171
24:50.3;0.04485384830827086;-0.3199912422955819;-0.9729627910436096;1.0270000000000001;0.013964777944422743
24:50.3;0.044121503117852824;-0.3228671693695861;-0.9945480676262253;1.063;0.014167719945315512
24:50.3;0.042668497270742595;-0.3256860151426174;-1.013179728597339;1.094;0.014079685379615502
24:50.4;0.04041969998308901;-0.32877805416912936;-1.028250270943368;1.112;0.013664531277409056
24:50.4;0.037314511955944575;-0.3324568799449509;-1.0393572594103444;1.113;0.01289371137372939
24:50.4;0.03333783071599478;-0.33695532768253844;-1.0463576568553512;1.113;0.011754111906192856
24:50.4;0.02854688466653818;-0.34236550141503597;-1.0493951422380259;1.113;0.010256230348558206
24:50.4;0.023086198403128717;-0.3485914600764009;-1.0489016998297476;1.107;0.008441195452275868
24:50.4;0.017186070504707822;-0.35532172567872133;-1.0455779304635442;1.101;0.00638490970074491
24:50.4;0.01114502631472907;-0.3620276647509705;-1.0403567244044025;1.1059999999999999;0.004197639478749139
24:50.4;0.005302408072444006;-0.36799292871546824;-1.0343531470551095;1.1179999999999999;0.002018280208524853
24:50.4;1.0280458253843715e-05;-0.37237697969746925;-1.0287995027985166;1.135;3.938456423723343e-06
24:50.4;-0.00438877619989841;-0.3743104215497118;-1.024959461131535;1.136;0.001683767190387244
24:50.5;-0.007578731674008839;-0.37301141044654573;-1.0240128450305463;1.11;0.0028948365848074403
24:50.5;-0.009289046896177496;-0.3679048367430227;-1.0269084900654821;1.0290000000000001;0.003509444650591691
24:50.5;-0.009321656442837032;-0.35872453949952066;-1.0341985153631899;1.0290000000000001;0.0034582635668293257
24:50.5;-0.007585226726784981;-0.34558326434128583;-1.0458860680696123;1.0290000000000001;0.002741609821117289
24:50.5;-0.004130286384078372;-0.3289997126982928;-1.0613259124229155;1.023;0.001442196549124317
24:50.5;0.0008221414068937141;-0.309874145121413;-1.0792087655447324;1.038;0.0002749396197013907
24:50.5;0.006865987849076177;-0.28940741700103734;-1.0976458110866685;1.08;0.0021810966564128555
24:50.5;0.013419098397029134;-0.2689675968210567;-1.1143550375431963;1.1440000000000001;0.00402204458709717
24:50.5;0.019765231770971316;-0.249922179247995;-1.1269323847287143;1.216;0.005566786557955852
24:50.5;0.025133460938860354;-0.23346541012258276;-1.1331689222005925;1.29;0.006649201537389999
24:50.6;0.028809008386069226;-0.22047309200412774;-1.1313578097056842;1.3330000000000002;0.007185944886062927
24:50.6;0.030257084753613144;-0.21141059689624328;-1.1205299559977333;1.194;0.007167658502630353
24:50.6;0.02923217959995868;-0.20630644215909016;-1.1005741116778738;1.194;0.006637328012031457
24:50.6;0.025844734194806304;-0.20478842250284304;-1.0722322401843638;1.194;0.005675006092822927
24:50.6;0.020565490115386786;-0.2061691133394572;-1.0369881416233633;1.0859999999999999;0.004396797431244751
24:50.6;0.01416125844993027;-0.20956518794688664;-0.9968713846195439;0.986;0.0029584219755205
24:50.6;0.007571439792834446;-0.21403399301083295;-0.9542005255031801;0.907;0.0015463253597833525
24:50.6;0.0017494868915845867;-0.2187072328912077;-0.9113044289981377;0.85;0.00034868825541999114
24:50.6;-0.0024971863840152326;-0.22290044638321443;-0.8702713302040245;0.8220000000000001;0.0004844138738307501
24:50.6;-0.004634733911752269;-0.2261820103265135;-0.8327672955333223;0.805;0.0008729844875316372
24:50.7;-0.004471376294436207;-0.22839398307326372;-0.799945247478202;0.7959999999999999;0.0008169324381487417
24:50.7;-0.002155172008464761;-0.22962619118867772;-0.7724438706232589;0.799;0.00038227006586042436
24:50.7;0.0018905634946611279;-0.23015429612699417;-0.7504582456809108;0.799;0.00032654037525900334
24:50.7;0.007067955749760852;-0.23036032883475038;-0.7338533997635536;0.799;0.0011948429411809051
24:50.7;0.012711015343896173;-0.23065528535332214;-0.7222896522722775;0.795;0.002117654213804541
24:50.7;0.018177676902527567;-0.23141681043918833;-0.7153340237778905;0.787;0.0030091384182414616
24:50.7;0.02291847408126425;-0.2329469603132018;-0.7125413583123517;0.77;0.003804107874774036
24:50.7;0.026517306630231288;-0.2354503049714388;-0.7134989252055034;0.753;0.004454736199785386
24:50.7;0.028702799529648736;-0.23903011219062645;-0.7178380683025474;0.745;0.004924967388884457
24:50.7;0.029334936028060435;-0.24369821993465832;-0.7252245307638725;0.745;0.005184537118274985
24:50.8;0.028378569748575395;-0.2493926344872142;-0.7353429808988878;0.754;0.0052043210255088
24:50.8;0.02587895234213221;-0.25599674320713806;-0.7478891649387103;0.825;0.0049547115086171324
24:50.8;0.02195085560300965;-0.26335570615710324;-0.7625741780219019;0.825;0.004408352161510028
24:50.8;0.016782343113641914;-0.2712885749208983;-0.7791334342452142;0.825;0.003547283847980713
24:50.8;0.010644281263602869;-0.27959797576356393;-0.797328357027679;0.845;0.0023729444670761474
24:50.8;0.0038939826125780506;-0.28808157847437815;-0.8169357880542033;0.8590000000000001;0.0009164260332699015
24:50.8;-0.003036201950440576;-0.29654952428928194;-0.8377292541968456;0.8740000000000001;0.0007542782212580465
24:50.8;-0.009670564723819695;-0.3048488279387992;-0.8594597099417376;0.895;0.0025337390688610507
24:50.8;-0.015540901545842617;-0.3128907777143156;-0.881843629143073;0.922;0.004288057038400242
24:50.8;-0.020247431333186044;-0.320672981528178;-0.9045659870065306;0.956;0.005873169816003813
24:50.9;-0.023514980721970256;-0.3282861634758965;-0.927303186710229;0.993;0.007158449373735557
24:50.9;-0.025229297634950493;-0.3358982068793351;-0.9497649949230403;1.06;0.008048760499738548
24:50.9;-0.02544426578596153;-0.34371393186169485;-0.9717455439955228;1.06;0.008498447917438246
24:50.9;-0.024361010330935653;-0.35191650870069174;-0.9931660652179043;1.06;0.00851445409619446
24:50.9;-0.022287672700818273;-0.36060143584128135;-1.0140944379871215;1.079;0.008150243307325283
24:50.9;-0.01958930952808266;-0.3697145625069009;-1.0347386377034327;1.0979999999999999;0.007494045952907523
24:50.9;-0.016634843687187942;-0.3790038456563772;-1.0554206194159728;1.121;0.006654078430949926
24:50.9;-0.01374670621794038;-0.3879931710715839;-1.076536953106631;1.148;0.005741847783919979
24:50.9;-0.011157564192023349;-0.395985323933564;-1.0985079346442963;1.168;0.004853462547567086
24:50.9;-0.008976579381350585;-0.4020986032045497;-1.1217143684342643;1.186;0.004048794395976551
24:51.0;-0.007167169796767809;-0.40533790528275765;-1.1464220669267806;1.207;0.0033305000861235806
24:51.0;-0.00554017755528196;-0.40469697804115223;-1.1726971061020877;1.2329999999999999;0.002629296106908201
24:51.0;-0.0037687036146095;-0.39928258989723514;-1.2003186716959715;1.2329999999999999;0.0018062128178300244
24:51.0;-0.0014307549445378698;-0.38844377784631146;-1.2287009636682433;1.2329999999999999;0.0006828725000324095
24:51.0;0.0019180274740761918;-0.37188547312082476;-1.256841288158614;1.244;0.0008964879921795199
24:51.0;0.006647444302172575;-0.3497491173251321;-1.2833153018271866;1.2790000000000001;0.0029836282252163207
24:51.0;0.012950099733706692;-0.3226491889188318;-1.3063373147344224;1.325;0.0054583203785702784
24:51.0;0.02076267810638014;-0.29165911232674896;-1.3238915453750153;1.369;0.00801698976776868
24:51.0;0.029739376757562427;-0.2582436228707064;-1.3339230595448253;1.41;0.010244534960949642
24:51.0;0.03928878256050292;-0.2241401972816582;-1.3345614606080358;1.432;0.011752409094271127
24:51.1;0.04866293408409172;-0.19120011906750164;-1.3243411727993657;1.4380000000000002;0.012322145433488318
24:51.1;0.0570717987069183;-0.16120832601533355;-1.3023825753729574;1.3219999999999998;0.01198250463541688
24:51.1;0.06379371734341013;-0.1357086568988288;-1.268511218675855;1.3219999999999998;0.010981957902620628
24:51.1;0.06826044757043778;-0.11586389813978523;-1.2233124559940594;1.3219999999999998;0.009675082238594259
24:51.1;0.07010756300307623;-0.10237198857764458;-1.16812838873231;1.238;0.008383716598735524
24:51.1;0.06919091191680132;-0.09544264197015523;-1.104997082201363;1.1440000000000001;0.007297139325746571
24:51.1;0.06557572711665449;-0.09482477579554072;-1.0365296471555403;1.051;0.0064453524056997885
24:51.1;0.05950786147948146;-0.09987123186355595;-0.9657313527868547;0.9640000000000001;0.00573946063130267
24:51.1;0.05137687546524089;-0.10962868449039825;-0.8957858534575028;0.889;0.005045405671804507
24:51.1;0.04167803288084784;-0.12294237204951088;-0.8298244208676375;0.821;0.0042520171997136565
24:51.2;0.030975602835624654;-0.13856686632185364;-0.7706973407245731;0.754;0.0033079811278002432
24:51.2;0.01986590423669603;-0.15527556073722215;-0.7207606720322496;0.625;0.0022233228193014503
24:51.2;0.008938560214082595;-0.17196116759641342;-0.6816951297423152;0.625;0.0010478235296357728
24:51.2;-0.0012618242323473616;-0.1877174414128226;-0.654381840370638;0.625;0.00015500108149168375
24:51.2;-0.01026947551792266;-0.20189371720176127;-0.6388572646513223;0.62;0.001324569973193598
24:51.2;-0.017725313049750193;-0.21412011730191927;-0.6343525371147187;0.637;0.0024075874337427024
24:51.2;-0.023399329556890024;-0.2243052653990056;-0.6394069483805555;0.665;0.0033559867224313765
24:51.2;-0.027205572484916868;-0.23260713131413815;-0.6520406975764497;0.701;0.004126250574619179
24:51.2;-0.0292050586345623;-0.23937798142268116;-0.6699702706367547;0.7390000000000001;0.004683794309387661
24:51.2;-0.029592976126846894;-0.24509006136558875;-0.6908451808327204;0.778;0.005010661640626984
24:51.3;-0.028670495338228283;-0.25025474016811694;-0.7124808574395372;0.818;0.005111998398487832
24:51.3;-0.026805530020605078;-0.25534888197390965;-0.7330621633242239;0.861;0.005017636128211524
24:51.3;-0.024389249559037984;-0.2607576525554279;-0.7512947708498846;0.861;0.004777996929714309
24:51.3;-0.021795542512926216;-0.2667365507226479;-0.7664873685082414;0.861;0.004456102957184726
24:51.3;-0.019348703009289536;-0.27339187621842714;-0.7785575480443252;0.857;0.0041183967591843906
24:51.3;-0.017301438262495823;-0.28067887936858216;-0.7879663412173822;0.846;0.003826481410709755
24:51.3;-0.015822933666518144;-0.2884167673284868;-0.7955961914654073;0.8320000000000001;0.003630782284311997
24:51.3;-0.014995355605749034;-0.2963177723134048;-0.8025928536390381;0.825;0.00356623335540001
24:51.3;-0.014815825001394846;-0.30402590960654463;-0.8101941060696961;0.8290000000000001;0.0036494340151688297
24:51.3;-0.015200567665310747;-0.31116103479678625;-0.8195670798975161;0.838;0.0038764083426255664
24:51.4;-0.01599018293251151;-0.3173640816759354;-0.831671448271905;0.847;0.004220491184227189
24:51.4;-0.016958280950873518;-0.32233943343715676;-0.8471593500265344;0.895;0.004630846363348586
24:51.4;-0.017827231193735485;-0.3258904951289293;-0.8663161638645637;0.895;0.005033058848808212
24:51.4;-0.01829379834712314;-0.32794452444166255;-0.889040479772997;0.9259999999999999;0.005333665890636681
24:51.4;-0.01806482248228814;-0.3285632680967522;-0.9148593318674451;0.955;0.005430090030962477
24:51.4;-0.01689909930941914;-0.32793787104515393;-0.9429755093671733;0.9840000000000001;0.005225833211527771
24:51.4;-0.01464741406679178;-0.3263691060681084;-0.9723437287815087;1.018;0.004648253641874622
24:51.4;-0.01128107171170295;-0.32423548965209636;-1.001770727037697;1.057;0.0036642006406916467
24:51.4;-0.006901670746355292;-0.3219516209779282;-1.0300324631506805;1.101;0.0022887363400257844
24:51.4;-0.0017295890531447808;-0.3199181374526304;-1.0559990623229685;1.145;0.0005843126964712739
24:51.5;0.003926824559730568;-0.31846486145400243;-1.0787542273040567;1.1740000000000002;0.0013490421824479874
24:51.5;0.009715686955848764;-0.317791217178987;-1.0976926194770924;1.188;0.003389191806003031
24:51.5;0.015290848395959953;-0.3179129943337305;-1.1125792820058122;1.188;0.00540842523437007
24:51.5;0.02035604142816748;-0.3186298704080491;-1.1235607332055118;1.188;0.007287463051472098
24:51.5;0.024696687133867443;-0.31952862945333704;-1.1311258817495822;1.195;0.008926052077937605
24:51.5;0.028196674593492847;-0.3200294372304356;-1.13602245169835;1.192;0.01025120066345708
24:51.5;0.030839199130231185;-0.3194694991263377;-1.1391390407877529;1.175;0.011223006861390552
24:51.5;0.03268968979509136;-0.3172063994772449;-1.1413661932044852;1.155;0.011835258406770218
24:51.5;0.03385995764951275;-0.3127188395007861;-1.1434541575604389;1.1320000000000001;0.01210763204826092
24:51.5;0.03445832967257963;-0.30568645435114383;-1.1458891705069403;1.117;0.012070160118735376
24:51.6;0.034537090267706086;-0.29603652376150197;-1.1488120254848095;1.107;0.011745730028514359
24:51.6;0.03405138230395649;-0.28394963540712126;-1.1519998434064938;1.1840000000000002;0.01113854546996168
24:51.6;0.03284150710814849;-0.2698243405297334;-1.1549192443913388;1.1840000000000002;0.01023424527624572
24:51.6;0.030645090686008278;-0.2542144199014065;-1.1568378494905271;1.1840000000000002;0.009012257290753257
24:51.6;0.027139959087299003;-0.23775909006459894;-1.1569665297848621;1.2229999999999999;0.007465641201707254
24:51.6;0.02201427341483575;-0.2211192797580932;-1.1546059037877965;1.245;0.005620367851807653
24:51.6;0.015055712518562657;-0.2049239212679522;-1.1492750559830984;1.251;0.0035458303416842545
24:51.6;0.006244718545586833;-0.18972833953922413;-1.1407993212230445;1.235;0.0013516191276695907
24:51.6;-0.004169650150834886;-0.17598696084500912;-1.1293356637946386;1.195;0.0008287110927473137
24:51.7;-0.015634565350059994;-0.16404044875727367;-1.1153254175899963;1.14;0.0028604763433621484
24:51.7;-0.027317105608244203;-0.15411548578468337;-1.099380773280606;1.0859999999999999;0.004628380963472856
24:51.7;-0.03819271889497108;-0.14633473644270473;-1.082127778756582;0.9790000000000001;0.006047927158148991
24:51.7;-0.047185823759119436;-0.140734046393281;-1.064042553672205;0.9790000000000001;0.007065936216387052
24:51.7;-0.05333085303734872;-0.1372839871191845;-1.0453246930123041;0.9790000000000001;0.0076533156186431575
24:51.7;-0.05591660023370361;-0.1359134415011412;-1.0258441231997688;0.978;0.007796228196505234
24:51.7;-0.05458895680809105;-0.13653294800549234;-1.0051754683131104;0.995;0.007491764956448354
24:51.7;-0.049401958839451525;-0.1390547103463078;-0.9827110106861766;1.024;0.006750807066864081
24:51.7;-0.04081403477982807;-0.1434049981663146;-0.9578280956201671;1.041;0.005606107100851717
24:51.7;-0.029631263092719542;-0.14952441725544385;-0.9300765035049692;1.036;0.0041207944884540295
24:51.7;-0.016906864625253447;-0.15735449998609444;-0.8993454810282232;1.018;0.0023925928430537724
24:51.8;-0.0038126506933176393;-0.16681502677741064;-0.8659727002973895;0.981;0.0005507650694002413
24:51.8;0.008498356156694078;-0.17778094364247954;-0.8307702332571253;0.81;0.0012551656985297594
24:51.8;0.019017460627540207;-0.19006626379861852;-0.7949665742431157;0.81;0.0028734684422939967
24:51.8;0.026975083351880227;-0.20341641007337039;-0.7600910490383056;0.81;0.004170752310792636
24:51.8;0.03189317508745035;-0.2175071479359594;-0.7278356659767202;0.754;0.005048991321718633
24:51.8;0.033594607794379755;-0.2319506305457505;-0.6999134366393509;0.713;0.005453928795741053
24:51.8;0.03217834276584154;-0.24631133293237895;-0.6779169782733865;0.688;0.005373095736671865
24:51.8;0.02797366725820841;-0.2601323075662046;-0.6631835575074774;0.669;0.0048258903310184785
24:51.8;0.021486114383585345;-0.27296861656225274;-0.656680085382884;0.6629999999999999;0.003851451631110396
24:51.8;0.01334353589612664;-0.2844239395072161;-0.6589220983314714;0.669;0.0025007550156128195
24:51.9;0.00424561963131324;-0.2941874305079485;-0.6699369941353304;0.687;0.0008367566184429731
24:51.9;-0.005083822041855265;-0.30206821880754997;-0.6892763390073847;0.8;0.0010584948395398156
24:51.9;-0.013943199518283406;-0.3080233480212162;-0.7160718303083166;0.8;0.003075407493423352
24:51.9;-0.021697135723261686;-0.31217304525388156;-0.749116714808897;0.8;0.005073962977936308
24:51.9;-0.027815666236106398;-0.3147979920740451;-0.7869523457167374;0.852;0.006890803321073969
24:51.9;-0.03190831782269366;-0.3163169060947925;-0.8279520962030851;0.8959999999999999;0.008356636728570583
24:51.9;-0.03375455280804715;-0.3172461820428822;-0.8704056109126156;0.93;0.009320741099955064
24:51.9;-0.033329619613715916;-0.31814534332396766;-0.9126053279165102;0.96;0.00967695960007251
24:51.9;-0.030819963047052683;-0.3195540873034665;-0.9529339123018166;0.991;0.009385107965313796
24:52.0;-0.026619451161061788;-0.32192870027343323;-0.9899529978110403;1.035;0.008483466872801822
24:52.0;-0.021299468083276756;-0.32558538307135204;-1.0224956078751566;1.094;0.007090797914812177
24:52.0;-0.015552208662023831;-0.3306548977634449;-1.049760505283596;1.181;0.005398303082419903
24:52.0;-0.01011418270288181;-0.33704966583195656;-1.071395720462421;1.181;0.003652368618975635
24:52.0;-0.005681292265374161;-0.3444443425503204;-1.087548230326953;1.181;0.002128211146256815
24:52.0;-0.0028252775937468023;-0.3522734828125846;-1.0988589284845658;1.179;0.0010936617409693656
24:52.0;-0.0019171732049761997;-0.359751580857605;-1.106397103428718;1.175;0.0007630888215960904
24:52.0;-0.003062917645367538;-0.36591962557191793;-1.1115434503732244;1.17;0.001245797533424202
24:52.0;-0.0060599612548181015;-0.369719717161404;-1.1158363581329844;1.1740000000000002;0.00250001703433063
24:52.0;-0.01038627672445746;-0.37009633169928774;-1.1207955504618146;1.175;0.004308251700274441
24:52.1;-0.015232135771433675;-0.36611776415654457;-1.1277353808813422;1.165;0.006289104478814643
24:52.1;-0.019582768246754513;-0.3571027528437115;-1.13758092239199;1.138;0.007955172156162602
24:52.1;-0.022355313673781414;-0.3427298986456271;-1.1507052474407917;1.126;0.00881651303714229
24:52.1;-0.022578179186012886;-0.32310986169716316;-1.1668124396180226;1.126;0.008512167860745217
24:52.1;-0.01957633130734892;-0.2988123709426991;-1.184891857597136;1.126;0.006931202621981912
24:52.1;-0.013113252824995493;-0.2708488007431003;-1.203264066298769;1.17;0.00427364357479131
24:52.1;-0.00345285461032106;-0.24060953240369093;-1.2197292157934407;1.2309999999999999;0.001013338509822945
24:52.1;0.008671266620664954;-0.2097542655364713;-1.231811999370963;1.287;0.0022404629765529916
24:52.1;0.022171384126461715;-0.18006222136339978;-1.2370742570357494;1.349;0.0049386833239127926
24:52.1;0.03578104345914489;-0.1532617744443418;-1.2334462820790644;1.393;0.006764054390633413
24:52.2;0.0482514742811136;-0.13086572798883703;-1.2195193090630703;1.393;0.007700611150401163
24:52.2;0.05852563983992154;-0.1140368072873276;-1.1947455719314242;1.361;0.007973824076043167
24:52.2;0.06585525987709887;-0.10350065372232342;-1.159509727648648;1.114;0.007903290713103039
24:52.2;0.06984691140971032;-0.09951287732460885;-1.1150698494812683;1.114;0.0077504793466715806
24:52.2;0.07044772397762245;-0.1018749170870776;-1.06340600720024;1.114;0.007631911824889813
24:52.2;0.0678946494610299;-0.1099863032602631;-1.007027194866277;1.024;0.007519956953068648
24:52.2;0.06264800742157858;-0.12292149573000706;-0.9487639256628501;0.9440000000000001;0.007306228693016149
24:52.2;0.05532056208597537;-0.13952252552555786;-0.891550416007113;0.8690000000000001;0.006881400267765078
24:52.2;0.04660830103046069;-0.15849941705977844;-0.8382021684266034;0.809;0.006192125096150332
24:52.2;0.03722779034506909;-0.17853069485539869;-0.7912056444991021;0.758;0.005258592668793437
24:52.3;0.027863842895371423;-0.19835803519007075;-0.7525389707837497;0.72;0.004159295782191279
24:52.3;0.019129049625518188;-0.21687100913486035;-0.7235385628703828;0.698;0.0030016259896791385
24:52.3;0.011533816792175185;-0.23317854847983735;-0.7048218114190936;0.7070000000000001;0.001895575026654498
24:52.3;0.005464237322636514;-0.24666258028963683;-0.696270937914429;0.7070000000000001;0.0009384498989316555
24:52.3;0.0011670260363168404;-0.2570074634930914;-0.6970774110162598;0.7070000000000001;0.0002090774960194842
24:52.3;-0.0012569775127372344;-0.26420029219037283;-0.7058416825554797;0.74;0.0002344056650102895
24:52.3;-0.001849502322757015;-0.26850239452174784;-0.7207202889249034;0.779;0.0003579066701369055
24:52.3;-0.0007815481587404706;-0.27039678054437377;-0.7396088443591976;0.8140000000000001;0.00015630013623250892
24:52.3;0.0016699351995170543;-0.2705178734588986;-0.7603438235276117;0.841;0.0003434832837873149
24:52.3;0.005154541584784433;-0.2695711596652033;-0.7809021003543939;0.87;0.0010850757696440401
24:52.4;0.009286687909477148;-0.26825219360829533;-0.7995782166954342;0.892;0.0019918887866863257
24:52.4;0.013683531235348602;-0.26717505502159133;-0.8151235796084841;0.9079999999999999;0.0029800088361850853
24:52.4;0.017995561059365697;-0.2668189400922089;-0.8268365136883199;0.914;0.003970102260074607
24:52.4;0.021925516853483637;-0.26749764488949546;-0.8345971920613983;0.914;0.004894932663002517
24:52.4;0.025236133629807395;-0.2693511469769275;-0.8388472193791511;0.914;0.0057019646025893295
24:52.4;0.027750816737703292;-0.272354851921921;-0.8405184390298842;0.907;0.006352696848242587
24:52.4;0.02935162086957917;-0.2763423886789398;-0.8409181004154314;0.8909999999999999;0.00682076830061257
24:52.4;0.02997684406152497;-0.2810394867088454;-0.8415794216497775;0.873;0.007090034686327764
24:52.4;0.029618240627070393;-0.28610678248823596;-0.8440899701663678;0.8590000000000001;0.007152801127632803
24:52.4;0.028316660464583233;-0.2911887699224361;-0.8499145649902691;0.852;0.0070079650458243934
24:52.5;0.026154892340053033;-0.29596507297797864;-0.8602322031830053;0.856;0.006659001242991511
24:52.5;0.023246873273186322;-0.3001984341344637;-0.8758063334282609;0.8740000000000001;0.006111967724642532
24:52.5;0.01972309895270617;-0.3037719745199667;-0.8969035497182719;0.95;0.00537364040217062
24:52.5;0.015713828667524167;-0.30670842836228385;-0.9232658672594661;0.95;0.004449738653910598
24:52.5;0.01133403053863224;-0.3091672718624814;-0.954129953613139;0.95;0.003343377552920956
24:52.5;0.006674338054478795;-0.31142009005516036;-0.9882841600783708;0.993;0.002054171315735194
24:52.5;0.0017996725829680373;-0.3138076434822364;-1.0241627728961007;1.0490000000000002;0.0005783969627538564
24:52.5;-0.003245556975572593;-0.3166842370512733;-1.0599812931026251;1.12;0.0010894665114304087
24:52.5;-0.008427588202000838;-0.32035734533936555;-1.0939066252664091;1.193;0.002953372626882372
24:52.5;-0.013710852352898706;-0.3250318096443226;-1.1242401155286492;1.245;0.0050101346488860094
24:52.6;-0.019045336230384517;-0.3307670555018629;-1.1495816230142597;1.265;0.007241869658843807
24:52.6;-0.02435520777341683;-0.3374542040162094;-1.1689443882875665;1.263;0.009607281858834643
24:52.6;-0.029528067471959928;-0.3448184403161734;-1.181803105194319;1.2429999999999999;0.01203290905849829
24:52.6;-0.03440439365841837;-0.35244741042611316;-1.188076539017926;1.2429999999999999;0.014406306561391188
24:52.6;-0.03877091214969366;-0.35983824475725423;-1.1880621947639811;1.2429999999999999;0.016574960982127997
24:52.6;-0.04236589907618764;-0.3664513066066208;-1.1823457091183451;1.2229999999999999;0.018355963330713095
24:52.6;-0.044904292890814386;-0.3717620899035481;-1.1717030366074435;1.2;0.019560075117420066
24:52.6;-0.046125191825021984;-0.375307804786068;-1.1570084224294297;1.188;0.02002913997588019
24:52.6;-0.045854884978625436;-0.3767273347200358;-1.13915950108248;1.187;0.01967873956503588
24:52.6;-0.0440682997424513;-0.3757934310012215;-1.1190278075847715;1.187;0.01853174679774446
24:52.7;-0.04092729407646032;-0.37243376602028033;-1.0974359332106192;1.179;0.01672789357559047
24:52.7;-0.03677913834734168;-0.3667336813564612;-1.0751548095855055;1.165;0.014501848058207614
24:52.7;-0.03210982582858643;-0.3589144549413433;-1.0529099289818316;1.0959999999999999;0.01213445066949267
24:52.7;-0.02746080097311427;-0.3492901627441433;-1.0313859113171413;1.0959999999999999;0.009892834637256378
24:52.7;-0.023330209394818134;-0.338217031681928;-1.0112235593246566;1.0959999999999999;0.007979235619692123
24:52.7;-0.02008302740917788;-0.3260508339074171;-0.9930062628429619;1.062;0.006502292228954733
24:52.7;-0.017886493601280494;-0.3131192942497109;-0.9772311435279541;1.023;0.005473086853103123
24:52.7;-0.016677920805926987;-0.29970790163447264;-0.9642618816315741;0.988;0.004819867497581706
24:52.7;-0.0161681376724354;-0.28605598179657205;-0.9542685194146941;0.9570000000000001;0.004413484741185875
24:52.7;-0.015881798319440005;-0.27236213205956494;-0.947168340411118;0.934;0.004097071800666183
24:52.8;-0.015231264753779724;-0.25879861126851345;-0.9425855592498933;0.924;0.0037155121916203487
24:52.8;-0.013614076296025674;-0.24553187462790108;-0.9398463025310162;0.9279999999999999;0.0031416145308904918
24:52.8;-0.01051775612462626;-0.23274376150431136;-0.9380196863683019;0.978;0.0022962179024928475
24:52.8;-0.005613306599739625;-0.22064816109068724;-0.9360044672660803;0.978;0.00115930310202593
24:52.8;0.001177997969081199;-0.2095009751594396;-0.9326468540947165;0.978;0.00023016952431351455
24:52.8;0.00965377436176073;-0.1996025088179611;-0.9268678325530105;0.988;0.0017859979228941516
24:52.8;0.019339742594029027;-0.1912897507183543;-0.91778137692891;0.98;0.0033953271926501325
24:52.8;0.02953865628351968;-0.18491593642698162;-0.9047908054414321;0.9590000000000001;0.004942119644269198
24:52.8;0.03941306720882537;-0.1808186804112182;-0.8876542615171281;0.9329999999999999;0.006325973551275528
24:52.8;0.04808998053441563;-0.17928228958352066;-0.8665147052577715;0.907;0.00747081407782287
24:52.9;0.054770853264757106;-0.18050161214832094;-0.8418954941632373;0.8859999999999999;0.00832317022911162
24:52.9;0.058828929668986354;-0.18455424127728706;-0.8146658638941178;0.868;0.008844931952743504
24:52.9;0.059878808664086056;-0.19138555204708024;-0.7859807099211569;0.78;0.00900729087462472
24:52.9;0.057810370916509805;-0.20080691233383055;-0.7572007220961371;0.78;0.00879013274508598
24:52.9;0.052787896415594456;-0.2125036376802639;-0.7298034297486912;0.78;0.008186657559690834
24:52.9;0.0452200223920972;-0.2260495683043862;-0.7052950142445354;0.7390000000000001;0.007209502036752613
24:52.9;0.03570546921322568;-0.2409291528718853;-0.6851242299605157;0.7140000000000001;0.00589377327534895
24:52.9;0.024958820643850764;-0.25656995003280453;-0.670595242259761;0.7;0.004294279597822505
24:52.9;0.01372487527712615;-0.2723853201323731;-0.6627815760709226;0.698;0.0024777787961581194
24:52.9;0.002696003246068254;-0.2878222764341196;-0.6624494729672403;0.703;0.0005140407794555273
24:53.0;-0.007551484841686256;-0.30240747765940096;-0.6699992722175858;0.7090000000000001;0.0015300274120010852
24:53.0;-0.016590614284338345;-0.315785571284704;-0.6854313355994359;0.721;0.003591027277924564
24:53.0;-0.024144451327816282;-0.3277462205038155;-0.7083412763939163;0.8109999999999999;0.005605283495866689
24:53.0;-0.030062451346349394;-0.3382372214764341;-0.7379446369649181;0.8109999999999999;0.007503598185821237
24:53.0;-0.034287840718305665;-0.3473614575063962;-0.7731236511803392;0.8109999999999999;0.009208114773985145
24:53.0;-0.036831547671924106;-0.35535718402650474;-0.8124880586829946;0.862;0.010634132197329846
24:53.0;-0.03776172316964851;-0.36256448792156;-0.8544512764178521;0.92;0.01169834354216357
24:53.0;-0.037208738543823824;-0.36938275157636397;-0.8973286466967877;0.98;0.012333123812419775
24:53.0;-0.03537798974183028;-0.3762231399119406;-0.9394570726485177;1.0390000000000001;0.01250419090834754
24:53.0;-0.032559504184824443;-0.38345860256514924;-0.9793241573675865;1.089;0.01222707949014257
24:53.1;-0.02912438246970074;-0.39137356191191913;-1.0156896218367364;1.133;0.011577351668918521
24:53.1;-0.025502118890288004;-0.40011624028842174;-1.047682364083792;1.16;0.010690353805248224
24:53.1;-0.022138392820396827;-0.40965776480088406;-1.0748600588652686;1.202;0.009748082708845415
24:53.1;-0.019439081320026738;-0.41976302528925596;-1.0972226515626875;1.202;0.00895312571327065
24:53.1;-0.017711399694481475;-0.4299782707104202;-1.1151759175602405;1.202;0.00849264117210385
24:53.1;-0.017114001839202257;-0.4396404043845579;-1.1294476276427228;1.205;0.008497971505513095
24:53.1;-0.017623987090268443;-0.4479132202515202;-1.1409663544404436;1.205;0.009006807583050138
24:53.1;-0.019024549388119125;-0.4538543748919058;-1.1507181140962919;1.213;0.009935731682045475
24:53.1;-0.020915565971000156;-0.4565120382950878;-1.1595969963976742;1.224;0.011072072915999202
24:53.1;-0.022749593944034866;-0.455042452277111;-1.168264697295705;1.216;0.012093912382006447
24:53.2;-0.023896319313296232;-0.4488305414951604;-1.1770341772802975;1.189;0.012624159936931265
24:53.2;-0.023737140066509923;-0.43758890357174;-1.1857972671794317;1.1740000000000002;0.012317005579496106
24:53.2;-0.02178284665320395;-0.42141231353779973;-1.194020230636786;1.281;0.0109605801137978
24:53.2;-0.01779140087265611;-0.400778654332577;-1.2008212384293107;1.281;0.008562352210269141
24:53.2;-0.01185118964280234;-0.37650494157881315;-1.205116780576603;1.281;0.005377268992850989
24:53.2;-0.004398880371733841;-0.34967348875170895;-1.205802865595394;1.319;0.0018547320199087378
24:53.2;0.003841161531765963;-0.32153656019731264;-1.2019369467336594;1.34;0.0014844809115942656
24:53.2;0.011984952122982126;-0.29340420511507453;-1.1928921456308148;1.329;0.0041947281108094935
24:53.2;0.019151735745790436;-0.26652671050561116;-1.178454497885758;1.274;0.0060153610350613404
24:53.2;0.02461839014994002;-0.24198980700499553;-1.1588397250330877;1.194;0.006903671176657012
24:53.3;0.027927357079361264;-0.22063953930209812;-1.1346275764247538;1.115;0.006991438062822176
24:53.3;0.02892590680823244;-0.20304625801755638;-1.1066385186099434;1.057;0.006499616843240641
24:53.3;0.02773380627045865;-0.18950665667088262;-1.0757943693098428;1.021;0.005654096470076909
24:53.3;0.02465674085603703;-0.1800732924119842;-1.0430040804726561;1.021;0.004630959505240056
24:53.3;0.020080213816169444;-0.17459740845637042;-1.00910007976646;1.021;0.0035378577481818044
24:53.3;0.01438187534287486;-0.17277314745066055;-0.9748275833005461;1.018;0.0024222534011636592
24:53.3;0.00788511660408373;-0.17417569915999367;-0.9408693922341775;0.9990000000000001;0.0012921859751797342
24:53.3;0.0008558652878807883;-0.17829103536239274;-0.9078791503731533;0.9640000000000001;0.00013853610152255594
24:53.3;-0.0064696866488172695;-0.18454062938302346;-0.876498116106119;0.9179999999999999;0.0010464686711736788
24:53.3;-0.013845346059992013;-0.19230863331841686;-0.8473409292086369;0.867;0.002256112654237771
24:53.4;-0.020983427331743923;-0.20097850533413664;-0.820949776329401;0.821;0.003462124060476699
24:53.4;-0.02754787151742977;-0.20998116851208584;-0.7977289143744506;0.7879999999999999;0.004614490228412055
24:53.4;-0.0331792557770163;-0.21884990434399748;-0.7778792402076927;0.764;0.005648396599141194
24:53.4;-0.03754583648428865;-0.22727076016224448;-0.7613544169281196;0.764;0.006496691142559444
24:53.4;-0.040402621418516145;-0.23511414238094713;-0.7478560792872349;0.764;0.00710405517257876
24:53.4;-0.04163766767985095;-0.2424364805067923;-0.7368763009339213;0.773;0.007438390162759121
24:53.4;-0.04129285401025401;-0.24944921089805852;-0.7277836863002088;0.7809999999999999;0.007496513917028506
24:53.4;-0.03955677077845303;-0.25646056307728937;-0.719939870142414;0.79;0.007303611226824749
24:53.4;-0.036733863146670674;-0.26380091615686785;-0.7128278660616794;0.8009999999999999;0.006907606222907013
24:53.4;-0.033197935513190086;-0.2717457549352868;-0.7061713624133549;0.8079999999999999;0.00637065295065871
24:53.5;-0.02934106683023488;-0.2804516119989141;-0.7000238215465528;0.8109999999999999;0.005760320664754124
24:53.5;-0.025529487099058324;-0.28991851269561153;-0.6948086382520599;0.804;0.005142605937685926
24:53.5;-0.022074765882473674;-0.29998647726681865;-0.6912981234942825;0.7609999999999999;0.004577866909127878
24:53.5;-0.019222102908447482;-0.3103635406513591;-0.6905314496341195;0.7609999999999999;0.0041196000864684125
24:53.5;-0.017150240905156457;-0.3206723378677632;-0.6936867801570804;0.7609999999999999;0.0038150052588543345
24:53.5;-0.015974044536045794;-0.33049978267797486;-0.7019306268250776;0.754;0.0037057853598457184
24:53.5;-0.015743336807730386;-0.3394414508936803;-0.7162642726047348;0.7559999999999999;0.0038276740761843554
24:53.5;-0.01643767565082826;-0.3471396022327685;-0.737382132554544;0.767;0.004207626466489042
24:53.5;-0.017962265210365494;-0.353314903877181;-0.7655567176936665;0.797;0.004858480162300402
24:53.5;-0.020152440447342802;-0.3577903635411248;-0.8005647932589608;0.83;0.005772351551623026
24:53.6;-0.02279239142725312;-0.3605057759776909;-0.8416651304155451;0.872;0.0069157845814889285
24:53.6;-0.025649151743367793;-0.3615217656896609;-0.8876323219785146;0.9129999999999999;0.008230771866733598
24:53.6;-0.02851727650717895;-0.36101302468282764;-0.9368451994393715;1.073;0.009644922739447647
