Time;AccX;AccY;AccZ;Acc-old;Acc-trns
18:55.8;0.006318871642593029;-0.2570544316829528;-0.7155932956157143;0.764;0.0011623338671439432
18:55.8;0.0007818627447457638;-0.275963541839802;-0.7168674587159879;0.7559999999999999;0.00015467534614817943
18:55.8;-0.0047275772248759505;-0.29417694532223104;-0.719531357277913;0.7290000000000001;0.00100068408112788
18:55.8;-0.01015396897313128;-0.31108427068387023;-0.7250645477408351;0.7390000000000001;0.00229029041313405
18:55.8;-0.015371880374429664;-0.32615953879333476;-0.7346973574768523;0.768;0.0036835414243793123
18:55.9;-0.020190235311377792;-0.33900041052105445;-0.7493007526052814;0.7879999999999999;0.005128587546869357
18:55.9;-0.02437452518018102;-0.349357819559492;-0.7693257686630708;0.7979999999999999;0.00655114047629714
18:55.9;-0.02767925154153446;-0.3571491368948718;-0.794795086453542;0.907;0.007857042836757644
18:55.9;-0.02988096246578342;-0.3624536201014879;-0.8253393676770374;0.907;0.008938807498793508
18:55.9;-0.030807137304695347;-0.36549311297921755;-0.8602616345754528;0.907;0.009686370955386315
18:55.9;-0.030362453114771197;-0.36660101415530216;-0.8986129613246634;0.973;0.010002376496448188
18:55.9;-0.028554547215348704;-0.3661816104954171;-0.9392738459815221;1.022;0.009821188305703823
18:55.9;-0.025515897740467933;-0.3646623807468144;-0.9810421226016317;1.0659999999999998;0.009128290882276248
18:55.9;-0.0215125582662091;-0.3624437328339521;-1.0227224693000552;1.102;0.007974261102613093
18:55.9;-0.01693036559333692;-0.35985282203132146;-1.0632064091846223;1.146;0.00647752108204076
18:56.0;-0.01223646003011916;-0.3571084502322164;-1.1015329022362315;1.1909999999999998;0.004813415994694864
18:56.0;-0.00792339323437801;-0.3543014394796629;-1.1369233092962527;1.205;0.0031916502761251196
18:56.0;-0.004447734290665173;-0.35139127616045107;-1.1687875118769036;1.228;0.0018266921915911325
18:56.0;-0.002173711350026252;-0.3482178841832949;-1.1967025863761285;1.228;0.0009058143051992758
18:56.0;-0.001329311621054247;-0.3445272886687782;-1.2203722795606182;1.228;0.0005589111350193805
18:56.0;-0.0019800731105127046;-0.34000992893069953;-1.2395817696528793;1.264;0.0008345416305146513
18:56.0;-0.004024468787070716;-0.33434931865386064;-1.2541634331049962;1.3030000000000002;0.001687575221769053
18:56.0;-0.007214451656199493;-0.3272763572514489;-1.2639822070181355;1.3219999999999998;0.0029844129830603836
18:56.0;-0.011202976524340212;-0.31862097850673854;-1.2689374718008812;1.3130000000000002;0.0045294765468559695
18:56.0;-0.015612002450234174;-0.30835040846761685;-1.2689722469263403;1.306;0.006108790942586969
18:56.1;-0.020101026927715787;-0.29658569149902625;-1.264083553876968;1.314;0.007536057812817351
18:56.1;-0.02440901413589755;-0.28359392206630213;-1.2543325969576977;1.3159999999999998;0.008682801376566745
18:56.1;-0.028351773482859645;-0.26975795664278485;-1.2398534391565086;1.2309999999999999;0.00948254352319707
18:56.1;-0.03177978855681648;-0.25552937589529157;-1.2208584865257632;1.2309999999999999;0.009914188319306162
18:56.1;-0.03452357583429204;-0.2413768737874029;-1.1976435822092213;1.2309999999999999;0.009980194884428455
18:56.1;-0.03635976402751554;-0.22774425850740634;-1.1705982288757495;1.199;0.009693404942903916
18:56.1;-0.03701931380177664;-0.21502392770829368;-1.1402210602649316;1.17;0.009076203258550655
18:56.1;-0.03624022970170334;-0.20354141720783328;-1.1071345492614988;1.139;0.008166653686277647
18:56.1;-0.0338496446607495;-0.19354456909040946;-1.0720931621936178;1.1079999999999999;0.007023727105971103
18:56.1;-0.02984800806177006;-0.18519519428107725;-1.0359816416587089;1.08;0.0057266036478275315
18:56.2;-0.024465649288827187;-0.17856449116964798;-0.9998000973280932;1.052;0.00436782290234808
18:56.2;-0.018170700437731436;-0.17363297666711835;-0.9646308316259334;1.018;0.0030434419186194796
18:56.2;-0.01162225380688816;-0.17029387290367692;-0.9315818402789635;0.893;0.0018437854858449232
18:56.2;-0.005578801194888205;-0.16835926665760095;-0.9017088608465447;0.893;0.0008469236255795434
18:56.2;-0.0007855502577743498;-0.16757075167718674;-0.8759298677831202;0.893;0.00011530324465399519
18:56.2;0.0021324039018103423;-0.16761757548719428;-0.8549492292756252;0.858;0.00030558311114629714
18:56.2;0.002752554926728677;-0.16816402717066756;-0.8391984763045921;0.8270000000000001;0.00038844879618279163
18:56.2;0.0009044543587161455;-0.1688852601942963;-0.8287923932891562;0.812;0.00012659721732648729
18:56.2;-0.003317977074164877;-0.16950819271593226;-0.8235026786991823;0.8079999999999999;0.0004631579154040661
18:56.2;-0.009581853990985798;-0.16985167395938222;-0.8227570553222159;0.8140000000000001;0.0013390321216318868
18:56.3;-0.01737323839974622;-0.16985831604586163;-0.8256706979066128;0.825;0.0024365451627038357
18:56.3;-0.02607663433108126;-0.16961045415545403;-0.83111164152767;0.838;0.0036758985728765053
18:56.3;-0.03506124440550492;-0.1693253636596071;-0.8377963123866006;0.8909999999999999;0.004973793925850504
18:56.3;-0.04375777795284812;-0.16932978663202228;-0.8444052243525201;0.8909999999999999;0.0062566164602812615
18:56.3;-0.05171199226550643;-0.17001883926916114;-0.8497028969819997;0.8909999999999999;0.0074705988325183895
18:56.3;-0.058607757854548935;-0.17180645056772723;-0.8526454339052696;0.898;0.008585449603694879
18:56.3;-0.0642610219313426;-0.17507351504790444;-0.852465626078212;0.9;0.009590581828579796
18:56.3;-0.06859317616833875;-0.18011911655645912;-0.8487319958485374;0.894;0.010486034831137418
18:56.3;-0.07159593963611648;-0.18712068154199904;-0.8413801275025299;0.887;0.011272037737063756
18:56.4;-0.07329935380080356;-0.1961085707675197;-0.8307149607221083;0.8759999999999999;0.01194122145193433
18:56.4;-0.07375047455307443;-0.20695839507593664;-0.817384172978368;0.863;0.012475963376796954
18:56.4;-0.07300481922815893;-0.2194017887258997;-0.8023243999603566;0.8490000000000001;0.012851141155271409
18:56.4;-0.07112793505067547;-0.2330542255799289;-0.7866837018794446;0.8009999999999999;0.013040592832359324
18:56.4;-0.06820209349632168;-0.24745491871840747;-0.7717275667000827;0.8009999999999999;0.013024402542563478
18:56.4;-0.06433309847536263;-0.2621093221729636;-0.7587409713011802;0.8009999999999999;0.012794121548629413
18:56.4;-0.0596533392617226;-0.2765249547405151;-0.7489389648996809;0.792;0.01235422525480643
18:56.4;-0.05431878117087568;-0.29023794643379136;-0.7433909907579593;0.785;0.011719835138919563
18:56.4;-0.04849998401442766;-0.30283345791411215;-0.7429582242983214;0.782;0.010912137898638864
18:56.4;-0.04237012996340844;-0.3139631709029648;-0.7482441526263701;0.789;0.009953637824915417
18:56.5;-0.03609453832841661;-0.32336098507033717;-0.7595620369502133;0.8009999999999999;0.008865278042438411
18:56.5;-0.029825199989385383;-0.33085686743919324;-0.776924118197401;0.82;0.007666587937952659
18:56.5;-0.023701413773149063;-0.336387649728193;-0.8000567051139311;0.8440000000000001;0.006378742401605678
18:56.5;-0.017854972432591498;-0.34000225457342065;-0.8284426463366164;0.9570000000000001;0.005029252357435563
18:56.5;-0.012416606944191989;-0.34185833175828056;-0.8613848331509969;0.9570000000000001;0.0036563378907092147
18:56.5;-0.00752023950589082;-0.3422078619545181;-0.898073548289794;0.9570000000000001;0.0023111788796883683
18:56.5;-0.0033022850518194583;-0.34137047657627856;-0.9376399807963878;1.003;0.0010570040087784715
18:56.5;0.00010599782953603914;-0.3396945815801375;-0.9791921667816361;1.04;3.525766302509342e-05
18:56.5;0.0025934209020365123;-0.3375080098032194;-1.0218412777651797;1.077;0.0008944180048033618
18:56.5;0.0040888166160853116;-0.3350624884456842;-1.0647246619612694;1.1159999999999999;0.0014586824441351132
18:56.6;0.004582568070593925;-0.33247930675002585;-1.1070260482066439;1.157;0.0016866749114406955
18:56.6;0.004147193375783315;-0.32970586865493756;-1.1479909767798668;1.19;0.0015697100476840596
18:56.6;0.0029559502639957295;-0.3264943195912689;-1.1869356502173305;1.216;0.001145512747576559
18:56.6;0.0012984238513925282;-0.3224139750307965;-1.223247817781608;1.306;0.000512088228089091
18:56.6;-0.0004114072533006727;-0.31690435079434437;-1.2563775615360917;1.306;0.00016380242138572517
18:56.6;-0.0016455071245558284;-0.3093626293525555;-1.2858145419763192;1.306;0.0006545547071560658
18:56.6;-0.0018044340460271937;-0.2992475183802927;-1.3110519764736932;1.3130000000000002;0.000707931895836595
18:56.6;-0.0002994522178550899;-0.2861808530630192;-1.3315478228074153;1.3230000000000002;0.00011411030777067066
18:56.6;0.0033338496081189604;-0.27003481139725954;-1.3467011985739032;1.347;0.0012123750937467386
18:56.6;0.009313586804094151;-0.2509961946076322;-1.3558595685892587;1.3769999999999998;0.0031695588081662907
18:56.7;0.017511630124743393;-0.2295977699599682;-1.3583621935909223;1.4;0.0054614734504177895
18:56.7;0.027403144676822103;-0.20670512029198385;-1.3536133365076601;1.41;0.007667367203740155
18:56.7;0.038084006877115543;-0.18345099568694584;-1.3411689394915798;1.4;0.009370142488030317
18:56.7;0.048362109134126335;-0.16111914470558972;-1.3208171747288115;1.3119999999999998;0.010291888866874217
18:56.7;0.05691088226200021;-0.14099429317690534;-1.2926398567284711;1.3119999999999998;0.010372283907766856
18:56.7;0.062454018532265836;-0.12420817868194756;-1.2570538340714172;1.3119999999999998;0.009751343572865962
18:56.7;0.06394393970214081;-0.11161175448354693;-1.2148358479965622;1.266;0.008670156252314858
18:56.7;0.06070780467061309;-0.10368933030587013;-1.1671265317104542;1.213;0.0073467716152997445
18:56.7;0.05254813135125254;-0.10051710480747868;-1.1154026393019845;1.1540000000000001;0.005891541154681963
18:56.7;0.03978951232842025;-0.10176560949701038;-1.0614108813489003;1.088;0.004297869158476298
18:56.8;0.02326510926131554;-0.10674536399359279;-1.0070653514662795;1.023;0.0025009889509574677
18:56.8;0.004242976540909973;-0.11449087587064229;-0.9543158099750766;0.961;0.0004635895386789131
18:56.8;-0.015699631261986213;-0.12387257898815099;-0.9049960411356361;0.9079999999999999;0.0017599945022780657
18:56.8;-0.03483884803922625;-0.13372282943080224;-0.8606636131027157;0.765;0.004009616034267233
18:56.8;-0.051482237626714486;-0.14296045693596998;-0.822449654740218;0.765;0.006053167129706471
18:56.8;-0.06413686763410724;-0.15069832030285907;-0.7909475461507541;0.765;0.007644759730414965
18:56.8;-0.07164636751134201;-0.1563220240232564;-0.766167780956886;0.742;0.008581006501206575
18:56.8;-0.07328805409948491;-0.15953487978820555;-0.7475678445977014;0.74;0.008740563912350372
18:56.8;-0.06883013344375341;-0.16036891193883143;-0.734148421838741;0.754;0.00810368710095107
18:56.8;-0.058548893711137626;-0.15916239320844613;-0.7246013501971678;0.78;0.006752402050385426
18:56.9;-0.04320267113432977;-0.1565057086700065;-0.7174909346853773;0.8029999999999999;0.004851289600406906
18:56.9;-0.02395956814402295;-0.15316197239216983;-0.7114423639128652;0.804;0.0026107762825958157
18:56.9;-0.002280147659791303;-0.14997373407175674;-0.7053056285472552;0.797;0.00024118790586395006
18:56.9;0.020236079732213027;-0.14776860177644943;-0.6982679618200784;0.721;0.00208800080557499
18:56.9;0.04202056847257044;-0.1472745835718528;-0.6899037206904632;0.721;0.004269511758592993
18:56.9;0.06169277866565665;-0.14905283065391312;-0.68017048227227;0.721;0.0062544963047806695
18:56.9;0.07817789671526097;-0.15345269168348397;-0.6693701114798086;0.695;0.008030171290254372
18:56.9;0.09077434896044609;-0.16059120598852028;-0.6580893894084894;0.679;0.009593338989086386
18:56.9;0.09917359056744161;-0.17035601473752005;-0.6471284247716662;0.6659999999999999;0.010933116736712921
18:56.9;0.10343778345615305;-0.18242788942271718;-0.6374248691689496;0.659;0.012028166819061856
18:57.0;0.10394148986665648;-0.19631783773253794;-0.6299826586157656;0.657;0.012855154320227321
18:57.0;0.1012874348796474;-0.21141420987558604;-0.6258108641865164;0.66;0.01340086540841793
18:57.0;0.09621057523568019;-0.2270362959481788;-0.6258737004208513;0.6659999999999999;0.013671142389311096
18:57.0;0.08948520339085728;-0.24249116615503677;-0.6310496161243212;0.705;0.013693379944067035
18:57.0;0.08184680508002333;-0.2571288471014807;-0.642095407257636;0.705;0.01351300997432242
18:57.0;0.07393582649044372;-0.27038867054467275;-0.6596102648620186;0.705;0.013186539133177282
18:57.0;0.06626550122246182;-0.2818311189213506;-0.6839969346840189;0.7290000000000001;0.012774108116239356
18:57.0;0.05921139272904101;-0.2911552352437333;-0.7154230546164678;0.757;0.012333683827704181
18:57.0;0.053017667014364035;-0.2982054767154137;-0.7537904497683936;0.7929999999999999;0.011917546612023279
18:57.0;0.047814226247358683;-0.3029702845608634;-0.7987203008388036;0.838;0.011570493692956643
18:57.1;0.04363841183660291;-0.30557131649063846;-0.8495595433889814;0.89;0.011328576577894003
18:57.1;0.040455058677578204;-0.30624121903320944;-0.9054109039608548;0.9440000000000001;0.011217141561196757
18:57.1;0.03817040166283256;-0.30528931649653773;-0.9651860919333797;1.001;0.011247328812099165
18:57.1;0.03663879613627108;-0.30305754064821594;-1.0276775577180455;1.171;0.011410985735371349
18:57.1;0.035665044035039534;-0.2998723346006976;-1.0916349901841311;1.171;0.011674992574731948
18:57.1;0.035007500785781936;-0.296000485865301;-1.1558223460015014;1.171;0.011976905358319342
18:57.1;0.034387024772313306;-0.2916158709696265;-1.2190370690985162;1.234;0.012224262577827208
18:57.1;0.03350505591000853;-0.28678067230741267;-1.2800974702603498;1.297;0.012299947701232543
18:57.1;0.032072318853469714;-0.2814419247729835;-1.3378208905596887;1.3559999999999999;0.012075833780277103
18:57.1;0.029847776749565375;-0.2754430184850147;-1.391009630938759;1.409;0.011435993336078544
18:57.2;0.026684459405712364;-0.2685485654348231;-1.4384488933552657;1.455;0.010308030197742143
18:57.2;0.022574671852522425;-0.26047993219089277;-1.4789154040384098;1.492;0.00869639081588615
18:57.2;0.017682492801521493;-0.25095790563749065;-1.5111957538753042;1.517;0.00670602388467198
18:57.2;0.012348953802220687;-0.2397473752718183;-1.534115523334023;1.535;0.004541947308804915
18:57.2;0.0070609468369688495;-0.2266981712390892;-1.5465821907399935;1.535;0.0024756198894452203
18:57.2;0.0023894470974005566;-0.21177859765780566;-1.547645819198482;1.535;0.0007831610260187205
18:57.2;-0.0010861479054116933;-0.19510033076579225;-1.5365812817229243;1.556;0.0003256135829115777
18:57.2;-0.0028517123451498256;-0.17693128195254545;-1.5129923127718659;1.57;0.0007633910454080262
18:57.2;-0.0025194799708130483;-0.15769072146863186;-1.4769279698648574;1.565;0.0005867814358825987
18:57.2;0.0001319593926619867;-0.13792362223570354;-1.4289888557435515;1.535;2.6008050769840774e-05
18:57.3;0.005143698021673626;-0.11825700212411357;-1.3703922219425895;1.475;0.0008335798618881034
18:57.3;0.012386273968353794;-0.09934549862193798;-1.3029673408741003;1.3880000000000001;0.0016033281064546077
18:57.3;0.021584995239153127;-0.08181472183076682;-1.2290639909051337;1.28;0.0021704906045499025
18:57.3;0.03235142908452204;-0.06620985398496117;-1.1513760675412106;0.975;0.0024662284190995827
18:57.3;0.04421355342035037;-0.05295554287319747;-1.0727116326457893;0.975;0.0025115963028696825
18:57.3;0.05664044122574884;-0.042332183700223645;-0.9957690225568525;0.975;0.0023875688908306576
18:57.3;0.06906202556042941;-0.034471010809848185;-0.9229744105852102;0.905;0.002197267797632132
18:57.3;0.08088888520516876;-0.02936525440293081;-0.8563946692732192;0.846;0.002034213691591553
18:57.3;0.091537831811184;-0.026890566825470776;-0.7977033539012851;0.797;0.001963550142722154
18:57.3;0.10046574538427917;-0.02682775356624826;-0.7481746429435455;0.759;0.0020165328636778117
18:57.4;0.10720970583650478;-0.02888357089012361;-0.70869142484858;0.73;0.002194533255746239
18:57.4;0.11142865224758268;-0.032709374595270346;-0.6797592277328729;0.7040000000000001;0.002477560280872364
18:57.4;0.1129404394600343;-0.03792136328237914;-0.661518567793994;0.684;0.0028331883927918944
18:57.4;0.11174742000477877;-0.04412756375621558;-0.653750514642422;0.657;0.003223736228582513
18:57.4;0.10804432484806466;-0.050963022788336;-0.6558752233531738;0.657;0.0036114230421029642
18:57.4;0.1022050325045516;-0.05812758805805043;-0.6669489280183152;0.657;0.003962298246760113
18:57.4;0.09474779768124673;-0.06541715584768058;-0.6856684420039316;0.6609999999999999;0.004249863132695116
18:57.4;0.08628003709073608;-0.07274264615713194;-0.7103929640500023;0.677;0.004458595464031298
18:57.4;0.07742646903611528;-0.08013558382070597;-0.7391926056044582;0.706;0.004586405749925618
18:57.4;0.06875018957062683;-0.08774022758716496;-0.7699314358435594;0.753;0.004644347515507008
18:57.5;0.060681652320678105;-0.09579199852982154;-0.8003880869038602;0.8079999999999999;0.004652509277966802
18:57.5;0.05347106282671749;-0.10458326252959499;-0.8284089955551287;0.855;0.004632610726739894
18:57.5;0.04717490331771991;-0.11441960179334877;-0.8520809023503866;0.902;0.004599305761058988
18:57.5;0.041679373608064944;-0.1255710559256887;-0.8699030951249088;0.966;0.00455283179695967
18:57.5;0.036754473271806094;-0.1382228746640434;-0.8809363103792109;0.966;0.004475428624106495
18:57.5;0.03212472626322598;-0.1524299798166269;-0.8849045617773608;0.966;0.00433317532853082
18:57.5;0.027539989590486532;-0.16808036229698822;-0.8822315166140355;0.9570000000000001;0.004083789194048217
18:57.5;0.022833139700065862;-0.18487467461279727;-0.8740041634976496;0.9309999999999999;0.0036894069193556984
18:57.5;0.0179565284075913;-0.20232913266900637;-0.861867699970923;0.897;0.0031312763784593035
18:57.5;0.012993151161038533;-0.21980504660836614;-0.8478638088125259;0.86;0.0024214652900567493
18:57.6;0.008142426738001378;-0.2365629911144444;-0.8342312110527215;0.8320000000000001;0.0016068935092713524
18:57.6;0.0036845303886748598;-0.25183506507388653;-0.8231923153237884;0.82;0.0007638351692389593
18:57.6;-7.019210664515856e-05;-0.26490554514095743;-0.8167505531554459;0.8109999999999999;1.5186887066982067e-05
18:57.6;-0.00283930364149537;-0.2751886872720399;-0.8165188555049107;0.835;0.0006379823061269085
18:57.6;-0.004425530506980094;-0.28229251514302056;-0.8235922882222482;0.835;0.0010289090174960447
18:57.6;-0.004763569781740275;-0.286059299818081;-0.8384702867382606;0.835;0.001142552802245374
18:57.6;-0.003947550865941037;-0.2865773126654337;-0.8610302075515962;0.8590000000000001;0.0009740649778164767
18:57.6;-0.002234189720417924;-0.2841629866648629;-0.8905547121534784;0.898;0.0005653900534564947
18:57.6;-2.113365602819148e-05;-0.279315587226783;-0.9258155349962747;0.9420000000000001;5.465051648070442e-06
18:57.6;0.0021974536688315048;-0.2726480991226055;-0.9652111003415449;0.996;0.0005782884377949668
18:57.7;0.0038944062023100467;-0.26480035389289236;-1.0069472732016602;1.071;0.001038404447567464
18:57.7;0.004585785631456267;-0.2563437929404664;-1.049242221593443;1.1520000000000001;0.0012334237694265596
18:57.7;0.003909812833458528;-0.24769044566503778;-1.0905280742751302;1.2109999999999999;0.0010560927780962751
18:57.7;0.0016966186189349556;-0.23902089995256642;-1.129615638630899;1.262;0.00045808999033498623
18:57.7;-0.001981530718923333;-0.23024649401067948;-1.1657890209658894;1.262;0.0005318801667602651
18:57.7;-0.006786776039850991;-0.2210180808011339;-1.1988079748848304;1.262;0.0017982122202567583
18:57.7;-0.012124231362953522;-0.21078660611613917;-1.2288151246763872;1.248;0.0031403913666524642
18:57.7;-0.01718725053844071;-0.1989105497898584;-1.2561662093530783;1.224;0.0042944873943415235
18:57.7;-0.021042939006741104;-0.18479460654326682;-1.2812177303804582;1.208;0.004982170984560947
18:57.7;-0.022757056670395216;-0.1680364961315829;-1.3041153995536807;1.208;0.004986958238717233
18:57.8;-0.0215485835850381;-0.14855704116664714;-1.3246278894407235;1.228;0.004240390611788972
18:57.8;-0.016952822775958803;-0.1266906986611542;-1.3420627364322735;1.268;0.002882435321799624
18:57.8;-0.008961738544946822;-0.10321635086170862;-1.3552858396071108;1.32;0.0012536366232818075
18:57.8;0.001893688523324008;-0.0793140330130393;-1.3628452467778789;1.409;0.00020469400561101025
18:57.8;0.0145450825062117;-0.05644946749218505;-1.3631762724396477;1.409;0.001119252457580277
18:57.8;0.027476893838706194;-0.03621087155452402;-1.3548457672043785;1.409;0.0013480204247939933
18:57.8;0.03889244346001416;-0.02013154757282614;-1.336790099717171;1.416;0.0010466599616718339
18:57.8;0.04693873912437358;-0.009519895287370846;-1.3085136405081166;1.411;0.0005847117820793193
18:57.8;0.04996835910426006;-0.005306401368286407;-1.2702267546891326;1.3840000000000001;0.0003368033792824597
18:57.8;0.04680258079057752;-0.007919902131498454;-1.2229067010303136;1.3259999999999998;0.0004532971006982852
18:57.9;0.036948601037234324;-0.017212426641127307;-1.168269047254906;1.245;0.0007429900064505161
18:57.9;0.020726692601884807;-0.03245064851333802;-1.1086474262671913;1.1520000000000001;0.0007456702904681588
18:57.9;-0.0007219828825059027;-0.05238277192492014;-1.0467924378263456;1.0590000000000002;3.9589129617106324e-05
18:57.9;-0.02555475419065987;-0.07537626311969521;-0.9856125194459388;0.8590000000000001;0.0018985083960529386
18:57.9;-0.051453897995787756;-0.09960490765153786;-0.9278930499219039;0.8590000000000001;0.004755508257944643
18:57.9;-0.0759123890185104;-0.12324917740382973;-0.8760410684784029;0.8590000000000001;0.008196362445543892
18:57.9;-0.09652494521261915;-0.14467549832771723;-0.8318944932257505;0.8170000000000001;0.011617235684917149
18:57.9;-0.11125024894098935;-0.16257819758165645;-0.7966057717454664;0.7929999999999999;0.014408101014608758
18:57.9;-0.11862840049713476;-0.17608265444364252;-0.7705892021960015;0.78;0.016096378305295724
18:57.9;-0.11793682038711018;-0.18480793191601816;-0.753523799772154;0.772;0.016423548445662177
18:58.0;-0.10926264494340922;-0.188882109453693;-0.7444127574037969;0.763;0.015363010980650172
18:58.0;-0.09347463525337502;-0.1889044314130494;-0.7417015252281035;0.7609999999999999;0.013096797035752228
18:58.0;-0.07209124613226361;-0.18585479392920817;-0.7434510261194097;0.78;0.009961131319777685
18:58.0;-0.04705994642749127;-0.18095949622196472;-0.74755384157504;0.8370000000000001;0.006366126799667783
18:58.0;-0.020485122312759136;-0.17553162932451538;-0.7519695147652599;0.8370000000000001;0.0027039221277382736
18:58.0;0.005640789165105458;-0.17081235132071843;-0.7549454031982332;0.8370000000000001;0.0007274023228328539
18:58.0;0.029652849631205114;-0.16783873072638905;-0.755191118179719;0.845;0.0037585081420414153
18:58.0;0.050352042061631505;-0.1673533856336552;-0.7519876164287771;0.836;0.006336687352649894
18:58.0;0.06706662662201769;-0.1697596230635042;-0.7452253843252671;0.8140000000000001;0.008484543962147938
18:58.0;0.0796442589937559;-0.17511951791018354;-0.7353741722497542;0.778;0.010256457895124083
18:58.1;0.08838442841027674;-0.18318906327148127;-0.7233935512285203;0.742;0.011712508860503967
18:58.1;0.0939256221935977;-0.19348174756474312;-0.7106013520717785;0.718;0.012913682708587745
18:58.1;0.09710734423834441;-0.20535020390182915;-0.6985221668868189;0.7120000000000001;0.013929239568563723
18:58.1;0.09882953608402652;-0.21807488250609708;-0.6887370300319942;0.711;0.014843825402869307
18:58.1;0.09992951627318286;-0.23094807566839573;-0.6827489862798035;0.711;0.015756842611234757
18:58.1;0.10109014608987048;-0.24334194565774978;-0.6818717164887861;0.711;0.016773684767631185
18:58.1;0.10278566739925339;-0.2547533763584309;-0.6871431555744183;0.7140000000000001;0.017992840650420856
18:58.1;0.10526580498917112;-0.264826110958546;-0.6992638625942648;0.733;0.01949347222562235
18:58.1;0.10857339518805902;-0.27335622697613554;-0.7185598419970534;0.765;0.02132629107711805
18:58.1;0.11258536979355034;-0.28028718892168086;-0.7449694301032896;0.7929999999999999;0.02350843175489095
18:58.2;0.11706361813118786;-0.28569809063198476;-0.7780525926612833;0.8190000000000001;0.02602185395180809
18:58.2;0.12170310429543978;-0.28978658812597224;-0.8170206458876723;0.847;0.028814624789246505
18:58.2;0.12616913982125563;-0.2928467940856848;-0.8607872763246275;0.879;0.03180456463914209
18:58.2;0.13012193973633157;-0.2952411476297628;-0.9080443653136689;1.035;0.03488465894198479
18:58.2;0.1332320163989543;-0.29736437202066074;-0.9573600089524636;1.035;0.037929124327714996
18:58.2;0.13519248415411947;-0.2995983650244395;-1.0072826859266706;1.035;0.04079842110118946
18:58.2;0.1357337260179225;-0.30225908977595817;-1.0564333395366563;1.1079999999999999;0.04334202913075819
18:58.2;0.13464339796703975;-0.3055392640336995;-1.1035822108563587;1.177;0.04540009721021107
18:58.2;0.1317918303221782;-0.30945392728037374;-1.147716718286;1.234;0.04680790417957868
18:58.2;0.12716084901232336;-0.3137992554694935;-1.1880972961284113;1.286;0.047408622342424926
18:58.3;0.12087311740860644;-0.3181362446845163;-1.2242857940794472;1.318;0.047078832418286004
18:58.3;0.11321738878639075;-0.32180909165121135;-1.2561300584987987;1.339;0.04576632621727842
18:58.3;0.10466090495708982;-0.32400345296544325;-1.2836964098451786;1.348;0.04353078016971072
18:58.3;0.09583605299436534;-0.32384172235674746;-1.3071539462931736;1.2930000000000001;0.04056845402538719
18:58.3;0.08749135518507345;-0.32050203572222613;-1.326629788094978;1.2930000000000001;0.03720023475908203
18:58.3;0.08040930462738449;-0.3133404144486459;-1.3420691343087925;1.2930000000000001;0.03381408252431646
18:58.3;0.07530489352040286;-0.3019962140765656;-1.353139435264422;1.3119999999999998;0.030772816591329327
18:58.3;0.07272078280812008;-0.28646715387539484;-1.3592084960416824;1.3530000000000002;0.028315188620920983
18:58.3;0.0729357332197639;-0.26714526449702486;-1.3594064388917697;1.405;0.02648726740622602
18:58.3;0.07590652423930801;-0.24480783845041437;-1.3527587676056692;1.435;0.02513765619894486
18:58.4;0.08126057287725498;-0.22056151822355285;-1.3383583338041107;1.432;0.0239873366263125
18:58.4;0.08834297141061004;-0.19574474793991503;-1.3155347179080945;1.4080000000000001;0.022749111264164387
18:58.4;0.09630618027236498;-0.17180086012187218;-1.283984385261128;1.3619999999999999;0.021244143880482555
18:58.4;0.10422094295026162;-0.15013763061275753;-1.2438414227676513;1.199;0.019462990545932427
18:58.4;0.11118523151315252;-0.1319908611599512;-1.1956921170002;1.199;0.01754730129222111
18:58.4;0.11641337389428069;-0.11831117840959915;-1.140557122611245;1.199;0.015708897182445034
18:58.4;0.11929674858437075;-0.10968985956156391;-1.0798647076483225;1.1320000000000001;0.014130724698744856
18:58.4;0.11943580568545356;-0.10632905752004754;-1.0154168456567654;1.0590000000000002;0.012895282832494815
18:58.4;0.11664765724900165;-0.1080523293638282;-0.9493332287318319;0.987;0.011965444507435608
18:58.4;0.11095439033386603;-0.1143481127238318;-0.8839623958898115;0.912;0.011215206718328524
18:58.5;0.10255682260173099;-0.12443783004379941;-0.8217613346310425;0.835;0.010487275799595446
18:58.5;0.09179883581141285;-0.13735866824091536;-0.7651520792799662;0.7709999999999999;0.009648082485615151
18:58.5;0.07912910442696057;-0.15205037089894183;-0.7163666167320245;0.713;0.008619043518167429
18:58.5;0.06506809046069428;-0.1674369116654578;-0.6772926423200895;0.669;0.007378967957239311
18:58.5;0.050186518521902874;-0.18249733452978553;-0.6493325469161109;0.639;0.005947175668764016
18:58.5;0.03509674965018053;-0.19632422133479105;-0.6332866327965341;0.624;0.004363561513415102
18:58.5;0.020451676884824965;-0.20817138780119496;-0.6292696224664563;0.617;0.002679086446062186
18:58.5;0.006940075693707841;-0.21749276373118703;-0.6366679426474193;0.621;0.0009609969341109982
18:58.5;-0.004733122075024686;-0.22397162972006587;-0.6541449986718209;0.634;0.0006934493433103877
18:58.5;-0.013887447362134639;-0.22753533804483445;-0.6797025301572054;0.657;0.0021477818499805817
18:58.6;-0.01992626544954022;-0.22834888023214991;-0.7108061001429248;0.6970000000000001;0.003234267554682744
18:58.6;-0.022407245636960726;-0.22678381383308827;-0.7445786030426549;0.78;0.0037836510931273672
18:58.6;-0.021113353509104708;-0.22336587339129396;-0.7780546141631388;0.865;0.003669307619732999
18:58.6;-0.016110254437494587;-0.21871025234852154;-0.8084714210252356;0.937;0.0028486311147692496
18:58.6;-0.007772906251813139;-0.21345442700855544;-0.8335567905640145;0.981;0.0013830051267215437
18:58.6;0.003233187704913875;-0.2081956418119671;-0.8517676966280713;0.9990000000000001;0.0005733551504361205
18:58.6;0.01602129713610861;-0.20343706390334154;-0.8624412123804427;0.993;0.002810976764518886
18:58.6;0.029596542804869383;-0.19954485889543513;-0.8658346333242412;0.9620000000000001;0.0051134790426558075
18:58.6;0.042993430188094914;-0.19671835174019855;-0.8630509973777231;0.92;0.007299337286564472
18:58.6;0.055408560369457266;-0.1949762826740408;-0.8558645816700159;0.87;0.009246209018248536
18:58.7;0.06629781472380283;-0.1941620992602361;-0.8464758180997688;0.83;0.010896279338513712
18:58.7;0.07541674922998669;-0.19396904332467046;-0.8372337212681926;0.794;0.012247485797900347
18:58.7;0.08279819857589805;-0.19398180122444403;-0.8303655529341065;0.759;0.013336786540564737
18:58.7;0.08867768128437396;-0.1937280345737415;-0.8277498836610996;0.736;0.014220207369131068
18:58.7;0.09339313156230496;-0.19273474496620474;-0.830761604301748;0.805;0.014953793111055528
18:58.7;0.09729142274551428;-0.1905893751442148;-0.840203217365465;0.89;0.015579645834058835
18:58.7;0.10066082149884709;-0.18700229656407433;-0.8563149218648586;0.899;0.01611910493163956
18:58.7;0.10368737782083598;-0.181855755407252;-0.878836471572628;0.894;0.016571469187038505
18:58.7;0.10642569701418075;-0.17522305468458926;-0.907091120997084;0.917;0.01691564905091289
18:58.7;0.1087816502282713;-0.16735606236267958;-0.9400758674240863;0.958;0.01711433370798318
18:58.8;0.1105100089821652;-0.1586497909968983;-0.976556457406166;1.0;0.01712136850037943
18:58.8;0.11122740946988856;-0.14958881906278548;-1.015169309276954;1.034;0.016890769514014498
18:58.8;0.11043878647222433;-0.1406743673276353;-1.0545292309017615;1.069;0.016383067443606122
18:58.8;0.1075778535617594;-0.13233620075463803;-1.093337653681826;1.1909999999999998;0.015565240745168785
18:58.8;0.10206362872655017;-0.12484598054058448;-1.1304800171414395;1.1909999999999998;0.014404840691309904
18:58.8;0.09337137980727343;-0.11825495751675322;-1.165093863616247;1.1909999999999998;0.01286453367071924
18:58.8;0.08111116790228451;-0.11237333479909788;-1.196591841802986;1.226;0.010906614461921704
18:58.8;0.065103867238161;-0.1067973590964398;-1.2246387981117217;1.2570000000000001;0.008514816924574972
18:58.8;0.04544185705264624;-0.10098084747465007;-1.2490936876771945;1.28;0.0057317876977683035
18:58.8;0.02251942754822125;-0.09434085772888744;-1.2699259834268202;1.266;0.0026979604319217368
18:58.9;-0.0029790135454013716;-0.08638115067798202;-1.2871133750009809;1.238;0.00033121368014406413
18:58.9;-0.0301343164360647;-0.07681448881046778;-1.3005333458833441;1.228;0.0030104123100062083
18:58.9;-0.05788043077250097;-0.06566572256195426;-1.3098719751061252;1.2329999999999999;0.00497850941268903
18:58.9;-0.08510579852700959;-0.053338110242048604;-1.3145777793751077;1.291;0.005967371319353042
18:58.9;-0.11074692330301582;-0.040627144014606334;-1.3138793538493445;1.291;0.0059115783727088575
18:58.9;-0.13385507013252287;-0.02867362568624745;-1.306867591623073;1.291;0.0050159018036435455
18:58.9;-0.153627021387814;-0.018856223626082316;-1.292629381295755;1.31;0.003744521715392509
18:58.9;-0.16940779559063746;-0.012629019739794365;-1.2704153429357183;1.3119999999999998;0.00271799568839738
18:58.9;-0.18069007264938944;-0.011318210041531688;-1.2398222551619638;1.294;0.002535545857515177
18:58.9;-0.18714240275406555;-0.015906248649366805;-1.2009657198564383;1.399;0.0035749549999915366
18:59.0;-0.1886834211616416;-0.026841820145121664;-1.1546104501898666;1.355;0.005847647539257998
18:59.0;-0.18557742710488742;-0.043914632375688455;-1.1022178344732427;1.285;0.008982595322455572
18:59.0;-0.17848550072097508;-0.06622621831109737;-1.0458753427035612;1.1340000000000001;0.012362685542406937
18:59.0;-0.16841092153316325;-0.09226901978179747;-0.9881004755961481;0.841;0.015354202624015422
18:59.0;-0.1565356726978981;-0.12009636414689243;-0.9315559865149813;0.841;0.017512661148448235
18:59.0;-0.14400837140497783;-0.14754278850289262;-0.8787481963866539;0.841;0.01867111151472428
18:59.0;-0.13175975383550256;-0.17245698113643293;-0.8317769712287117;0.807;0.01890037610751733
18:59.0;-0.12038956765646577;-0.19292905651057785;-0.7921667479001621;0.735;0.018399376390127793
18:59.0;-0.11013129032353305;-0.20750105074918895;-0.7607771094327366;0.7170000000000001;0.017385551214819276
18:59.0;-0.10088558740087623;-0.21533805302079434;-0.7377932878914133;0.7809999999999999;0.016028194686510927
18:59.1;-0.09231029093900905;-0.21632812043739008;-0.7228031949097831;0.8340000000000001;0.014433882322832265
18:59.1;-0.08394673528932758;-0.2110873716150149;-0.7149492960797232;0.851;0.012668969952818118
18:59.1;-0.07534939951544083;-0.20086786341117138;-0.7131140490959246;0.838;0.010793175734746379
18:59.1;-0.06618248022514578;-0.18738708132018023;-0.7160875320741052;0.7490000000000001;0.008880732681789773
18:59.1;-0.0562637172276345;-0.17261128944636836;-0.7226844219982764;0.7490000000000001;0.007018532444193315
18:59.1;-0.04556267340277604;-0.15852898223288428;-0.7318076060178795;0.7490000000000001;0.005285849442852159
18:59.1;-0.03417512053047394;-0.14694373572196406;-0.7424754301975163;0.74;0.0037285778754034033
18:59.1;-0.022290302993092186;-0.13930210754101227;-0.7538318903277389;0.746;0.0023407129882169215
18:59.1;-0.010159104147103753;-0.136564514135704;-0.7651529919757862;0.76;0.001061552695211051
18:59.1;0.0019306190567900986;-0.13912843755441576;-0.7758569003068606;0.78;0.00020839827684615363
18:59.2;0.013665216797677373;-0.14681346697523734;-0.785521008271797;0.787;0.0015759419827203493
18:59.2;0.024700633125684456;-0.1589111064021005;-0.7939051784752404;0.813;0.003116240527517609
18:59.2;0.034648023295561894;-0.17429297130041366;-0.8009774496232276;0.8809999999999999;0.0048370282711988535
18:59.2;0.04306491962145121;-0.1915620319230941;-0.8069341610035343;0.87;0.006656886884766804
18:59.2;0.049468718796219134;-0.20922306436997334;-0.8122018705576064;0.87;0.008406286872498088
18:59.2;0.05337827726536255;-0.22584358495551574;-0.8174110907129281;0.87;0.009854006359237475
18:59.2;0.054376668903544395;-0.24018195743865883;-0.8233417534007769;0.8859999999999999;0.01075308600100633
18:59.2;0.05218423610771334;-0.2512743550325869;-0.8308469041909662;0.8759999999999999;0.010894530107039805
18:59.2;0.04673052196832838;-0.2584851893102397;-0.8407614280611994;0.858;0.010155681568845387
18:59.2;0.03821009179383345;-0.2615289938599753;-0.8538046694723928;0.85;0.008532110073150346
18:59.3;0.027105431078913295;-0.26046874593630487;-0.8704929420492078;0.852;0.006145782576690811
18:59.3;0.014164868235365944;-0.25569036990678096;-0.8910839183912903;0.88;0.0032273459126557513
18:59.3;0.0003332107551474989;-0.247848268571906;-0.9155727731955476;0.9279999999999999;7.561322637085058e-05
18:59.3;-0.013355537741581134;-0.23777733612189356;-0.943746526387235;1.072;0.0029970031702102815
18:59.3;-0.025902969906967745;-0.2263774127027085;-0.9752787199387457;1.072;0.005718885497296828
18:59.3;-0.0364621989537675;-0.21449098375723438;-1.0098229449817255;1.072;0.00789763633860595
18:59.3;-0.04442288571807726;-0.20279955888510962;-1.0470627155893715;1.097;0.009432926885630915
18:59.3;-0.049456092518192045;-0.1917540051128496;-1.08670029315591;1.115;0.01030561770869632
18:59.3;-0.05152076396940837;-0.18154189941680632;-1.128393578073349;1.126;0.010554065256785273
18:59.3;-0.050837561614633375;-0.1720899745420938;-1.1716611378479462;1.137;0.010250435268523449
18:59.4;-0.04783664855188867;-0.16309780810270624;-1.2157783762397842;1.15;0.00948556675114556
18:59.4;-0.043088360781247816;-0.15409704523733123;-1.2596912068877208;1.166;0.008364083920308048
18:59.4;-0.037229490511104656;-0.14453155100121848;-1.301975446492067;1.213;0.0070057163621351694
18:59.4;-0.030899853787098457;-0.13385569802688263;-1.3408652190603174;1.374;0.005545981457940419
18:59.4;-0.024698912848174527;-0.12164265057825928;-1.3743570393926268;1.374;0.004129174947368381
18:59.4;-0.019160215066403277;-0.10768294232400684;-1.4003734844298004;1.374;0.0028892902511333377
18:59.4;-0.014731483040774877;-0.09204767037542116;-1.416961127076352;1.432;0.0019213974392922853
18:59.4;-0.011748839872741787;-0.07509707889297997;-1.4225062852512955;1.4980000000000002;0.0012550823522370976
18:59.4;-0.010402165554291744;-0.05743066609308588;-1.4159553710430066;1.55;0.0008458964064904053
18:59.4;-0.010697208821620367;-0.03979269142548468;-1.3970109003630575;1.5630000000000002;0.0005946666494300357
18:59.5;-0.012425643377829705;-0.022959916637772918;-1.3662571406568769;1.527;0.00038978187165208744
18:59.5;-0.015157382440288754;-0.00764196515491359;-1.3251702630011493;1.444;0.0001534973716301461
18:59.5;-0.018269229742583173;0.00557979073237088;-1.275987878081043;1.33;0.0001300722632654821
18:59.5;-0.021016833817918322;0.016260638231905385;-1.2214457552976803;1.012;0.0004174255831475819
18:59.5;-0.022641638487785377;0.02405445637863721;-1.1644320311676133;1.012;0.0006341873015527353
18:59.5;-0.022488214089668175;0.028656836172755447;-1.1076458502976945;1.012;0.0007138124736078762
18:59.5;-0.02010263592738366;0.029764186046560847;-1.0533444671665615;0.968;0.0006302566493454075
18:59.5;-0.015292472318789404;0.027072181765200494;-1.003215269607988;0.956;0.00041533171376909516
18:59.5;-0.008142400984216834;0.02031761724445086;-0.9583603079770965;0.965;0.0001585455580660688
18:59.5;0.001012252882182124;0.009350660403902013;-0.9193603289412378;0.9670000000000001;8.70195967304477e-06
18:59.6;0.011646417894632884;-0.005786750446140999;-0.88638051185442;0.945;5.973753832135699e-05
18:59.6;0.023127170919762605;-0.024803862309876697;-0.8592794904632947;0.897;0.0004929198049055803
18:59.6;0.03479923880596704;-0.047147582312265575;-0.8376919695661834;0.85;0.001374401194369765
18:59.6;0.04605810369803712;-0.07204258554449619;-0.8210743676195522;0.792;0.002724443705471572
18:59.6;0.056400674849935856;-0.09857665804826085;-0.808723960300798;0.792;0.004496335418274158
18:59.6;0.06545069491917073;-0.12580351946877147;-0.7997946920831486;0.792;0.006585451727448333
18:59.6;0.07296220730521234;-0.15283170622760614;-0.7933310452710627;0.795;0.008846385801144442
18:59.6;0.07880847106047738;-0.17888502058865724;-0.7883290021289195;0.81;0.011113590273450023
18:59.6;0.08296526259388075;-0.2033378679235526;-0.7838209806165642;0.841;0.013223043958977068
18:59.6;0.08549682758089587;-0.22573242770841256;-0.7789742324324426;0.862;0.015033740326727734
18:59.7;0.0865497372468118;-0.24578074589980442;-0.7731867529243563;0.8740000000000001;0.016447428846529846
18:59.7;0.08635381305228446;-0.2633528858120738;-0.7661613908736798;0.875;0.017423679089766383
18:59.7;0.08522164355959223;-0.2784527680348923;-0.7579409636712388;0.852;0.01798609258556471
18:59.7;0.08353478128109423;-0.29118439199875235;-0.7488954390087008;0.802;0.018216151004951147
18:59.7;0.08171013604429722;-0.3017124236619814;-0.7396642342449863;0.802;0.018234915135122914
18:59.7;0.08015070804091672;-0.31022273629263725;-0.7310672090634314;0.782;0.018177673230457776
18:59.7;0.07919233396030864;-0.31688996486309345;-0.7240007804459084;0.7709999999999999;0.018168984875992413
18:59.7;0.07905995818767483;-0.32185932515130167;-0.7193313519186186;0.763;0.018304238505280616
18:59.7;0.07984550234755532;-0.3252475096144503;-0.7177943534249966;0.7509999999999999;0.018640796919809362
18:59.7;0.08151444014495819;-0.32716246560607504;-0.7199076867910942;0.75;0.01919883310703173
18:59.8;0.08393899400620704;-0.32773635512976046;-0.7259109179958275;0.767;0.019969707689408603
18:59.8;0.08694666652506486;-0.3271621678121604;-0.7357418312433953;0.7979999999999999;0.020928661908976263
18:59.8;0.0903689559320466;-0.3257227841536451;-0.7490568878277558;0.83;0.02204866022368224
18:59.8;0.09407774452198205;-0.3238014755649955;-0.7652928029594104;0.848;0.023312741571753344
18:59.8;0.09800356391466365;-0.32186615254366113;-0.783757912698459;0.861;0.02472288315226398
18:59.8;0.10213733308707976;-0.3204277570290695;-0.8037383374641974;0.882;0.026304456189848738
18:59.8;0.10652205814135143;-0.3199830915895779;-0.8246049581339516;0.9129999999999999;0.028106872322685147
18:59.8;0.1112412774738819;-0.32095686113239374;-0.8459098667245571;0.943;0.03020207086740097
18:59.8;0.11640718050768672;-0.3236533476119573;-0.8674629730780176;0.971;0.0326821651372526
18:59.8;0.12214641863694936;-0.3282198228056676;-0.889380777813925;1.004;0.03565605437461118
18:59.9;0.12857898684643215;-0.33461925997109954;-0.9120999389264389;1.037;0.03924310482171717
18:59.9;0.13578691523314834;-0.3426115442803177;-0.9363475360496202;1.054;0.04356091430828677
18:59.9;0.14377518093289868;-0.3517459801893157;-0.9630594026564192;1.077;0.04870416942365834
18:59.9;0.15243548286823913;-0.36136956246971;-0.9932402265839925;1.104;0.05471317795471405
18:59.9;0.16152951990100323;-0.37065637782329947;-1.0277657991381153;0.9940000000000001;0.06153433920573416
18:59.9;0.17070542521919058;-0.378664082418634;-1.0671454788655887;0.9209999999999999;0.06898029784500218
18:59.9;0.17954503664907348;-0.38441841742009264;-1.111295272050744;1.18;0.07670206513659862
18:59.9;0.18761924995200313;-0.38701485631262417;-1.1593888960523335;1.248;0.0841848938556878
18:59.9;0.1945244580723876;-0.38571870794690905;-1.209820237000245;1.173;0.09077489645688532
18:59.9;0.19989223960047497;-0.3800494685522762;-1.260260965183497;1.199;0.0957406889273527
19:00.0;0.20338584892403597;-0.36984302796595553;-1.307795715652236;1.308;0.09837348994075903
19:00.0;0.20469961342125406;-0.3552861532130798;-1.3491461128837714;1.416;0.0981192659969206
19:00.0;0.20356650034547705;-0.3369149727320409;-1.3809919424640624;1.501;0.09471478261903206
19:00.0;0.19977139088019807;-0.31557057420082624;-1.4003610182856203;1.5930000000000002;0.08828152084539106
19:00.0;0.19316787373255306;-0.29231197740780784;-1.4050283527773528;1.5930000000000002;0.07933532376270729
19:00.0;0.1836985796808403;-0.26829604194848744;-1.3938578579489798;1.614;0.06869712340832874
19:00.0;0.17141751521092138;-0.24464019635466588;-1.3670301555737665;1.5959999999999999;0.057327249723144784
19:00.0;0.15650845782158654;-0.22228725325069645;-1.3261169344904842;1.52;0.046135389606406174
19:00.0;0.1392916741827169;-0.2018945692141947;-1.2739792592286978;1.385;0.03582714099731242
19:00.0;0.12021496583712452;-0.18376889172034705;-1.2144892655606092;1.2229999999999999;0.026830218785409313
19:00.1;0.09983169590668584;-0.16786075647960333;-1.1521060823444356;1.084;0.019306790952116865
19:00.1;0.07877320623464344;-0.15382242161667878;-1.0913674827151072;0.968;0.013224192927021986
19:00.1;0.057722197157939206;-0.14112236550245733;-1.0363741691019843;0.882;0.008442193094575508
19:00.1;0.03738723496684493;-0.1291955822592781;-0.99034043174216;0.812;0.004783607310430018
19:00.1;0.018473583584730887;-0.11759721561602439;-0.9552698297118357;0.812;0.002075268291770291
19:00.1;0.0016485828701147212;-0.10612533659491735;-0.931793257975197;0.813;0.00016302320513697475
19:00.1;-0.012494195720999033;-0.09488773008749758;-0.919181604385923;0.8340000000000001;0.0010897319559944562
19:00.1;-0.02346694666320665;-0.08430253674573013;-0.9155209029701425;0.872;0.0018111961814434188
19:00.1;-0.030914260736927907;-0.07503788045647058;-0.9180202041665176;0.938;0.0021295687406737746
19:00.1;-0.034636867383473775;-0.06790511755459894;-0.9234109703366703;1.008;0.00217188157961807
19:00.2;-0.03461718518660724;-0.06372192567737879;-0.9283872361798694;1.087;0.0020479049892098197
19:00.2;-0.031048549107343497;-0.06316230306169528;-0.9300266460946323;1.1540000000000001;0.0018238732731592642
19:00.2;-0.024361796039813435;-0.06661799373521761;-0.9261268294519284;1.1540000000000001;0.0015030426975646658
19:00.2;-0.015235906147161683;-0.07410313176940743;-0.9153988028332645;0.9;0.0010335112098863865
19:00.2;-0.004580266881372306;-0.085226097389178;-0.8974936333340866;0.9;0.0003503440632112859
19:00.2;0.006516958812903968;-0.09922991896397762;-0.872893096768762;0.9;0.0005644801465518507
19:00.2;0.016874344733613714;-0.11508539878075573;-0.8427269607113455;0.8270000000000001;0.0016365679142999298
19:00.2;0.02533330666934311;-0.13162071295358166;-0.808566698359175;0.7659999999999999;0.0026960750034583053
19:00.2;0.03089376453185476;-0.14767394706247317;-0.7722217804647432;0.737;0.0035230334100412562
19:00.2;0.032846832481991176;-0.16224937657652516;-0.73555956255868;0.736;0.003920075018588453
19:00.3;0.030877368127326593;-0.174650866215352;-0.7003692334735355;0.725;0.0037769225500922233
19:00.3;0.02511548081215148;-0.18456462340795235;-0.6682790116557068;0.706;0.0030977600830054655
19:00.3;0.016126414051353694;-0.1920703795484125;-0.6407213088152406;0.682;0.0019845743258524104
19:00.3;0.004837714082723814;-0.19757529650246203;-0.6189325617814443;0.653;0.0005915836613523342
19:00.3;-0.007585146662751435;-0.20168636127117268;-0.6039723089698831;0.653;0.0009239692982824414
19:00.3;-0.019888458517302907;-0.20505587852107465;-0.5967457864314533;0.653;0.002433675718916524
19:00.3;-0.030873787391346132;-0.2082389521881436;-0.598014819896553;0.6559999999999999;0.0038447121105686043
19:00.3;-0.039514719835207386;-0.21159015144917;-0.6083844962194171;0.662;0.005086657481343552
19:00.3;-0.045040088333942595;-0.21521102803271608;-0.628258714167434;0.6559999999999999;0.006089789440215428
19:00.3;-0.04698354725933872;-0.21894959159189362;-0.6577662204845788;0.647;0.006766459845918577
19:00.4;-0.04520285563582792;-0.22244567083656278;-0.6966703627045829;0.6509999999999999;0.007005145581120753
19:00.4;-0.039872978599036275;-0.22521049406814456;-0.744288685875194;0.6829999999999999;0.006683573373667272
19:00.4;-0.03145101011524823;-0.22672601199787762;-0.7994566952019254;0.745;0.0057007355001270285
19:00.4;-0.020606002744432642;-0.2265489733845553;-0.8605643053884635;1.006;0.004017345469107257
19:00.4;-0.008117682393307228;-0.22440424073092935;-0.9256661782416984;1.006;0.001686232715917939
19:00.4;0.005230016643005207;-0.22025105194241285;-0.9926313099975695;1.006;0.00114342855046827
19:00.4;0.018726575663713538;-0.21430799272732298;-1.0592885396441176;1.097;0.004251194859898062
19:00.4;0.03176652356227474;-0.20702973500727712;-1.1235513864289584;1.172;0.007389164850924566
19:00.4;0.04384338879380181;-0.19903886292780054;-1.1835284529637256;1.246;0.010328106317615162
19:00.5;0.0545293610815428;-0.1910247785817545;-1.2376200291126156;1.325;0.012891618447768328
19:00.5;0.06346260593088571;-0.18362735020796145;-1.2845871182430166;1.325;0.014969897655992648
19:00.5;0.0703503340189068;-0.17732644520669638;-1.3235771874812743;1.3519999999999999;0.016511591862042548
19:00.5;0.07498184088021677;-0.17235828836527498;-1.3541018065812356;1.382;0.017500062054973585
19:00.5;0.07724158459046478;-0.16867500934568141;-1.375973969190288;1.396;0.017927186455415182
19:00.5;0.07711617409452397;-0.16595618183534655;-1.389218359699772;1.329;0.017779085717623124
19:00.5;0.07469558318486776;-0.1636691636012189;-1.3939711653904912;1.329;0.01704180437906795
19:00.5;0.07017414685537536;-0.16116072427902403;-1.3903950835632926;1.3;0.01572441782769129
19:00.5;0.06385608074368952;-0.15775744209632808;-1.3786419197562187;1.324;0.013888124314701242
19:00.5;0.056163115871502176;-0.15286134820669706;-1.3588866229764858;1.392;0.011666272141196669
19:00.5;0.04763640794682346;-0.14603652921901844;-1.3314319658802356;1.442;0.009262313749326198
19:00.6;0.03892654733792778;-0.1370793397933933;-1.2968516412807471;1.456;0.006920033310251019
19:00.6;0.030768536219177554;-0.12605701623238355;-1.2561155899367211;1.426;0.0048719572022097955
19:00.6;0.02393619533050491;-0.1133017446751427;-1.210637538990624;1.355;0.003283264370949874
19:00.6;0.01916778042414752;-0.09936139780279217;-1.1622054428185014;1.026;0.0022134637970898266
19:00.6;0.017064073487062206;-0.08492360926595313;-1.1128004449228937;1.026;0.0016126066516666767
19:00.6;0.017981301330567225;-0.07073626626940183;-1.0643618240651311;1.026;0.0013537938613180141
19:00.6;0.021953759515737373;-0.05754145174367175;-1.0185724302483212;0.9440000000000001;0.0012867128384493223
19:00.6;0.028671266125976397;-0.04602695772311648;-0.9767082375833446;0.897;0.0012889141527002317
19:00.6;0.03751564579265574;-0.03679060321111625;-0.9395601582151025;0.868;0.001296802764399589
19:00.7;0.04764413246543193;-0.03031271720133025;-0.9074268510429514;0.89;0.0013105268322930604
19:00.7;0.05809906208586754;-0.02693652539330329;-0.8801755979576918;0.89;0.0013774632463553482
19:00.7;0.06792143701828438;-0.02685844063519162;-0.8573569070950343;0.909;0.001564045241322129
19:00.7;0.07625061234202223;-0.030128916546828872;-0.8383450507981699;0.92;0.0019259706073589862
19:00.7;0.0823996736403334;-0.03666186516695194;-0.8224718452262946;0.852;0.0024846263551700967
19:00.7;0.08590186865769811;-0.04624915832248849;-0.8091276742279907;0.852;0.003214574536663488
19:00.7;0.0865280557672218;-0.058577645104372675;-0.7978187603973071;0.852;0.004043831941542442
19:00.7;0.08427916864602941;-0.0732492746404755;-0.7881823020538891;0.8079999999999999;0.004865755142158179
19:00.7;0.07936018616090267;-0.08980752559151764;-0.7799651821796052;0.77;0.00555892256913411
19:00.7;0.07214362390972728;-0.10777115638875787;-0.7729755089504596;0.745;0.006009885953987589
19:00.7;0.06313074799131334;-0.12666983743857044;-0.7670245823205203;0.74;0.006133712714985076
19:00.8;0.05291517745781702;-0.1460724785185356;-0.761881895834016;0.735;0.005888928874975406
19:00.8;0.04214737202047876;-0.1656027014575198;-0.7572611079678483;0.758;0.005285469490263273
19:00.8;0.03149509929551297;-0.18494226334494343;-0.7528441012001946;0.7809999999999999;0.004385147460409857
19:00.8;0.02159819167884348;-0.20382490468539863;-0.7483383046897095;0.8140000000000001;0.003294371823121163
19:00.8;0.013022871340138947;-0.22202131054364566;-0.7435517260745201;0.8140000000000001;0.0021498719726735635
19:00.8;0.00622442715609932;-0.2393175648055509;-0.7384636257235873;0.8140000000000001;0.0011000263087047495
19:00.8;0.0015239950062025823;-0.2554950731920064;-0.7332699048578365;0.805;0.0002855156607967845
19:00.8;-0.0009002625002425943;-0.27032291172233014;-0.7283903923040503;0.7959999999999999;0.00017726223700472409
19:00.8;-0.0010100520363837875;-0.28356985249991995;-0.7244356122367767;0.78;0.0002074930704401858
19:00.9;0.001105549106606454;-0.2950348894814143;-0.7221400160803586;0.764;0.00023554442304859184
19:00.9;0.0052486212709293946;-0.30458616489174684;-0.7222767105799773;0.764;0.0011546730254654845
19:00.9;0.011131386424876773;-0.3121930564989508;-0.7255736379630513;0.768;0.002521471097634237
19:00.9;0.018390945553495745;-0.31793885693859963;-0.7326491128432804;0.7809999999999999;0.00428394311389781
19:00.9;0.02660130893473461;-0.3220113134782719;-0.7439749865946221;0.838;0.006372832025264309
19:00.9;0.03528938465147641;-0.3246783645464241;-0.7598625492197424;0.838;0.008706276898050227
19:00.9;0.043958940696487765;-0.32626049369676535;-0.7804563502180224;0.838;0.011193356246144244
19:00.9;0.05212082062646198;-0.3271088281515324;-0.805722121028137;0.852;0.013736901920514666
19:00.9;0.059325806850004575;-0.3275921046493295;-0.8354272298410373;0.878;0.01623624911745471
19:00.9;0.06519554981869438;-0.3280879238270076;-0.8691249264112774;0.9059999999999999;0.018590471434451514
19:00.9;0.06944365682420048;-0.3289673672050979;-0.906157952538839;0.938;0.020700903818706696
19:01.0;0.07187851382371913;-0.33056279252269827;-0.945693195805146;0.988;0.02247001291153452
19:01.0;0.07238651345922907;-0.33311871519608427;-0.9867900626671389;1.057;0.02379476714798448
19:01.0;0.07090677887292955;-0.3367384467915291;-1.0284932560861713;1.117;0.024557373159632835
19:01.0;0.06741776468096519;-0.34134447438830195;-1.0699291231789252;1.219;0.024621938085214828
19:01.0;0.0619511020054797;-0.3466644847331921;-1.1103780493975326;1.219;0.02384675309166012
19:01.0;0.054627911070121736;-0.35224340849919117;-1.149297687443135;1.219;0.022115155709630862
19:01.0;0.045695190891095645;-0.35747529417432644;-1.1862859962374936;1.239;0.019377865262546038
19:01.0;0.03554033330259905;-0.3616508442950918;-1.2209935184349543;1.252;0.015693663568153344
19:01.0;0.02467491063044803;-0.3640204804068996;-1.2530080156935233;1.254;0.011254734543925848
19:01.1;0.013692152555544134;-0.36387157203962217;-1.2817381736974054;1.2309999999999999;0.00638585679904294
19:01.1;0.0032103171419938506;-0.36061212883173227;-1.3063258831877291;1.2309999999999999;0.0015123064324522836
19:01.1;-0.006185866240705217;-0.35384797080949226;-1.325621597961851;1.278;0.002901595076051796
19:01.1;-0.013999934648700632;-0.34344118944310104;-1.3382538254772505;1.3530000000000002;0.006434530762173831
19:01.1;-0.019873716871310614;-0.32954289312368373;-1.3428019735407097;1.475;0.00879433529078588
19:01.1;-0.0236281176165751;-0.3125980722340404;-1.3380461293761148;1.475;0.009882947891732455
19:01.1;-0.025281706251273364;-0.2933228407767949;-1.3232371339048756;1.475;0.009812732124486728
19:01.1;-0.02503201121065975;-0.27265357458320943;-1.2983246230131626;1.474;0.00886115297552369
19:01.1;-0.02319413611707537;-0.2516660248175766;-1.2640968039232534;1.4480000000000002;0.007378755570617917
19:01.1;-0.02010842015308752;-0.23146758552748586;-1.2222027537633555;1.382;0.005688678504823432
19:01.2;-0.016044011644985878;-0.21307825707070457;-1.1750398232604995;1.157;0.004017026435333967
19:01.2;-0.011128989154665645;-0.1973247825340958;-1.1255102535476373;1.157;0.0024716490650978726
19:01.2;-0.005327766956627831;-0.18476950535782397;-1.0766825716917747;1.04;0.0010598958686205062
19:01.2;0.0015285516731314047;-0.17568346596420983;-1.0314108357854708;0.943;0.0002769763611299666
19:01.2;0.009665707354529556;-0.17006052403507887;-0.9919623379460251;0.794;0.0016305433086187203
19:01.2;0.019262117962906406;-0.1676618292029852;-0.959703737815431;0.794;0.003099384269482501
19:01.2;0.03034646016367897;-0.168078417290824;-0.9349006526347203;0.794;0.00476854024035473
19:01.2;0.04272876305787345;-0.1708019617212564;-0.9166763973613794;0.7190000000000001;0.00669004785565695
19:01.2;0.05598501083181989;-0.17529677675747551;-0.9031509133735938;0.841;0.008863515789464918
19:01.2;0.06949498753520343;-0.18106628643055828;-0.8917553738436332;1.0090000000000001;0.01122113561245111
19:01.2;0.0825162447679754;-0.18770439880181494;-0.8796847865876617;1.111;0.013625140427651481
19:01.3;0.09427329930160257;-0.19492299964703222;-0.864404366225863;1.1340000000000001;0.015884324271158844
19:01.3;0.10404772774825384;-0.20255425665459637;-0.8440956842941352;1.097;0.01778957834332183
19:01.3;0.11125916896124642;-0.21053370197050883;-0.8179450718176556;1.028;0.01915938563359432
19:01.3;0.1155257249520554;-0.21887106642170023;-0.7862286080340155;0.81;0.019879977963535956
19:01.3;0.1166937585753352;-0.22761426365744142;-0.7502071958871368;0.81;0.019926376312582306
19:01.3;0.11483553395247116;-0.2368127711767196;-0.711889555301202;0.715;0.01935949547900465
19:01.3;0.11022111926159607;-0.2464880243975589;-0.673733901723083;0.662;0.018304127911835427
19:01.3;0.10327272742244478;-0.25661599513080696;-0.6383444220419415;0.629;0.01691704238960583
19:01.3;0.094508416820049;-0.26712125234943684;-0.608199567258972;0.6;0.015354123765083738
19:01.3;0.08448227594677821;-0.2778775482041342;-0.5854363904722405;0.588;0.013743545292375717
19:01.4;0.07372941850777545;-0.28871077078707175;-0.5717037558188605;0.596;0.012169558990298316
19:01.4;0.06272358777116235;-0.29940385812388687;-0.5680858793442951;0.616;0.010668473397828029
19:01.4;0.05185209823548831;-0.30970575884325474;-0.5750882673331171;0.643;0.009235281198887238
19:01.4;0.041409302634156896;-0.3193458447435155;-0.5926710390383649;0.705;0.007837415873704059
19:01.4;0.03160751300721502;-0.3280522989173522;-0.6203102974168329;0.705;0.006431946177402858
19:01.4;0.022602147288076;-0.33557106251131363;-0.6570683670509881;0.732;0.004983618201938597
19:01.4;0.014524678785790111;-0.34168355856099153;-0.7016607120817359;0.77;0.0034822326090206417
19:01.4;0.007514540955275181;-0.3462246015332094;-0.7525184086972996;0.823;0.0019578414025852833
19:01.4;0.001741926154586952;-0.3491016279946446;-0.8078521805986797;0.875;0.0004912623888352866
19:01.4;-0.0025827837946616394;-0.3503115938904667;-0.8657246809145863;0.9159999999999999;0.0007832896043830908
19:01.5;-0.005213213609913584;-0.34994750927787355;-0.9241366385312508;0.968;0.001685949709802706
19:01.5;-0.005883418432096872;-0.34818782335936344;-0.9811320531166049;1.035;0.002009883014672303
19:01.5;-0.004335559245260891;-0.34526816688546436;-1.0349249352515648;1.104;0.0015492107970723732
19:01.5;-0.0003578970827878864;-0.34144088125089794;-1.084041592823309;1.263;0.0001324706364250658
19:01.5;0.00616990960407868;-0.3369300096859475;-1.1274571471481618;1.263;0.0023437891510577264
19:01.5;0.015230640243353868;-0.331889307697726;-1.1646906907762373;1.263;0.0058873794197114825
19:01.5;0.026631427698953814;-0.32636949738409876;-1.1958269840585176;1.2919999999999998;0.010393752264403576
19:01.5;0.0399831390138504;-0.3202992377618061;-1.221455293998582;1.298;0.015642651441276526
19:01.5;0.054704978467180504;-0.31348518796399266;-1.242535988262995;1.287;0.0213084987381939
19:01.6;0.07005747064707593;-0.30563929815198776;-1.260211624310147;1.256;0.026984049726819247
19:01.6;0.08519916699189382;-0.29643812009834863;-1.2755836090969672;1.256;0.03221649793899047
19:01.6;0.09925622083792143;-0.2856060514500312;-1.2894848548387965;1.2309999999999999;0.036554545310455704
19:01.6;0.11139638534900384;-0.27299958140542785;-1.302286355654391;1.197;0.03960404728410728
19:01.6;0.12090759237955186;-0.25866241596079265;-1.313776779470157;1.273;0.041087383383462524
19:01.6;0.12728227488162924;-0.2428299741386238;-1.3231461276210645;1.273;0.040895736363491544
19:01.6;0.13029641087046892;-0.22588659145149162;-1.3290844329727496;1.273;0.03911789496979293
19:01.6;0.1300612875419682;-0.20829988695255597;-1.3299851042723192;1.3530000000000002;0.03603162593286886
19:01.6;0.12702766609691477;-0.19055703716106254;-1.3242300928116382;1.485;0.03205433440232901
19:01.6;0.12192969129312389;-0.17311829022332906;-1.3105172948560513;1.5530000000000002;0.027662739380357154
19:01.7;0.11566742356107193;-0.1563950495608173;-1.2881627805982518;1.4509999999999998;0.0233026230937341
19:01.7;0.10914964747577979;-0.1407489164525931;-1.2572987411206227;1.4509999999999998;0.01931549659764653
19:01.7;0.10314152220254909;-0.12649817300052396;-1.2189132418122708;1.3230000000000002;0.01590342205854983
19:01.7;0.09816028130932242;-0.11391899978380697;-1.17472169686246;1.175;0.01313611517663734
19:01.7;0.09443586290374548;-0.10323819104651864;-1.1269006049020405;0.935;0.010986590847083259
19:01.7;0.0919262852855472;-0.09462311557313405;-1.0777515135262061;0.935;0.00937466151239609
19:01.7;0.09036692099933334;-0.0881765117316037;-1.0293874552386608;0.935;0.008202406162146774
19:01.7;0.08933618137199925;-0.08393860144854268;-0.9835187527175372;0.9309999999999999;0.0073751653021054565
19:01.7;0.08832729472575164;-0.0818933436174519;-0.9413638353951742;0.938;0.00680927763872091
19:01.7;0.08681959260505169;-0.0819745081563166;-0.9036633567773379;0.9279999999999999;0.00643136614793177
19:01.8;0.08434231954961455;-0.08407016693888131;-0.8707570424631271;0.9129999999999999;0.006174253350023001
19:01.8;0.08052375528236026;-0.08802740090255198;-0.8426844274610288;0.8859999999999999;0.005973197405091422
19:01.8;0.07512144225220273;-0.09365943150443222;-0.8192801625627133;0.855;0.005764317236639935
19:01.8;0.06803280774589196;-0.10075579010372117;-0.8002467937369824;0.833;0.005485451134785023
19:01.8;0.059286403178494276;-0.10909472679075329;-0.7851999516889175;0.7809999999999999;0.005078542910697333
19:01.8;0.04901647934189069;-0.11845559326302788;-0.7736906305269304;0.7809999999999999;0.004492261447854104
19:01.8;0.037430675567054386;-0.12862822672792257;-0.7652148905822106;0.7809999999999999;0.0036842353100136767
19:01.8;0.024784103648467757;-0.13941875410623375;-0.7592208923660863;0.748;0.0026233882235041223
19:01.8;0.011366778535911384;-0.15065388576955194;-0.7551194862064274;0.743;0.0012931038771904684
19:01.8;-0.0024977889894681566;-0.1621837744937783;-0.7523040752464928;0.76;0.0003047590174827743
19:01.9;-0.01644945966523587;-0.17387979787638996;-0.7501862612048635;0.7859999999999999;0.002145704290973183
19:01.9;-0.03009070980128315;-0.18562494092573956;-0.7482479173130456;0.794;0.004179403263028762
19:01.9;-0.04299313059877542;-0.19729996172458386;-0.7460997776835924;0.794;0.006328823462576249
19:01.9;-0.05471313872380277;-0.20877171411130985;-0.7435317559151472;0.79;0.008493032938132427
19:01.9;-0.06481716121401662;-0.2198885183937161;-0.7405443823716283;0.797;0.010554645500642713
19:01.9;-0.07291498074312809;-0.2304833655418546;-0.7373579473170236;0.797;0.012391809199694055
19:01.9;-0.0786966579767661;-0.24038160736241435;-0.7344001042060999;0.797;0.013892815050608888
19:01.9;-0.08196659602786917;-0.2494090369049987;-0.7322728839949055;0.8;0.014970008179094238
19:01.9;-0.08266977102748045;-0.25739972423722296;-0.7316990604780773;0.7829999999999999;0.015569953281014605
19:01.9;-0.08090569210969797;-0.2642062158039122;-0.7334493971705033;0.7559999999999999;0.015678057905319124
19:02.0;-0.07692451510724428;-0.26971449552725785;-0.7382583638884084;0.7559999999999999;0.015317131153224585
19:02.0;-0.07110257470284399;-0.27386330518661034;-0.7467435136190751;0.7559999999999999;0.014540878026360135
19:02.0;-0.06390183119341052;-0.276663662391964;-0.759346647289957;0.79;0.013424728307017447
19:02.0;-0.05582257395097075;-0.2782122430388955;-0.7763095172424004;0.821;0.012056493209427045
19:02.0;-0.04735819040507048;-0.27869361154966665;-0.7976849213123894;0.8909999999999999;0.010528184703650321
19:02.0;-0.03895808813772497;-0.27836943437482986;-0.8233706742691607;0.8909999999999999;0.008929241675870047
19:02.0;-0.031002214124791195;-0.277555431955998;-0.8531464326528956;0.8909999999999999;0.007341182520362048
19:02.0;-0.02378762174925832;-0.27658818595824697;-0.8866985585071556;0.925;0.00583392245951036
19:02.0;-0.0175247092615018;-0.27578446980757043;-0.9236322265325602;0.966;0.004463953945792256
19:02.0;-0.0123396888522874;-0.2753968371393845;-0.9634782848509458;1.008;0.0032741991246041193
19:02.1;-0.008280277377160344;-0.27557092658241855;-1.0056989654152588;1.051;0.0022948076296065607
19:02.1;-0.005322308661067804;-0.2763107212108606;-1.0496901124831013;1.088;0.0015436857679048167
19:02.1;-0.0033765179803501156;-0.2774572052527702;-1.0947760829910986;1.122;0.0010256291960925095
19:02.1;-0.0022975054697420075;-0.27868428692468966;-1.1401967357275762;1.147;0.0007300436535270037
19:02.1;-0.0018986594900288162;-0.2795141290514172;-1.185090311391229;1.246;0.0006289299806087565
19:02.1;-0.001975086962058305;-0.27935261216801516;-1.2284764786376818;1.246;0.0006778066172315398
19:02.1;-0.002331965824743423;-0.27754510411075817;-1.2692401200093155;1.246;0.0008214848221090806
19:02.1;-0.0028122415412508294;-0.2734522244963698;-1.3061182720881728;1.263;0.0010044228519473937
19:02.1;-0.0033179351889066023;-0.2665418966594645;-1.3377047280454046;1.296;0.0011830242424850084
19:02.1;-0.0038222935320041387;-0.2564862061645298;-1.362496413186769;1.3530000000000002;0.0013357445684734994
19:02.2;-0.004373952116772176;-0.24324421190320225;-1.3789992341106343;1.425;0.0014671704256595391
19:02.2;-0.005096933742397087;-0.2271114029485258;-1.3858904597820576;1.48;0.0016042676766741793
19:02.2;-0.0061878022594924285;-0.20872186282444397;-1.3822111592213158;1.507;0.001785166645475439
19:02.2;-0.00790489204214894;-0.1889948331747864;-1.3675469724427607;1.507;0.0020430929579801564
19:02.2;-0.010541965853122674;-0.1690248132390473;-1.342155288903582;1.368;0.002391524514468688
19:02.2;-0.014384215716868723;-0.14993069535277057;-1.3070131673961987;1.368;0.0028187509494200505
19:02.2;-0.019653544373760743;-0.13270004296206822;-1.2637841412524156;1.368;0.0032959821297367984
19:02.2;-0.026454821933306505;-0.11806944134023509;-1.2147134664371624;1.29;0.003794164857085364
19:02.2;-0.03473306171735095;-0.10646349460947327;-1.162454614559814;1.182;0.004298528310941769
19:02.2;-0.044247336621775935;-0.09799200908963784;-1.1098271691801913;1.067;0.0048120834331705714
19:02.3;-0.05456489840907241;-0.09249281264108489;-1.0595245628996142;0.899;0.005347273115925586
19:02.3;-0.06507848627302873;-0.08960387118358279;-1.013817392519999;0.899;0.0059118574449113165
19:02.3;-0.07504919814466093;-0.08884837781439786;-0.974311772661752;0.866;0.006496710424083643
19:02.3;-0.08367479355303678;-0.08971972281791146;-0.9418098615175992;0.86;0.007070429663237708
19:02.3;-0.09017757480616714;-0.09175690812388479;-0.9162894368989581;0.9059999999999999;0.007581759469980466
19:02.3;-0.0938980282603092;-0.09460267462671113;-0.8969911390138555;0.9059999999999999;0.007967976428012162
19:02.3;-0.09437562670102545;-0.0980381278401781;-0.8825852780168376;0.9059999999999999;0.008166040636394312
19:02.3;-0.09140134574241246;-0.10199106212872756;-0.8713844116103759;0.917;0.008123150340690725
19:02.3;-0.08503521083595132;-0.1065197314125036;-0.8615713455521884;0.9279999999999999;0.007804051058802185
19:02.3;-0.07559074941941527;-0.1117780053063357;-0.8514182265603676;0.9309999999999999;0.007193958850914672
19:02.4;-0.06359396260816573;-0.11797075682855777;-0.8394755194077573;0.904;0.006297936661902941
19:02.4;-0.049727363678767886;-0.12530882223437292;-0.8247129869119141;0.904;0.005139015376548324
19:02.4;-0.0347689834590303;-0.13397077611704802;-0.8066014536843429;0.8740000000000001;0.003757171913159737
19:02.4;-0.019531697899229643;-0.1440758629864777;-0.7851312049292799;0.843;0.0022093955076184606
19:02.4;-0.0048034801542507135;-0.1556700409856179;-0.7607694516798118;0.727;0.0005688714075018491
19:02.4;0.008710270975921267;-0.16872395252571945;-0.7343703106350412;0.727;0.001079253628541825
19:02.4;0.020436202018620227;-0.18313767402271852;-0.707063870984533;0.727;0.0026462844680147576
19:02.4;0.029966576845615347;-0.19874660387803178;-0.6801514457272796;0.706;0.0040508156306876646
19:02.4;0.03707350455129654;-0.21532703201226;-0.6550179859856825;0.6920000000000001;0.005228961225190363
19:02.4;0.04170371361861652;-0.2326025061653669;-0.6330573139066462;0.674;0.0061409017636405265
19:02.5;0.0439537925335288;-0.25025016317734006;-0.6156037993853805;0.6509999999999999;0.006771299365951856
19:02.5;0.04402845406782841;-0.2679052248731234;-0.6038689105348675;0.6509999999999999;0.007122907284655898
19:02.5;0.04219092357311097;-0.28516544536016597;-0.5988840713866995;0.643;0.007205409930253077
19:02.5;0.03871862083261321;-0.30160221884693794;-0.6014514913342077;0.643;0.00702352313935576
19:02.5;0.03387526297992427;-0.31678592147871515;-0.6121042116313536;0.7170000000000001;0.006568616632363792
19:02.5;0.02790417774084223;-0.3303262983747617;-0.6310757793438001;0.7170000000000001;0.00581693073627582
19:02.5;0.021039675264765963;-0.34191786862822215;-0.6582781680290709;0.7170000000000001;0.004735548423989472
19:02.5;0.013527367311728935;-0.35137622847032013;-0.6932876092027339;0.753;0.0032953314105524296
19:02.5;0.0056433990588069735;-0.358657396623295;-0.7353442984404468;0.795;0.0014883712848471125
19:02.5;-0.0022946572747177107;-0.3638591637510731;-0.7833768783081361;0.8390000000000001;0.0006540664841376385
19:02.6;-0.009928931551185238;-0.36720430772110413;-0.8360594875420717;0.945;0.0030482281094424807
19:02.6;-0.01687479189128092;-0.3690056823700043;-0.8918994329815667;0.945;0.005553763314077583
19:02.6;-0.022745004365256716;-0.3696166715180045;-0.9493446310675565;1.008;0.007981076524212292
19:02.6;-0.02718231275682407;-0.36937415174295696;-1.00689983676445;1.088;0.010109721139653345
19:02.6;-0.029897617989938854;-0.36854202389072876;-1.0632442663842225;1.256;0.011715387404217141
19:02.6;-0.030707837388819017;-0.36726269495593883;-1.117334845831273;1.256;0.01260112709897476
19:02.6;-0.029563823016853653;-0.3655229284939802;-1.1684636279693805;1.256;0.012626716116726059
19:02.6;-0.02655871457176434;-0.36313884950744313;-1.2162414477545695;1.28;0.011730041924771704
19:02.6;-0.021911668811818847;-0.35976296599448887;-1.260507414467978;1.2930000000000001;0.009936588723435898
19:02.6;-0.015928197773119206;-0.3549150527928624;-1.3011890015726981;1.3;0.007355825912350553
19:02.7;-0.008943931011346449;-0.3480371204640227;-1.338144960130555;1.307;0.004165404387859183
19:02.7;-0.0012626562328438046;-0.3385670316423501;-1.371023128220347;1.311;0.0005861038495948469
19:02.7;0.006898441742037781;-0.3260169175845604;-1.3991660056909703;1.3319999999999999;0.003146736537558655
19:02.7;0.015443747249528577;-0.3100391525973778;-1.4215944852688658;1.379;0.006806830821090581
19:02.7;0.024405191253930633;-0.2904701191393408;-1.4370867016328275;1.527;0.01018747717765715
19:02.7;0.03391720030336804;-0.2673556570153409;-1.4443412967768405;1.527;0.013097222419993797
19:02.7;0.04416767554962744;-0.24096954507852042;-1.442183547741909;1.527;0.0153492527853505
19:02.7;0.055338094984178396;-0.21183046179531903;-1.4297619067040672;1.5290000000000001;0.01676008972831595
19:02.7;0.06754549535769339;-0.18071024218611723;-1.406697654452214;1.493;0.01717038061532514
19:02.7;0.08079424346095343;-0.1486200645874223;-1.3731712309042954;1.443;0.016488553600671457
19:02.8;0.0949401848751943;-0.11676667375663514;-1.3299406626040142;1.379;0.014743522154195682
19:02.8;0.1096674709696028;-0.08648113957108378;-1.278294798822357;1.3030000000000002;0.012123562450852882
19:02.8;0.12448082237613307;-0.05912860171896809;-1.219951382700719;1.23;0.008979302059222267
19:02.8;0.1387201447346832;-0.036007070230616854;-1.1569150947412257;1.1640000000000001;0.005778682141113612
19:02.8;0.15160368414456232;-0.018242228449315723;-1.091313476892338;0.9790000000000001;0.003018124590813723
19:02.8;0.1622972894523321;-0.006688175633385858;-1.025234452713877;0.9790000000000001;0.001112864088134983
19:02.8;0.16999664118421748;-0.0018486336442139783;-0.9605961457166706;0.9790000000000001;0.0003018783955379331
19:02.8;0.17400668435033823;-0.0038322429472792043;-0.8990712728683675;0.9159999999999999;0.0005995329914105701
19:02.8;0.17380945217496618;-0.012347775978280812;-0.8420619157534441;0.862;0.0018071997513071077
19:02.8;0.16911827919665387;-0.02673659092824654;-0.7907019233930981;0.8170000000000001;0.003575274386279985
19:02.9;0.15991678454595387;-0.04603462791206864;-0.7458680305148117;0.78;0.005490863895370992
19:02.9;0.1464783012805032;-0.06905414613812565;-0.7081916395868738;0.737;0.007163311709840655
19:02.9;0.12935977209141622;-0.09447594480294495;-0.6780682859189303;0.6990000000000001;0.008286934722969442
19:02.9;0.10936465168615579;-0.1209460242110245;-0.6556640289004179;0.674;0.00867261223221142
19:02.9;0.0874734933481078;-0.1471737680243185;-0.6409206443758019;0.6659999999999999;0.008251086510602718
19:02.9;0.06475038354037622;-0.17202655051014315;-0.6335630459830555;0.6659999999999999;0.00705712263213013
19:02.9;0.04224398278921621;-0.19460850706220692;-0.6331118152319312;0.6659999999999999;0.005204836559058579
19:02.9;0.020902698274888967;-0.2143097205210983;-0.6389019038427289;0.6759999999999999;0.0028620578242579344
19:02.9;0.0015132237609447995;-0.2308211847384239;-0.6501071977654423;0.691;0.00022707210830430916
19:02.9;-0.01533568440624428;-0.2441195416814716;-0.6657711085363144;0.701;0.0024924740953984476
19:03.0;-0.029261235531825476;-0.2544266888967864;-0.6848447434438838;0.736;0.005098559039427272
19:03.0;-0.04006528088577096;-0.26214992665282044;-0.7062337860802282;0.736;0.007417651455565095
19:03.0;-0.047692994673910825;-0.2678124169542904;-0.7288529618049024;0.765;0.00930947574591733
19:03.0;-0.05219068055007479;-0.2719858158766643;-0.7516861596448238;0.8029999999999999;0.010670278869570378
19:03.0;-0.053679884293132946;-0.27523312380001014;-0.7738504982366571;0.868;0.011433240442010648
19:03.0;-0.05235155536720105;-0.2780637134670488;-0.7946587414850199;0.868;0.011567901250116879
19:03.0;-0.04847074791616777;-0.28089970837430805;-0.8136681404269737;0.868;0.011078432621708847
19:03.0;-0.04237965093457812;-0.2840539936639384;-0.8307046053314323;0.895;0.010000112667232827
19:03.0;-0.034492123897147606;-0.2877213301069359;-0.8458600573898155;0.9129999999999999;0.008394416514728033
19:03.0;-0.02527825373703545;-0.2919825777374561;-0.8594672414704346;0.919;0.006343564141367578
19:03.1;-0.015240067418448647;-0.2968188761835857;-0.8720560008899184;0.922;0.00394477992678833
19:03.1;-0.004880870210660108;-0.3021306947140764;-0.8842944934515171;0.925;0.00130403434340107
19:03.1;0.005328111457482066;-0.30775764822921364;-0.8969213568305142;0.934;0.0014707420888588935
19:03.1;0.014979420563898069;-0.31349750029826234;-0.9106771575274596;0.9470000000000001;0.004276549860587367
19:03.1;0.023755979681224403;-0.31912417147837974;-0.9262427781233925;0.992;0.007021945917765939
19:03.1;0.03145061806921794;-0.3244040051748396;-0.9441883725484459;0.992;0.009633276814551495
19:03.1;0.03797620610207758;-0.3291085654975133;-0.9649318228544179;0.992;0.012060002300269225
19:03.1;0.043363648265881044;-0.3330226417701495;-0.9887054356654442;1.038;0.014277971032420938
19:03.1;0.047746917790815566;-0.3359473498271053;-1.0155333753413658;1.075;0.016289612832408734
19:03.1;0.05133696321165211;-0.33769835849661356;-1.0452221301490119;1.111;0.01812039751501918
19:03.2;0.054387626982335346;-0.33809914549726977;-1.0773601209993355;1.138;0.01981093984705535
19:03.2;0.05715728981909829;-0.3369713073874341;-1.1113180180186255;1.155;0.021404392521866773
19:03.2;0.05987024240979156;-0.33412759837174716;-1.1462437397479435;1.171;0.022929803998739822
19:03.2;0.06268219174399435;-0.3293749755304567;-1.181053706716938;1.177;0.024383970310126648
19:03.2;0.06565550007135504;-0.32253217905831977;-1.2144304416191267;1.226;0.025716793003964795
19:03.2;0.06874885775657932;-0.3134606153487958;-1.2448415163738789;1.226;0.02682640844331156
19:03.2;0.07181977720550323;-0.3021025046774242;-1.270594493073668;1.226;0.027568005592856656
19:03.2;0.07463192531358936;-0.2885184771267226;-1.2899404123458003;1.3;0.027775886290648474
19:03.2;0.07686167802135693;-0.27291651989254795;-1.3012338377630166;1.376;0.02729575017703259
19:03.2;0.07810800574750339;-0.2556640250509328;-1.3031419761108494;1.4269999999999998;0.0260229726797163
19:03.3;0.0779171594697619;-0.2372755773991598;-1.2948706325174524;1.4469999999999998;0.023939359783035265
19:03.3;0.07583148325992957;-0.21837292985664866;-1.2763577078059818;1.435;0.021135900568960923
19:03.3;0.07146113094756733;-0.19962079823678738;-1.2483863473348142;1.3980000000000001;0.01780839104150052
19:03.3;0.06456603697162941;-0.1816502080164777;-1.2125845901484562;1.338;0.014221718391596154
19:03.3;0.055129510167281376;-0.1649866352329638;-1.1712991065666554;1.141;0.010653706085671871
19:03.3;0.04340590643647851;-0.15000056366901587;-1.1273566551579093;1.141;0.007340118206693226
19:03.3;0.02993144801087243;-0.1368920378055841;-1.083752637617495;1.041;0.004440543036430222
19:03.3;0.015494785787233976;-0.12571008183118168;-1.043316268241531;0.9540000000000001;0.002032224416552303
19:03.3;0.0010687582607555087;-0.11639760329521256;-1.008395098683454;0.897;0.00012544525788616405
19:03.3;-0.012290880330354524;-0.10884692559562067;-0.9805946124088086;0.857;0.0013118635331567244
19:03.4;-0.023567188268747402;-0.1029511145568724;-0.9606059712128878;0.833;0.002330687816013707
19:03.4;-0.03190480460421292;-0.09864049775100407;-0.9481478040801823;0.851;0.0029839214599330795
19:03.4;-0.036712787998429634;-0.09590009943782159;-0.9420338504664595;0.905;0.0033166751179160574
19:03.4;-0.0377312008712241;-0.09476904143856811;-0.940359638815866;0.96;0.003362490732960384
19:03.4;-0.03505210976240423;-0.09532553124670147;-0.9407799897276478;1.032;0.003143485552597951
19:03.4;-0.029094015039812925;-0.09766219399817723;-0.9408306417647785;1.032;0.0026732623938779173
19:03.4;-0.02053882327231277;-0.10185770086682187;-0.9382403127330985;1.032;0.001962833746577432
19:03.4;-0.010246215175868505;-0.10795103559457551;-0.9311887477722727;1.0190000000000001;0.0010299781328942808
19:03.4;0.0008421924849514789;-0.11592302477777428;-0.9184861799000082;0.9990000000000001;8.96713467767234e-05
19:03.4;0.011799410032289433;-0.12568639737584308;-0.8996678568974159;0.97;0.0013342302276699415
19:03.5;0.02179922874066577;-0.13708269904362627;-0.8750076241483099;0.929;0.002614782756955254
19:03.5;0.030180586569981956;-0.14988407191059225;-0.8454596230739045;0.89;0.003824512026533132
19:03.5;0.03648361615403012;-0.16380004616847207;-0.8125402933722734;0.845;0.004855755427387051
19:03.5;0.04045700706443459;-0.17849127741657922;-0.77816468358131;0.797;0.0056193006107794815
19:03.5;0.04204093553603074;-0.193591390222511;-0.7444529787108757;0.695;0.006058926475009151
19:03.5;0.041333614687594916;-0.20873452199327472;-0.7135284580764866;0.695;0.006156146798188439
19:03.5;0.0385522634867917;-0.2235821102729586;-0.6873340880493389;0.695;0.005924542448939034
19:03.5;0.033998481182055625;-0.23784292729145695;-0.6674904689343021;0.675;0.0053975270360686846
19:03.5;0.028033185274933075;-0.2512860799753947;-0.6552017250189355;0.67;0.004615469771693252
19:03.5;0.02106068947768651;-0.2637505813839907;-0.6512036897474968;0.679;0.003617286129765148
19:03.6;0.013517922828204416;-0.27515279948492394;-0.6557485006220866;0.691;0.0024390528164624863
19:03.6;0.005863477833080274;-0.2854888900062815;-0.668623151507602;0.7040000000000001;0.0011192469251123179
19:03.6;-0.0014379861921964214;-0.2948282942899232;-0.6892003361057534;0.7240000000000001;0.0002921926964998939
19:03.6;-0.007937546042767285;-0.30329704680574027;-0.7165198027450791;0.755;0.0017249743308816736
19:03.6;-0.013227937517559026;-0.3110535545803033;-0.749396934449424;0.893;0.0030834663667562486
19:03.6;-0.016969478937955435;-0.31826151310681955;-0.7865470484089768;0.893;0.004247929848006077
19:03.6;-0.01891284961126298;-0.32506379922083006;-0.82670172072812;0.893;0.005082465247209272
19:03.6;-0.018918195243322757;-0.3315599450686327;-0.8686935179679567;0.95;0.005448893795679546
19:03.6;-0.01697109262450347;-0.33778965421616747;-0.9115025011044472;0.991;0.00522533348070858
19:03.6;-0.013193824225832521;-0.3437244898892278;-0.9542724175019531;1.016;0.004327664063038381
19:03.7;-0.007847112900960053;-0.3492690070839456;-0.9963056377290974;1.0270000000000001;0.002730627995692585
19:03.7;-0.0013164800955687015;-0.3542716498000192;-1.037044976884594;1.0959999999999999;0.00048366904051535495
19:03.7;0.005919351834789058;-0.35854316192880953;-1.0760529389365354;1.151;0.002283753555381778
19:03.7;0.013335030581883116;-0.36187608351789674;-1.1129960899039282;1.179;0.005370905808275297
19:03.7;0.020413685818385336;-0.3640576179157621;-1.1476327622938285;1.25;0.008528928769347598
19:03.7;0.026703534093849787;-0.3648731951630014;-1.1797943562501063;1.25;0.011495212822125601
19:03.7;0.03186794890270833;-0.36410588012180944;-1.2093491796580278;1.25;0.014032450506696827
19:03.7;0.0357206599249536;-0.3615402496163422;-1.2361445367934043;1.261;0.01596413460798304
19:03.7;0.038241721478099074;-0.3569760716984105;-1.2599358794480289;1.253;0.017199862846388806
19:03.7;0.039575714731247304;-0.3502504091369399;-1.2803235164193623;1.256;0.017747089547747886
19:03.8;0.04001625016082713;-0.341260845210694;-1.2967216723405686;1.286;0.01770800438283393
19:03.8;0.03997978705041471;-0.3299815652833044;-1.3083802458783074;1.338;0.01726092769445284
19:03.8;0.039970303753573494;-0.3164703182543838;-1.3144647286305446;1.391;0.016627209526191563
19:03.8;0.04053688294948171;-0.30087182277270297;-1.314177573856574;1.4340000000000002;0.01602824306619538
19:03.8;0.04222750095286577;-0.2834227320269093;-1.3068872251096344;1.3519999999999999;0.015641131712314394
19:03.8;0.04554162889786853;-0.26445719866500933;-1.2922315535404252;1.3519999999999999;0.015563393375671917
19:03.8;0.05088275076426846;-0.24440986871728418;-1.2701794999429756;1.3519999999999999;0.015796265277047597
19:03.8;0.05851213384110964;-0.2238139891919493;-1.2410510916440347;1.287;0.01625259919476372
19:03.8;0.06850647084758073;-0.2032909044919031;-1.2054999353167302;1.228;0.016788687089078057
19:03.8;0.08072275406369207;-0.18352715988369264;-1.164462729344761;1.166;0.01725130316000161
19:03.9;0.09477496804320032;-0.165239786854972;-1.1190864601975126;1.107;0.01752556040354569
19:03.9;0.11002993356952652;-0.14913381261801203;-1.0706497450490202;1.0590000000000002;0.01756848812573774
19:03.9;0.1256313525975736;-0.1358555303449587;-1.0204935502181405;1.025;0.017417492089785002
19:03.9;0.14055769366251153;-0.1259438331856642;-0.9699694384683862;0.998;0.017170762470200496
19:03.9;0.15371036440603006;-0.11978276390486778;-0.9204046631270114;0.92;0.016946354703949888
19:03.9;0.16401849258379414;-0.11756101828089634;-0.8730780227458014;0.92;0.01683484846611438
19:03.9;0.17054274235058384;-0.1192461312583752;-0.829200112432246;0.88;0.016863079695479583
19:03.9;0.1725651517842682;-0.12458020406755388;-0.7898913100037628;0.84;0.016981242801668326
19:03.9;0.16965895668399472;-0.1331004905818609;-0.7561493818206426;0.777;0.017075131210902365
19:03.9;0.16173500543429098;-0.1441833544989313;-0.728802559692542;0.777;0.016995308101086765
19:04.0;0.14906022645983283;-0.15710530958089303;-0.7084524074748454;0.741;0.01659064688858761
19:04.0;0.1322434904404289;-0.17111243040428045;-0.6954146639409686;0.708;0.015736194237896968
19:04.0;0.11218743877919461;-0.18549005745911692;-0.6896655757406419;0.6829999999999999;0.01435170232780527
19:04.0;0.09000974282767216;-0.19962571883363353;-0.6908037937461434;0.664;0.012412541908369955
19:04.0;0.0669415782913019;-0.2130583052348614;-0.6980426243986569;0.735;0.009955804464650761
19:04.0;0.04421609928046127;-0.22550717369208226;-0.7102445500286553;0.735;0.007081882202073502
19:04.0;0.02296502504638442;-0.2368771686032022;-0.7259975682218331;0.735;0.003949346991173534
19:04.0;0.00413954548597713;-0.2472399433366159;-0.7437231932940823;0.782;0.0007611716767302307
19:04.0;-0.011539356494938128;-0.2567972013211583;-0.7618064340474251;0.83;0.0022574415441035723
19:04.0;-0.02360498618115328;-0.26583448667752757;-0.7787388282871901;0.872;0.00488660124296261
19:04.1;-0.03184745542191796;-0.2746733756546906;-0.7932589472323398;0.8959999999999999;0.006939150112054681
19:04.1;-0.03629692844179685;-0.2836271488726814;-0.8044686889500193;0.903;0.008281839695076877
19:04.1;-0.03719095639274945;-0.29296323251209294;-0.8119063938238713;0.9;0.008846193343846294
19:04.1;-0.034929998374345274;-0.3028761383823455;-0.8155672321953542;0.895;0.008628263374413745
19:04.1;-0.030023980490550634;-0.3134754107140849;-0.815871898318051;0.87;0.007678806501487494
19:04.1;-0.02303350483861154;-0.3247899799458725;-0.8135940044515894;0.87;0.006086538708100536
19:04.1;-0.014513886862850598;-0.33678295209975895;-0.809763439304043;0.87;0.003958147712232114
19:04.1;-0.004972459837264572;-0.3493668239250925;-0.8055635052906343;0.875;0.0013994349912893197
19:04.1;0.005155032266491062;-0.3624131020112689;-0.8022328284666416;0.8740000000000001;0.0014987724722733697
19:04.1;0.01550993522941899;-0.37575598591796255;-0.8009753004690671;0.873;0.004668044806270822
19:04.2;0.025803032138515924;-0.38919193461075896;-0.8028784246711308;0.871;0.008062771693625393
19:04.2;0.035800350194808324;-0.4024779103586867;-0.80884154484153;0.878;0.011654476603809414
19:04.2;0.04530916220022784;-0.4153317123705647;-0.8195182953012065;0.8640000000000001;0.015421967297700342
19:04.2;0.05416878222904413;-0.4274364088091058;-0.8352828434967067;0.836;0.019339896513756345
19:04.2;0.06224651015592617;-0.43844831166075143;-0.8562352000127872;1.05;0.02336826600553787
19:04.2;0.06943551729027338;-0.4480057243706123;-0.8822537155130208;1.05;0.027444715590297927
19:04.2;0.0756527569798128;-0.4557347257461099;-0.9130756530367737;1.05;0.03148064659288979
19:04.2;0.08084019671812327;-0.46125018211388924;-0.9483655501069614;1.095;0.03536223304440856
19:04.2;0.08497489895464828;-0.4641548251437793;-0.9877416985151871;1.12;0.038958023453081754
19:04.2;0.08808847532599015;-0.46404304390023565;-1.030755450505911;1.138;0.04213402998213554
19:04.3;0.09028713912354791;-0.46051595770672116;-1.0768309916899175;1.1640000000000001;0.044773198663948875
19:04.3;0.09175736493954445;-0.4532108261992878;-1.1251783647271587;1.1840000000000002;0.04679102744497072
19:04.3;0.0927454173089686;-0.44184356606458136;-1.1746979959235602;1.197;0.04813790914117625
19:04.3;0.09351096019415248;-0.42625972325106204;-1.2238997218500494;1.193;0.0487845890776337
19:04.3;0.0942675083479142;-0.4064866933483973;-1.2708630025162893;1.271;0.04869754840469684
19:04.3;0.09512714845175795;-0.38277940285419954;-1.3132649408624615;1.271;0.0478195394891052
19:04.3;0.0960621682731308;-0.3556536340114313;-1.3484942796263069;1.351;0.04607111724581335
19:04.3;0.09688902969711431;-0.32590167577849544;-1.3738554250840278;1.421;0.04338126713375872
19:04.3;0.09727761391439896;-0.2945815344323473;-1.3868505447399444;1.492;0.03974185100975763
19:04.3;0.09678859834398375;-0.26296888780039807;-1.3855086031265897;1.551;0.035264505395876264
19:04.4;0.09493790005798193;-0.2324658329655141;-1.3687112955780976;1.565;0.030207209211187375
19:04.4;0.09127948040404735;-0.20447101572472562;-1.336456333664194;1.5290000000000001;0.024943631800774958
19:04.4;0.08549134740802065;-0.18022775746146838;-1.2900035340494338;1.475;0.019876263287491005
19:04.4;0.07744717275603155;-0.16067693915499326;-1.2318663699722678;1.403;0.015329313898165733
19:04.4;0.06725843578030935;-0.14634587182184916;-1.1656355361920183;1.133;0.011473344080407146
19:04.4;0.05528014847427545;-0.1372986051058606;-1.0956505592444628;1.133;0.008315864238072908
19:04.4;0.04208383332582185;-0.1331572320604679;-1.0265656065410864;0.975;0.005752634223058955
19:04.4;0.028406809609959744;-0.1331858571639332;-0.9628696610724681;0.843;0.0036429069091881497
19:04.4;0.015084611227694193;-0.1364170185511882;-0.9084175548327358;0.7440000000000001;0.001869339545604846
19:04.4;0.002970309285897984;-0.14179573482959504;-0.8660259672321524;0.6940000000000001;0.000364750381496969
19:04.5;-0.0071538962514571605;-0.14831712000158165;-0.837188719512029;0.6890000000000001;0.0008882951466799644
19:04.5;-0.014663039888966592;-0.15513762527119906;-0.8219532282045356;0.711;0.0018697703162581915
19:04.5;-0.019160871532276236;-0.16164592636079206;-0.8189744274590572;0.755;0.002536590517479007
19:04.5;-0.02052407550108077;-0.16748781632926396;-0.8257352730030676;0.8140000000000001;0.002838491909887707
19:04.5;-0.018910846579242926;-0.17254972088830775;-0.838900155617003;0.951;0.0027373826315272892
19:04.5;-0.014732355680910655;-0.17691350210904905;-0.8547487941494271;0.951;0.0022277767743099927
19:04.5;-0.008593490651080182;-0.18079740369850036;-0.8696263385198698;1.013;0.0013511217439609016
19:04.5;-0.0012141401624802043;-0.18449490156519727;-0.880348469216252;1.045;0.0001972004074263321
19:04.5;0.006656639622511371;-0.18831818503977396;-0.8845162612872046;1.04;0.0011087997700304606
19:04.5;0.014320731255479412;-0.19254923624349354;-0.8807126198761537;1.004;0.00242851737253929
19:04.6;0.021192552620571677;-0.19740033942059917;-0.8685678227867742;0.9520000000000001;0.003633581465409992
19:04.6;0.026833429258105543;-0.20298630533181683;-0.8487003505122926;0.897;0.004622716909725758
19:04.6;0.030957697437183698;-0.20931082039570606;-0.8225567797238336;0.845;0.005329987832272716
19:04.6;0.033416502275305036;-0.21626827532692638;-0.7921841046656066;0.7959999999999999;0.005725058528519333
19:04.6;0.03416885917149852;-0.22366034237426313;-0.7599695982420505;0.701;0.005807853906150502
19:04.6;0.03324986808835626;-0.23122363712338342;-0.7283828629923372;0.701;0.0055999206656098
19:04.6;0.03074410038667931;-0.23866234116761872;-0.6997529492920075;0.701;0.00513440855832929
19:04.6;0.026769012774783097;-0.2456804157800078;-0.6761029911599106;0.6859999999999999;0.004446473933393129
19:04.6;0.021469636204535944;-0.2520117369921089;-0.6590457104668386;0.682;0.0035658329269995562
19:04.6;0.015022838024574433;-0.25744855035077324;-0.6497292054560864;0.6809999999999999;0.0025128977894181333
19:04.7;0.0076478991973371185;-0.261866993878029;-0.6488212021638398;0.682;0.0012994152254008982
19:04.7;-0.00038048544463472787;-0.26524633524270375;-0.6565243057982371;0.6940000000000001;6.625798877413356e-05
19:04.7;-0.008721565805507281;-0.2676787696850454;-0.672617847328807;0.7120000000000001;0.0015702788318384757
19:04.7;-0.01696634252647883;-0.2693682143106264;-0.6965231540437724;0.738;0.0031832455144117353
19:04.7;-0.02464963661505568;-0.2706179044037413;-0.727388079472475;0.841;0.004852138930430917
19:04.7;-0.03127781730184786;-0.2718074439733714;-0.7641810086787098;0.841;0.00649671814361466
19:04.7;-0.03636661032876309;-0.27336040617371665;-0.8057775921987804;0.841;0.00801038924621511
19:04.7;-0.03948046977456304;-0.2757037593321767;-0.8510268672341805;0.888;0.009263354207959125
19:04.7;-0.04026897374847223;-0.2792209178373775;-0.8987986379212731;0.9420000000000001;0.010106037786472186
19:04.7;-0.038500831414273254;-0.284201706511892;-0.9480238045342284;1.001;0.010373278355840738
19:04.8;-0.034096193968780296;-0.29079466547319477;-0.9977338802027709;1.057;0.00989252276094315
19:04.8;-0.027153461116283396;-0.2989686010260637;-1.0470956467449253;1.109;0.00850035626361262
19:04.8;-0.017962110940005528;-0.3084898777098743;-1.0954326197720052;1.158;0.0060699339031272176
19:04.8;-0.0069922073365238585;-0.3189198113704604;-1.1422265776806846;1.198;0.002547112091672384
19:04.8;0.005144365049785669;-0.32963380323953034;-1.1870954715773383;1.285;0.0020130250004790355
19:04.8;0.017756757352135652;-0.33986067639602574;-1.2297451812648148;1.285;0.007421295197977499
19:04.8;0.030148124978108773;-0.34873743145432023;-1.2698931897146988;1.285;0.013351377198591514
19:04.8;0.04168264475643357;-0.3553742962180729;-1.3071688420861916;1.306;0.019363014339871188
19:04.8;0.051838696217981726;-0.35892768361021044;-1.3410080250929453;1.3159999999999998;0.024951255488345453
19:04.8;0.06024977248396192;-0.35867796815341363;-1.370570404594463;1.3330000000000002;0.029618390982466908
19:04.9;0.06673731460322804;-0.35410161781078936;-1.3947086719859574;1.37;0.03295946393898368
19:04.9;0.07133530814381414;-0.344921764439185;-1.412012484424331;1.42;0.03474270887722309
19:04.9;0.07429871781135813;-0.331127954085554;-1.420934778144422;1.464;0.034958380805864976
19:04.9;0.07608415609877277;-0.3129703665177913;-1.4199869365087439;1.515;0.03381285136403013
19:04.9;0.07729786501081898;-0.29094133700805214;-1.4079704275031895;1.521;0.031664049965169826
19:04.9;0.07861794030741967;-0.265752831024691;-1.384203224477987;1.521;0.02892007520200827
19:04.9;0.08070381308145566;-0.2383113601104081;-1.3486998318244956;1.521;0.02593905221251792
19:04.9;0.08410404132757303;-0.2096862505237474;-1.3022700808811503;1.4369999999999998;0.022966133326862696
19:04.9;0.08917036831586668;-0.18106236220207086;-1.246512350043973;1.3119999999999998;0.020125437412153852
19:04.9;0.09598713748171857;-0.15366916763472066;-1.1836952351041938;1.181;0.01745981664569402
19:05.0;0.10432832432651185;-0.12868762744503628;-1.1165479047371372;1.069;0.014990509258698163
19:05.0;0.1136540215897545;-0.10714744390849269;-1.0480015572243895;0.988;0.012762288286089926
19:05.0;0.1231518931598606;-0.08983266183964168;-0.9809298995120131;0.925;0.010852088661980766
19:05.0;0.13181968830328955;-0.07721289461150119;-0.9179253701060581;0.877;0.009342809368755256
19:05.0;0.13857695817355367;-0.06941266605961675;-0.8611305591188683;0.7859999999999999;0.008283211508061435
19:05.0;0.14238936887261114;-0.06622287843967807;-0.812132526493452;0.7859999999999999;0.007657949948959659
19:05.0;0.14238692584378684;-0.06714808320766325;-0.7719232275555857;0.7859999999999999;0.007380365037311734
19:05.0;0.13795941135427112;-0.07147697788274197;-0.7409223650845973;0.772;0.007306177497587959
19:05.0;0.12881862206664807;-0.07836466680308904;-0.7190461555934713;0.755;0.007258647549725205
19:05.0;0.11502338591484836;-0.08691898294311902;-0.70579794471238;0.7340000000000001;0.007056367205860083
19:05.1;0.0969677230364527;-0.09628462776326774;-0.700361554563365;0.722;0.006538926436916479
19:05.1;0.0753368656911015;-0.10571853035927467;-0.7016886996259188;0.722;0.0055886015586846345
19:05.1;0.05103990633034989;-0.11464931141331638;-0.7085793026970694;0.7290000000000001;0.004146386501551596
19:05.1;0.02512894850940236;-0.12271421295369145;-0.7197562535433407;0.737;0.002219497343989778
19:05.1;-0.0012868048444077955;-0.12976967025749403;-0.7339355137086125;0.782;0.00012255859996057128
19:05.1;-0.027123414906571653;-0.1358763828503052;-0.7498896342578187;0.782;0.0027636668856561093
19:05.1;-0.05139013034342542;-0.14126396912738498;-0.7664996893357794;0.782;0.0055644610518983395
19:05.1;-0.07323458899888259;-0.14628234064101955;-0.7827916501937787;0.8009999999999999;0.00838598987881858
19:05.1;-0.09196647442765489;-0.1513466831332966;-0.7979590591867967;0.815;0.011106649201697781
19:05.1;-0.10706748004524604;-0.1568813160271828;-0.8113784692373395;0.823;0.013628632602553323
19:05.2;-0.11819421163438723;-0.16326594175135356;-0.8226240605656044;0.83;0.015874249934068285
19:05.2;-0.12517758008760788;-0.1707870765621341;-0.8314861226677724;0.858;0.017776103141985678
19:05.2;-0.1280210519315329;-0.17959862301866272;-0.8379951005440943;0.9229999999999999;0.019267522441654052
19:05.2;-0.12689813608795728;-0.18969810223046846;-0.8424446055367004;0.9329999999999999;0.020279609262544802
19:05.2;-0.12214576129755055;-0.2009256884898361;-0.8453961664315619;0.8859999999999999;0.02074789970536696
19:05.2;-0.11424876458888239;-0.21298724302751698;-0.8476488250795999;0.8859999999999999;0.020626287596698555
19:05.2;-0.10381430870756964;-0.22549214299434608;-0.8501723508343779;0.8859999999999999;0.019901948916627908
19:05.2;-0.09153905131469633;-0.23799276985319645;-0.8540180676623782;0.8809999999999999;0.018605323661239563
19:05.2;-0.07817134458979698;-0.25001970041155386;-0.8602226642974604;0.888;0.016812515328179945
19:05.3;-0.06446879960587742;-0.2611153039116483;-0.86971399852807;0.9009999999999999;0.014640582986883909
19:05.3;-0.051152127852242255;-0.27086932727591434;-0.8832238486909472;0.903;0.012237545537282464
19:05.3;-0.03885797955042311;-0.2789544981225177;-0.901212673231005;0.898;0.009768792267867766
19:05.3;-0.028095736710913043;-0.2851542342763496;-0.923815308162693;0.898;0.007401255617823373
19:05.3;-0.019215598015179795;-0.28937325444929607;-0.9508227743979863;0.92;0.0052870311478445476
19:05.3;-0.012394384388726259;-0.291627035873967;-0.9817160055874802;1.114;0.0035484493958362257
19:05.3;-0.007640357467963238;-0.29201414572402545;-1.0157507062469842;1.114;0.002266233740965561
19:05.3;-0.004813691882056039;-0.2906801671499431;-1.0520638130653104;1.114;0.0014720947785476725
19:05.3;-0.0036581351452877266;-0.2877808059120481;-1.0897602420455088;1.1640000000000001;0.0011472353744202285
19:05.3;-0.0038399939838115894;-0.2834486028474355;-1.1279568707887857;1.194;0.0012277144250509096
19:05.3;-0.004990788783905428;-0.277767225593797;-1.1657835286384683;1.204;0.0016160995386094576
19:05.4;-0.0067497485847648;-0.27075975663528606;-1.2023484173262269;1.205;0.0021973642152283866
19:05.4;-0.008802712481305174;-0.2623986437547738;-1.2366787031756916;1.205;0.0028565049751864188
19:05.4;-0.010914576959643528;-0.2526402589302799;-1.2676564777226917;1.1909999999999998;0.003495513994913118
19:05.4;-0.012952114261473961;-0.24147567702901074;-1.2939816229757466;1.182;0.0040470835286001185
19:05.4;-0.014894673508591636;-0.22897889491052714;-1.3141975905209962;1.3530000000000002;0.004482157461875379
19:05.4;-0.016833631145067612;-0.21533505670010264;-1.3268021713970535;1.3530000000000002;0.00480948660383136
19:05.4;-0.018963785927726403;-0.20084368659748836;-1.3304325887013844;1.3530000000000002;0.005067294006273327
19:05.4;-0.021568223531294714;-0.18590124097513275;-1.3240881770791622;1.421;0.005309010355855302
19:05.4;-0.024994555318729392;-0.17096621537155177;-1.307351798110943;1.4580000000000002;0.0055866077700701304
19:05.4;-0.029616779247060424;-0.15650794557873068;-1.2805742350528866;1.456;0.005935796161011925
19:05.5;-0.03577579973075904;-0.1429450870668002;-1.2449797669865117;1.4040000000000001;0.006366795164088952
19:05.5;-0.043698030629572816;-0.1305870166829513;-1.202651688036237;1.311;0.006862806126360996
19:05.5;-0.053405692500261795;-0.11959414919982567;-1.1563763942045429;1.204;0.007385785693617686
19:05.5;-0.06464516683631318;-0.10996958233070712;-1.109355163621472;1.1;0.007886408073221452
19:05.5;-0.07685994778786438;-0.10158591708082433;-1.0648217430750242;0.871;0.008314009211041572
19:05.5;-0.08921952268461793;-0.09424043257604023;-1.0256287355504532;0.871;0.008623575035165407
19:05.5;-0.10069526144829338;-0.08772356425548986;-0.9938815137304323;0.871;0.008779300524093406
19:05.5;-0.11016525201846421;-0.08188373935023485;-0.9706880521619144;0.855;0.008756327239853917
19:05.5;-0.1165345828231618;-0.07667544499507331;-0.9560559935412015;0.866;0.008542686312872956
19:05.5;-0.11886175895710839;-0.07218298659513696;-0.9489333202341785;0.9;0.008141655020209793
19:05.6;-0.11647805531394823;-0.06861751090006336;-0.9473737422341868;0.9420000000000001;0.007571822326152263
19:05.6;-0.10908198194312992;-0.06628943568030905;-0.9488010072181211;0.991;0.0068607639781508144
19:05.6;-0.09679189088718819;-0.06556222620464615;-0.9503374642600246;1.047;0.0060307387645609075
19:05.6;-0.08014468902336351;-0.06679669283843888;-0.9491536182097218;1.0759999999999998;0.005081199146135058
19:05.6;-0.06003668374782624;-0.07029744085259912;-0.9427921746362138;1.012;0.003978983875530654
19:05.6;-0.03761654630830574;-0.07627165677339796;-0.9294279683143076;1.012;0.002666599764838352
19:05.6;-0.0141565715768609;-0.08480359585672623;-0.9080439697351746;1.012;0.0010901323695525161
19:05.6;0.009068250315570733;-0.0958419873415859;-0.8785199340835559;0.963;0.0007635384825160946
19:05.6;0.030877994615601676;-0.10919770920975119;-0.8416346072984576;0.904;0.002837828851841771
19:05.6;0.05026164361335688;-0.12455159913899515;-0.7989836784506877;0.845;0.00500177212618875
19:05.7;0.06643014511344834;-0.1414719039522684;-0.7528229164209841;0.7909999999999999;0.0070750290977780236
19:05.7;0.07885163867829445;-0.15943973613433718;-0.705853919803914;0.708;0.008874055099463115
19:05.7;0.08727077718562352;-0.17788235161488739;-0.6609738870721227;0.6459999999999999;0.010260913063985355
19:05.7;0.09170893096566181;-0.1962151548325418;-0.6210142923817854;0.614;0.011174954764107091
19:05.7;0.09243810311311047;-0.213888720553302;-0.5884971021123416;0.545;0.01163545139019025
19:05.7;0.08992733312512984;-0.23042955831709563;-0.565437100132263;0.545;0.011716939895824284
19:05.7;0.08477193610985692;-0.24546332305002938;-0.5532131530985775;0.545;0.011511481204996577
19:05.7;0.0776206114157293;-0.2587189667582318;-0.5525198777062121;0.597;0.011095662405095475
19:05.7;0.06911099771734419;-0.270021009279246;-0.5633953333638247;0.627;0.01051375770586864
19:05.7;0.05981859072677981;-0.27927753802927036;-0.5853055336866331;0.6509999999999999;0.009778107659065617
19:05.8;0.050221096419473574;-0.28646893777198995;-0.6172598788342362;0.6920000000000001;0.00888038463817632
19:05.8;0.040679223483222934;-0.2916415461651796;-0.657934330894611;0.774;0.007805569492851155
19:05.8;0.031434719863267215;-0.2949085777833398;-0.7057851438458698;0.774;0.006542888384963775
19:05.8;0.02262500696504205;-0.2964559563171769;-0.7591412907892526;0.838;0.005091802102331584
19:05.8;0.01431008762558626;-0.29654657545868246;-0.8162719761281877;0.838;0.003463937863515046
19:05.8;0.006504707200774114;-0.295515601490235;-0.8754369688435798;0.9390000000000001;0.00168280211340054
19:05.8;-0.0007903976813745837;-0.29375177533223895;-0.9349339380538669;0.9390000000000001;0.0002170736368739638
19:05.8;-0.007561273751602325;-0.29166442457850755;-0.9931550789733665;1.008;0.0021902590800575127
19:05.8;-0.01375824659189252;-0.28964035755972634;-1.048660867624359;1.099;0.004178854268578742
19:05.8;-0.019278294014863945;-0.287996436905106;-1.100272862605164;1.207;0.006108802939487861
19:05.9;-0.023953382487109393;-0.28693296959725373;-1.14717376418056;1.281;0.00788454268260595
19:05.9;-0.02754832675536531;-0.2864922880746761;-1.1889851629410493;1.315;0.009383926483161324
19:05.9;-0.029774616536382054;-0.2865276988357659;-1.2257866515738232;1.3359999999999999;0.01045749526395703
19:05.9;-0.03032572101474267;-0.2866897697593435;-1.2580509267017976;1.329;0.010937587821695105
19:05.9;-0.028932208080993223;-0.286437021966196;-1.2864913441917993;1.26;0.010661482495677556
19:05.9;-0.02542464011508251;-0.28507547200488775;-1.311843210394992;1.26;0.009508162559295728
19:05.9;-0.019784341181251757;-0.2818276061847786;-1.3346221670277176;1.232;0.007441550931518616
19:05.9;-0.012161975773339885;-0.27592621438975967;-1.354914536474404;1.229;0.004546832952256691
19:05.9;-0.0028535965542792903;-0.26672134883861087;-1.3722515765386256;1.268;0.0010444414260899462
19:05.9;0.00775943019616104;-0.25378358891178454;-1.3856048292148024;1.351;0.002728555259075846
19:06.0;0.019284399628651767;-0.2369881785531189;-1.3935139952694733;1.444;0.0063686024644793865
19:06.0;0.03137867517079168;-0.2165678694805311;-1.3943245981578694;1.5190000000000001;0.009475290126836674
19:06.0;0.043782726935044515;-0.19312221413834565;-1.3864815642109098;1.555;0.011723280019356389
19:06.0;0.05632405259307075;-0.16757377938789836;-1.3688090743345422;1.541;0.012919414604219975
19:06.0;0.06889869975737153;-0.1410741280581528;-1.3407137405921192;1.32;0.013031501583031398
19:06.0;0.0814370099973034;-0.11487927972434211;-1.3022809248582665;1.32;0.012183391588371915
19:06.0;0.09385911356744066;-0.09022408723166143;-1.2542792539494063;1.32;0.010621679294872287
19:06.0;0.10602699297227726;-0.0682193001211288;-1.1981103510323048;1.227;0.00866603670955617
19:06.0;0.11770287201314843;-0.049778538280371314;-1.1357259093222292;1.161;0.006654305463001378
19:06.0;0.12852535791113054;-0.035570668930095396;-1.0695140683552398;1.0859999999999999;0.004889532712540948
19:06.1;0.1380120828542561;-0.02599288223122169;-1.0021562058991809;1.002;0.0035950668421405184
19:06.1;0.14559053317957013;-0.021163053798318204;-0.9364629433657675;0.932;0.0028853737013424473
19:06.1;0.1506506862186588;-0.020930820598418904;-0.8752016019985366;0.879;0.002759722875474618
19:06.1;0.15260796709591445;-0.024906988404144;-0.8209261434920836;0.8390000000000001;0.003120344266727903
19:06.1;0.1509654039149263;-0.032511287004936634;-0.7758166739912185;0.72;0.003807769971168444
19:06.1;0.14536867525235864;-0.04303578995047293;-0.7415343198766625;0.72;0.004639080063141724
19:06.1;0.13565214094498515;-0.055715022431781905;-0.7191017565857747;0.72;0.00543487189464665
19:06.1;0.12187415788767732;-0.06979114700121067;-0.708820745506494;0.679;0.00602904303194443
19:06.1;0.10433732826609585;-0.08456803268483024;-0.7102312574334381;0.655;0.006266798360497049
19:06.1;0.08358768434303152;-0.09945410872010288;-0.7221144607150953;0.6559999999999999;0.0060030376304324885
19:06.2;0.060388464196231624;-0.11399379725304527;-0.7425492822245621;0.68;0.005111642684841387
19:06.2;0.03566891312867048;-0.12788447353106946;-0.7690365507187759;0.745;0.0035079603621350924
19:06.2;0.01045455227721445;-0.14097563916125158;-0.7986962447050342;0.825;0.0011771482285003899
19:06.2;-0.01421093468533708;-0.15324969283169987;-0.8285257877524729;0.893;0.001804381170620273
19:06.2;-0.037342768567550255;-0.1647876065053156;-0.855689539935721;0.975;0.005265592932410889
19:06.2;-0.05808371601698814;-0.17572619383746513;-0.8777993023521882;0.975;0.008959548551329376
19:06.2;-0.07575725101253791;-0.18621476790979374;-0.8931468005137169;1.018;0.012599728123205629
19:06.2;-0.0898994101904567;-0.19637766816050564;-0.9008599622239182;1.031;0.01590399486450443
19:06.2;-0.10026710554532918;-0.20628678917341456;-0.9009676282830542;1.0170000000000001;0.018635415546207044
19:06.2;-0.10682385645949888;-0.21594554642217806;-0.8943660050823615;1.016;0.020631356687375695
19:06.3;-0.1097059603399914;-0.22528267956137846;-0.8826867584361922;0.9470000000000001;0.021815473223153685
19:06.3;-0.10917292808898739;-0.23415278766680447;-0.8680765729075112;0.853;0.022190767694784713
19:06.3;-0.10554538240125505;-0.24234308725791026;-0.8529140373768994;0.7959999999999999;0.021816000557212462
19:06.3;-0.0991380463191198;-0.24959098185524603;-0.8395076824948113;0.7509999999999999;0.02077274646300211
19:06.3;-0.09020865169712958;-0.25561902099788014;-0.8298266571731606;0.807;0.019135012082426506
19:06.3;-0.07894916758692871;-0.2601878958675697;-0.8253047599005585;0.807;0.016953094942221268
19:06.3;-0.06552681858938963;-0.26315577672661034;-0.8267362500993675;0.807;0.014256042176385415
19:06.3;-0.050154721768238604;-0.2645245121153367;-0.8342628710016757;0.841;0.011068293407102766
19:06.3;-0.033162562712594226;-0.26445887918606203;-0.8474421318080516;0.904;0.007432181193801536
19:06.3;-0.015045368459301508;-0.26327819474303243;-0.8653796457630847;0.9420000000000001;0.0034278704132914045
19:06.4;0.003522037180057785;-0.2614283918260498;-0.8868979304189234;0.9620000000000001;0.00081662059599338
19:06.4;0.021708646148590558;-0.25944246751342603;-0.9107090802203688;0.992;0.0051292453405026635
19:06.4;0.038583664292129005;-0.2578916283222763;-0.935566077768009;1.008;0.009309260452719598
19:06.4;0.053196003917960706;-0.2573266850348942;-0.9603800225832346;1.024;0.013146403326147093
19:06.4;0.06466890210707585;-0.25821303758912223;-0.9842989750163899;1.068;0.016436172382768077
19:06.4;0.07230087942510773;-0.2608673074691064;-1.0067475395774412;1.068;0.0189882006536717
19:06.4;0.0756561210547007;-0.2654032806483624;-1.027428224448186;1.068;0.020630124545320545
19:06.4;0.07462261639970601;-0.27169136460878207;-1.0462895689847171;1.068;0.021212810036805554
19:06.4;0.06942451601992698;-0.27933461959709477;-1.063472200892137;1.08;0.02062356626828645
19:06.4;0.060589740017124416;-0.2876663335729327;-1.0792474167132557;1.103;0.018810881384892397
19:06.5;0.04888539159806571;-0.2957757135800982;-1.0939595435009901;1.1340000000000001;0.015817683107381637
19:06.5;0.035238938901240024;-0.3025668473833161;-1.1079751129553488;1.166;0.011813379841496418
19:06.5;0.02066067438610887;-0.3068510493349067;-1.1216339784324947;1.172;0.007110878583324545
19:06.5;0.006173695442280638;-0.30746538407298535;-1.1351950591599433;1.159;0.0021548245825894923
19:06.5;-0.0072505784291457065;-0.30340390225542124;-1.1487747803286321;1.175;0.002527136553227128
19:06.5;-0.018753193720335754;-0.2939455958470268;-1.1622856421756866;1.175;0.006407005111179922
19:06.5;-0.027640971812031432;-0.2787633113444334;-1.1753882221751617;1.175;0.009056705740532788
19:06.5;-0.03342690126106028;-0.2579987780325957;-1.1874699075994086;1.1840000000000002;0.010240858848676844
19:06.5;-0.03585720902585767;-0.23229093062493664;-1.197661032360068;1.182;0.009975683371493644
19:06.5;-0.03492957447687928;-0.20274940383774193;-1.2048957170041157;1.187;0.008533011706794831
19:06.6;-0.03090553827812091;-0.17087252672625383;-1.2080199252737298;1.225;0.006379441381350105
19:06.6;-0.024313200235109876;-0.1384174727897128;-1.2059413440805262;1.275;0.004058440909787527
19:06.6;-0.01592893808683187;-0.10723687939722996;-1.1978025130545054;1.308;0.0020460498546279837
19:06.6;-0.0067246434506334175;-0.07909993714406315;-1.1831430040367714;1.315;0.0006293360947974186
19:06.6;0.002226822744841059;-0.05551781873562535;-1.1620096021790474;1.172;0.00014365731992964554
19:06.6;0.009880205444890856;-0.037595394672317047;-1.1349870256985295;1.172;0.00042159118396154464
19:06.6;0.015355315505441296;-0.025931620673295856;-1.1031502168066094;1.172;0.0004392614179198759
19:06.6;0.018052439178443645;-0.020584550261707617;-1.0679572256818939;1.088;0.0003968543378509244
19:06.6;0.017725142455579438;-0.02110421336989346;-1.0310979823676707;1.012;0.000385708172007175
19:06.6;0.014503279496462495;-0.026624673725195027;-0.9943098115444763;0.94;0.00038394784623642587
19:06.7;0.008865369461818035;-0.035998362462340935;-0.9591803158654376;0.8759999999999999;0.00030611163892177743
19:06.7;0.0015639561097889612;-0.04795013407988493;-0.9269696115616721;0.833;6.951521719591207e-05
19:06.7;-0.006484559365154708;-0.06122728745349549;-0.8984844777143178;0.813;0.00035672707141941323
19:06.7;-0.014326621675060875;-0.07472626901761688;-0.8740285200306182;0.8140000000000001;0.000935713070074651
19:06.7;-0.02109396754576213;-0.0875834496173288;-0.853438336241538;0.884;0.0015767123430497855
19:06.7;-0.026104525427763106;-0.0992234214276374;-0.8361961948646255;0.884;0.0021658989340254254
19:06.7;-0.028929809478856535;-0.10936427915411412;-0.8215894278593503;0.884;0.00259941673432038
19:06.7;-0.029422575039673965;-0.11798541552901363;-0.8088769022059986;0.884;0.0028079633803107613
19:06.7;-0.02770482148389976;-0.1252681086577876;-0.797428776434317;0.8690000000000001;0.0027675009603585475
19:06.8;-0.024122640210149413;-0.1315221193353383;-0.7868187872974937;0.836;0.0024963090951536726
19:06.8;-0.019179397894052586;-0.1371122309490304;-0.7768605462743837;0.799;0.0020429335103888187
19:06.8;-0.013460450412232428;-0.14239598889432617;-0.7675914498445219;0.764;0.0014712533913501568
19:06.8;-0.0075608640976560625;-0.14767851233059187;-0.7592197502721029;0.737;0.0008477274339987493
19:06.8;-0.002024556280154195;-0.1531851421325691;-0.7520576902591599;0.73;0.00023323711162324658
19:06.8;0.002700017159496523;-0.1590497856387871;-0.7464628177061267;0.768;0.0003205588653443625
19:06.8;0.006286411628834317;-0.16531537087338224;-0.742800054329371;0.768;0.0007719478774907359
19:06.8;0.008541398206844466;-0.17194201938130693;-0.7414230079382316;0.768;0.001088872554855897
19:06.8;0.009404845531845944;-0.1788195987960099;-0.7426637181917803;0.764;0.0012489900847305496
19:06.8;0.008941898261496566;-0.18578432731881858;-0.7468209919877714;0.77;0.0012406672417731915
19:06.9;0.007329825409799592;-0.19264083538640964;-0.7541439133729934;0.778;0.001064869071487966
19:06.9;0.0048403472923128155;-0.19918942512961266;-0.7648117679982636;0.787;0.0007373902027258256
19:06.9;0.001816614951210701;-0.20525536548978943;-0.7789131096952365;0.797;0.0002904333045459479
19:06.9;-0.0013568692809796852;-0.2107158593681824;-0.7964272372901577;0.809;0.00022770959883702363
19:06.9;-0.004292435393215312;-0.21552108424890992;-0.8172122772106879;0.823;0.0007560115194620027
19:06.9;-0.006644184080656603;-0.21970677382298787;-0.841004408083136;0.899;0.0012276748962460587
19:06.9;-0.0081543604378666;-0.22339583423082707;-0.867429712578463;0.899;0.001580153468319612
19:06.9;-0.008691814745876198;-0.22678595240275218;-0.8960245950142546;0.899;0.001766227092022358
19:06.9;-0.008272567079550817;-0.23012088592614202;-0.9262605022911636;0.9359999999999999;0.0017633132865305342
19:06.9;-0.007056644300087104;-0.23364581716865598;-0.9575757307232281;0.993;0.0015788081798846713
19:07.0;-0.005321380890900593;-0.23755057825636186;-0.9894195453663749;1.046;0.001250722385654683
19:07.0;-0.003416290982222621;-0.24190798531803728;-1.021304549474106;1.0859999999999999;0.0008440347464475459
19:07.0;-0.0017076407724235868;-0.24661842665201658;-1.0528518076828584;1.11;0.00044339346258044556
19:07.0;-0.0005216257151975422;-0.2513751609350132;-1.0838111235150794;1.125;0.0001421133767538641
19:07.0;-9.380843226603013e-05;-0.2556644649389609;-1.114046868274836;1.1340000000000001;2.6718723727707877e-05
19:07.0;-0.0005303693666443636;-0.25880891459083555;-1.1434912216799409;1.195;0.000156960545099603
19:07.0;-0.001784894763157659;-0.26005121501690215;-1.1720740328065438;1.195;0.0005440346321197795
19:07.0;-0.0036536609365530595;-0.2586641351339082;-1.1996394991852832;1.195;0.0011337445565891208
19:07.0;-0.005792487727799584;-0.25406667513850467;-1.2258605261922404;1.198;0.0018040720873334127
19:07.0;-0.00775768243718877;-0.24592937017698224;-1.2501673549401042;1.196;0.0023851217315398313
19:07.1;-0.00907024658256548;-0.23425500557597217;-1.271713721964827;1.23;0.002702074574875676
19:07.1;-0.009295173803177447;-0.21942111869439215;-1.2894031313753147;1.286;0.0026298117424732757
19:07.1;-0.008119164286296707;-0.20217216120378043;-1.3019855689798434;1.3430000000000002;0.0021371689381176648
19:07.1;-0.005406723718504683;-0.18355541562181865;-1.3082138209954761;1.3940000000000001;0.0012983151155492923
19:07.1;-0.0012192397522162507;-0.1648052377638214;-1.3070272089150499;1.425;0.00026263025339282774
19:07.1;0.004208134667008093;-0.1471932734265377;-1.2977195113994646;1.331;0.0008038192962239957
19:07.1;0.010523438976515245;-0.13187338015911487;-1.2800549810131656;1.331;0.0017764109805075722
19:07.1;0.017327745630411617;-0.11975229273185363;-1.254318414633252;1.331;0.0026027574551940446
19:07.1;0.0242343666899775;-0.11140748071292814;-1.2213035807722177;1.25;0.0032973850066681646
19:07.1;0.03090424068005369;-0.10705781911293881;-1.1822479759476308;1.175;0.003911515437796313
19:07.2;0.037057678716811676;-0.1065806883624451;-1.1387237320188;1.112;0.004497540723681035
19:07.2;0.042470045618208704;-0.10956428967636486;-1.0925039045056737;1.0659999999999998;0.0050836395843422075
19:07.2;0.04696060146635506;-0.11538212622888928;-1.0454291679884573;1.036;0.005664568088110268
19:07.2;0.05038244263865696;-0.12327527809772094;-0.9992931195543803;1.011;0.006206519256957702
19:07.2;0.052618761202761224;-0.13242944511607338;-0.9557504827137543;0.985;0.006659930616774853
19:07.2;0.05358755855866761;-0.14203913026260923;-0.9162415216527087;0.8759999999999999;0.006974000022238026
19:07.2;0.05325382585372555;-0.1513578561054731;-0.8819257484395264;0.8759999999999999;0.007108660995021657
19:07.2;0.05164540772708156;-0.15973725277326148;-0.853627016588378;0.8759999999999999;0.007042162998981259
19:07.2;0.048867584778813915;-0.16665914807955123;-0.8317963853654815;0.8420000000000001;0.006774341115463408
19:07.2;0.045111972779548606;-0.17176438004218836;-0.8164925952353188;0.8109999999999999;0.006326699048395197
19:07.3;0.04065595339135268;-0.17487891202289754;-0.8073759284028025;0.7959999999999999;0.0057403370009993775
19:07.3;0.035849280379002;-0.1760327841304529;-0.8037177685020774;0.79;0.005071980438071018
19:07.3;0.03108665830317219;-0.17546463298252812;-0.8044352896605305;0.792;0.004387880043153806
19:07.3;0.026769328999882123;-0.17360601506210827;-0.8081600517741602;0.8009999999999999;0.003755775570369582
19:07.3;0.023262514880395727;-0.17104346745922816;-0.813343654928843;0.8270000000000001;0.0032362140502735165
19:07.3;0.02085669023268389;-0.1684599619517129;-0.8183963248993769;0.883;0.002875449599171736
19:07.3;0.01973940167450572;-0.1665613013246692;-0.8218447859656945;0.883;0.0027020780778138393
19:07.3;0.01998210795748482;-0.1659970070390064;-0.8224867097802293;0.878;0.002728163836550068
19:07.3;0.021543315789212085;-0.16728735781342183;-0.8195181161129793;0.882;0.0029534813159850415
19:07.3;0.024284790643594612;-0.1707670894750062;-0.8126187681932047;0.873;0.0033699649878884057
19:07.4;0.027993781890769898;-0.17655262603210178;-0.8019902823765601;0.856;0.003963737287573024
19:07.4;0.03240432491185146;-0.18453529290473628;-0.7883467010707369;0.841;0.0047141095549347685
19:07.4;0.037214786515486264;-0.19439934743314816;-0.7728598969710538;0.8240000000000001;0.0055912782754198405
19:07.4;0.04210307158187806;-0.2056609475509935;-0.7570645349751245;0.799;0.0065553897060397
19:07.4;0.04674253736728892;-0.21772182621111247;-0.742729441796583;0.77;0.007558661418003825
19:07.4;0.0508210244664051;-0.22993021596959684;-0.7317052334108394;0.74;0.008550187211332492
19:07.4;0.05406324753875315;-0.24164147400806746;-0.7257627264979775;0.74;0.009481308248178423
19:07.4;0.05625377072871003;-0.2522710407150253;-0.7264401373483513;0.74;0.01030905530548939
19:07.4;0.05725625944816065;-0.26133449122264524;-0.7349148169579552;0.7559999999999999;0.010996556445788338
19:07.4;0.05702595216259469;-0.2684740633197354;-0.7519078255393238;0.7759999999999999;0.011511700607022531
19:07.5;0.05561407031395155;-0.2734739564175825;-0.7776229680547829;0.794;0.01182686759769129
19:07.5;0.05316336228066452;-0.27626583926123777;-0.8117199317715148;0.8190000000000001;0.011921909945576226
19:07.5;0.0498944603670611;-0.27692467121205566;-0.8533229468133036;0.853;0.011790369157071512
19:07.5;0.04608430311864344;-0.27565491071506176;-0.9010691931601285;0.8959999999999999;0.011446610365774842
19:07.5;0.04203921959974205;-0.2727667654359735;-0.9532025542998366;0.953;0.010930280230241647
19:07.5;0.0380652923855621;-0.2686413268371049;-1.0077143640907784;1.157;0.010304797050835986
19:07.5;0.03443903811229907;-0.2636851449810501;-1.0625172730759402;1.157;0.009648786037889216
19:07.5;0.03138357490371937;-0.25827934107163614;-1.115617191778912;1.157;0.009042890676294199
19:07.5;0.02905631741030137;-0.25273084900773035;-1.165246443938035;1.218;0.008556903093145107
19:07.5;0.02755114332835714;-0.24723152449740862;-1.209945899477748;1.266;0.008241560005415333
19:07.6;0.0269133269816999;-0.2418294041085949;-1.2486054411382141;1.295;0.008126465889136137
19:07.6;0.027162784121970724;-0.2364183145169587;-1.280471790131716;1.325;0.008222907671083605
19:07.6;0.02832019935012448;-0.23075341294365068;-1.3051253732321808;1.3430000000000002;0.008528971677045683
19:07.6;0.030429049894421217;-0.22449657939525341;-1.3224276169562754;1.3319999999999999;0.009033790832234984
19:07.6;0.033563552277736206;-0.21728666404775485;-1.3324457991289758;1.297;0.00971741036823955
19:07.6;0.03781214850535619;-0.20881987782850445;-1.335371611634825;1.3019999999999998;0.010543998407613036
19:07.6;0.043234658416636616;-0.19892206441351165;-1.3314571232952896;1.3019999999999998;0.011450967321135751
19:07.6;0.04980674296833483;-0.18759927501716211;-1.3209898269568219;1.3019999999999998;0.012342944365728019
19:07.6;0.057374807280320565;-0.17505940592563604;-1.3043161487049761;1.341;0.013100550977069221
19:07.6;0.0656391714699986;-0.16170006957010888;-1.281906655610835;1.361;0.01360597597236492
19:07.7;0.07416951962452314;-0.1480603181615828;-1.2544401428923806;1.35;0.013775713049325289
19:07.7;0.08244543080804637;-0.13474223377073127;-1.2228719412400917;1.315;0.013584739498688547
19:07.7;0.0899109692878273;-0.1223200645641064;-1.1884518594641456;1.2570000000000001;0.01307049320738582
19:07.7;0.09603445600246928;-0.11126086876431611;-1.152670912068721;1.188;0.012316146924013217
19:07.7;0.1003685541907064;-0.101876592731201;-1.1171359790793032;1.111;0.011422945871688732
19:07.7;0.10260765390581675;-0.09431563144233085;-1.0833909657115137;0.978;0.01048452221235508
19:07.7;0.10263763196007081;-0.08858815803135343;-1.05272028118292;0.978;0.00957183679692182
19:07.7;0.10056956227991447;-0.08460954389849332;-1.0259804567841828;0.978;0.008730216263180482
19:07.7;0.09674811369483025;-0.0822441114429187;-1.0034974265959051;0.961;0.007984791537385669
19:07.7;0.09172872081541371;-0.08133725185114907;-0.9850423992003552;0.951;0.007349363974768357
19:07.8;0.08622267417489979;-0.08173302285176173;-0.9698782852351139;0.953;0.006834964851581585
19:07.8;0.081013861990612;-0.08328187397601021;-0.9568620888457959;0.955;0.006455935351433321
19:07.8;0.0768554971904868;-0.08584660669981688;-0.9445884669054714;0.956;0.006232190333510506
19:07.8;0.07436092692807911;-0.08931318746262223;-0.931558627897802;0.9590000000000001;0.006186864097257492
19:07.8;0.07390873870075912;-0.09360773441868171;-0.9163578453505681;0.9670000000000001;0.0063397572263643835
19:07.8;0.07558442446542575;-0.09871501894235954;-0.8978251155393817;0.951;0.006698958599225765
19:07.8;0.07917283919974755;-0.10468996572925017;-0.8751994291478691;0.951;0.007254179583493869
19:07.8;0.08419933969049835;-0.11165320470165258;-0.8482284677428255;0.951;0.007974302795518117
19:07.8;0.09000574960862207;-0.11976520394375666;-0.8172259701140573;0.903;0.00880933389239092
19:07.8;0.09584755545841712;-0.12918002361537043;-0.7830647057916704;0.84;0.00969558572150527
19:07.9;0.10100185552030681;-0.13998678600651887;-0.7470990542982163;0.77;0.010563177597138727
