Time;AccX;AccY;AccZ;Acc-old;Acc-trns
17:35.8;-0.02076307936610563;-0.09979532711230953;-0.796971222630224;0.802;0.0016513708344800704
17:35.8;-0.02063242882468999;-0.10374390265136173;-0.7897950727339619;0.7979999999999999;0.001690547418590628
17:35.8;-0.020506073645386834;-0.1082030603223449;-0.7820454826501118;0.787;0.001735218098085966
17:35.8;-0.020476962904949676;-0.1136495913240578;-0.7737204528936378;0.775;0.0018006010508589783
17:35.8;-0.020600327609716706;-0.12046420721431524;-0.7649022845913305;0.773;0.0018981831416359995
17:35.8;-0.020881796817138646;-0.12888920778505494;-0.7557811574126116;0.777;0.0020341383148502652
17:35.8;-0.021276820723821248;-0.13900194446676314;-0.7466784980607961;0.777;0.002208316182914091
17:35.8;-0.021703897468533413;-0.15070691208257214;-0.7380654357206998;0.7829999999999999;0.002414158432807554
17:35.9;-0.02206980454781769;-0.1637476026967718;-0.7305683865250209;0.78;0.002640184717608115
17:35.9;-0.022300751921965324;-0.1777368077088296;-0.7249533704496908;0.7659999999999999;0.0028734719067934154
17:35.9;-0.022370209669212097;-0.1922002876563149;-0.7220842086030523;0.752;0.0031046449094851458
17:35.9;-0.022313373380730975;-0.20662600403936557;-0.7228564551141116;0.7490000000000001;0.0033327464408865106
17:35.9;-0.02222118996881797;-0.22051116421841585;-0.7281156089263636;0.748;0.003567781388515174
17:35.9;-0.022213392360192756;-0.2334014065481589;-0.7385713880996846;0.752;0.003829224561448463
17:35.9;-0.022398142695655678;-0.24491953018673893;-0.7547193851075883;0.764;0.004140196271421434
17:35.9;-0.022832197550295148;-0.2547841040244267;-0.776779175741859;0.8170000000000001;0.004518742736945746
17:35.9;-0.02349620094482261;-0.26281929804309806;-0.8046543313217367;0.8170000000000001;0.004968945714146004
17:35.9;-0.02429418627960865;-0.2689564544127665;-0.8379156528672687;0.85;0.005475006404698915
17:36.0;-0.02507804248097727;-0.2732275390090522;-0.8758079744867187;0.894;0.00600104660220318
17:36.0;-0.025689890753269107;-0.27575129232035533;-0.917282848522325;0.951;0.006498050571827436
17:36.0;-0.026009576624055876;-0.27671295030207055;-0.9610582627879528;1.0070000000000001;0.006916915731245621
17:36.0;-0.025992661617634742;-0.2763376426136032;-1.005700535588931;1.056;0.007223696363441135
17:36.0;-0.02568757753304274;-0.27485800643169545;-1.049718030117451;1.094;0.007411467337922747
17:36.0;-0.0252273579058711;-0.27247931461579916;-1.0916556209505701;1.126;0.0075039678068226446
17:36.0;-0.024798822027554093;-0.2693487757813879;-1.1301826136781778;1.162;0.007549091333926359
17:36.0;-0.024598438497287673;-0.2655361383679443;-1.164171454954875;1.237;0.007604105269956732
17:36.0;-0.024787844434296876;-0.26102867067927116;-1.192765339828426;1.237;0.0077175950008106856
17:36.0;-0.025461467426720296;-0.25573775322898634;-1.2154298133587653;1.263;0.007914220757288308
17:36.1;-0.02663350476678187;-0.24951181799667443;-1.2319826483681553;1.287;0.008186985698900374
17:36.1;-0.028243446947277002;-0.2421535890553405;-1.2425988217390642;1.306;0.008498446533410746
17:36.1;-0.03017161857013327;-0.23344552874018246;-1.2477875241666023;1.315;0.008788703395122355
17:36.1;-0.03225305937859673;-0.22318992034599197;-1.2483353545901696;1.3030000000000002;0.008986214145907473
17:36.1;-0.0342830434482839;-0.21126463102927284;-1.245210666527927;1.265;0.009018804997579474
17:36.1;-0.036019028503715904;-0.19768400746364978;-1.2394325343536843;1.203;0.008825237941070355
17:36.1;-0.03719347054417249;-0.18264505305257892;-1.231922509135873;1.15;0.008368700178522181
17:36.1;-0.037550786905373154;-0.1665408117025202;-1.2233713391079863;1.169;0.007650644481454494
17:36.1;-0.03690814736477526;-0.14993624524775562;-1.2141551611381445;1.169;0.006718975649817054
17:36.1;-0.03522246980819374;-0.13351664596942484;-1.204321677705477;1.169;0.005663667163405406
17:36.2;-0.03263862901701822;-0.11802231561962129;-1.1936464553640362;1.21;0.004598029486288532
17:36.2;-0.029500698716455536;-0.10417632146826455;-1.1817441760552188;1.24;0.00363182397356632
17:36.2;-0.026319947158975024;-0.09260799431836828;-1.1682087340943959;1.245;0.002847435796119824
17:36.2;-0.02370242408822306;-0.08377979570103318;-1.1527478430562927;1.228;0.002289108508346584
17:36.2;-0.022246113604863733;-0.07793143340533054;-1.135278659848827;1.196;0.001968200280893648
17:36.2;-0.022424643603729994;-0.0750546461878033;-1.115963285665772;1.158;0.0018782484468571013
17:36.2;-0.02448005975453035;-0.07490483326389626;-1.0951798018202623;1.111;0.0020082035977183944
17:36.2;-0.028348110612286682;-0.07704595214765901;-1.0734395184393541;0.998;0.0023445069527680434
17:36.2;-0.03363281129849015;-0.08091702951215161;-1.0512747307655197;0.998;0.002861009681584709
17:36.2;-0.03963466105772622;-0.08590491357925434;-1.029131256084445;0.998;0.0035039985870701476
17:36.3;-0.0454273349741055;-0.09141018079967315;-1.0072962802398548;0.9840000000000001;0.004182818859442123
17:36.3;-0.04997472879423989;-0.09689989977993128;-0.9858734795889822;0.973;0.004774137883790341
17:36.3;-0.052276502238614075;-0.10194704858211961;-0.9647999295452906;0.9670000000000001;0.005141838621946972
17:36.3;-0.05152132613703785;-0.10625843602170225;-0.9438936346634655;0.965;0.005167417001939508
17:36.3;-0.047219810327290404;-0.10969190333672628;-0.9229207638540659;0.961;0.004780388879022213
17:36.3;-0.03929005394457943;-0.11226115104092206;-0.9016708356349677;0.9540000000000001;0.003977041644980791
17:36.3;-0.028076719838861102;-0.11412453110040698;-0.8800263667467177;0.9359999999999999;0.0028198178735238774
17:36.4;-0.014297381732434514;-0.11555510915081024;-0.8580140467212684;0.85;0.0014175554718031877
17:36.4;0.0010714415602914287;-0.11689432798143218;-0.835830807810084;0.85;0.00010468399826066701
17:36.4;0.01693706439628278;-0.11849771494797236;-0.8138483950537077;0.85;0.0016333965194662962
17:36.4;0.03222663814958967;-0.1206832463991019;-0.7926040095102522;0.825;0.0030826076504740503
17:36.4;0.045995728733837206;-0.12369007531728;-0.7727781928994434;0.8029999999999999;0.004396501403685277
17:36.4;0.05750512980600722;-0.12765114859928256;-0.7551550385142073;0.778;0.005543287956993278
17:36.4;0.06626646609432561;-0.1325809457032739;-0.7405622270176057;0.752;0.006506335891427336
17:36.4;0.07205698604198216;-0.13837893335607734;-0.7297947715896376;0.728;0.007276906907484058
17:36.4;0.07490651692459074;-0.14484870861812058;-0.7235311696293591;0.7140000000000001;0.007850394402227788
17:36.4;0.07506362121380751;-0.15173082403575117;-0.7222533779354522;0.705;0.0082260796427097
17:36.4;0.07294974117161834;-0.15874397547460642;-0.7261827746028406;0.72;0.008409437566975538
17:36.4;0.06910860525085957;-0.16562623490304035;-0.735242534444851;0.72;0.00841573169131747
17:36.4;0.06415513772974868;-0.17216736854006795;-0.7490532596850071;0.743;0.008273608785357168
17:36.5;0.05872546912129344;-0.17822603091393252;-0.7669648296705183;0.7709999999999999;0.008027366272968569
17:36.5;0.05342828547570629;-0.1837304389969719;-0.7881234907859181;0.8079999999999999;0.007736537283342469
17:36.5;0.04879792589295276;-0.18866514467988424;-0.8115682269910954;0.851;0.007471676707640601
17:36.5;0.0452508093329862;-0.1930485491437418;-0.836344831954728;0.894;0.007305976497754748
17:36.5;0.0430481444403284;-0.19690664127054325;-0.8616215711380694;0.93;0.007303505551683744
17:36.5;0.04226934568279295;-0.2002485388219388;-0.8867883592254502;0.961;0.00750610896089595
17:36.5;0.04280209468817354;-0.20304865498971322;-0.9115228925320914;0.982;0.007921961377550645
17:36.6;0.04435508856654453;-0.20523899712397195;-0.9358119474656159;1.001;0.008519064769185626
17:36.6;0.0464956840228996;-0.20671335877870092;-0.9599227848733249;1.001;0.009226085716436783
17:36.6;0.048707489265079576;-0.20734294717705992;-0.9843273444651959;1.001;0.00994087380612297
17:36.6;0.05045829480094771;-0.20700125607893785;-1.0095900495722188;1.012;0.010545097803744472
17:36.6;0.051269613686863474;-0.20559520793661817;-1.0362365935538196;1.028;0.010922749096934487
17:36.6;0.05078066175776039;-0.20309804404776086;-1.064623541985386;1.045;0.01097994494648172
17:36.6;0.04879844030464652;-0.19957646511287117;-1.0948270546178223;1.065;0.010662542821256166
17:36.6;0.04532544720518291;-0.19520251966529628;-1.1265661370984643;1.082;0.00996745330642021
17:36.6;0.04056089272663608;-0.19024185033196497;-1.1591735172274817;1.105;0.008944622514236668
17:36.6;0.03487834477625386;-0.18501381043533743;-1.1916251675889413;1.148;0.0076895279743753025
17:36.7;0.028788281224877362;-0.1798254138081347;-1.2226334729355057;1.3219999999999998;0.0063294079253609775
17:36.7;0.022894919302782032;-0.17489195297461577;-1.2507917579675611;1.3219999999999998;0.00500834174506649
17:36.7;0.017852820484924134;-0.17026998888085118;-1.2747339747745292;1.3219999999999998;0.00387493575710186
17:36.7;0.0143230611851643;-0.16583165602740832;-1.293266294171574;1.3419999999999999;0.0030717880301745037
17:36.7;0.012924370975011408;-0.16129555891183672;-1.3054474603260902;1.328;0.002721392745520828
17:36.7;0.014173862298562002;-0.1563078256958223;-1.3106208759145717;1.3019999999999998;0.002903661674502914
17:36.7;0.018417526646693248;-0.15055054589234043;-1.3084152819525514;1.295;0.003627932928161309
17:36.7;0.02576206024259481;-0.14384865576088957;-1.2987351715902138;1.306;0.004812901807336861
17:36.7;0.036028790248528925;-0.13624787904899033;-1.281758968469537;1.319;0.006291957713546873
17:36.7;0.04874912128788821;-0.1280423493984854;-1.25795049859058;1.318;0.007852066656760097
17:36.8;0.06320921264298589;-0.11974172598404903;-1.2280739551203015;1.232;0.009295021860167377
17:36.8;0.07853460555408459;-0.11198574724880284;-1.1931967744756;1.232;0.010493875073617853
17:36.8;0.09379031364802969;-0.1054324483667697;-1.154670777800989;1.232;0.011418010945479604
17:36.8;0.1080694398065614;-0.10065087518047607;-1.1140867616104295;1.163;0.012118237768879353
17:36.8;0.12055638026565679;-0.09803810516062073;-1.073195200140652;1.08;0.012684221873273846
17:36.8;0.13056595135661744;-0.09776793036751552;-1.0337887141084887;1.0070000000000001;0.013196481278371605
17:36.8;0.13756680857291964;-0.09977341918565193;-0.9975575336879601;0.955;0.013691986759892584
17:36.8;0.14119821232940258;-0.10376313448809678;-0.9659438493028322;0.9309999999999999;0.014152206672811515
17:36.8;0.14128590731557053;-0.10926696204061856;-0.9400219244273811;0.92;0.01451194742595332
17:36.8;0.13785580406891004;-0.11570343357227914;-0.9204204038509048;0.92;0.01468106428447325
17:36.9;0.1311378728415411;-0.12245740856585507;-0.9072902171014628;0.903;0.014569995833794501
17:36.9;0.12155350745274988;-0.12895585297780054;-0.9003125010757159;0.903;0.014112431078097157
17:36.9;0.10968664897014986;-0.13473134825145258;-0.898738267335014;0.903;0.013281760915189858
17:36.9;0.09624343563850611;-0.13946768717222466;-0.901453165463606;0.898;0.012100070057743675
17:36.9;0.0820030492489541;-0.14302670428304093;-0.9070636208849495;0.903;0.01063860985439811
17:36.9;0.0677603392946455;-0.14545734764628568;-0.914003096759887;0.925;0.009008633178088414
17:36.9;0.054263877032432115;-0.14698756977416727;-0.9206570929306161;0.958;0.007343267227650422
17:36.9;0.0421575856010586;-0.14799963807152638;-0.9255005259339264;0.986;0.005774482290275518
17:36.9;0.03193503436328259;-0.14899027303872717;-0.9272331762617185;0.995;0.004411784251434619
17:36.9;0.02391298963799828;-0.15051763180551142;-0.9248938215960912;0.988;0.0033289949062233247
17:37.0;0.018227640694180664;-0.15313838865017773;-0.9179364162313585;0.93;0.0025622832151179827
17:37.0;0.014853262888639675;-0.15734080771648984;-0.9062626283073866;0.93;0.002117957857149553
17:37.0;0.0136375298823445;-0.16348204316915124;-0.890217940719666;0.93;0.0019847331084892543
17:37.0;0.014343171600000816;-0.17173796114101247;-0.8705629180371918;0.907;0.002144428948236547
17:37.0;0.0166863360683773;-0.18207190056462544;-0.8484249612612315;0.882;0.0025776108376710824
17:37.0;0.020366023578606285;-0.19422627378829396;-0.8252292412331386;0.8590000000000001;0.0032642907095241777
17:37.0;0.025082618131529514;-0.20773821492071937;-0.8026077903399302;0.838;0.0041820828530556116
17:37.0;0.03054653812622759;-0.2219777792895777;-0.7822890492443161;0.815;0.005304430352565532
17:37.0;0.03648057751696868;-0.23620504927106137;-0.7659721070557615;0.792;0.006600302452514942
17:37.0;0.042621130996031646;-0.24964168230033576;-0.7551913288162626;0.775;0.008035243927440894
17:37.1;0.0487241031053875;-0.26155236524213027;-0.7511796033975346;0.768;0.009572961061578324
17:37.1;0.05457937203495289;-0.27132904224968235;-0.7547420630103819;0.768;0.011176951618512454
17:37.1;0.06003239447706143;-0.2785649975074374;-0.7661555506819568;0.768;0.012812360906691158
17:37.1;0.0650073436486591;-0.2831037955969204;-0.785109869739215;0.784;0.014449025220491227
17:37.1;0.06952651725884659;-0.2850540303074821;-0.8107040218635668;0.815;0.016067192184216626
17:37.1;0.07372135192087187;-0.2847685048356502;-0.8415057298996669;0.862;0.017666166664714256
17:37.1;0.07782802853869944;-0.28279067616777215;-0.8756754853226745;0.9229999999999999;0.019272777497392403
17:37.1;0.0821601146328454;-0.2797746956631042;-0.9111457553440537;0.9840000000000001;0.020943888871218275
17:37.1;0.08705662515349996;-0.27638979402312325;-0.9458340090795231;1.03;0.022758244308080027
17:37.1;0.09281409358942624;-0.2732227080095469;-0.9778606134261032;1.067;0.024797487103434938
17:37.2;0.09961909819647165;-0.2706921187238498;-1.0057427056755959;1.1340000000000001;0.02712096315899408
17:37.2;0.10749712127375749;-0.2689872333103173;-1.028539828996243;1.1340000000000001;0.02974059247709443
17:37.2;0.11628520559398628;-0.26803913995036255;-1.0459327229747388;1.1340000000000001;0.03260066291850399
17:37.2;0.12562827246707411;-0.2675291949994237;-1.0582252331594337;1.133;0.03556613589041179
17:37.2;0.13499825414140162;-0.26693472137259255;-1.0662716556892768;1.1320000000000001;0.03842386827317618
17:37.2;0.14373683969875964;-0.2656087437017715;-1.0713416860476892;1.1320000000000001;0.04090142728499792
17:37.2;0.15112002093744142;-0.2628857602409462;-1.074938381103892;1.126;0.04270440125868008
17:37.2;0.15643595867170196;-0.2581988728610399;-1.078584948140972;1.102;0.04356575906831011
17:37.2;0.15906176363010993;-0.2511878412555441;-1.0835988793756421;1.058;0.04329452251301527
17:37.2;0.15852391512636574;-0.24177763088313642;-1.0908785889839265;1.025;0.0418106890864244
17:37.3;0.15453208867449994;-0.2302138892760929;-1.100735183974574;1.045;0.03915913095522784
17:37.3;0.14698525164399648;-0.2170521005881336;-1.1128021886964201;1.045;0.03550223747186633
17:37.3;0.13595832608416156;-0.20310613947572342;-1.126044735858435;1.045;0.031094566388528967
17:37.3;0.12168136131043777;-0.1893646852705464;-1.1388751438788502;1.109;0.02624213495764528
17:37.3;0.10451947802342867;-0.17688158537518278;-1.1493702709721527;1.2009999999999998;0.021249064461578655
17:37.3;0.08495819481571756;-0.16664781794240863;-1.1555691753047233;1.2830000000000001;0.0163606613782516
17:37.3;0.06359858288317266;-0.15946091273672094;-1.1558036022835598;1.338;0.011721568449962196
17:37.3;0.04116379420760829;-0.15581383764914494;-1.1489935049187894;1.347;0.007369516512364175
17:37.3;0.018509764752104998;-0.15582352562458465;-1.1348400032316248;1.304;0.003273169998678038
17:37.3;-0.0033758701081402914;-0.1592120632660468;-1.1138689994668074;1.22;0.0005986814691242941
17:37.4;-0.023403567020440916;-0.16534442415308173;-1.0873141670876139;0.98;0.004207524518732023
17:37.4;-0.04044677919896638;-0.17331525992568947;-1.0568738385557774;0.98;0.0074087321635958854
17:37.4;-0.053432520598483545;-0.18206579645298135;-1.024416432238709;0.98;0.009965763195753213
17:37.4;-0.061441026436106425;-0.19050872498429072;-0.9917134366760398;0.9390000000000001;0.011608056956708251
17:37.4;-0.06380302482550672;-0.19764646713219233;-0.9602442850161764;0.919;0.012109105293282279
17:37.4;-0.06018712267698291;-0.20267539824630676;-0.9310814613859407;0.914;0.01135774977543129
17:37.4;-0.050665820782204635;-0.20506803677137894;-0.9048512555035679;0.9159999999999999;0.009401350614838957
17:37.4;-0.03574552496994807;-0.20462253160768518;-0.8817623667994323;0.9159999999999999;0.006449509585083109
17:37.4;-0.016349935782730383;-0.20147095640748974;-0.8616876291271021;0.9079999999999999;0.0028384311045624245
17:37.4;0.006246155189052812;-0.19604517220272574;-0.8442770119303931;0.905;0.0010338413218014277
17:37.5;0.03052753736520147;-0.1890079371254803;-0.8290781167155097;0.873;0.004783736678656412
17:37.5;0.054878589703925056;-0.18116397929295716;-0.8156442600412139;0.873;0.008109154554921548
17:37.5;0.07772820578043865;-0.17336805836605762;-0.8036174239959297;0.873;0.010829217408957268
17:37.5;0.09767689039612273;-0.1664430101742877;-0.7927792043383743;0.841;0.012888715464539291
17:37.5;0.11359702285457424;-0.16111307912360276;-0.7830662621444007;0.81;0.014331652208389027
17:37.5;0.12470766667671625;-0.15795275556278857;-0.7745525203783167;0.7859999999999999;0.015257073265722928
17:37.5;0.1306228599822521;-0.15735103833510716;-0.7674097415135195;0.775;0.0157730655920533
17:37.5;0.13136520893593348;-0.15949218069213714;-0.7618643792012674;0.78;0.015962371924391015
17:37.5;0.1273353237810321;-0.16435424846836763;-0.7581659511993599;0.7859999999999999;0.015866973937713785
17:37.5;0.11923492353173211;-0.1717267900013964;-0.7565723222718922;0.7929999999999999;0.015491446763600055
17:37.6;0.10795435694331611;-0.18124828386063252;-0.7573466543642379;0.8;0.014818655069112943
17:37.6;0.09444762604730861;-0.1924601048178309;-0.7607555678252889;0.8;0.013828558265327938
17:37.6;0.07962250382779135;-0.20486684381126372;-0.7670600303638534;0.8;0.012512291695565602
17:37.6;0.06426597652867957;-0.21799022787515232;-0.776496246577994;0.8109999999999999;0.010878211472063496
17:37.6;0.049010523940060245;-0.23140921135239553;-0.789248781315232;0.8220000000000001;0.00895125455070348
17:37.6;0.0343348846472453;-0.24478481059800683;-0.8054204712421028;0.835;0.006769283796488322
17:37.6;0.02058821712286408;-0.25787015551780607;-0.8250040723184255;0.851;0.004380018190120337
17:37.6;0.008025263114844434;-0.27050764700654634;-0.8478603752657401;0.871;0.0018406158848073173
17:37.6;-0.003160400847268054;-0.28261705880904026;-0.8737075782608335;0.894;0.0007803809237238899
17:37.6;-0.012816282028145725;-0.2941780371417238;-0.9021271664639154;0.9159999999999999;0.003401261810563565
17:37.7;-0.02082990893349413;-0.30520817792478794;-0.932590660901251;1.034;0.005928906472597647
17:37.7;-0.027143938981030576;-0.3157362674271668;-0.96450522320387;1.034;0.008266124169512659
17:37.7;-0.03177646107333278;-0.3257703299648022;-0.9972657718058977;1.034;0.010323523948423835
17:37.7;-0.03483379078986125;-0.3352619338498027;-1.030299304522816;1.091;0.012032292796561844
17:37.7;-0.03650788269576128;-0.34407079302359306;-1.0630973549441751;1.14;0.013353880712525218
17:37.7;-0.037055321738289244;-0.3519348648818098;-1.0952392909559163;1.178;0.014283080923412513
17:37.7;-0.03675731959393952;-0.35845082811789963;-1.1264037562296128;1.205;0.014841148563052275
17:37.7;-0.03586428333450029;-0.3630701967270675;-1.156359335736677;1.219;0.01505724678235222
17:37.7;-0.03453496289617688;-0.365117477767075;-1.184928092017121;1.232;0.014941135768044246
17:37.7;-0.0327841043477049;-0.363836638674078;-1.2119238031092463;1.245;0.014455897812347416
17:37.8;-0.030451188119573466;-0.35846919569362246;-1.2370741983308473;1.272;0.013503670508650558
17:37.8;-0.027199033453154085;-0.3483603663418076;-1.2599403502922724;1.272;0.011938017040060303
17:37.8;-0.02254861871171713;-0.3330799447336831;-1.2798476627526587;1.272;0.009612286495348947
17:37.8;-0.015954362923737177;-0.31253749598395836;-1.2958444258295372;1.26;0.006461516537926404
17:37.8;-0.0069175443715692175;-0.28707128059711656;-1.3067065436648424;1.264;0.002594894862081782
17:37.8;0.004877795212718666;-0.2574938245227335;-1.3110076061735982;1.3030000000000002;0.0016466283648906216
17:37.8;0.019437565339128035;-0.2250799282057562;-1.3072660795579911;1.358;0.005719296694622909
17:37.8;0.036377447399862664;-0.19148630128558541;-1.2941623455608926;1.402;0.00901485387546126
17:37.8;0.05492070289775431;-0.15860072760252272;-1.270792181718857;1.4269999999999998;0.011069188838732742
17:37.8;0.07398548306977189;-0.12833490860344288;-1.2369016236249746;1.433;0.01174428222114411
17:37.9;0.0923492778727694;-0.10239333353478393;-1.193043596389369;1.2109999999999999;0.011281361085527013
17:37.9;0.10885376652483397;-0.08206153067715345;-1.1406192489103055;1.2109999999999999;0.010188817208032228
17:37.9;0.1225962369169704;-0.06805558496609639;-1.081807764537902;1.2109999999999999;0.009025910135305354
17:37.9;0.133057783414866;-0.06046040034534298;-1.0194119979816143;1.075;0.008200891075785564
17:37.9;0.14014364836783197;-0.05876233304481717;-0.9566385441081541;0.948;0.007878078876807736
17:37.9;0.14413813991950655;-0.061962163076268756;-0.8968234305710825;0.843;0.00800962954413193
17:37.9;0.14559326628385924;-0.0687419240511239;-0.8431306546225954;0.7609999999999999;0.008438356175143753
17:37.9;0.14518019346390484;-0.0776533613098354;-0.79826762400134;0.703;0.008999453675168823
17:37.9;0.1435381358137411;-0.08729642651776562;-0.7642598454841992;0.677;0.009576455831833903
17:37.9;0.14115290777864398;-0.09646270100566312;-0.7423137014228329;0.674;0.01010733648410355
17:38.0;0.1382864924125382;-0.10422889053585394;-0.7327792541769845;0.765;0.010561875441255251
17:38.0;0.13496336315467705;-0.10999777528444368;-0.7352044111371;0.765;0.010914601843784622
17:38.0;0.13100491988311042;-0.11349538933151584;-0.748451401855404;0.765;0.011128315528982333
17:38.0;0.12609660235566372;-0.11473872161311521;-0.7708399294667972;0.8059999999999999;0.011152637711011094
17:38.0;0.11987356096674232;-0.11398640435876733;-0.8002928166702665;0.8370000000000001;0.010935165987979242
17:38.0;0.11201333850087895;-0.1116807095463808;-0.8344743729510388;0.8640000000000001;0.010439048365233045
17:38.0;0.10232297274297253;-0.10838718830684223;-0.8709178335795426;0.89;0.009658913636568374
17:38.0;0.09080536966139861;-0.1047376104210214;-0.9071411347571797;0.9179999999999999;0.008627581146199317
17:38.0;0.0776899261296816;-0.10138005415860098;-0.9407545863774753;0.946;0.007409579663444669
17:38.0;0.06341803019788794;-0.09893704534449178;-0.9695666548788833;0.9670000000000001;0.006083441776075821
17:38.1;0.04858562864662737;-0.09797062533355658;-0.9916924161662227;1.042;0.004720420617262998
17:38.1;0.03385890248469435;-0.0989530941167091;-1.0056629952813305;1.042;0.003369416708085986
17:38.1;0.019887553851962607;-0.10224250149407982;-1.0105261075525522;1.042;0.0020547565494712667
17:38.1;0.0072364106999825;-0.10806199478721083;-1.0059247366643955;1.051;0.0007866140066950802
17:38.1;-0.003656807227057062;-0.11648276761278625;-0.9921453358454629;1.0490000000000002;0.00042260929275646865
17:38.1;-0.012499795849580986;-0.12741162049516347;-0.9701308743740175;1.035;0.0015450491007489616
17:38.1;-0.019144181815836155;-0.1405854178498135;-0.9414527687657274;1.006;0.0025338192033699026
17:38.1;-0.0235672464344418;-0.1555758573376841;-0.9082343271098479;0.9590000000000001;0.0033300362278427553
17:38.1;-0.025840672618789733;-0.17180819623914037;-0.8730217691803209;0.9079999999999999;0.003875901801815495
17:38.1;-0.026092783700709322;-0.18859614161035995;-0.838606294882761;0.861;0.004126780176500867
17:38.2;-0.024472878685265067;-0.20519227622758662;-0.8078094055195426;0.764;0.004056532614133026
17:38.2;-0.02112576599202052;-0.22084892973569664;-0.7832531651356952;0.764;0.0036543481675597577
17:38.2;-0.016181310456639376;-0.23487964878026388;-0.7671444501833051;0.764;0.0029156556225398596
17:38.2;-0.009759627437934565;-0.24671176276857126;-0.7610989866619687;0.753;0.0018325854722224828
17:38.2;-0.0019892416223798565;-0.2559270254375015;-0.766016923244765;0.7559999999999999;0.0003899797451653928
17:38.2;0.006966722106287355;-0.262291973465349;-0.7820111260078696;0.765;0.0014289808873813514
17:38.2;0.01688298553543758;-0.2657777265573866;-0.8083903328208708;0.78;0.003627345653390554
17:38.2;0.027451018251186475;-0.2665648689421779;-0.8437046811257706;0.812;0.006173789668499396
17:38.2;0.03827179864470991;-0.2650274139204418;-0.8858632229133399;0.8759999999999999;0.00898537783694917
17:38.2;0.04886715088530145;-0.26169156647774255;-0.9323287798299468;0.961;0.01192273349482886
17:38.3;0.058709852618050916;-0.25717021274982604;-0.9803812047736747;1.173;0.014802212374324053
17:38.3;0.06726731870826998;-0.2520818200149141;-1.0274142019304089;1.173;0.017421727134458685
17:38.3;0.07404937848445645;-0.24696850668550618;-1.0712067872541535;1.173;0.01959008449676092
17:38.3;0.07865097369270246;-0.24222724275414678;-1.110114113625903;1.217;0.02114923745754081
17:38.3;0.08078573051936863;-0.23806115098506583;-1.1431553513231874;1.2309999999999999;0.021985099689213927
17:38.3;0.08031130569217731;-0.23445204891278645;-1.170006530040264;1.225;0.022030228654467507
17:38.3;0.07724912814709045;-0.23115541530099437;-1.1909156585647798;1.214;0.021265650122072564
17:38.3;0.07180062051579186;-0.2277216556174278;-1.2065592562827616;1.213;0.019727914902196334
17:38.3;0.06435879317955165;-0.22354727427006926;-1.217863528635419;1.212;0.017521686093659193
17:38.3;0.055507362355220274;-0.2179546283237713;-1.2258153422666742;1.199;0.014830020082216943
17:38.4;0.04599362886826709;-0.21029189953702493;-1.2312860539397195;1.185;0.011909106551349118
17:38.4;0.036665273492320065;-0.2000397638991326;-1.2348885059865966;1.185;0.009057305371833519
17:38.4;0.028376130283728145;-0.18691007835618564;-1.2368847589039336;1.185;0.006560170502952963
17:38.4;0.021877918964927356;-0.170923384837214;-1.2371571496854255;1.212;0.004626284782905741
17:38.4;0.0177144910376842;-0.1524538490245681;-1.2352468085785404;1.242;0.003335959834322248
17:38.4;0.01613218654775445;-0.13223251291202426;-1.2304520974566897;1.265;0.0026247998802477915
17:38.4;0.01702242163963656;-0.11130377558489635;-1.2219673250820415;1.263;0.0023152123654120184
17:38.4;0.019913977284483443;-0.09093580499122636;-1.209035419045437;1.248;0.002189434448045375
17:38.4;0.024026819918965117;-0.07249237749675796;-1.1910904848822024;1.237;0.0020745953109042015
17:38.4;0.028387832905243146;-0.057280540723595695;-1.167873634788055;1.227;0.0018990447704059156
17:38.5;0.03199344609200621;-0.046393865504374014;-1.1395121813378124;1.151;0.001691377514853695
17:38.5;0.03398854526550616;-0.04057385320230093;-1.10655812408313;1.151;0.0015259948271773558
17:38.5;0.03382314404645351;-0.04011174564911019;-1.0699877080639661;1.151;0.0014516580490822862
17:38.5;0.03135414984647441;-0.044807907994561476;-1.03116359115663;1.091;0.0014486960227607225
17:38.5;0.02687552994009485;-0.05399625159492086;-0.9917538794879217;1.022;0.001439211288738998
17:38.5;0.0210763394616996;-0.06663008400698765;-0.9536011785212222;0.955;0.0013391595562350885
17:38.5;0.01493705544185435;-0.08141561426385945;-0.9185468496463488;0.8909999999999999;0.0011170535905504688
17:38.5;0.009581790240393549;-0.09697154002977867;-0.8882306332611073;0.83;0.0008253092242190419
17:38.5;0.006109418902396204;-0.11199030111138976;-0.8638943254396014;0.785;0.0005910727503197909
17:38.5;0.005430583800484454;-0.12537903902516823;-0.8462209842052982;0.7609999999999999;0.0005761761100301022
17:38.6;0.008137635218713872;-0.1363631266539522;-0.8352391138937811;0.8;0.000926842612287467
17:38.6;0.014427065886483091;-0.14454101209622025;-0.830310978245735;0.8;0.0017314497287701975
17:38.6;0.024080076085409567;-0.1498868145993755;-0.8302065914105923;0.8;0.0029964529442599516
17:38.6;0.0364960985033058;-0.15270493076184674;-0.8332504331573909;0.846;0.004643816482048723
17:38.6;0.05077183835949956;-0.15354644798081438;-0.8375224706740971;0.889;0.0065291873566316
17:38.6;0.06581714494556008;-0.1531016161120621;-0.8410909173027978;0.925;0.008475430316267346
17:38.6;0.0804926963521933;-0.15208682403711207;-0.8422463305906377;0.948;0.010310677285232146
17:38.6;0.09374807485803333;-0.15114550834755122;-0.8397024379694595;0.9520000000000001;0.011898248026982054
17:38.6;0.10473797214901129;-0.15077838155672768;-0.8327342127863637;0.937;0.013150723495495151
17:38.6;0.11289872066714658;-0.15131131663018563;-0.8212353441404217;0.9079999999999999;0.014029043541084852
17:38.7;0.11797559541382091;-0.15290125730839987;-0.8056918340002499;0.797;0.014533566309205131
17:38.7;0.1200028693688186;-0.15557182244598483;-0.7870859074418861;0.797;0.01469415803466372
17:38.7;0.11925019597923334;-0.1592627717302437;-0.766760076129112;0.797;0.014562396878203201
17:38.7;0.1161536612295526;-0.1638765121543123;-0.7462725762040813;0.762;0.014205191678717036
17:38.7;0.11124601076968679;-0.16931159853387753;-0.7272607866765831;0.735;0.01369813139704882
17:38.7;0.10509522277120131;-0.17548130115774008;-0.7113158061555144;0.7140000000000001;0.013118261391904383
17:38.7;0.09825835129928365;-0.18231977637954982;-0.6998700489623567;0.696;0.012537780445266563
17:38.7;0.09125472285950793;-0.18978028806040992;-0.6941033585313341;0.69;0.012020723227230455
17:38.7;0.08455608290724234;-0.19783073165412815;-0.694874412819507;0.691;0.011623714468204654
17:38.7;0.07858397186446318;-0.2064508710967772;-0.7026834723360571;0.7020000000000001;0.01140014654111925
17:38.8;0.07370181806223171;-0.21563303918510046;-0.7176699706472922;0.7859999999999999;0.0114056037549519
17:38.8;0.07019479255159378;-0.22538403239894295;-0.7396414795849666;0.7859999999999999;0.011701709120479973
17:38.8;0.06824162476007406;-0.2357223488537354;-0.768121369874269;0.7859999999999999;0.012356058792965703
17:38.8;0.0678897118961772;-0.2466653696884617;-0.8024015036352272;0.825;0.013437048384386942
17:38.8;0.06904314910740164;-0.2582059913176785;-0.8415968319643289;0.872;0.01500344528745414
17:38.8;0.07146865512600421;-0.2702828162547296;-0.8847075866450037;0.9309999999999999;0.01708967472703984
17:38.8;0.07482179206462064;-0.28274935913415083;-0.9306917211341699;0.998;0.019689540716137634
17:38.8;0.07869298899197602;-0.2953474976880296;-0.9785411660122645;1.058;0.02274303594190064
17:38.8;0.0826676428134371;-0.30769002403760687;-1.0273492064303673;1.107;0.026131663665424743
17:38.8;0.08638949326088682;-0.31925653114042546;-1.076355853710911;1.147;0.029686335692531617
17:38.9;0.08961484206882186;-0.32940594393231676;-1.1249621084768369;1.246;0.033208500802336095
17:38.9;0.09224803288059004;-0.3374071489697293;-1.1727076912159178;1.246;0.03650069783739953
17:38.9;0.09435421256500358;-0.3424864731201803;-1.219208663189808;1.246;0.03939877853036196
17:38.9;0.09615032087149368;-0.3438896123856579;-1.2640585363197272;1.273;0.04179621758018675
17:38.9;0.0979770796105826;-0.34095631672953675;-1.3067109806043342;1.306;0.043651861819398605
17:38.9;0.10025393685493038;-0.33320438579286876;-1.3463722784074046;1.334;0.04497563523517853
17:38.9;0.10341773598125613;-0.32041317401665276;-1.3819298553261432;1.3519999999999999;0.045792187416557995
17:38.9;0.10784729296578385;-0.3026901261940902;-1.4119364911448866;1.3730000000000002;0.0460916935303162
17:38.9;0.11378259256560058;-0.28050247461965144;-1.434664445906915;1.415;0.04578917910932904
17:38.9;0.12125721071320693;-0.25466116723184784;-1.4482366344521658;1.469;0.044720827231080826
17:39.0;0.13006751952710163;-0.22625319002111274;-1.4508282044261516;1.535;0.042695249814367876
17:39.0;0.13979299476374596;-0.19653223074475792;-1.440912437243934;1.535;0.039587382053816754
17:39.0;0.14986171916798616;-0.16679330551741353;-1.4175087431542188;1.535;0.03543195145948971
17:39.0;0.1596415770555438;-0.13825997781539803;-1.3803879258919443;1.514;0.03046797876107219
17:39.0;0.16853879752783724;-0.11199755145390408;-1.3302003939955842;1.459;0.02510877304554082
17:39.0;0.17608856890290517;-0.08885071254560209;-1.268507091739881;1.371;0.01984654798132276
17:39.0;0.18201976733742722;-0.06940324069953603;-1.197706327743295;1.263;0.015130338654418346
17:39.0;0.18627747477612563;-0.053961672238911504;-1.1208642214931024;1.145;0.011266752343748894
17:39.0;0.18899910981560378;-0.04256445346614457;-1.0414705642148423;1.036;0.008378259732799903
17:39.0;0.19045516943086094;-0.035014771470572345;-0.9631506406121865;0.9420000000000001;0.006423005280103111
17:39.1;0.1909743836286474;-0.030932310453786662;-0.8893664810348312;0.74;0.0052537358683481285
17:39.1;0.1908725150793386;-0.029816589002066272;-0.8231443142055908;0.74;0.004684652032101708
17:39.1;0.19039721357974698;-0.031112159043883883;-0.7668681983808296;0.74;0.00454267290635567
17:39.1;0.18969397263333354;-0.034266060206059996;-0.7221677032797652;0.708;0.004694137075033698
17:39.1;0.18879396103340554;-0.03877169843169582;-0.6898977147679637;0.69;0.005049956426973016
17:39.1;0.1876227415133168;-0.04419796331906772;-0.6701857246146733;0.6859999999999999;0.005557543971005203
17:39.1;0.18602723372169186;-0.05020486102263625;-0.66252110673023;0.6940000000000001;0.006187596938421401
17:39.1;0.1838157459625029;-0.05654738114238789;-0.6658688714181029;0.711;0.006921240175550888
17:39.1;0.18080332735264498;-0.06306958680337056;-0.6787945942825759;0.727;0.007740424509380338
17:39.1;0.17685320901686635;-0.06969201589541903;-0.6995889686630191;0.738;0.00862261359105041
17:39.2;0.17190566894255432;-0.0763965182136575;-0.7263832659339562;0.8009999999999999;0.009539587486087901
17:39.2;0.16598934758141798;-0.08321175562639206;-0.7572493352184633;0.8009999999999999;0.010459328509957719
17:39.2;0.1592157634431899;-0.09019997762722222;-0.7902784805953299;0.8009999999999999;0.011349393389137903
17:39.2;0.1517610489356866;-0.09744446142180402;-0.8236377986635334;0.8290000000000001;0.012180181178466792
17:39.2;0.14383811880377806;-0.10503834291828099;-0.8556120983411599;0.863;0.012927030487314587
17:39.2;0.13566231179330102;-0.1130762453356084;-0.8846448116570907;0.9009999999999999;0.013570614938417373
17:39.2;0.12741675229450386;-0.12164805845793923;-0.9093860911511867;0.9329999999999999;0.01409548489631175
17:39.2;0.11922638051041773;-0.13083201871358768;-0.9287471974875706;0.953;0.014487182082459242
17:39.2;0.11114834268491293;-0.14068473250325272;-0.9419551777329581;0.971;0.014729235236815425
17:39.2;0.10318220122340382;-0.1512281464347011;-0.9486014224898969;0.99;0.014802026906621623
17:39.3;0.09529814425100029;-0.16243509573466378;-0.9486787280784854;0.998;0.014685322049061979
17:39.3;0.08747617477929331;-0.17421504820872122;-0.9426014670775178;0.998;0.01436493153529949
17:39.3;0.07974567430522103;-0.18640157981720068;-0.9312025725085639;0.998;0.013842065200123026
17:39.3;0.07221422622414668;-0.19874478253402728;-0.9157006706824872;0.97;0.01314231979465509
17:39.3;0.06507727151235752;-0.2109140166439472;-0.8976321949127608;0.937;0.012320638051260524
17:39.3;0.05860528987653295;-0.22251569563907267;-0.8787483403890746;0.897;0.011459402835232228
17:39.3;0.0531113828760538;-0.23312651901729656;-0.8608849489916376;0.8690000000000001;0.010659194904659903
17:39.3;0.048906944273695005;-0.24233794335490458;-0.8458207806827992;0.85;0.010024674905403526
17:39.3;0.04625451513632162;-0.2498050517826597;-0.835142181389272;0.836;0.009649743493979391
17:39.3;0.04532528701954268;-0.255292198144525;-0.8301298942580655;0.8320000000000001;0.009605592519862835
17:39.4;0.04616595769627013;-0.25870820394149346;-0.8316791228235558;0.8540000000000001;0.009933169582628708
17:39.4;0.04867738732494516;-0.26012495148023895;-0.8402584358151485;0.8540000000000001;0.010639522900270409
17:39.4;0.05260661024680147;-0.2597746376968139;-0.8559075876475134;0.88;0.01169671593386679
17:39.4;0.057554348541498754;-0.25802316349750654;-0.878270365083833;0.9159999999999999;0.013042626780999465
17:39.4;0.063001100618325;-0.25532059787305894;-0.9066557884163285;0.955;0.014583992351524694
17:39.4;0.0683538352525749;-0.25213377708319973;-0.9401174878347665;0.99;0.01620227684257639
17:39.4;0.0730111958938515;-0.24886966931570878;-0.9775383417935232;1.0190000000000001;0.01776213773525632
17:39.4;0.07644014152279836;-0.2458004056839359;-1.0177091099748838;1.045;0.019121754579325623
17:39.4;0.0782542622397623;-0.24300165438929341;-1.0593959440247;1.077;0.020145383421317734
17:39.4;0.07828362566493866;-0.2403153477685768;-1.101398681493475;1.119;0.02072034545355456
17:39.5;0.07662587317401429;-0.2373457407475072;-1.142604207463053;1.2590000000000001;0.02078034234138634
17:39.5;0.07366828210638661;-0.23349391935393002;-1.182031552778306;1.2590000000000001;0.02033223812109602
17:39.5;0.07007215613706613;-0.22803023036425052;-1.2188523787456425;1.2590000000000001;0.019475517938948576
17:39.5;0.06671399184237824;-0.22019872903407176;-1.252369409313452;1.281;0.018397727685040995
17:39.5;0.06458152316173026;-0.2093435213340934;-1.2819526738830214;1.272;0.01733164565482783
17:39.5;0.06462891668532844;-0.19504183875755637;-1.3069529353235432;1.261;0.01647458970423247
17:39.5;0.06760630031414548;-0.17722346389952687;-1.3266204946663542;1.27;0.015894800939731633
17:39.5;0.07389147678975462;-0.15625412817655204;-1.3400583750361117;1.285;0.015472110691828396
17:39.5;0.08335959429472548;-0.13296214350605692;-1.346234108501698;1.304;0.014921215058049206
17:39.5;0.09532586914073747;-0.10859228423765495;-1.3440627992982779;1.338;0.01391327288719672
17:39.6;0.10858553847345064;-0.0846821545095167;-1.332557429416341;1.396;0.012253208492484182
17:39.6;0.12155171500889857;-0.06287726275257198;-1.311023515953939;1.396;0.010019941818434155
17:39.6;0.13246291254044984;-0.04472344700298581;-1.2792593962212369;1.396;0.00757858601908473
17:39.6;0.13961897570706497;-0.03147962535971752;-1.2377181870292466;1.369;0.005439960862739517
17:39.6;0.141613748406411;-0.023976341930780583;-1.1875945742755976;1.3159999999999998;0.004032334454567473
17:39.6;0.13754319296838768;-0.02252785757673902;-1.13081336718137;1.2329999999999999;0.003503885673576782
17:39.6;0.12716450686266847;-0.026900993343863436;-1.0699129906872238;1.126;0.0036600135154337948
17:39.6;0.1109775875589112;-0.03634329187802895;-1.0078348414555562;1.01;0.004064891050978418
17:39.6;0.09020753091788916;-0.04966832528505219;-0.9476460439290723;0.91;0.00424588734042227
17:39.6;0.06668250448015021;-0.06538985822814232;-0.8922338920892555;0.828;0.003890460540311697
17:39.7;0.042618920291878366;-0.08189114742066288;-0.8440130933316982;0.6990000000000001;0.002945700465342553
17:39.7;0.02034554140021627;-0.0976086578317678;-0.8046858801395764;0.6990000000000001;0.0015980264851518401
17:39.7;0.002015956608554711;-0.11120255020403348;-0.7750921766823261;0.6990000000000001;0.00017375978900229547
17:39.7;-0.010641050584609013;-0.12168828829370382;-0.7551748224262818;0.713;0.000977869255649104
17:39.7;-0.016504146493243336;-0.1285163134782639;-0.7440613675751147;0.748;0.001578192899748022
17:39.7;-0.015164801498142652;-0.13159810875939307;-0.7402418903038758;0.7909999999999999;0.0014772705362912787
17:39.7;-0.006949615528546272;-0.13128070472235215;-0.7418097719792286;0.8270000000000001;0.0006767904600941881
17:39.7;0.00714357570521604;-0.12827455972355337;-0.7467256353565399;0.84;0.0006842538432127034
17:39.7;0.02558900677699508;-0.12354619669537921;-0.7530630255559131;0.843;0.0023807518723104023
17:39.7;0.04653632466080107;-0.11819268529715306;-0.759201773210924;0.84;0.0041758019639639545
17:39.8;0.06804497000408692;-0.11331568949795218;-0.763950214018183;0.81;0.005890486019426739
17:39.8;0.08831403883822643;-0.10990951773137252;-0.7665951484576928;0.81;0.007440996758192293
17:39.8;0.10587042006701795;-0.10877381423413676;-0.7668928224228736;0.81;0.008831483604422279
17:39.8;0.11968738318688636;-0.110457830483735;-0.765019644409373;0.794;0.010113872349690928
17:39.8;0.12922510635201503;-0.11523837188767791;-0.7614977149851351;0.7809999999999999;0.011339988564453401
17:39.8;0.13440239261704723;-0.12312804798577892;-0.7571051869605441;0.767;0.012529109823300098
17:39.8;0.13551843960405885;-0.13390626706855546;-0.7527801245754306;0.758;0.013660526551451151
17:39.8;0.13314778294715007;-0.14716389698007293;-0.7495264620185054;0.754;0.014686631197518318
17:39.8;0.12803164230548808;-0.1623540286528006;-0.7483291774029416;0.755;0.015555109217240754
17:39.8;0.1209832196524858;-0.17884501855301474;-0.750083376538958;0.76;0.01622973866121189
17:39.9;0.1128149175331523;-0.19597547652134292;-0.7555393575717352;0.7979999999999999;0.016704187336299026
17:39.9;0.104286952035069;-0.21311019672298762;-0.7652627673913012;0.7979999999999999;0.01700766874437817
17:39.9;0.09607240797095422;-0.22969122781841617;-0.7796066421043499;0.7979999999999999;0.017203571465637207
17:39.9;0.08873245803356744;-0.24527670179452601;-0.7986932003832093;0.8220000000000001;0.01738276252594108
17:39.9;0.08269556115804877;-0.25956499519372506;-0.8224077580478916;0.851;0.017652878026870773
17:39.9;0.07823637707811454;-0.2724054424937547;-0.8504102543994001;0.883;0.01812395602739104
17:39.9;0.07545456372017882;-0.28379437221201026;-0.8821684659188826;0.9229999999999999;0.018890385496124852
17:39.9;0.07425922842005478;-0.29385241134406864;-0.9170130147957577;0.9690000000000001;0.020010373308068437
17:39.9;0.07436896588401146;-0.3027808060553989;-0.9542100405709559;1.0170000000000001;0.021486420233415394
17:39.9;0.07533767459128671;-0.3107997447333787;-0.9930431565615451;1.067;0.0232520360294248
17:40.0;0.0766110185861105;-0.3180772180444822;-1.0328917116702259;1.18;0.02516973211851022
17:40.0;0.0776079034738665;-0.3246604472949393;-1.0732864480840971;1.18;0.027042757879283123
17:40.0;0.07781079139735712;-0.33042261204679557;-1.1139196835253766;1.18;0.028639370689684085
17:40.0;0.07684593796801262;-0.3350361229640648;-1.1545951300243298;1.194;0.02972639686705598
17:40.0;0.07454095240180693;-0.33798064750946627;-1.1951233463286959;1.208;0.03010921974700661
17:40.0;0.07095517757744033;-0.33858953751725673;-1.2351874167377463;1.224;0.029674983366387936
17:40.0;0.06638302166212437;-0.33613213039172635;-1.2742093954417557;1.248;0.028432028650421028
17:40.0;0.06133225200328064;-0.32992241167319325;-1.31124602639048;1.28;0.026532911887582382
17:40.0;0.056478804372185026;-0.3194380979248722;-1.3449382250324824;1.3030000000000002;0.024264678565161
17:40.0;0.05259684800656186;-0.3044291160836196;-1.3735341105056864;1.318;0.02199304458760886
17:40.1;0.05046254922958618;-0.2849932175130207;-1.3949986812429038;1.459;0.02006215158935988
17:40.1;0.050738817228275106;-0.26160409134935725;-1.4072082005824669;1.459;0.018678552969962285
17:40.1;0.0538628081308865;-0.2350916528032275;-1.4082036204387882;1.459;0.017831655179898938
17:40.1;0.0599642377610044;-0.20658184080647424;-1.3964626589130544;1.495;0.01729871277418908
17:40.1;0.06883478355588198;-0.17739992225903717;-1.3711545648357317;1.514;0.01674355951514813
17:40.1;0.07995570784024969;-0.14894131401011218;-1.332347333543204;1.504;0.01586653560067281
17:40.1;0.09257910583906315;-0.12252497383503327;-1.2811319207125036;1.45;0.014532202888845772
17:40.1;0.10584692561870647;-0.09925491185792872;-1.219626025373195;1.349;0.012813180359881693
17:40.1;0.11892253758708463;-0.07991510107039836;-1.1508347531294607;1.22;0.010937195851277991
17:40.1;0.13110715306977802;-0.06491437976020771;-1.078372851157285;1.079;0.009177750445576794
17:40.2;0.14191966007564863;-0.05428658195702057;-1.0060842163708796;0.795;0.007751208088544292
17:40.2;0.15113014010001122;-0.047739674142888086;-0.9376251894281317;0.795;0.006764875393607997
17:40.2;0.15874847291214594;-0.04473816187315314;-0.8760975272772449;0.795;0.006222145283282037
17:40.2;0.16497576192117905;-0.044599535243754235;-0.823801234509243;0.762;0.006061399576793822
17:40.2;0.17012840495040418;-0.04658902133394582;-0.7821283210514977;0.7490000000000001;0.006199239711741248
17:40.2;0.17454616578577972;-0.05000224483117993;-0.7515758329225283;0.747;0.0065595284841539
17:40.2;0.1784987325412148;-0.054229006347760275;-0.7318438050930987;0.75;0.007084108177982755
17:40.2;0.1821083481567666;-0.058794788820957074;-0.7219866105790286;0.7559999999999999;0.007730326431057123
17:40.2;0.18530570047871175;-0.06338023912901478;-0.7205899069151669;0.76;0.008463126409297082
17:40.2;0.18783067967164635;-0.06782107133014295;-0.7259505405340517;0.769;0.009247795314725069
17:40.3;0.18927963996853026;-0.07209189420104045;-0.736244134326778;0.816;0.010046439787098285
17:40.3;0.18918806340926922;-0.07627870512357701;-0.7496709634611428;0.816;0.010818517043234123
17:40.3;0.18712632284839234;-0.08054571232431568;-0.7645735248791238;0.816;0.01152382264275468
17:40.3;0.18278387940150714;-0.08510172752280891;-0.7795224192575689;0.833;0.01212564576692441
17:40.3;0.17602495232110663;-0.09016973513908508;-0.793372594304028;0.843;0.012592507662375851
17:40.3;0.16690872810350335;-0.09596094432229488;-0.8052954087472624;0.8490000000000001;0.012898190406322119
17:40.3;0.15567461096966495;-0.10265281827160168;-0.8147907027988477;0.852;0.01302071194188534
17:40.3;0.14269976212037838;-0.11037087920824905;-0.8216802608323676;0.852;0.012941380467660744
17:40.3;0.12844226003197773;-0.11917622973070802;-0.8260828553061492;0.8540000000000001;0.012645068590537059
17:40.3;0.11338505939949393;-0.12906201342081433;-0.8283714851505533;0.853;0.012122143163727212
17:40.4;0.09799252416533685;-0.1399601067566909;-0.8291147522307059;0.836;0.011371345426902834
17:40.4;0.08268578887412832;-0.15175468447356832;-0.8290066850317057;0.836;0.010402339242545718
17:40.4;0.06783824809132995;-0.16429575315141912;-0.8287922542903035;0.836;0.009237333958627516
17:40.4;0.05378768570167832;-0.17740752373809088;-0.8291967892998979;0.836;0.007912477796493326
17:40.4;0.04085688944591017;-0.1908925347294579;-0.8308651199805227;0.8370000000000001;0.006480145714415847
17:40.4;0.029372477224452208;-0.2045366761479404;-0.8343131814674912;0.841;0.00501234406627976
17:40.4;0.01967332345312496;-0.21811951453698306;-0.839893758698103;0.847;0.0036040981433268565
17:40.4;0.012103663407874207;-0.2314307696560766;-0.8477785515184186;0.8590000000000001;0.002374763484485513
17:40.4;0.006989804941035639;-0.24429008305076919;-0.857959234430605;0.875;0.0014649997365159967
17:40.4;0.004603044393297629;-0.2565647023813499;-0.8702697433494766;0.8959999999999999;0.0010277700430428509
17:40.5;0.005114876439243598;-0.26817927963432714;-0.8844296866709928;0.9590000000000001;0.0012131756318164374
17:40.5;0.008553120340378233;-0.27911291693810014;-0.9001035940155985;0.9590000000000001;0.0021488050389941622
17:40.5;0.014768117944634989;-0.2893797174080916;-0.9169652225335252;0.9590000000000001;0.00391873688751299
17:40.5;0.023416765378501243;-0.2989915638490574;-0.9347568791562145;0.981;0.006544621116256631
17:40.5;0.03396975640813555;-0.3079064559689836;-0.9533412516405176;1.008;0.009971479786415124
17:40.5;0.04574441138693255;-0.3159699208158191;-0.9727482489162858;1.041;0.014059965102089204
17:40.5;0.05796175785309895;-0.3228588331060255;-0.9932159609727677;1.079;0.01858651262490332
17:40.5;0.06982256341959117;-0.3280381822742149;-1.015217234598889;1.124;0.02325300943033211
17:40.5;0.08059371896429592;-0.3307436052864226;-1.0394566436931532;1.165;0.027707607832529905
17:40.5;0.08969486227830606;-0.3300041455250613;-1.0668185725888506;1.192;0.03157748450922062
17:40.6;0.09677558000259333;-0.3247166996205044;-1.098248720277037;1.163;0.03451207828954109
17:40.6;0.10177307547523906;-0.3137730746974932;-1.134563774206105;1.163;0.03623076339090139
17:40.6;0.10493692110955823;-0.29622554698383674;-1.1762065282444152;1.163;0.03656237623069485
17:40.6;0.10680623686043426;-0.27146644340619613;-1.2229847707970045;1.137;0.03545959865754523
17:40.6;0.1081300683682962;-0.23939563983489626;-1.2738431378539554;1.124;0.032974533921047704
17:40.6;0.10973142903251736;-0.2005503831329021;-1.3267220177528076;1.147;0.02919674707167612
17:40.6;0.11232776074256816;-0.1561701608549742;-1.3785584198203185;1.2109999999999999;0.024183008807905457
17:40.6;0.11633703500529938;-0.10817172406103887;-1.4254709262309744;1.337;0.017938664462893793
17:40.6;0.12171436872964789;-0.059022267178609054;-1.4631378743954566;1.515;0.010510974710379461
17:40.6;0.12786868069207158;-0.011518881438279253;-1.4873301842297706;1.702;0.002190694834328188
17:40.7;0.13369661984525508;0.03149769924563774;-1.4945114899841803;1.775;0.006293591021380192
17:40.7;0.13774019343185737;0.06744967006482798;-1.4823887400680904;1.775;0.013772177953135628
17:40.7;0.13843449848167635;0.09429353268640339;-1.4503027156826147;1.775;0.01893149445836159
17:40.7;0.13438907274462797;0.11071072797787546;-1.3993839917501156;1.6219999999999999;0.020820471743178127
17:40.7;0.12465250736085157;0.11620091882528633;-1.3324459463719096;1.4340000000000002;0.01930012761984121
17:40.7;0.10892236879086595;0.11108608199877423;-1.2536352696957036;1.235;0.015168684876665943
17:40.7;0.0876657938557617;0.09643997566547846;-1.1679092593052107;1.061;0.009874073680509948
17:40.7;0.06212380726185368;0.07395442735465184;-1.080441104268895;0.927;0.00496390361726891
17:40.7;0.034192395808526684;0.045752996917378844;-0.9960548051066811;0.826;0.001558232699065118
17:40.7;0.006195726578153395;0.014166263576926063;-0.91876619985655;0.7609999999999999;8.064038109265697e-05
17:40.8;-0.01941539323244512;-0.01851070657884184;-0.8514727996398805;0.727;0.0003060130635142585
17:40.8;-0.04039121920120242;-0.05024957000673925;-0.7958066464219252;0.727;0.0016152021135127628
17:40.8;-0.05497764300193427;-0.07947236488982698;-0.7521449494353986;0.727;0.0032862741992374014
17:40.8;-0.06212526742254345;-0.10515750239655497;-0.7197580993681633;0.7440000000000001;0.004702135007848607
17:40.8;-0.061586221487149644;-0.1268594835633809;-0.6970610130627134;0.763;0.005445995670606137
17:40.8;-0.05389726841788608;-0.14465444140020367;-0.6819248168912792;0.772;0.005316612689035011
17:40.8;-0.04026190415302082;-0.15903283260997422;-0.6720038602872047;0.764;0.0043028169713065605
17:40.8;-0.022354571081454982;-0.17076356297374;-0.6650375062480717;0.758;0.002538678401735426
17:40.8;-0.002081548467259329;-0.18075424871584672;-0.6590965518194329;0.759;0.0002479842401509687
17:40.8;0.01865942809483857;-0.18992800110398636;-0.6527573793459746;0.7509999999999999;0.002313338130554526
17:40.9;0.038180727987218846;-0.19912863488890842;-0.6451985286131325;0.7040000000000001;0.004905364565314333
17:40.9;0.055140538252383554;-0.20905647240348516;-0.6362241985282232;0.7040000000000001;0.0073340658044566765
17:40.9;0.06860551399266389;-0.22022896319216598;-0.6262275780827115;0.7040000000000001;0.009461623140456768
17:40.9;0.07805019677752693;-0.23295843095362534;-0.6161089940859082;0.6709999999999999;0.011202371827846655
17:40.9;0.08331169667609;-0.2473437266241175;-0.6071591925872135;0.649;0.01251150211706744
17:40.9;0.08452112303140238;-0.2632766389722064;-0.6009157423789326;0.644;0.013371839816091337
17:40.9;0.08203278853433386;-0.28046322858332146;-0.5990041894939946;0.6409999999999999;0.013781397640942725
17:40.9;0.07636632855085351;-0.2984579180954386;-0.6029784878820276;0.638;0.01374316735831738
17:40.9;0.06816684599500059;-0.3167074814558628;-0.6141744645571052;0.644;0.013259381876533895
17:40.9;0.058179185845383466;-0.33460258132459086;-0.6335894138744502;0.665;0.012334025412473044
17:41.0;0.04722746741625383;-0.3515342928729496;-0.6617998506131335;0.794;0.010987250332873389
17:41.0;0.036190603687670166;-0.3669503318961076;-0.6989213593876886;0.794;0.009281783310818153
17:41.0;0.02596760450401629;-0.38040196901005546;-0.7446010014449869;0.794;0.007355263914680753
17:41.0;0.017429235814539364;-0.3915735265251455;-0.7980295222836331;0.87;0.0054464136958532194
17:41.0;0.011353701939102996;-0.4002931231246572;-0.8579721442620662;0.9420000000000001;0.003899319358458232
17:41.0;0.008347783518562803;-0.40652895836201036;-0.9228241485873838;1.0070000000000001;0.0031317105544520813
17:41.0;0.008763549445256685;-0.41037536274452097;-0.9906907860861817;1.074;0.003562865639638371
17:41.0;0.012629433146562563;-0.4120297399239073;-1.0594838486956684;1.127;0.0055132382804475
17:41.0;0.019617216760492263;-0.41175836999377713;-1.1270297038458545;1.177;0.009103642387543541
17:41.0;0.029061634288598273;-0.4098468942174238;-1.1911908522823023;1.245;0.014188060487177767
17:41.1;0.04003792789445665;-0.40653270385097195;-1.2500046856617617;1.4409999999999998;0.020345985121642342
17:41.1;0.051486941762369134;-0.40192547706792664;-1.30182896177686;1.4409999999999998;0.026939936096835426
17:41.1;0.06236379859403969;-0.39593651422668197;-1.3454597071359484;1.4409999999999998;0.03322223240123679
17:41.1;0.07178465473659455;-0.3882444077573609;-1.380182233697837;1.4769999999999999;0.038465666106176244
17:41.1;0.07915521627595372;-0.3783164397024472;-1.4057401870828035;1.49;0.042095901480418564
17:41.1;0.08426959050654081;-0.3654906880688542;-1.422233798127243;1.4709999999999999;0.04380444630212195
17:41.1;0.08736194352517752;-0.34911057183431504;-1.4299689290314856;1.421;0.04361259099391652
17:41.1;0.08908784408590227;-0.3286891883252928;-1.4292862089814893;1.369;0.04185266058268126
17:41.1;0.0904200336127315;-0.3040673175924039;-1.4204125859761092;1.349;0.039052506996530685
17:41.1;0.09246605975185766;-0.2755235314177109;-1.4033839897307123;1.3530000000000002;0.03575341791601164
17:41.2;0.0962435605179907;-0.2438019091873218;-1.3780746608189127;1.421;0.03233564518676904
17:41.2;0.10246762606829847;-0.210047161131554;-1.3443348851518546;1.421;0.02893416539148925
17:41.2;0.1114021790198843;-0.1756723245177302;-1.3021981065434918;1.421;0.025484381228157337
17:41.2;0.12280769273594809;-0.14220164293193446;-1.2520941851376914;1.3940000000000001;0.02186589129898549
17:41.2;0.13599256268047288;-0.11111664369590395;-1.1950088580355445;1.331;0.018057823227631525
17:41.2;0.1499498175703008;-0.08371479567895217;-1.132548717410818;1.239;0.014216904820594548
17:41.2;0.16353936338787073;-0.06099069754494729;-1.0668935272408662;1.1320000000000001;0.01064160129922822
17:41.2;0.17566942230574953;-0.04355682064486547;-1.0006411052522806;1.0190000000000001;0.0076565070020815935
17:41.2;0.18544118494707681;-0.03161804697643535;-0.9365715171954478;0.922;0.005491388628782383
17:41.2;0.19223710186792217;-0.025002555666872085;-0.8773709954727653;0.8390000000000001;0.004217012482916015
17:41.3;0.19574760855881582;-0.023238456442569565;-0.8253597519576673;0.708;0.0037544560927719323
17:41.3;0.19594427298546843;-0.025656146522480893;-0.7822653170914818;0.708;0.0039325846282052485
17:41.3;0.19301928422176043;-0.03149345629525178;-0.7490759429176727;0.708;0.004553516094621506
17:41.3;0.1873148761741596;-0.03998540134468921;-0.7259925944399698;0.703;0.0054375832575896295
17:41.3;0.17925875635227814;-0.050430003956690894;-0.7124751377948083;0.7140000000000001;0.006440789347056265
17:41.3;0.16931145093605282;-0.06222973669749581;-0.7073615096460778;0.7340000000000001;0.007452907297684207
17:41.3;0.1579265893478971;-0.0749114499227402;-0.7090338861299654;0.75;0.008388232330879822
17:41.3;0.1455242236321132;-0.08812857213863061;-0.7156070209523976;0.765;0.009177547006630484
17:41.3;0.132476690525511;-0.10165023226787433;-0.7251168306340751;0.774;0.009764630887222497
17:41.3;0.11910533278889664;-0.11534224279838884;-0.7356926954812564;0.782;0.010106855181417955
17:41.4;0.10568522375389461;-0.12914380493386404;-0.7457036804089454;0.813;0.010177805227788635
17:41.4;0.09245524990765167;-0.14304155646379976;-0.7538733807572211;0.813;0.00996993237668075
17:41.4;0.07963232898223742;-0.15704061598306132;-0.7593590668275089;0.813;0.009496172400412567
17:41.4;0.0674281336103029;-0.1711332440403773;-0.7617915181460722;0.813;0.00879046106335381
17:41.4;0.05606355140004485;-0.18526962546974923;-0.7612751194519589;0.809;0.007907268113521257
17:41.4;0.04577435640476856;-0.19933751711629483;-0.7583513971895197;0.8009999999999999;0.006919612627433263
17:41.4;0.03680415490350002;-0.21315534362316785;-0.7539309889378307;0.794;0.005914590331112324
17:41.4;0.029385551083520017;-0.22647936101864335;-0.7491998729540065;0.787;0.004986090602247034
17:41.4;0.023714678324060427;-0.23902278402516333;-0.7455064165432214;0.779;0.0042257901297025665
17:41.4;0.019926590914687174;-0.25048367041874925;-0.7442362944753956;0.773;0.003714695922865131
17:41.5;0.01807873575904036;-0.26057814163027626;-0.7466827985308078;0.7759999999999999;0.003517565443422021
17:41.5;0.018146187785417257;-0.2690749880184536;-0.753920835087945;0.7759999999999999;0.00368115814940081
17:41.5;0.0200271692933596;-0.27582645382851545;-0.7666937870186661;0.7759999999999999;0.004235234179698771
17:41.5;0.02355434792179574;-0.2807902815053863;-0.7853230718570265;0.7879999999999999;0.005193994850135932
17:41.5;0.02850781773935068;-0.28404086794976985;-0.8096505915675664;0.81;0.006556052793469199
17:41.5;0.03462685097857438;-0.2857691885638938;-0.8390240067898177;0.836;0.008302383436573947
17:41.5;0.04161805759048613;-0.28627023020556364;-0.872333210360997;0.866;0.010392987400345303
17:41.5;0.04915912549401026;-0.2859159448147584;-0.908103463564633;0.914;0.012763737272684279
17:41.5;0.056899934539366495;-0.28511309932019974;-0.9446461538274588;0.986;0.01532491585283795
17:41.5;0.06446443793046897;-0.2842477017241667;-0.9802600670146121;1.0659999999999998;0.017962156391913824
17:41.6;0.07145671851518882;-0.2836202843678486;-1.0134622520012324;1.2009999999999998;0.020539408562770797
17:41.6;0.07747373682893462;-0.2833804485553479;-1.0432094669719953;1.2009999999999998;0.02290318636397353
17:41.6;0.08212561194402182;-0.2834740140285312;-1.0690591506757878;1.2009999999999998;0.024888206832451184
17:41.6;0.08506279425290494;-0.2836171134929914;-1.091227576401732;1.204;0.026326153552088935
17:41.6;0.08600870469233379;-0.28330610000780154;-1.110531032681168;1.183;0.027060077231542863
17:41.6;0.08479457789391537;-0.2818642062344915;-1.128223844647591;1.149;0.02696517762073512
17:41.6;0.08139084388442165;-0.27852002299078243;-1.145763388271856;1.128;0.02597328700111341
17:41.6;0.07592917287623283;-0.27250910754075336;-1.1645410551881437;1.13;0.02409597446777107
17:41.6;0.06870984958586496;-0.26318609112165453;-1.1856215870895002;1.1340000000000001;0.02144016038553302
17:41.6;0.06018728749468789;-0.2501292201833028;-1.209529696058048;1.133;0.018208984898664675
17:41.7;0.050925927102058004;-0.2332154290032052;-1.2361146487388126;1.1840000000000002;0.01468097760354938
17:41.7;0.041527548166548786;-0.21264980976164624;-1.2645114693366222;1.242;0.011166679771215843
17:41.7;0.03254715218452834;-0.18895088201180807;-1.2931998572967598;1.242;0.007952937439149444
17:41.7;0.024422233611954072;-0.16290803491878586;-1.3201468270387846;1.242;0.005252307236426215
17:41.7;0.017430962477244676;-0.13552442141406354;-1.3430190219968023;1.3419999999999999;0.0031726421792989917
17:41.7;0.011680253233589384;-0.10794472765347841;-1.3594568101233842;1.449;0.0017140327201308034
17:41.7;0.0071182295796051315;-0.08136288521057958;-1.3673907577515485;1.536;0.0007919376158296174
17:41.7;0.003567167707670968;-0.05691514524443383;-1.3653513760729103;1.577;0.00027720164851618393
17:41.7;0.0007760001589654057;-0.03557654148173128;-1.3527014868498333;1.557;3.734457352414786e-05
17:41.7;-0.0015096225333268173;-0.018081502016051357;-1.32972605746671;1.483;3.629652542824399e-05
17:41.8;-0.0034683393171022815;-0.004881036844149418;-1.2975469849976902;1.1540000000000001;2.196629227658605e-05
17:41.8;-0.005131650306312528;0.003863308348473866;-1.257885089048819;1.1540000000000001;2.493775739048762e-05
17:41.8;-0.00633932777935599;0.008256863809816072;-1.2127477489587348;1.1540000000000001;6.347881433576377e-05
17:41.8;-0.006736542525381423;0.008630476139091984;-1.164135015303923;1.081;6.768230865907862e-05
17:41.8;-0.0058187947548642045;0.0054875476262101625;-1.1138187765070866;1.0290000000000001;3.556525083407937e-05
17:41.8;-0.0030205261577062317;-0.0005572035217574845;-1.0632058978042416;0.997;1.789426360679545e-06
17:41.8;0.002166964015000508;-0.00884580436080674;-1.0132812311699275;0.978;1.9423121540994693e-05
17:41.8;0.010070912292599519;-0.01874812829624326;-0.9646239702207435;0.96;0.00018213138080480832
17:41.8;0.020732299226885877;-0.029727355702761925;-0.9174831620278979;0.941;0.0005654599503583837
17:41.8;0.03384637459394295;-0.04138833333896597;-0.8718894781809853;0.914;0.001221382045715072
17:41.9;0.04876692390961982;-0.05349951168611432;-0.8277781484377758;0.815;0.0021596786655220784
17:41.9;0.06457604041493513;-0.0659850024690537;-0.785104917420106;0.815;0.0033453714545761274
17:41.9;0.08019938732081143;-0.0788898835244474;-0.7439483986122166;0.815;0.00470690224353718
17:41.9;0.09453738623344726;-0.09232694502690292;-0.704595604911242;0.7759999999999999;0.006149955682453467
17:41.9;0.10659186931841799;-0.1064159527200722;-0.6675994902446613;0.741;0.007572631305266068
17:41.9;0.11557813351997091;-0.12122721420758444;-0.6337925967085762;0.7020000000000001;0.008880204432921944
17:41.9;0.12101191571255727;-0.13673963119109206;-0.6042484740309397;0.657;0.009998574864235311
17:41.9;0.12275854706069553;-0.15281981374509337;-0.5801946561029494;0.613;0.010884415948992136
17:41.9;0.12103629026228052;-0.16922455602817615;-0.5628898685757495;0.578;0.011529286181644961
17:41.9;0.1163747490472136;-0.1856254803242666;-0.5534834738252142;0.5579999999999999;0.011956415694251817
17:42.0;0.10953723389252641;-0.20165178842909331;-0.5528770644256688;0.578;0.0122121582024717
17:42.0;0.10142178523542025;-0.2169429218062879;-0.5616055228004146;0.578;0.012356859415528805
17:42.0;0.09295814202265432;-0.23119849341946616;-0.579749194853639;0.578;0.012459843534665
17:42.0;0.0850145518312535;-0.24421402996709904;-0.6068846257489373;0.61;0.01259998463836314
17:42.0;0.07832026541480817;-0.25589909324267496;-0.6420806915398645;0.6509999999999999;0.01286863573388923
17:42.0;0.07340390625857973;-0.2662809814513412;-0.6839461068841227;0.7040000000000001;0.013368454515110527
17:42.0;0.07054836040602852;-0.2754971314099816;-0.730729643478806;0.765;0.014202367026272915
17:42.0;0.06976571320185554;-0.283776759364433;-0.7804676440087396;0.833;0.015451611009305633
17:42.0;0.0707968683121881;-0.2914119269791616;-0.8311671986059874;0.9109999999999999;0.017147853544647207
17:42.0;0.07313977699277179;-0.29872001351000543;-0.8810075412987087;0.995;0.019248530430674014
17:42.1;0.0761086426021492;-0.3060014849417358;-0.9285349764139912;1.138;0.021624983159171614
17:42.1;0.07892163146884022;-0.3134971968041137;-0.9728171213799749;1.138;0.024069159326581723
17:42.1;0.08080548840951697;-0.321348176835547;-1.0135172661190188;1.138;0.02631769512388691
17:42.1;0.0810993719904178;-0.32955997275585036;-1.0508622157697542;1.129;0.028086506697845882
17:42.1;0.07934286767560686;-0.3379743446057742;-1.0855068767678278;1.112;0.02910879359971031
17:42.1;0.07533840556922385;-0.3462514808571728;-1.1183276337115768;1.104;0.029172733228327464
17:42.1;0.06918089139742607;-0.3538648812289598;-1.1501905821226008;1.113;0.028157456686779384
17:42.1;0.061251305937959855;-0.3601102030177127;-1.1817408797103457;1.141;0.02606591882251552
17:42.1;0.05217875927121175;-0.36413003746313194;-1.2132499284720066;1.193;0.023051570982604627
17:42.1;0.04278233052400904;-0.3649584324449474;-1.2445404735966772;1.251;0.019431971553437892
17:42.2;0.03400480133559687;-0.3615905143375731;-1.2749895930872361;1.358;0.01567703438476942
17:42.2;0.026844232570633925;-0.35308029903100285;-1.303590604583347;1.358;0.01235565292172115
17:42.2;0.02228013325246049;-0.3386617345240037;-1.3290448020349117;1.358;0.010028212623678224
17:42.2;0.02118560645522597;-0.31787902781905714;-1.3498607717293571;1.357;0.009090583350837653
17:42.2;0.02422109437342418;-0.2907078356440267;-1.3644587037402032;1.376;0.009607511115098272
17:42.2;0.031719155415391276;-0.257646872322029;-1.3712920395061041;1.4080000000000001;0.01120666641176551
17:42.2;0.043585204223647686;-0.2197570420068224;-1.3689968406109128;1.443;0.013112464694293755
17:42.2;0.05924555121969758;-0.1786262383069034;-1.3565636349355217;1.4680000000000002;0.01435625513468031
17:42.2;0.07766725334494555;-0.13624834407762884;-1.3335070807318763;1.47;0.014111218144068346
17:42.2;0.09745880781871566;-0.09482492156479942;-1.2999944513992032;1.452;0.012013929671844784
17:42.3;0.11704185226438411;-0.05652062817223627;-1.2568936727171274;1.228;0.00831470233397547
17:42.3;0.13486309186625206;-0.023219520461490402;-1.2057245892223085;1.228;0.0037756738864117914
17:42.3;0.14959884886729413;0.0036683442082315987;-1.1485344124459738;1.228;0.0006302927961788577
17:42.3;0.16030650466472496;0.02331653123144388;-1.0877351752531739;1.119;0.004065727425688957
17:42.3;0.16649991018775126;0.03550131941648173;-1.0259241170104316;1.015;0.006064203081436207
17:42.3;0.1681505602190782;0.04054418837700188;-0.9656916794615311;0.9309999999999999;0.006583630053686539
17:42.3;0.1656286283868386;0.03919999386350331;-0.9094295720985542;0.863;0.005904599923206032
17:42.3;0.15960173775338257;0.03251575636096389;-0.8591629990664911;0.8170000000000001;0.0044586875728795826
17:42.3;0.15091131353390158;0.021684946706631476;-0.8164278526440283;0.7809999999999999;0.0026717632431906414
17:42.3;0.14044715321669088;0.007917040824770469;-0.7822014920401408;0.754;0.000869750055575303
17:42.4;0.12903904977124972;-0.0076668122979826735;-0.7568852420562806;0.733;0.0007488003253763065
17:42.4;0.11737930030780985;-0.02410838435886355;-0.7403314707160724;0.733;0.0020950087170348505
17:42.4;0.10598237043340653;-0.040656326951357624;-0.7319066281125828;0.733;0.003153678731482219
17:42.4;0.09517994035378602;-0.056780489192227855;-0.730581034030439;0.74;0.003948325528589471
17:42.4;0.08514352496123803;-0.07216168277504247;-0.7350356145774347;0.75;0.004516132347898891
17:42.4;0.0759240245656349;-0.08666481128123167;-0.7437764422559665;0.7609999999999999;0.004894005301130992
17:42.4;0.06749749288535599;-0.10030191986878739;-0.7552500738188491;0.775;0.0051131397644556716
17:42.4;0.059808055590500654;-0.11318905617628067;-0.7679550252824112;0.792;0.005198761673943832
17:42.4;0.05280133835512395;-0.12550005647054505;-0.7805461508202467;0.81;0.005172344444482153
17:42.4;0.04644452762276534;-0.13742132661377768;-0.7919288076330671;0.8290000000000001;0.005054460748051059
17:42.5;0.04073247220380086;-0.14911245760378367;-0.8013383815608224;0.8690000000000001;0.004867104181230748
17:42.5;0.03568320506284746;-0.1606759968037399;-0.8083979629153644;0.8690000000000001;0.004634896804766855
17:42.5;0.0313295607646878;-0.1721363631623959;-0.8131442662889281;0.8690000000000001;0.004385251777892706
17:42.5;0.0277134271846296;-0.1834268313996262;-0.8160129292267042;0.868;0.004148108810983684
17:42.5;0.02488525760678879;-0.19438616509436038;-0.8177801177239302;0.856;0.0039558884836566315
17:42.5;0.022907049430584112;-0.20476829621845388;-0.8194644320742734;0.84;0.0038438105813126807
17:42.5;0.021854480203683666;-0.2142662819278798;-0.822199005957898;0.826;0.003850093374999461
17:42.5;0.021813417693754104;-0.22254802658452497;-0.8270888819721145;0.809;0.0040151303217611295
17:42.5;0.022867820145644584;-0.2292988460613243;-0.8350731672556563;0.7979999999999999;0.004378760241308238
17:42.5;0.025079636267253593;-0.23426519820791952;-0.8468140290730704;0.81;0.004975274576701526
17:42.6;0.028464543567388;-0.23729372986699282;-0.8626324953210007;0.9159999999999999;0.005826614710700548
17:42.6;0.032968894998671394;-0.2383595208752674;-0.8824992216279421;0.9159999999999999;0.006935076022031143
17:42.6;0.03845374693752963;-0.23757794969458806;-0.906069833104412;0.9159999999999999;0.008277638672722961
17:42.6;0.04469183893220688;-0.2351968145834653;-0.9327455245152804;0.9570000000000001;0.009804440930314292
17:42.6;0.05138182815299797;-0.23156853120093154;-0.9617472948689756;1.0;0.011443267935338602
17:42.6;0.058179609517572034;-0.22710582502271;-0.9922006696862197;1.038;0.013109876227395156
17:42.6;0.06474004621852508;-0.22222800651195165;-1.0232252573621359;1.0759999999999998;0.014721194384375158
17:42.6;0.07075771516080011;-0.21730706336906394;-1.0540178557416262;1.113;0.016206738014666947
17:42.6;0.07599585334425282;-0.21262210817767077;-1.0839171863318633;1.139;0.017514365892829474
17:42.6;0.08029803608658975;-0.20832786656242364;-1.1124413178643142;1.157;0.018609272730158544
17:42.7;0.08358370643932576;-0.20443952769881418;-1.1392931132958475;1.187;0.01946802820511678
17:42.7;0.0858336758331942;-0.20083412147788288;-1.1643336448359818;1.187;0.020071168623440744
17:42.7;0.08707399901499652;-0.19726848411588574;-1.1875276177209386;1.187;0.020398109390892462
17:42.7;0.08736567709440894;-0.19341413518729855;-1.208869204099279;1.217;0.02042717791091255
17:42.7;0.08680328480183501;-0.18890725066050512;-1.2283006005441202;1.234;0.020141390591452937
17:42.7;0.08551878520429157;-0.1834071747855422;-1.2456357197510484;1.225;0.01953749579878669
17:42.7;0.08368076411402857;-0.1766529501776843;-1.2604993118306433;1.2109999999999999;0.018633272909966386
17:42.7;0.08147885987005443;-0.16850809254609822;-1.2722934172669864;1.2109999999999999;0.0174683942883859
17:42.7;0.07908998964714546;-0.15898814809016656;-1.2802075225172362;1.226;0.016097804327801505
17:42.7;0.07663369817277814;-0.14826774225103068;-1.2832884049342588;1.256;0.014581114783953297
17:42.8;0.0741330787788628;-0.1366634504359933;-1.280574951594043;1.367;0.012973866388753823
17:42.8;0.07149930083145244;-0.12459285222376389;-1.2712819030778586;1.367;0.011324962894221281
17:42.8;0.0685492267217205;-0.11251929766921356;-1.2549925550659347;1.367;0.009679896688750383
17:42.8;0.0650535437878419;-0.10089590998043092;-1.2318106269222118;1.344;0.00808515718939988
17:42.8;0.060805564035434474;-0.09011703427211683;-1.2024330795321347;1.294;0.0065888728619453345
17:42.8;0.05569725768465782;-0.08048020220741561;-1.168126948905338;1.218;0.00523616007492429
17:42.8;0.049786059598346866;-0.07216225247282534;-1.1306127929156833;1.131;0.004061923413969797
17:42.8;0.04333624777114789;-0.0652136822858317;-1.0918744723817222;1.053;0.003085764236972318
17:42.8;0.036823690645816275;-0.059571650850441964;-1.053928697443612;0.995;0.0023119486237416016
17:42.8;0.030899265641265643;-0.0550876128880032;-1.018593071916083;0.951;0.0017338152936008531
17:42.9;0.02631260037825221;-0.05156392451926551;-0.9872868567487902;0.89;0.0013395319893614811
17:42.9;0.023805932406389438;-0.04879462590348217;-0.9608893054446519;0.89;0.001116170522008429
17:42.9;0.02399680287386217;-0.04660650178392727;-0.939670883327352;0.89;0.001050934527389918
17:42.9;0.027271095785729036;-0.04489638006245865;-0.9233020241767945;0.89;0.001130466513462611
17:42.9;0.03370250807112907;-0.04366015189678677;-0.9109321095309872;0.893;0.001340397084477751
17:42.9;0.043008834280102076;-0.04300871988820613;-0.9013231234529057;0.903;0.0016672268697426834
17:42.9;0.05455388365824749;-0.04316676274549816;-0.893019973167344;0.9259999999999999;0.0021029857306823657
17:42.9;0.06740074564251446;-0.0444528197188172;-0.8845383100539727;0.9440000000000001;0.002650212283733215
17:42.9;0.08041316294790714;-0.047243076237872286;-0.8745478990287683;0.9490000000000001;0.003322377023365847
17:42.9;0.09239025402012464;-0.05192467544769934;-0.862027754956399;0.951;0.004135435018595696
17:43.0;0.10221122539353998;-0.05884609843142523;-0.8463727793134881;0.8690000000000001;0.0050907052960404145
17:43.0;0.10896459301983322;-0.06827114178694198;-0.8274429917980748;0.8690000000000001;0.006155461924461143
17:43.0;0.11204191577314455;-0.08034012021787265;-0.8055613597556355;0.8690000000000001;0.007251229148975018
17:43.0;0.11118639433691109;-0.09504052266326092;-0.7814728124602591;0.818;0.00825798968706431
17:43.0;0.10649666056938846;-0.11219043056168591;-0.7562718993713854;0.7709999999999999;0.009035865717397902
17:43.0;0.09839298225488752;-0.13143792837710344;-0.7313028252722563;0.733;0.009457624799443374
17:43.0;0.08755717957024108;-0.15227676033510845;-0.708040950050593;0.71;0.009440255927415224
17:43.0;0.07485860307454188;-0.17407578474830288;-0.6879702488086059;0.691;0.008964988521989585
17:43.0;0.061276484929346425;-0.19611974578400723;-0.6724693665357688;0.6809999999999999;0.008081419876493502
17:43.0;0.04782531423138458;-0.21766009786668108;-0.6627134991292708;0.675;0.006898623910567514
17:43.1;0.035486431596890536;-0.2379742317015905;-0.6595955496496025;0.695;0.005570189629679096
17:43.1;0.025147415619526613;-0.25642753871300805;-0.6636686184598803;0.695;0.0042796603779807285
17:43.1;0.01755121084964482;-0.2725277945320952;-0.6751118130734931;0.695;0.0032291899528358154
17:43.1;0.01325659652901471;-0.28596226810099257;-0.6937222285647767;0.72;0.002629822169092255
17:43.1;0.012609119779360252;-0.2966156119904026;-0.7189370952906224;0.759;0.002688869152331625
17:43.1;0.01572017763065288;-0.30457196935730074;-0.7498892021115006;0.8059999999999999;0.0035904136026796824
17:43.1;0.02245389237927288;-0.3101030702704854;-0.7854941541130664;0.855;0.005469412264023308
17:43.1;0.032424838899432665;-0.3136410183451588;-0.824561621730544;0.902;0.008385593379412089
17:43.1;0.04501184221946293;-0.31573504030412586;-0.8659178293539577;0.9540000000000001;0.012306264703716378
17:43.1;0.05939271739462168;-0.3169942224728512;-0.9085245555470588;1.008;0.017104926515181442
17:43.2;0.0746013841472201;-0.3180201666595194;-0.9515791174926379;1.111;0.02257597154779034
17:43.2;0.0896025065267374;-0.3193345609407125;-0.9945769984813154;1.111;0.028458007778138887
17:43.2;0.10337315808073524;-0.3213083050220942;-1.0373167390962295;1.111;0.03445411679294234
17:43.2;0.11498187715200382;-0.3241000020684073;-1.0798355575364587;1.13;0.04024074870117003
17:43.2;0.12366247471769251;-0.3276107027961236;-1.1222844355933295;1.149;0.04546727796441669
17:43.2;0.12888435490565325;-0.3314602753392156;-1.1647679857708315;1.167;0.04975893932697201
17:43.2;0.1304181646025641;-0.33499055727266364;-1.2071781232411294;1.192;0.0527402283421113
17:43.2;0.12838965057165694;-0.3373010751203426;-1.2490473494413354;1.226;0.05409120351136119
17:43.2;0.12330978703092928;-0.33732350712011727;-1.2894432745987099;1.266;0.05363476671790631
17:43.2;0.11606451215725924;-0.3339393190381685;-1.3269212949476414;1.2930000000000001;0.05142948452264718
17:43.3;0.10784422341392984;-0.3261373526996613;-1.3595478060034447;1.365;0.04781805557771178
17:43.3;0.10000292160829005;-0.3131929230404699;-1.3850018178686383;1.365;0.04337854408957861
17:43.3;0.09386404901855638;-0.29483388353222084;-1.400757451024677;1.365;0.0387649848631596
17:43.3;0.09051252795439774;-0.27135376599262134;-1.4043461740834715;1.445;0.034492027475586856
17:43.3;0.0906120739290382;-0.24364032499748758;-1.393692626209732;1.544;0.030768210850325096
17:43.3;0.09427915087555105;-0.21310282366026126;-1.3674974699956608;1.614;0.027474601257639644
17:43.3;0.10104351273579135;-0.18150087094213335;-1.3256039976226848;1.6280000000000001;0.024310895378775524
17:43.3;0.10991654019964606;-0.15070290911175338;-1.2692564590649618;1.565;0.021024906242805105
17:43.3;0.11956273047645817;-0.12242540700869686;-1.2011610470926686;1.432;0.017582013975309764
17:43.3;0.12853827653222646;-0.09801088496272373;-1.1252968011726383;1.2590000000000001;0.014176658159582847
17:43.4;0.135541256731001;-0.07828982022312356;-1.0464825772472544;0.787;0.011104750519671015
17:43.4;0.13961980950261424;-0.06354458758384275;-0.9697786314325884;0.787;0.00860395671662606
17:43.4;0.1403034279310979;-0.05356438318768995;-0.8998612452449314;0.787;0.0067626971396499294
17:43.4;0.13764433594641878;-0.04776238557713257;-0.8405067592944693;0.698;0.005525677898648581
17:43.4;0.13217132890542746;-0.04532497982835419;-0.7942540684067856;0.655;0.004758108314478446
17:43.4;0.12476961859079326;-0.04536734284440746;-0.7622500536294847;0.6509999999999999;0.0043146905602226195
17:43.4;0.11651116345534725;-0.04707179686937198;-0.7442619488882541;0.682;0.0040818226552890085
17:43.4;0.1084681015950574;-0.04978918556456244;-0.7388370991993409;0.7290000000000001;0.003990118153758854
17:43.4;0.10154348768541996;-0.053093085381964854;-0.7435785927759118;0.7829999999999999;0.004008823339205685
17:43.4;0.09634891578468154;-0.05678847153775573;-0.7554916076487977;0.825;0.004133678119624631
17:43.5;0.0931486523747543;-0.060884997873377325;-0.7713501603219378;0.883;0.004374600975513616
17:43.5;0.09187369755711038;-0.06554765810134988;-0.7880380040936324;0.883;0.004745648168861967
17:43.5;0.0921907205474521;-0.07103583746339605;-0.8028282947092946;0.883;0.005257598096133612
17:43.5;0.09360145899841758;-0.07763915892108478;-0.813582570188244;0.882;0.005912417259767656
17:43.5;0.09555200614536964;-0.08561692923418927;-0.8188666061674914;0.878;0.006699040718769044
17:43.5;0.09753793093346884;-0.09514700091671438;-0.817992323730465;0.866;0.007591329992852733
17:43.5;0.09919249092243197;-0.10628839835403718;-0.8109989460700249;0.853;0.008550370800396643
17:43.5;0.10034531963138552;-0.11896003918527306;-0.7985863949646926;0.836;0.009532792203471328
17:43.5;0.10104253010851717;-0.13293650606363366;-0.7820122952883808;0.818;0.010504177549944087
17:43.5;0.10152551876935151;-0.14786159665233062;-0.7629614402925277;0.7959999999999999;0.011453367560888397
17:43.6;0.1021732170946237;-0.16327964124097058;-0.7433946067688725;0.733;0.012401908178375743
17:43.6;0.10342022318949638;-0.17868077987060016;-0.7253852654611196;0.733;0.013404543846943085
17:43.6;0.10566876414883461;-0.19355100936508368;-0.7109570668636139;0.733;0.01454070434589875
17:43.6;0.10921200035563534;-0.2074175265935604;-0.701934578351059;0.7190000000000001;0.015900561094857157
17:43.6;0.11417969366777586;-0.21988612457530024;-0.699812683353827;0.71;0.01756986837100011
17:43.6;0.12050979657527236;-0.23067195878100208;-0.7056458045702523;0.706;0.019615704958478166
17:43.6;0.12794512020094526;-0.23962350847084177;-0.7199621447037453;0.71;0.022073073595273475
17:43.6;0.13605247503952642;-0.24673671164357522;-0.7427144968956011;0.731;0.02493228715078292
17:43.6;0.14426046431357015;-0.25215547208408273;-0.773281849675498;0.762;0.028128951199882266
17:43.6;0.1519105234522868;-0.2561552977325216;-0.8105344312880464;0.797;0.03154007130109545
17:43.7;0.15831456052288562;-0.25910885413164964;-0.852967278536767;1.035;0.034989318569663
17:43.7;0.1628127787534697;-0.26143607893043924;-0.8988869808229186;1.035;0.03826124521842059
17:43.7;0.16482713892679626;-0.26354512901918203;-0.9466078264598415;1.035;0.041120066166626404
17:43.7;0.16390865931132162;-0.2657712400984015;-0.9946069418273875;1.035;0.043327274128063066
17:43.7;0.15977884845571616;-0.26831891024869575;-1.0416182769500983;1.105;0.04465593222043869
17:43.7;0.15236539500847168;-0.2712115494743232;-1.0866799003920544;1.162;0.04490515048221991
17:43.7;0.1418295615611324;-0.27425381549770605;-1.129154048164995;1.209;0.043921041960647896
17:43.7;0.1285794660298306;-0.27701424045016176;-1.168723506890302;1.247;0.04162799488052565
17:43.7;0.11326242201178927;-0.2788366501071523;-1.2053564425796843;1.271;0.0380672228435609
17:43.7;0.09673233160870197;-0.278886755434062;-1.2392325663928307;1.285;0.03343123063643996
17:43.8;0.07999397256901383;-0.276235696037555;-1.2706308273026883;1.294;0.028077371689292335
17:43.8;0.06413177342810392;-0.26997531956570303;-1.2997877054510554;1.294;0.022504519166261224
17:43.8;0.05023181358789857;-0.25935127356500737;-1.326743846287624;1.294;0.01728440067626231
17:43.8;0.03930036128609507;-0.2438944189780443;-1.351203646414078;1.2770000000000001;0.012951474472946957
17:43.8;0.03217530238835357;-0.2235321537150017;-1.3724367955064958;1.266;0.009870860012155952
17:43.8;0.029426870826482474;-0.1986649472782375;-1.389252917998745;1.29;0.00812169445348695
17:43.8;0.031253749184919674;-0.17019468689762024;-1.4000771627356783;1.361;0.0074473213253914115
17:43.8;0.03739362704695819;-0.13949099650358343;-1.4031390490707603;1.449;0.007318877532712343
17:43.8;0.047076009991472094;-0.10828487882733294;-1.3967569029762226;1.55;0.007120135976268927
17:43.8;0.05904673284277173;-0.07849177025243687;-1.379663833547037;1.619;0.006394303947257194
17:43.9;0.07168546132954276;-0.05198733952752848;-1.3512959732108398;1.421;0.005035923913951427
17:43.9;0.08321217056467078;-0.030378449214891766;-1.311971803968085;1.421;0.003316476711670288
17:43.9;0.09194218455411446;-0.01481636307677736;-1.2629337300362578;1.421;0.001720429943604008
17:43.9;0.0965313434983614;-0.005885249786395779;-1.2062616567024953;1.273;0.0006852905989261883
17:43.9;0.09616756731212284;-0.003574775234364417;-1.144676790497501;1.1320000000000001;0.00039351405434833624
17:43.9;0.09068800104931975;-0.007325634121107999;-1.0812578412231637;1.012;0.000718330527238496
17:43.9;0.08061124639038932;-0.016127916262768244;-1.0191125994514445;0.927;0.001324939558404416
17:43.9;0.06707991625934885;-0.02865147693326517;-0.9610632738479988;0.872;0.0018471046735833623
17:43.9;0.05171901429461756;-0.04339121688590343;-0.9093944879094478;0.8290000000000001;0.002040818518865261
17:43.9;0.036427444710623175;-0.05881592549099905;-0.8656888650859996;0.805;0.001854750403951306
17:44.0;0.02313012859801928;-0.07351363126486321;-0.8307535416110053;0.787;0.0014125964951291004
17:44.0;0.013526562879810432;-0.08632478659867666;-0.804628692193571;0.787;0.0009395469436523118
17:44.0;0.008875046578101502;-0.09644797399812471;-0.7866646925562668;0.787;0.0006733694493233419
17:44.0;0.009844588467349468;-0.10350100979307399;-0.77565284274575;0.787;0.0007903319544052069
17:44.0;0.016450534943741456;-0.10752903401665456;-0.7699930028657841;0.799;0.0013620484239978531
17:44.0;0.02807485965505216;-0.10896259590589148;-0.7678808440897092;0.81;0.0023490316523721907
17:44.0;0.04356200664849544;-0.10853519196841732;-0.7674976764508139;0.8190000000000001;0.003628737268024572
17:44.0;0.06137351032837155;-0.10717294048600752;-0.7671861110372666;0.828;0.005046227690223675
17:44.0;0.07977902840926651;-0.10587174676990843;-0.7655960485893968;0.835;0.006466488428449241
17:44.0;0.09705915520236935;-0.10557846579108632;-0.7617884549922529;0.8390000000000001;0.007806318026148852
17:44.1;0.11169553554402971;-0.10709098334519418;-0.7552889120924624;0.7879999999999999;0.009034452322667504
17:44.1;0.12252588962347166;-0.11098733439107272;-0.7460903408790741;0.7879999999999999;0.010145949654393423
17:44.1;0.1288467874763752;-0.1175871686140126;-0.7346136517417005;0.7879999999999999;0.011129932301671515
17:44.1;0.13045566701596503;-0.12694412798740273;-0.7216391911173808;0.755;0.011950764198150932
17:44.1;0.12763329350578348;-0.13886685706973645;-0.7082180565118754;0.7240000000000001;0.012552481144339628
17:44.1;0.12107562087391309;-0.15296549218045724;-0.6955694663212312;0.6990000000000001;0.01288221913639734
17:44.1;0.11178887783542672;-0.16871682897915974;-0.6849737487074926;0.691;0.012919060396885965
17:44.1;0.10096400482303779;-0.18553790926070768;-0.6776737725617935;0.6859999999999999;0.012694625843238569
17:44.1;0.08984641911718715;-0.2028574829718576;-0.674795425248284;0.688;0.012298833861202995
17:44.1;0.07961457789747202;-0.2201768675612521;-0.6772927188300076;0.7;0.011872459381762726
17:44.2;0.07127680362491966;-0.2371139510462888;-0.6859183959531191;0.768;0.01159251785694573
17:44.2;0.0655919885785267;-0.25342536678863287;-0.7012149241712604;0.768;0.011656066922883011
17:44.2;0.06301706129435179;-0.26900329381519306;-0.7235139576478238;0.768;0.012264861776313713
17:44.2;0.06368192811701863;-0.2838472339838786;-0.7529322382204751;0.797;0.01360995732273083
17:44.2;0.06739082907888064;-0.2980167555991801;-0.7893612813205976;0.83;0.015853213260921675
17:44.2;0.0736487103263539;-0.3115743816082509;-0.8324573920554612;0.867;0.01910244254397658
17:44.2;0.08171241531351892;-0.3245270394441537;-0.8816401326326462;0.9179999999999999;0.023379234494054962
17:44.2;0.09066742443008981;-0.33677243675299556;-0.9361048759568286;0.972;0.028583297246858437
17:44.2;0.09952928671321616;-0.34805542059232253;-0.9948529569276613;1.038;0.034463405386342835
17:44.2;0.10736357745006428;-0.35793870138934986;-1.05674100694336;1.112;0.04061011252560613
17:44.3;0.1134103524364928;-0.3657918741476918;-1.1205464785112236;1.301;0.04648540604380361
17:44.3;0.11719299970504841;-0.37080290433245894;-1.1850345489166538;1.301;0.05149627436041555
17:44.3;0.11859188559425415;-0.37201762589185283;-1.2489979868083518;1.301;0.05510363257075083
17:44.3;0.11787038708161414;-0.3684136938180075;-1.3112464719782637;1.357;0.056940962878707986
17:44.3;0.11564995829560888;-0.3590128240704329;-1.3705487965212835;1.405;0.05690493677168283
17:44.3;0.11283722858753462;-0.3430276429011479;-1.4255533607439492;1.4369999999999998;0.055177879729908716
17:44.3;0.11050879597795639;-0.3200281193827033;-1.474714082433;1.4509999999999998;0.05215462343589011
17:44.3;0.10976105708071002;-0.2901002478118028;-1.5162450293497027;1.463;0.04827983430000653
17:44.3;0.11153823711617096;-0.25396024846659615;-1.5481293415208144;1.484;0.043852742745006446
17:44.3;0.1164637604786006;-0.21298443450937185;-1.5682095432694585;1.526;0.03889938779899605
17:44.4;0.12471070918024146;-0.16912406193078075;-1.5743756510382512;1.675;0.03320607267482062
17:44.4;0.1359431961964052;-0.12470648987264897;-1.5648380579076466;1.675;0.02652869774876524
17:44.4;0.14934045934839946;-0.08217032332179758;-1.5384338753859603;1.675;0.01887866642843272
17:44.4;0.16369653983697244;-0.04380212700961334;-1.4948958581317524;1.6680000000000001;0.010718786936393922
17:44.4;0.17758160100061474;-0.011518220387244054;-1.435024902242441;1.599;0.00293523440010394
17:44.4;0.1895445777491512;0.013294257198097433;-1.3607324507203178;1.4869999999999999;0.0034288476084049888
17:44.4;0.19832302007549152;0.029868620494194763;-1.2749428531137508;1.35;0.0075522961356224395
17:44.4;0.20301737346773255;0.0380742428086303;-1.1813697108230474;1.21;0.00913167216933815
17:44.4;0.20319468404191024;0.03835987530448908;-1.084201932093879;1.078;0.008450836617041041
17:44.4;0.198906350685699;0.03164199574628475;-0.9877454815893975;0.9570000000000001;0.0062166664890575644
17:44.5;0.19062644192433228;0.019162140285050106;-0.8960658959735907;0.711;0.0032731590229981263
17:44.5;0.17913574214428588;0.0023372223772230587;-0.8126752883283099;0.711;0.0003402509426225269
17:44.5;0.1653873134350963;-0.017376404418502866;-0.7403068304501109;0.711;0.002127521045166436
17:44.5;0.15038533441553004;-0.038591931796760834;-0.6808024981753965;0.669;0.00395114661393534
17:44.5;0.1350925586199104;-0.06007193902917032;-0.635104384483832;0.636;0.0051540447933638754
17:44.5;0.1203668532584418;-0.08078398702822501;-0.6033151144875031;0.611;0.005866463813543844
17:44.5;0.10692186654961051;-0.09993646428453544;-0.5847956738474624;0.59;0.0062487717738366816
17:44.5;0.09530632946672178;-0.11699628846936509;-0.5782840342237631;0.585;0.006448148499078718
17:44.5;0.08589627031619337;-0.131688918130745;-0.5820290069245266;0.593;0.0065836716956217765
17:44.5;0.07889485003182552;-0.14398171907803292;-0.593938453105291;0.611;0.006746794046798834
17:44.6;0.0743364028540396;-0.1540529973852446;-0.6117402715123407;0.695;0.007005494008210037
17:44.6;0.0720944701690379;-0.1622496098636673;-0.6331480999002032;0.695;0.007406123052586942
17:44.6;0.07189696352392279;-0.169035532417246;-0.6560155669785098;0.695;0.007972650017235629
17:44.6;0.07335275656893717;-0.17493368467591258;-0.6784633625515636;0.723;0.008705952302779459
17:44.6;0.0759920387584648;-0.18046470737626633;-0.6989742415520906;0.7509999999999999;0.009585649596902756
17:44.6;0.0793190427124718;-0.186088038768799;-0.7164597578155137;0.77;0.010575178943115979
17:44.6;0.08287140299142554;-0.19215137988255618;-0.7303014212518987;0.7859999999999999;0.011629213527591878
17:44.6;0.08627604032462433;-0.198854475352249;-0.7403649041298735;0.8029999999999999;0.012701979216048745
17:44.6;0.08928918539964247;-0.20623210591871885;-0.7469849846550144;0.8109999999999999;0.013755203168310958
17:44.6;0.09181021672784538;-0.2141596304305232;-0.7509194951013102;0.812;0.014764610714514362
17:44.7;0.09386534013715885;-0.2223821781939315;-0.7532714627554368;0.795;0.015723772541652643
17:44.7;0.09556589024761246;-0.2305635851143381;-0.7553820977835677;0.795;0.016644099921966048
17:44.7;0.09705382150438435;-0.23834411339781922;-0.7587030811390841;0.795;0.01755047675353022
17:44.7;0.09844929452919521;-0.2453938016166306;-0.7646601402209494;0.785;0.01847330706772592
17:44.7;0.09981131383897858;-0.25145399370671173;-0.7745193751397265;0.782;0.019438851248106587
17:44.7;0.10111669783100881;-0.25636607783598786;-0.7892673130102923;0.7909999999999999;0.020460090703925966
17:44.7;0.10225850013144575;-0.26008787888885315;-0.8095172496644685;0.8059999999999999;0.021530079759275247
17:44.7;0.10306149916044371;-0.2626968905533295;-0.8354548270768505;0.8340000000000001;0.022619049988833975
17:44.7;0.10330935061794273;-0.2643790428645826;-0.8668327075020008;0.8759999999999999;0.023675651981938328
17:44.7;0.1027771671294958;-0.26540225977574133;-0.9030185410133527;0.92;0.024631900794436848
17:44.8;0.1012650006562139;-0.26607551057624523;-0.943092038454971;1.071;0.02541080085489617
17:44.8;0.09863000920704679;-0.26669665492822453;-0.9859734690290262;1.071;0.025935335543176372
17:44.8;0.09481604066274943;-0.26749488601547;-1.0305525033076224;1.071;0.026137703203405728
17:44.8;0.08987897172277606;-0.2685739552366103;-1.0757893086277595;1.1179999999999999;0.025968640487893734
17:44.8;0.0840058755550139;-0.2698612470190289;-1.1207812875774694;1.169;0.025408033709257788
17:44.8;0.07752695759094955;-0.271067936232652;-1.164805356784172;1.2229999999999999;0.024478468900737783
17:44.8;0.07092018290763312;-0.2716674914558632;-1.2073424805464215;1.28;0.023261515250964603
17:44.8;0.06480761687219212;-0.27090179487064014;-1.2480796929822477;1.33;0.021911910795314574
17:44.8;0.05993959951455533;-0.2678245089078174;-1.2868781580749695;1.361;0.020658633161678448
17:44.8;0.05715971031833071;-0.2613883594146147;-1.3236964534922009;1.367;0.019777193713024204
17:44.9;0.05734195762064262;-0.25057497169695275;-1.3584668932967736;1.328;0.01951907641322973
17:44.9;0.061294591384028145;-0.23455466733099825;-1.3909395334386472;1.328;0.019997443771686288
17:44.9;0.06963369480038523;-0.21285464371891516;-1.420527583635388;1.3219999999999998;0.021054854290847178
17:44.9;0.082640161666377;-0.1855091437578011;-1.446198876656079;1.337;0.022170960021739884
17:44.9;0.1001221892299747;-0.15316166587060523;-1.4664554148306275;1.376;0.022487919708014576
17:44.9;0.12131335218593861;-0.1170887635988745;-1.4794284753982327;1.446;0.02101443883348329
17:44.9;0.14484177687639474;-0.07912560806315184;-1.4830922299032367;1.538;0.016997265728745235
17:44.9;0.16880072063242113;-0.04149603079782772;-1.4755668509968145;1.6219999999999999;0.010335696397298956
17:44.9;0.190930773683818;-0.006573147855767791;-1.4554510659698863;1.68;0.0018266146743080361
17:44.9;0.20889515806133116;0.02338923912819428;-1.4221055447318398;1.689;0.006948263781046517
17:45.0;0.22060304119465154;0.046510825211011846;-1.3758137238063022;1.389;0.014116439704519281
17:45.0;0.22451956637587134;0.0614859690375887;-1.3177861861649092;1.389;0.01819177883649804
17:45.0;0.21990059255373368;0.06770509835633065;-1.2500346371932474;1.389;0.018611004751417193
17:45.0;0.2069062911659448;0.06528506008209406;-1.1751719906735993;1.232;0.01587409356994488
17:45.0;0.18657478743859418;0.05501150135950251;-1.0961751954567072;1.0859999999999999;0.011250878217394334
17:45.0;0.16066586666326432;0.03820739370701041;-1.016123534119886;0.96;0.0062376003367634585
17:45.0;0.13140914896441758;0.016549868248895476;-0.9379316615518438;0.8540000000000001;0.0020398176249954553
17:45.0;0.1012059580760184;-0.008137425490241235;-0.8641105791299689;0.772;0.0007116434028620942
17:45.0;0.07233614674493899;-0.03408779212909653;-0.7965879866335287;0.715;0.0019642103542014183
17:45.0;0.046713012071403354;-0.059764541410904364;-0.7366078252311712;0.6779999999999999;0.0020564482792400744
17:45.1;0.025716144701682934;-0.0839837625207377;-0.6847164591489947;0.6459999999999999;0.0014788085597412836
17:45.1;0.010115443438136551;-0.10597653748915238;-0.6408316298996918;0.6459999999999999;0.0006869712962529384
17:45.1;8.145560984998282e-05;-0.12539070783010212;-0.6043798541526356;0.6459999999999999;6.173000797242896e-06
17:45.1;-0.004735664673878333;-0.14224133697628236;-0.5744782487158632;0.642;0.00038697272748261725
17:45.1;-0.005079644299790345;-0.15682522926222245;-0.5501299522777655;0.624;0.00043824253215017054
17:45.1;-0.001934033370742193;-0.16961731568988223;-0.5304024718522912;0.603;0.00017399616996363254
17:45.1;0.0036390787847702605;-0.1811656312309421;-0.5145664360785254;0.583;0.00033924130435802397
17:45.1;0.010646904898089204;-0.1919984426556647;-0.5021841566414145;0.565;0.0010265594090971561
17:45.1;0.018282284743599594;-0.20255347047426153;-0.4931475635966774;0.5539999999999999;0.0018261945786365768
17:45.1;0.025995950315835105;-0.2131360025911075;-0.48767075472185223;0.55;0.0027020241513293374
17:45.2;0.03351946841339433;-0.22390906969683602;-0.4862442352444031;0.5539999999999999;0.0036494151746915768
17:45.2;0.040841963829111295;-0.23491224188326087;-0.4895583999133691;0.5539999999999999;0.004696959036465013
17:45.2;0.04815172901464548;-0.24609743298003825;-0.498404657497626;0.5539999999999999;0.00590610361640645
17:45.2;0.05575795851383989;-0.2573679754083659;-0.5135633641414273;0.562;0.0073697949671519035
17:45.2;0.06400638552797204;-0.2686136779972136;-0.5356880176488468;0.574;0.00921007906909852
17:45.2;0.07319874476905837;-0.27974088221241694;-0.5651962931547377;0.598;0.01157334444517206
17:45.2;0.08352329850073492;-0.29069627577328205;-0.6021807105663066;0.629;0.014620894548921069
17:45.2;0.09500255953878772;-0.3014803831218926;-0.6463529039795632;0.665;0.018512457265445124
17:45.2;0.10746411089300836;-0.312146482173029;-0.6970341269215341;0.716;0.02338169206207504
17:45.2;0.12054002362589587;-0.3227834027658104;-0.7532011028920153;0.782;0.029305788779038135
17:45.3;0.13369773641099028;-0.3334839201703282;-0.8135883892493865;1.018;0.03627468874302151
17:45.3;0.14629839099074662;-0.34430282465787315;-0.8768296480634498;1.018;0.04416674171315855
17:45.3;0.1576701364538482;-0.3552106772058507;-0.9415971052428147;1.018;0.052735196649620994
17:45.3;0.16718189953250454;-0.36605125357025853;-1.0066981514430056;1.104;0.061607051635839384
17:45.3;0.1743094763950753;-0.3765116510513781;-1.071116911367826;1.185;0.07029691955307554
17:45.3;0.17869112480602442;-0.386112670846064;-1.1340122008549205;1.247;0.07824106685121332
17:45.3;0.18016877728457945;-0.39422362246524395;-1.1946809596427312;1.284;0.08485435129150076
17:45.3;0.17880954414355388;-0.4001015129852835;-1.2524885172086466;1.297;0.0896054948564213
17:45.3;0.17490504525667624;-0.40295076393235113;-1.3067732804145566;1.3119999999999998;0.0920989261630404
17:45.3;0.1689503667741236;-0.40199611757207837;-1.3567486099286628;1.339;0.09214682651517149
17:45.4;0.16160645920635006;-0.3965586431028446;-1.4014340540698698;1.475;0.08981291686883036
17:45.4;0.1536501669699649;-0.3861257979868338;-1.4396394876527039;1.475;0.08541135381591643
17:45.4;0.145916278422351;-0.3704125948119541;-1.4700026320925588;1.475;0.07945250641668711
17:45.4;0.13923462078356705;-0.3494154544293713;-1.4910664782630727;1.508;0.07254147010136054
17:45.4;0.13436172812724553;-0.3234569972604483;-1.5013900716195159;1.531;0.06525077453791296
17:45.4;0.13190518875408314;-0.293212959576211;-1.4996946902541233;1.561;0.0580026579124501
17:45.4;0.1322436520920498;-0.2597086528925926;-1.4850402959645723;1.595;0.05100344275423778
17:45.4;0.1354550348459951;-0.22427331696390515;-1.4570104328866915;1.604;0.04426244703823378
17:45.4;0.1412740342587163;-0.18844625782408353;-1.415868927122701;1.5759999999999998;0.03769405983066884
17:45.4;0.14910237373059324;-0.15383952890820166;-1.3626449118821247;1.521;0.031256129512726646
17:45.5;0.15808653973065617;-0.121975868045439;-1.2991112709103392;1.215;0.025050428648378018
17:45.5;0.16725507943065387;-0.09413228698736947;-1.227653991489609;1.215;0.01932831105863773
17:45.5;0.17568032956407834;-0.07122250245507351;-1.15107336409586;1.215;0.014402681962319985
17:45.5;0.18261998474795693;-0.053740319258410905;-1.0723712073137361;1.092;0.010524311385190258
17:45.5;0.18760912618502368;-0.04176587863319226;-0.9945491329897563;0.976;0.00779294885415423
17:45.5;0.19049399177817736;-0.035020778001501406;-0.92041727552129;0.877;0.006140331721350729
17:45.5;0.1914101907090305;-0.032953002472283895;-0.8524205708946883;0.804;0.005376677263428248
17:45.5;0.1907148921213819;-0.03483380252934282;-0.792504799862274;0.7490000000000001;0.005264866863606721
17:45.5;0.1888898213276208;-0.039851410036776544;-0.7420423856898835;0.72;0.005585743144724174
17:45.5;0.18643685844891628;-0.04719036541441003;-0.7018237514021302;0.71;0.006174661841495304
17:45.6;0.1837875727135516;-0.056090273386574775;-0.6721052724514093;0.7070000000000001;0.006928528395045426
17:45.6;0.1812419294079406;-0.0658830352272566;-0.6526941379789925;0.7070000000000001;0.00779366955059379
17:45.6;0.17894208920950855;-0.07601204061871517;-0.6430456412646018;0.7070000000000001;0.00874654820745421
17:45.6;0.1768792876087059;-0.08603980345960388;-0.642350008039224;0.7;0.009775705822163534
17:45.6;0.1749275270008017;-0.0956511314509792;-0.6495929855133085;0.687;0.01086900014885193
17:45.6;0.17289479581449738;-0.1046561753663127;-0.6635860143257034;0.6759999999999999;0.012007262491810044
17:45.6;0.17057930473775;-0.11299281628373609;-0.6829753787810339;0.6779999999999999;0.013163828661527335
17:45.6;0.16781739339515858;-0.12072423961369357;-0.7062501568765187;0.693;0.01430836489644
17:45.6;0.1645130167454102;-0.12802721752158608;-0.7317714604826441;0.723;0.015412675714783814
17:45.6;0.1606445537240135;-0.13516853347257998;-0.7578398846427367;0.759;0.01645580250374604
17:45.7;0.1562512383491341;-0.14246951753505901;-0.7828061028363675;0.888;0.017426076826040974
17:45.7;0.15140791661357178;-0.15026123042518705;-0.8052117599920712;0.888;0.01831916327289738
17:45.7;0.14620110552817964;-0.1588351573900401;-0.8239300361711952;0.888;0.019133200808975504
17:45.7;0.1407179751777297;-0.1683959879295693;-0.8382723116069448;0.915;0.01986398776177415
17:45.7;0.1350524063592287;-0.1790238392883597;-0.8480427654426638;0.924;0.020503639013022573
17:45.7;0.12932330929422342;-0.1906525556150871;-0.8535389754631122;0.919;0.02104470284485405
17:45.7;0.12369490764348084;-0.20306792642637073;-0.8555022998633425;0.905;0.021488907489233978
17:45.7;0.11838862178630874;-0.21592555578005176;-0.8550242134793983;0.888;0.02185709423073918
17:45.7;0.11368047934915644;-0.22878484870014645;-0.8534198733922918;0.868;0.02219606091472482
17:45.7;0.1098829381414193;-0.24115467037120153;-0.852085324240009;0.858;0.022579224723912626
17:45.8;0.10731251746880274;-0.25254653083058565;-0.8523568577380403;0.872;0.023100067554958897
17:45.8;0.10624613128105381;-0.2625298497886564;-0.8553889701842213;0.872;0.023859177117513605
17:45.8;0.10687198977959293;-0.27078109084342716;-0.8620617200212566;0.872;0.02494712995521998
17:45.8;0.10924331305424118;-0.27711882456480663;-0.8729226425799159;0.888;0.026426317564543247
17:45.8;0.11324251676244328;-0.2815213709530533;-0.8881656152301941;0.9129999999999999;0.028314887294162296
17:45.8;0.11856248717228261;-0.2841271725446021;-0.9076474635854416;0.941;0.030575760586866618
17:45.8;0.12471168470136161;-0.2852175284297488;-0.9309400134930058;0.976;0.03311349762436808
17:45.8;0.13104810025702363;-0.2851803663014923;-0.9574112790436884;1.0170000000000001;0.03578070485174134
17:45.8;0.13684154803271156;-0.2844552552153643;-0.9863260189520242;1.0590000000000002;0.03839303368982286
17:45.8;0.14135644072729933;-0.28346317536818477;-1.0169531678977433;1.1;0.04074864788992102
17:45.9;0.14394158892239814;-0.2825286993561114;-1.0486650693602808;1.18;0.0426467229313718
17:45.9;0.1441122888429021;-0.28180664357577706;-1.0810101289903404;1.18;0.0439017676071394
17:45.9;0.14161294841620597;-0.28122785854991017;-1.1137391852789897;1.18;0.04435522685750031
17:45.9;0.13645325725089097;-0.28047702365184557;-1.146773760938678;1.198;0.043889329348006954
17:45.9;0.12891539193131618;-0.27900990059114605;-1.1801207531977562;1.214;0.04244737474316624
17:45.9;0.1195335289103222;-0.27611205099205316;-1.213750689138308;1.232;0.040059414048122514
17:45.9;0.10904902873184595;-0.2709956796880004;-1.2474593434798098;1.238;0.03686468856248728
17:45.9;0.09834348082449383;-0.2629232213451735;-1.2807328011429606;1.2229999999999999;0.033115632395579346
17:45.9;0.08834903017940346;-0.25133775129142644;-1.3126409211494323;1.217;0.02914777784552127
17:45.9;0.07993622637337355;-0.23597749946727758;-1.3417914282470553;1.232;0.02531041407522921
17:46.0;0.07378703935602145;-0.21695555551259046;-1.3663768727961447;1.412;0.021873655253729796
17:46.0;0.07027221639099694;-0.194793144989032;-1.3843273540662693;1.412;0.018949428715240753
17:46.0;0.06936106160957287;-0.17040361580037566;-1.3935470119303601;1.412;0.01647085568128925
17:46.0;0.0705905091663312;-0.14502927263475493;-1.3921898791600005;1.484;0.01425280868145493
17:46.0;0.07310853766063749;-0.12013204905099716;-1.3789342319621571;1.526;0.012110735938606447
17:46.0;0.07579211494299355;-0.09724168578212808;-1.3532202784953966;1.528;0.009973440530464412
17:46.0;0.07742649490142016;-0.07777791820378331;-1.315409186597727;1.4780000000000002;0.007921488288215574
17:46.0;0.076919067304391;-0.06287628614612072;-1.2668210276821708;1.381;0.006126834578180673
17:46.0;0.07350813705799432;-0.05325010289714201;-1.2096299163245143;1.261;0.004734873568758389
17:46.0;0.06692117859184205;-0.049113907373974856;-1.1466272885710196;1.137;0.0037686893567968147
17:46.1;0.05744458122345048;-0.0501801384505416;-1.080894850894913;0.892;0.003115762678791246
17:46.1;0.04589079548502677;-0.055723524879526;-1.015451763371702;0.892;0.0025967100850967945
17:46.1;0.03348047884070146;-0.06469267254111578;-0.9529490298268626;0.892;0.0020640319979945585
17:46.1;0.02167422998506882;-0.0758449131874142;-0.8954636378958799;0.846;0.0014720348471080852
17:46.1;0.011981997707072058;-0.08788889555617452;-0.8444018327275868;0.809;0.0008892265198414242
17:46.1;0.005767838115720867;-0.09962671134439181;-0.8004892080999394;0.7809999999999999;0.0004599857084428504
17:46.1;0.004068435561817612;-0.11008520751674038;-0.7638224249061617;0.764;0.0003420966424723156
17:46.1;0.007448119517429458;-0.11862036535716887;-0.7339665258637755;0.7559999999999999;0.0006484584408974608
17:46.1;0.015912846370378497;-0.12497756693996472;-0.7100860603442609;0.7490000000000001;0.00141218281635445
17:46.1;0.028901226151967156;-0.12929625898377378;-0.6910968538391594;0.743;0.0025825048366559834
17:46.2;0.04536057385450944;-0.1320579893078079;-0.6758228557992522;0.7140000000000001;0.004048331761874154
17:46.2;0.06389618832634861;-0.1339891651887785;-0.6631428082057893;0.7140000000000001;0.005677428804043771
17:46.2;0.08295959475112785;-0.13593964540447717;-0.6521154792066682;0.7140000000000001;0.007354230942985503
17:46.2;0.10103568038099842;-0.1387598377216207;-0.6420763918426693;0.705;0.009001714932339689
17:46.2;0.11680386313853215;-0.14319265513143875;-0.6327005772367444;0.698;0.010582205218058716
17:46.2;0.12926336767728755;-0.14978996609617667;-0.6240274705244495;0.69;0.012082641702258833
17:46.2;0.13781408402871229;-0.15885996621474388;-0.6164479368751812;0.68;0.013495981436401454
17:46.2;0.14228295445333144;-0.1704491109858545;-0.6106574165810468;0.6679999999999999;0.014809665556915073
17:46.2;0.14289171962939756;-0.18435799091421606;-0.6075812215033453;0.654;0.01600565207388249
17:46.2;0.14017288417281443;-0.20018658512961418;-0.6082787614524665;0.647;0.017068746704411105
17:46.3;0.1348511661255945;-0.21740126360360992;-0.6138340675584809;0.669;0.01799565913276215
17:46.3;0.12771422201036312;-0.23541175773123468;-0.6252403110308081;0.669;0.01879811848606306
17:46.3;0.11949727779514624;-0.2536423024919839;-0.6432858361956741;0.669;0.019497713660856023
17:46.3;0.11079995952284455;-0.271583741116807;-0.6684498195398297;0.687;0.02011463603530759
17:46.3;0.10204226215782652;-0.28882331912018266;-0.7008180619711291;0.715;0.02065463946649807
17:46.3;0.09345661571164414;-0.30505645642237683;-0.7400318891600935;0.748;0.021097971718897664
17:46.3;0.08510813078199168;-0.3200842323161253;-0.7852833415740818;0.8;0.02139250872978554
17:46.3;0.07693424482114618;-0.3337968308546839;-0.8353670146869397;0.867;0.02145256501966428
17:46.3;0.06879677766687892;-0.34614242845728727;-0.8887924095227169;0.943;0.021165243549431112
17:46.3;0.06054240741730263;-0.35708342019679473;-0.9439503934557991;1.0270000000000001;0.020406970844200734
17:46.4;0.052068614038140906;-0.366545661441016;-0.999313814290624;1.244;0.019072428358709443
17:46.4;0.043389165040033685;-0.3743693711007553;-1.0536339603547442;1.244;0.017114781655548462
17:46.4;0.034688417740293236;-0.3802712168481064;-1.106078343133149;1.244;0.014590286972852274
17:46.4;0.026351493132988024;-0.3838263036199625;-1.1562627744761411;1.262;0.011694899817105489
17:46.4;0.018959992771819978;-0.38447694670107424;-1.2041667655175214;1.261;0.008777990544261583
17:46.4;0.013249463413578988;-0.38157163021711454;-1.2499580261767678;1.258;0.006319311989103584
17:46.4;0.010033027128245506;-0.3744316919050645;-1.2937688259756868;1.261;0.004860279771788791
17:46.4;0.010103227135944814;-0.36243648601703143;-1.3354710420086682;1.273;0.004890198669009951
17:46.4;0.014129760274421907;-0.34511367708530594;-1.3744958685215423;1.297;0.006702555262984997
17:46.4;0.022573349409068164;-0.32222191448331544;-1.409737284242326;1.3319999999999999;0.010253904390020933
17:46.5;0.03563237258018272;-0.2938168205218787;-1.4395639591304978;1.472;0.015071357121489241
17:46.5;0.05322531416194518;-0.2602962751986949;-1.4619412209000846;1.472;0.020254246848808874
17:46.5;0.07499446250891433;-0.22242533133227121;-1.4746389851836137;1.472;0.02459796358479834
17:46.5;0.10031086712618541;-0.18133901523323043;-1.4754907731378994;1.5190000000000001;0.02683958124401692
17:46.5;0.12827354365645863;-0.13851253773704258;-1.4626769987677766;1.554;0.025988104882009335
17:46.5;0.15771361446390134;-0.0956848717920451;-1.4350106944670336;1.565;0.0216554694042059
17:46.5;0.18722307122912005;-0.054731282244908454;-1.3921935748441059;1.555;0.014265750139289204
17:46.5;0.2152266114446363;-0.017496932480381956;-1.334999121331345;1.526;0.005027347018156409
17:46.5;0.2401042753200834;0.014382983759668134;-1.265339989203125;1.4709999999999999;0.004369745228200261
17:46.5;0.2603536347229292;0.03964634850878809;-1.1861877008050608;1.3730000000000002;0.012243913593202298
17:46.6;0.2747616413407988;0.05752432881364387;-1.1013339912839555;0.9670000000000001;0.01740711127327828
17:46.6;0.28254985884823985;0.06780258976227449;-1.015025436124438;0.9670000000000001;0.01944546364478592
17:46.6;0.2834658393303071;0.07081938610530626;-0.931553242315174;0.9670000000000001;0.01870081650057226
17:46.6;0.2778090385272721;0.06740605579725262;-0.8548881897364717;0.8590000000000001;0.01600864611663114
17:46.6;0.2663919114486225;0.05878075012227906;-0.7884021280131016;0.769;0.01234536531709492
17:46.6;0.2504443582665248;0.046409666598311694;-0.7346704410140814;0.7040000000000001;0.008539103311902805
17:46.6;0.2314756779460481;0.03185320258340147;-0.6953447113614323;0.665;0.005126944595779972
17:46.6;0.2111124157071002;0.0166149867519914;-0.671095963543432;0.642;0.002353956327996487
17:46.6;0.1909310772645248;0.002008711886649751;-0.6616293502024874;0.636;0.0002537517435160738
17:46.6;0.17230274445041707;-0.010946812611005835;-0.6657649069539355;0.643;0.0012557430355268167
17:46.7;0.15626461386757065;-0.02159808101825331;-0.6815741603287832;0.7120000000000001;0.0023003235535731213
17:46.7;0.14343174539464554;-0.029689386286433115;-0.706558209643022;0.7120000000000001;0.0030088078295198465
17:46.7;0.13395919505775142;-0.03535597172742841;-0.7378491323637407;0.7559999999999999;0.0034946434966853885
17:46.7;0.1275590728687222;-0.03907899692709016;-0.7724175731210939;0.8059999999999999;0.003850409388218331
17:46.7;0.12357024203556845;-0.04160746099899774;-0.8072747525292611;0.851;0.004150557953838455
17:46.7;0.12107222606942813;-0.04385639429138009;-0.8396600338934832;0.89;0.004458419529688877
17:46.7;0.1190291638118316;-0.04679330045386386;-0.8672045944522037;0.924;0.004830127901006883
17:46.7;0.11644416246205967;-0.05132576811083107;-0.888062507811917;0.946;0.0053075820227028205
17:46.7;0.11250105195226474;-0.058203260467173765;-0.9010035628132876;0.961;0.00589970648372244
17:46.7;0.1066711728886569;-0.06794529119030646;-0.9054649987730841;0.966;0.006562632752618538
17:46.8;0.0987685381661046;-0.08080434055544755;-0.9015614384618077;0.922;0.007195295660468823
17:46.8;0.08894875749067832;-0.09676281174752308;-0.8900553446874624;0.922;0.0076606457178141655
17:46.8;0.07766192196774589;-0.11555284382963317;-0.8722941678882533;0.922;0.00782801665933027
17:46.8;0.06557661066177846;-0.13668563199614536;-0.8501204206001131;0.889;0.007619952777255337
17:46.8;0.05348812538026133;-0.1594850746067429;-0.8257561028629179;0.852;0.0070441600542219705
17:46.8;0.042220230268691164;-0.18312807553951307;-0.8016605840849683;0.823;0.0061982067681274995
17:46.8;0.03253240230120008;-0.20669351508453107;-0.7803655379835944;0.7959999999999999;0.0052473625007905
17:46.8;0.025046165218820568;-0.22921855137935845;-0.7642966510929857;0.769;0.004387862009210993
17:46.8;0.020198848831212635;-0.24975957839736349;-0.7555950854503889;0.75;0.003811868376373769
17:46.8;0.018225046111153997;-0.26745545206372007;-0.7559534147799479;0.742;0.003684810213149763
17:46.9;0.019160126829090546;-0.28159055447262143;-0.766481621596258;0.804;0.004135406523147863
17:46.9;0.022857363200479736;-0.29165305576769923;-0.7876156380580398;0.804;0.005250576503409557
17:46.9;0.02900991527158922;-0.2973799893205093;-0.8190740207537309;0.804;0.007066125607198203
17:46.9;0.03717152040701119;-0.2987801833374536;-0.8598652254071629;0.857;0.00954976094468977
17:46.9;0.046775099819775554;-0.2961303548668622;-0.9083513722627118;0.922;0.01258205347532711
17:46.9;0.057154105918335904;-0.28994359110600315;-0.9623745563373507;0.996;0.015947957929069233
17:46.9;0.06757432019787518;-0.2809103840270061;-1.0194418433212165;1.078;0.019351379688607544
17:46.9;0.07728243226387006;-0.26981451257800027;-1.0769513454528965;1.163;0.02245650522930051
17:46.9;0.08557177249623667;-0.25743192108247637;-1.1324318228477663;1.24;0.024946233932474027
17:46.9;0.09185672934577088;-0.2444270586030492;-1.1837638948572926;1.298;0.026578186781137814
17:47.0;0.09574032209703562;-0.23126396321014417;-1.2293521355738108;1.357;0.02721943763066528
17:47.0;0.09705961979248771;-0.2181483722690654;-1.2682234596839446;1.357;0.026852600154597017
17:47.0;0.09590177185931861;-0.2050135709934538;-1.3000375570521125;1.357;0.02556025254290969
17:47.0;0.09259229098284676;-0.19155610859435132;-1.325009708566266;1.3659999999999999;0.023501192301266086
17:47.0;0.08766007909194622;-0.17731806418180351;-1.3437612408182251;1.365;0.020887042468334907
17:47.0;0.08178177125334796;-0.161803372162283;-1.3571211987725422;1.3359999999999999;0.017958196335157835
17:47.0;0.075706185413658;-0.1446098813507706;-1.3659052312106212;1.286;0.014953742645923045
17:47.0;0.07016062885907207;-0.1255567761139911;-1.3707023182547426;1.238;0.012074711867950057
17:47.0;0.06574546445375612;-0.10478652605964671;-1.3717090062352333;1.219;0.009450030941380035
17:47.0;0.06283103084422106;-0.08281841344640495;-1.3686561798539785;1.239;0.00712189315970583
17:47.1;0.06147833342626216;-0.06053032316079829;-1.3608631264011652;1.416;0.005064184565165758
17:47.1;0.06140654238060247;-0.039060135039191334;-1.3474196049256033;1.416;0.003231850379836769
17:47.1;0.06202349480898798;-0.019648708867678555;-1.3274499367463737;1.416;0.001617738802822046
17:47.1;0.06252403654618124;-0.003465937498909559;-1.300386448313864;1.442;0.00028179946875426945
17:47.1;0.06204881818436305;0.008547432338882109;-1.2661883295141496;1.425;0.0006715332052038824
17:47.1;0.0598800037950861;0.015804847724241265;-1.225464220684893;1.3559999999999999;0.0011597724044221846
17:47.1;0.05563202904967793;0.018151232427129668;-1.1794747611744163;1.251;0.0011910216889590313
17:47.1;0.049387940907229984;0.01587860713673351;-1.1300122984028493;1.133;0.0008861688779342103
17:47.1;0.041742836858358806;0.009675946026655637;-1.0791821587811272;1.03;0.0004358832241131657
17:47.1;0.03373903787039253;0.0005232558531566221;-1.0291312622280953;0.951;1.816843669081579e-05
17:47.2;0.02670335349123748;-0.010449626169226301;-0.9817764941733403;0.8420000000000001;0.00027395497326246414
17:47.2;0.02202099216443476;-0.02211447262206614;-0.9385802677417053;0.8420000000000001;0.0004570722856845872
17:47.2;0.02089738659340066;-0.03348203891640196;-0.9004093173194079;0.8420000000000001;0.0006300047941069727
17:47.2;0.02415772982269701;-0.043807589846048385;-0.8674937221918001;0.833;0.0009180615965724925
17:47.2;0.03211504938446893;-0.052656770666685136;-0.839479191413154;0.83;0.0014196220976534558
17:47.2;0.044517792850448726;-0.059930158304073264;-0.8155490839793191;0.831;0.0021758510070934325
17:47.2;0.06057698885553609;-0.06584564466161723;-0.7945888201244478;0.833;0.003169400965999617
17:47.2;0.0790656511433999;-0.07088020483443362;-0.7753670600235418;0.8240000000000001;0.004345303973966917
17:47.2;0.09847445138400132;-0.07567991043119421;-0.7567102726324764;0.8140000000000001;0.005639411804882423
17:47.2;0.11719997745780095;-0.08095478587648233;-0.7376515700238959;0.807;0.006998763652461064
17:47.3;0.13373757356123345;-0.08737757700710613;-0.717541861111772;0.7559999999999999;0.00838495390756771
17:47.3;0.14685029165052857;-0.09550052993057404;-0.6961205761834138;0.7559999999999999;0.009762590342705726
17:47.3;0.15568989956556445;-0.10569524575391401;-0.6735513601527927;0.7559999999999999;0.011083747125347472
17:47.3;0.1598561088502833;-0.11811491413150835;-0.6504288580570898;0.728;0.012281001307136483
17:47.3;0.15939339412335524;-0.13267845602951983;-0.6277555347023623;0.6920000000000001;0.013275817635206926
17:47.3;0.15473605162736356;-0.14907720123548446;-0.60688281119161;0.653;0.01399934056004191
17:47.3;0.1466191794591764;-0.16680305945719412;-0.5894154696761449;0.624;0.014415055766185418
17:47.3;0.1359756465350036;-0.18519495809881148;-0.5770867242654673;0.61;0.01453220029258156
17:47.3;0.1238363675839086;-0.2034994531318746;-0.5716162979140694;0.597;0.014405092586945339
17:47.3;0.11124422583153516;-0.22094128943335253;-0.5745645066349174;0.594;0.014121900802191095
17:47.4;0.09918385764550454;-0.2367995813861476;-0.5871940764516708;0.649;0.013791248749427363
17:47.4;0.0885242571422417;-0.2504836337055893;-0.6103484092064043;0.649;0.013533790919144317
17:47.4;0.07997051743059105;-0.2615992556372681;-0.6443507779499605;0.649;0.013479965078935634
17:47.4;0.07402215534955707;-0.26999659197822856;-0.6889288494590763;0.6890000000000001;0.013768745750779339
17:47.4;0.07093600109755543;-0.27579579952245964;-0.7431752131725167;0.7390000000000001;0.014539369239680865
17:47.4;0.07069393836220592;-0.2793907349222018;-0.805559254665405;0.802;0.015910787240121387
17:47.4;0.07298118191593582;-0.2814289212750609;-0.8740023173572312;0.8809999999999999;0.01795114696841885
17:47.4;0.07718595930953918;-0.282762612575331;-0.9460197706824138;0.978;0.020647168620183825
17:47.4;0.08243301096822679;-0.2843658976029155;-1.01892383606268;1.0859999999999999;0.023884733392755448
17:47.4;0.08765988197972908;-0.28721780153226556;-1.0900692930676685;1.196;0.027445196282154558
17:47.5;0.09173591099514687;-0.2921599842439289;-1.1571103360073056;1.3840000000000001;0.031012364771137814
17:47.5;0.09361047007554862;-0.2997473142965619;-1.2182224054155506;1.3840000000000001;0.03418269574199987
17:47.5;0.09246573447232491;-0.3101165471863319;-1.2722363212308259;1.3840000000000001;0.036481572827034396
17:47.5;0.08784836532840079;-0.3228984190692403;-1.3186487983022053;1.381;0.037404921412553194
17:47.5;0.07976367638069748;-0.33719128024024936;-1.3575117623438417;1.368;0.03651111528654417
17:47.5;0.06872516670020082;-0.3516042182186428;-1.3892374128038574;1.3659999999999999;0.03356961412667608
17:47.5;0.055755130913376576;-0.36436838034833435;-1.4143696524204392;1.3719999999999999;0.028733494779557386
17:47.5;0.0423307306742807;-0.37350870242803375;-1.433370067729737;1.391;0.022662865481738015
17:47.5;0.03026832815118734;-0.3770645759059694;-1.4464562369755065;1.423;0.01650857038816633
17:47.5;0.021538258337197743;-0.37334255831028224;-1.4535162451153152;1.444;0.011687939929304097
17:47.6;0.018007684876610287;-0.3611714312594584;-1.4541102108093187;1.511;0.009457331155906284
17:47.6;0.021133174556540436;-0.3401157886702748;-1.4475577071055008;1.511;0.010404648647589493
17:47.6;0.031663834406276445;-0.31060332404539887;-1.4330970224151889;1.511;0.014094354754267933
17:47.6;0.049436064819017723;-0.2739342547938672;-1.4100917970988602;1.534;0.019095789659926678
17:47.6;0.0733198462197634;-0.232159592753894;-1.378254703079446;1.5419999999999998;0.02346052150254462
17:47.6;0.10133509980230389;-0.18783972421243644;-1.3378492003069609;1.515;0.025465634697929382
17:47.6;0.1309196298506431;-0.14372694445579434;-1.2898198687119784;1.4409999999999998;0.024270125621843667
17:47.6;0.15929893219765828;-0.10243770509172767;-1.2358060030555607;1.3430000000000002;0.02016615057458903
17:47.6;0.18388498997211505;-0.06617657830827092;-1.1780201198366125;1.245;0.014335184814543088
17:47.6;0.20262649856245477;-0.03655069451444083;-1.1190092519548402;1.131;0.008287538341441907
17:47.7;0.21424963581309822;-0.014487189015890287;-1.061345592185336;0.932;0.0032942840187513245
17:47.7;0.2183590981821559;-0.0002459293483845287;-1.0073101557730062;0.932;5.409347275235784e-05
17:47.7;0.21540132130588707;0.006493842008687941;-0.9586369484105722;0.877;0.001340924250830647
17:47.7;0.20651412436757283;0.006501168458384494;-0.9163675867604001;0.85;0.0012302996459557535
17:47.7;0.19329841802944195;0.0008428632028603125;-0.8808317982613862;0.858;0.00014350874888360672
17:47.7;0.17755433985162644;-0.009263959729248044;-0.851738135075918;0.873;0.0014009867983680467
17:47.7;0.1610258595061644;-0.02258263783806256;-0.8283416983570471;0.879;0.0030121723649638647
17:47.7;0.14519072340339176;-0.03796206521765275;-0.8096479188045664;0.883;0.004462568585872259
17:47.7;0.13111985347955307;-0.05440918441339066;-0.7946118019815614;0.873;0.005668859356227501
17:47.7;0.11941757298304674;-0.07112572377914582;-0.7823001386956768;0.852;0.006644592421135123
17:47.8;0.11024190527525879;-0.08751349091680866;-0.7719969693603931;0.81;0.0074479596308773535
17:47.8;0.10339092286788783;-0.10315861533797793;-0.7632474742375058;0.81;0.00814054144609078
17:47.8;0.09842895200427502;-0.11780555331139578;-0.7558485334205773;0.79;0.008764424400198577
17:47.8;0.09482177959875483;-0.13132860030479507;-0.7498002219415926;0.769;0.009337120896313897
17:47.8;0.09205492945165418;-0.14370564187706877;-0.7452323009175634;0.7509999999999999;0.009858538545308939
17:47.8;0.08971853011255944;-0.15499619611905138;-0.7423194639573465;0.7340000000000001;0.010322717395177476
17:47.8;0.08755204095019861;-0.1653231974887173;-0.7412005271922211;0.721;0.010728420574657133
17:47.8;0.08545088525307774;-0.17485611886673763;-0.7419172714396132;0.718;0.011085438632719954
17:47.8;0.08344307367206738;-0.18379231077142943;-0.7443868207234297;0.736;0.011416061682248017
17:47.8;0.08164637978067903;-0.19233431352642263;-0.7484161774821907;0.7759999999999999;0.011752678906105032
17:47.9;0.08021713962009881;-0.2006635261085534;-0.75375672123482;0.841;0.012132961210114751
17:47.9;0.07930141845772609;-0.20891344139366821;-0.7601811074536843;0.841;0.012594020931560587
17:47.9;0.07899749451465014;-0.21714686915108017;-0.767553296651153;0.841;0.013166654232935369
17:47.9;0.07933504422401225;-0.22534155439995893;-0.7758644462608288;0.835;0.013870502815093857
17:47.9;0.08027205294588846;-0.23338815092819012;-0.7852225265755658;0.823;0.014710787550844784
17:47.9;0.08170619814284527;-0.24110258399569898;-0.7958008587329874;0.809;0.015676939100136022
17:47.9;0.08349414930607668;-0.24825129240850938;-0.8077627105021333;0.804;0.016742926197518188
17:47.9;0.08547155903739037;-0.25458476322931384;-0.8211851136945127;0.8170000000000001;0.017868788214267035
17:47.9;0.08746875909207348;-0.2598733273971249;-0.8360050923475659;0.846;0.019003062436832852
17:47.9;0.08932007329823222;-0.2639389170298411;-0.852004729134599;0.879;0.020086048479441437
