Time;AccX;AccY;AccZ;Acc-old;Acc-trns
53:28.5;-0.10148410215057406;-0.26746774380214583;-0.8147952835695756;0.8640000000000001;0.02211657815845872
53:28.5;-0.08298229436284875;-0.2848286055736283;-0.8175399397863431;0.945;0.019323154254427006
53:28.5;-0.06447401068753246;-0.3021298049533317;-0.8193083025509771;1.002;0.0159597326898568
53:28.5;-0.04613585910269705;-0.319300167751828;-0.8193805772310532;0.966;0.01207044895872738
53:28.6;-0.02815934715431707;-0.33618835666035296;-0.81736589034839;0.912;0.007737875901591152
53:28.6;-0.01075570952692784;-0.35255316433465644;-0.8132403289174196;0.8809999999999999;0.0030837743327795553
53:28.6;0.005839322946619177;-0.3680805104914477;-0.8073015265656847;0.868;0.0017351662470921271
53:28.6;0.021364732593232034;-0.3824254928710768;-0.8000727957217761;0.8759999999999999;0.006536929485124476
53:28.6;0.03553993636598783;-0.3952700640817996;-0.7921922951827426;0.8759999999999999;0.011128616694770123
53:28.6;0.04807652412276694;-0.40637923591577035;-0.784312518159543;0.8759999999999999;0.015323349853975203
53:28.6;0.058695229120771686;-0.4156393852270398;-0.7770225844424017;0.877;0.018956281003383604
53:28.6;0.06715030250353861;-0.42307211370804493;-0.7707952789628931;0.873;0.021897847134961235
53:28.6;0.07326401065390042;-0.4288267667317543;-0.7659552269886661;0.872;0.02406445104662464
53:28.6;0.07696911186456268;-0.4331581878034493;-0.7626641765780361;0.863;0.025427071886164956
53:28.7;0.07835078932228728;-0.43639622201423084;-0.7609215706192922;0.866;0.026017421555552735
53:28.7;0.07767605150228478;-0.4389130488380653;-0.7605807558721206;0.87;0.02593050449466655
53:28.7;0.07539892703588953;-0.4410936272007865;-0.7613815163576989;0.879;0.025322015974091856
53:28.7;0.07213380250023395;-0.44331262706260277;-0.7629975075510265;0.9009999999999999;0.02439900114302005
53:28.7;0.06859801275628327;-0.4459181360591172;-0.7650933703012764;0.9009999999999999;0.023403516072310348
53:28.7;0.06553591929926925;-0.4492192577539874;-0.7673830672468323;0.9009999999999999;0.022591755215894214
53:28.7;0.06364166090933585;-0.45347374292866904;-0.7696812174467417;0.9009999999999999;0.022212863069839616
53:28.7;0.06349234551865986;-0.4588739559463152;-0.7719429462414087;0.914;0.022490545202743347
53:28.7;0.06549518065183538;-0.46553244660364396;-0.7742909735500756;0.92;0.023608233749607736
53:28.7;0.06984877661765422;-0.4734697061313185;-0.7770285238219301;0.9259999999999999;0.025697327676336316
53:28.8;0.07651973579170832;-0.48260653637543144;-0.7806351181597403;0.934;0.028828015461411543
53:28.8;0.08523690279183715;-0.4927629428684021;-0.7857422457038895;0.943;0.03300242134019681
53:28.8;0.09550592699241665;-0.5036650226013252;-0.7930872240044392;0.951;0.03814987067345517
53:28.8;0.1066454018754666;-0.5149606547601493;-0.8034451628166481;0.9790000000000001;0.04412375087384518
53:28.8;0.11784154397906711;-0.5262422587307999;-0.817541342931643;0.9790000000000001;0.050698355033023015
53:28.8;0.12821282628787656;-0.5370706064190237;-0.835950233536362;0.9790000000000001;0.057562981659387585
53:28.8;0.13687529379674993;-0.546992863532187;-0.8589919855916303;0.9790000000000001;0.06431256580847275
53:28.8;0.14300560957086672;-0.5555535835938895;-0.8866411060307203;1.0070000000000001;0.07044122320942414
53:28.8;0.145904989975443;-0.5623033970732566;-0.9184636270372809;1.041;0.07535339334250395
53:28.8;0.14506626513321003;-0.5668103409784961;-0.9535966260019749;1.092;0.07840953903034942
53:28.9;0.14024025383530897;-0.5686746727318751;-0.9907767969535295;1.149;0.0790155200454302
53:28.9;0.13149194971855255;-0.5675448229722879;-1.0284145462222394;1.198;0.07674808401383118
53:28.9;0.1192341427593778;-0.5631323316298412;-1.0647005059080423;1.213;0.07148889046414902
53:28.9;0.1042258416061032;-0.5552257612915684;-1.0977282921654739;1.213;0.06352429830673331
53:28.9;0.08752610234359118;-0.5437052929505535;-1.1256233330411514;1.284;0.05356661918026937
53:28.9;0.07040369590050578;-0.5285601767629051;-1.1466742824607465;1.284;0.042670719879345585
53:28.9;0.05421698314870864;-0.5099100392611552;-1.159461753655005;1.284;0.03205422920474038
53:28.9;0.040284199121029825;-0.48802725962247034;-1.1629751319981607;1.297;0.022863843733904203
53:28.9;0.02975779855886092;-0.46335273845138136;-1.1567107664542713;1.3;0.015949141517064655
53:28.9;0.023511163537682907;-0.43649564495558696;-1.1407473730899398;1.2830000000000001;0.011706943292573088
53:29.0;0.022050053781719522;-0.4082106647770584;-1.1157903562769762;1.2690000000000001;0.010043303880447196
53:29.0;0.025465283310624507;-0.3793514034450998;-1.0831709091782156;1.2570000000000001;0.010463746145332332
53:29.0;0.03343879349942927;-0.3508034786240187;-1.0447820105952632;1.2109999999999999;0.012255757996476147
53:29.0;0.045304226348494445;-0.3234052248247201;-1.0029351984149941;0.9179999999999999;0.014694628929841878
53:29.0;0.06014869061250541;-0.2978695484141268;-0.9601423898590562;0.9179999999999999;0.017202355900715654
53:29.0;0.07692998177403602;-0.2747256118955068;-0.9188641631959789;0.9179999999999999;0.01941985991293636
53:29.0;0.0945831132673988;-0.2542955502191161;-0.8812830897005477;0.856;0.021196678006857723
53:29.0;0.11210295047992068;-0.23670763732384734;-0.8491381031992937;0.82;0.022532409893463945
53:29.0;0.128602503537551;-0.2219349851996377;-0.8236263633385715;0.823;0.023507445137220608
53:29.0;0.14335000857497399;-0.20984634282075487;-0.805369583212302;0.835;0.02422670501761672
53:29.1;0.15578693084350798;-0.200258444809245;-0.79443881906766;0.8370000000000001;0.024784623025931676
53:29.1;0.1655288797287424;-0.19298207787543764;-0.7904235362837472;0.8420000000000001;0.02524937414360594
53:29.1;0.172352514674941;-0.18785664106050978;-0.7925253892565063;0.8420000000000001;0.025660041896784322
53:29.1;0.17617313617094899;-0.18477107978395563;-0.7996597740725113;0.851;0.02603028554685797
53:29.1;0.1770195209578134;-0.18367131769588915;-0.8105546547799252;0.851;0.026353894742027196
53:29.1;0.17501402637546964;-0.1845550503311109;-0.8238423005943175;0.851;0.026609877648779635
53:29.1;0.17036520445584746;-0.18745495613455024;-0.8381445598697488;0.884;0.026766818651135442
53:29.1;0.1633754666263745;-0.1924123187247094;-0.8521548382821741;0.9;0.02678787281902012
53:29.1;0.15445863295124707;-0.19944543023135058;-0.8647181584552992;0.9109999999999999;0.026638566824217454
53:29.1;0.14415492944521605;-0.20851980373748055;-0.8749066108564234;0.951;0.02629895569725896
53:29.2;0.13312822646316202;-0.21952775320393544;-0.8820840412452132;0.98;0.025779206405154357
53:29.2;0.12213395024379023;-0.23228260118655705;-0.8859495444564737;0.978;0.02513402680388736
53:29.2;0.11195466888918977;-0.24652952744546658;-0.8865452260308623;0.966;0.024468764922489727
53:29.2;0.10331108459890145;-0.26197202725678914;-0.884217055034894;0.9;0.023930993525891994
53:29.2;0.09676606333369712;-0.2783077027141276;-0.879532485399756;0.9;0.023686461378126748
53:29.2;0.0926438180920355;-0.2952597949744029;-0.8731768952414455;0.9;0.02388487619559498
53:29.2;0.09098195585682536;-0.3125900000375767;-0.8658574331317371;0.9;0.024625028331551
53:29.2;0.09152410940575272;-0.3300884849597661;-0.8582324403419277;0.9009999999999999;0.025928107124133355
53:29.2;0.09375242612391142;-0.3475493666927661;-0.8508695169553179;0.907;0.027724388865954453
53:29.3;0.09695414745778073;-0.36474432631530673;-0.8442274588684004;0.91;0.02985481680313213
53:29.3;0.10031201219260985;-0.381404520398008;-0.838656209392077;0.912;0.03208652942024493
53:29.3;0.1030038888238819;-0.3972166355069804;-0.8344103704563122;0.9209999999999999;0.03413978195675389
53:29.3;0.1042952646315103;-0.4118355726013218;-0.8316735560760863;0.9359999999999999;0.03572245844158012
53:29.3;0.1036104871496043;-0.42491389338669555;-0.830590698435857;0.977;0.036567200272009326
53:29.3;0.10057549438746449;-0.43614382572775107;-0.831302330942324;0.977;0.03646539338702372
53:29.3;0.0950341575325653;-0.4453006740946561;-0.8339717270777354;0.977;0.035292661383579144
53:29.3;0.08704594643543169;-0.45227402342080564;-0.8387965562003993;0.971;0.033022263227993225
53:29.3;0.07687104674458538;-0.4570796531076483;-0.8460017493894919;0.973;0.029725279374395206
53:29.3;0.06494526555241423;-0.4598534379984072;-0.8558161839330446;0.9690000000000001;0.025559210198318975
53:29.4;0.05184589283107376;-0.4608314825127933;-0.8684398215595284;0.9690000000000001;0.02074895497432093
53:29.4;0.038249912838461894;-0.46031991111813525;-0.8840100101275953;0.982;0.015564937936903585
53:29.4;0.024885480447241235;-0.45865643828729263;-0.9025763466705117;0.9890000000000001;0.010301903371047746
53:29.4;0.012476686914798526;-0.45616474133603313;-0.9240928506557382;0.991;0.005259404837630732
53:29.4;0.0016819646972990156;-0.4531029609657421;-0.9484333480656034;1.1059999999999999;0.000722804074928389
53:29.4;-0.006969816435703644;-0.4496113252031531;-0.9754266757538048;1.1059999999999999;0.0030567027713729617
53:29.4;-0.013135526991138041;-0.44566924143689557;-1.0048931006293407;1.1059999999999999;0.005882745052121237
53:29.4;-0.016694407442271717;-0.4410733847297457;-1.0366581322597197;1.1059999999999999;0.0076333894430757445
53:29.4;-0.017758877835495086;-0.43544306985913084;-1.0705352060209719;1.157;0.008278427639284096
53:29.4;-0.016660078869381003;-0.4282523547450101;-1.1062873285054504;1.196;0.007893048122552789
53:29.4;-0.013911380507353448;-0.4188843757983029;-1.143580007176384;1.216;0.006663937964364572
53:29.5;-0.010153924420764557;-0.4067020595033277;-1.1819297296198124;1.2309999999999999;0.004880922983121764
53:29.5;-0.006090462160103592;-0.39112884885805443;-1.2206503676400513;1.2329999999999999;0.0029077789303283814
53:29.5;-0.0024164567184638158;-0.371732275116804;-1.258807749645608;1.236;0.0011307554729996976
53:29.5;0.000241474058266027;-0.3483021289874051;-1.295201296063782;1.348;0.00010893410771549101
53:29.5;0.0013715541214079294;-0.3209157247761163;-1.328389247051239;1.348;0.0005846948907702965
53:29.5;0.000603996220883121;-0.2899851792048329;-1.35675943602068;1.348;0.00023763635057192286
53:29.5;-0.0022787137434185315;-0.2562805284735722;-1.3786366396768106;1.421;0.0008051099593726632
53:29.5;-0.007343332355105779;-0.22091719629565562;-1.3924182630262238;1.475;0.0022588761412255316
53:29.5;-0.014512221712464008;-0.18529624555354204;-1.396727086474583;1.4709999999999999;0.0037558832156516816
53:29.5;-0.02356724720770894;-0.15099684093641225;-1.3905570647413774;1.463;0.004948408389704201
53:29.6;-0.03414864407255345;-0.11963531509730876;-1.3733828412816893;1.446;0.00561079600240821
53:29.6;-0.04575503028427989;-0.09271452367354985;-1.3452128472731357;1.4040000000000001;0.005706602534052465
53:29.6;-0.057755904432385555;-0.07148810980027709;-1.306578289929224;1.3519999999999999;0.005394679410016036
53:29.6;-0.06942425798259484;-0.056858990682995304;-1.2584613314178579;1.145;0.004967641749679468
53:29.6;-0.07998677511061786;-0.049322959227344296;-1.2021826137195448;1.145;0.00474283215071058
53:29.6;-0.08868034488799663;-0.04895981876605597;-1.1392869193860193;1.145;0.004946525885169211
53:29.6;-0.09480349333626294;-0.05546801633289599;-1.0714628116518985;1.0979999999999999;0.0056343533223183785
53:29.6;-0.0977590095946297;-0.06823358587848143;-1.000501547812005;1.034;0.006673793325057888
53:29.6;-0.0970908008005989;-0.0864185008709263;-0.9282729476414839;0.956;0.007788619820095967
53:29.6;-0.09251759081422933;-0.10905026799111833;-0.8566946943627596;0.882;0.008643251088505036
53:29.7;-0.08396052123457771;-0.13509886750143682;-0.7876855310218959;0.8109999999999999;0.008934694398290019
53:29.7;-0.07155704670357285;-0.16353643190537168;-0.7231038497168043;0.7490000000000001;0.00846189436961469
53:29.7;-0.05565325809369018;-0.19338208939213988;-0.664676904558416;0.7020000000000001;0.00715348105146794
53:29.7;-0.03677074781873051;-0.22373619193102057;-0.6139261225515249;0.609;0.005050737728271195
53:29.7;-0.015552317351203495;-0.2538050698902175;-0.5720963548103922;0.609;0.00225821133678153
53:29.7;0.007299461990936106;-0.28291274918942805;-0.5401012371022712;0.609;0.0011153689299473939
53:29.7;0.03107522801801541;-0.31049735312560484;-0.518493721832259;0.597;0.005002829803926004
53:29.7;0.05509731430724814;-0.3360982969019259;-0.5074587251637552;0.596;0.009397178270434748
53:29.7;0.07874649016953011;-0.3593451164210409;-0.5068181611832951;0.61;0.014341517982298326
53:29.8;0.10148007083317052;-0.3799540433866344;-0.5160444016086494;0.634;0.019897517856605818
53:29.8;0.12284267508358997;-0.3977314053745202;-0.5342857820140022;0.6629999999999999;0.02610434300275182
53:29.8;0.142471329404858;-0.4125800971358366;-0.5604090638740938;0.695;0.032941312674016586
53:29.8;0.16009679960097106;-0.42450577252060545;-0.5930620114202181;0.7190000000000001;0.040305689667571046
53:29.8;0.17554179397904907;-0.4336205337407724;-0.6307568695289828;0.877;0.0480122834245975
53:29.8;0.18871515862182905;-0.44014258088551955;-0.6719668018604936;0.877;0.05581462223269773
53:29.8;0.19960028800174734;-0.44439023705306935;-0.7152126126742823;0.877;0.06343965863354209
53:29.8;0.2082374188734083;-0.4467691926949771;-0.7591150659866448;0.877;0.07062355926719982
53:29.8;0.21470358173839751;-0.4477535933253727;-0.8024095668464324;0.924;0.07713908220117907
53:29.8;0.21909690865069775;-0.4478629454083455;-0.8439436118288386;0.9690000000000001;0.0828122933803027
53:29.9;0.22153043243652348;-0.4476360675762565;-0.8826800730241514;1.0070000000000001;0.08753097970202468
53:29.9;0.22213596884896672;-0.4476018444694914;-0.9177164593187497;1.043;0.09124714287472653
53:29.9;0.22107422418332065;-0.44824655446712325;-0.948318933544287;1.079;0.09397438475126754
53:29.9;0.21854413805865788;-0.4499791837804444;-0.9739654848449701;1.112;0.09578007049803693
53:29.9;0.21478365628010654;-0.4530978010634227;-0.9943907675716824;1.151;0.0967721230701541
53:29.9;0.21005802834295143;-0.4577601101764099;-1.009622330413844;1.151;0.09708143279263834
53:29.9;0.20463962913844758;-0.4639597098887937;-1.0199964130095471;1.151;0.09684309326099179
53:29.9;0.19878807921898428;-0.47150861109204617;-1.0261453020881075;1.151;0.09618089791070883
53:29.9;0.19273630559188848;-0.4800278249136219;-1.028956212538153;1.16;0.09519778328929328
53:29.9;0.18668229862116756;-0.4889493627242933;-1.0295072943634473;1.151;0.09397156339183607
53:30.0;0.18078436414082882;-0.49753226797776823;-1.0289871171248728;1.146;0.09255333152858557
53:30.0;0.1751592729985653;-0.5048932506953822;-1.0286035151802062;1.147;0.09096633621812836
53:30.0;0.1698843991833074;-0.5100511002341496;-1.02948815920294;1.15;0.08920486559338159
53:30.0;0.1650054435296086;-0.5119833204500688;-1.032602940245647;1.149;0.0872343323994625
53:30.0;0.16055076596752343;-0.5096929774071471;-1.038652801953079;1.14;0.08499461847931543
53:30.0;0.15655112298237847;-0.502283862502306;-1.048009563322756;1.14;0.08240824365547511
53:30.0;0.1530598272411055;-0.4890421510162731;-1.0606538243366697;1.14;0.07939281009865863
53:30.0;0.15016560383941013;-0.46952126273947303;-1.0761451262668555;1.143;0.07587462793818804
53:30.0;0.14799106671597054;-0.4436232087046189;-1.0936315677616084;1.159;0.07179939701903422
53:30.0;0.14667313381705;-0.4116655483427767;-1.11190806762581;1.1840000000000002;0.06713731607653124
53:30.1;0.14632661898012161;-0.37441968245671164;-1.1295266881143764;1.218;0.0618840182149833
53:30.1;0.14699845114151397;-0.33310534647648116;-1.144952398133558;1.255;0.05606370477729102
53:30.1;0.14862593317849365;-0.2893298852652142;-1.156745049578809;1.284;0.049742262933736806
53:30.1;0.15101472531220678;-0.24496932716659048;-1.1637370216897929;1.314;0.04305125904569849
53:30.1;0.15384759915853968;-0.2020005019104721;-1.1651710496378247;1.222;0.0362103612282078
53:30.1;0.15672315630584568;-0.1623095458784845;-1.160770332398423;1.222;0.029527286078200255
53:30.1;0.1592105897519675;-0.127515337345812;-1.1507328685317957;1.222;0.023361939414975736
53:30.1;0.16090218698029968;-0.09884169835139797;-1.1356603350463461;1.141;0.01806136642909009
53:30.1;0.16145239772769424;-0.0770508336518852;-1.1164387954791892;1.079;0.01388854532757659
53:30.1;0.16060215766600291;-0.06243515124995403;-1.0940929916046376;1.052;0.010970711132689081
53:30.2;0.15819091437272184;-0.05486286079697996;-1.0696431100219355;1.047;0.00928322516367419
53:30.2;0.15415697003859172;-0.053868477422679625;-1.0439911965263304;1.037;0.008669513009698631
53:30.2;0.14852582332587477;-0.05876752491714429;-1.0178496338310339;1.002;0.008884295463201816
53:30.2;0.1413896925761038;-0.0687690656797402;-0.9917092459764333;0.972;0.009642624088466827
53:30.2;0.13288577896660905;-0.08306687472059353;-0.9658404794955738;0.9490000000000001;0.010661339685396908
53:30.2;0.12318100133577574;-0.10090096463768866;-0.9403245437467643;0.9490000000000001;0.011687370729022841
53:30.2;0.11246676550180101;-0.121587174727939;-0.915112606109622;0.9490000000000001;0.012513722219438483
53:30.2;0.10096196367633917;-0.14451633870361041;-0.8901057330767206;0.938;0.012987224186228863
53:30.2;0.08891864903320854;-0.16913044321508783;-0.8652407790370541;0.917;0.013012226740675356
53:30.2;0.07662447918468068;-0.19488820722181277;-0.8405650900989693;0.8859999999999999;0.012552332804825265
53:30.3;0.06439872110197303;-0.22123309441367922;-0.8162877320982436;0.867;0.01162975608620201
53:30.3;0.052581706777910034;-0.24757398725368607;-0.7928026257598367;0.853;0.010320595812484394
53:30.3;0.04151889789911839;-0.27328427757818524;-0.7706840479020577;0.8390000000000001;0.00874453727755564
53:30.3;0.0315400283225065;-0.29772012657811947;-0.7506561263086847;0.818;0.0070487370107951575
53:30.3;0.022932883016096327;-0.320254562593615;-0.7335386354834347;0.7929999999999999;0.005387372120494221
53:30.3;0.015913110443276174;-0.34032032807094575;-0.7201752897274143;0.7929999999999999;0.0039001488671670647
53:30.3;0.010596143040531978;-0.3574510300677149;-0.7113557845037636;0.7929999999999999;0.0026943327660835584
53:30.3;0.006979484530224214;-0.37131191921877343;-0.7077425109337349;0.79;0.0018341612837643106
53:30.3;0.004940321975508611;-0.38171938457684734;-0.7098067388749669;0.794;0.0013385653764627508
53:30.3;0.004249008242480379;-0.38865345081175273;-0.7177750670659803;0.7979999999999999;0.0011853277996808338
53:30.4;0.004596801513625269;-0.3922651158298252;-0.7315890407461968;0.8059999999999999;0.0013191756635414736
53:30.4;0.005634338391322523;-0.39287570632358687;-0.7508845749581768;0.8240000000000001;0.0016621540967849012
53:30.4;0.007014500758398199;-0.3909642576252525;-0.7749986492204296;0.846;0.002125371083850996
53:30.4;0.008431593839401808;-0.3871410143261205;-0.8030082415150764;0.866;0.002621192182555281
53:30.4;0.009649813861585026;-0.38210821596090766;-0.8338013209378284;0.971;0.0030744532306370446
53:30.4;0.010517595441054803;-0.3766124062117917;-0.8661705826534642;0.971;0.003430950986052098
53:30.4;0.01096858929665394;-0.3713948082508439;-0.8989100874077768;0.971;0.0036618694547635162
53:30.4;0.01101237551038355;-0.36714579881181014;-0.9308949931822031;1.008;0.0037637456746859492
53:30.4;0.010718310218665691;-0.36446605891258;-0.9611385965184563;1.037;0.003754649754333932
53:30.4;0.010195901847456293;-0.3638342077763535;-0.9888327300099699;1.063;0.0036681915669068005
53:30.5;0.009575251392420242;-0.36558072274345865;-1.0133767121499064;1.085;0.0035473528708839033
53:30.5;0.008990006810721318;-0.3698686054630972;-1.034395357003615;1.099;0.0034394900157663196
53:30.5;0.008563204179789516;-0.37668093948006875;-1.0517462932554436;1.115;0.0033925084213552036
53:30.5;0.008395293502176927;-0.3858151884840372;-1.0655188641882967;1.14;0.003451249425918277
53:30.5;0.008554054052457067;-0.396884291169504;-1.0760267610065841;1.179;0.003653078227662849
53:30.5;0.009066705288121785;-0.409324257198067;-1.083792758140303;1.179;0.0040221959688735145
53:30.5;0.009914709212693766;-0.42240753973457706;-1.0895192568021044;1.179;0.0045629588634795645
53:30.5;0.011031902036276365;-0.43526331346341574;-1.0940378683189538;1.189;0.005253331599541306
53:30.5;0.012306774405020846;-0.4469093068343876;-1.0982356082558447;1.186;0.006040309044787979
53:30.5;0.01358977040278294;-0.4563006808087106;-1.1029604249137832;1.17;0.006839481294006812
53:30.6;0.01470625628300557;-0.46239794645441995;-1.1089136812386233;1.159;0.007540771280275747
53:30.6;0.015474662746223207;-0.46425092208286783;-1.1165432937515902;1.172;0.008021388207933066
53:30.6;0.01572639007372343;-0.46109113921326816;-1.1259559949306253;1.171;0.008164643709350241
53:30.6;0.015320324559957394;-0.452420442812792;-1.1368671331271563;1.176;0.007879885329798312
53:30.6;0.014144092946527909;-0.4380806588056925;-1.148601757030585;1.24;0.007117027721685778
53:30.6;0.012100434421978752;-0.41829283162284875;-1.160150580222541;1.24;0.005872131140311473
53:30.6;0.0090878060884356;-0.39366377361521177;-1.1702695636241884;1.24;0.00418668621988702
53:30.6;0.004989837219657483;-0.365162672250471;-1.177603095027817;1.261;0.0021457132999590273
53:30.6;-0.00031670319844079217;-0.33406722507133635;-1.180814582943106;1.2590000000000001;0.00012493037024034604
53:30.6;-0.00693505148282148;-0.30187730725511464;-1.1787139370361979;1.2570000000000001;0.0024676784900264283
53:30.7;-0.014908782406348044;-0.2702011953568012;-1.1703704698359063;1.242;0.004714686258065774
53:30.7;-0.024178614413104028;-0.24062782120895423;-1.1551982238360365;1.213;0.006720997914173772
53:30.7;-0.0345464713075255;-0.21460160812574505;-1.1330039350247165;1.186;0.008399783334458405
53:30.7;-0.04565692013579102;-0.1933160466789372;-1.1039932516165747;1.1520000000000001;0.009744082133137474
53:30.7;-0.057002403027141185;-0.177640823321169;-1.0687362936820204;1.0190000000000001;0.010821974339579328
53:30.7;-0.06795205058718251;-0.16809204842677752;-1.0281024520885098;1.0190000000000001;0.011743191188765156
53:30.7;-0.07779714744838612;-0.16484411738307256;-0.9831850579386752;1.0190000000000001;0.012608760527665602
53:30.7;-0.08580479440611324;-0.16777164440334466;-0.9352353141749736;0.9670000000000001;0.013463284202049057
53:30.7;-0.09127497445011987;-0.17650766787921426;-0.8856078434316329;0.915;0.014267791398351512
53:30.7;-0.09359790633553343;-0.190507105432428;-0.8357073335430419;0.861;0.01490155279702142
53:30.8;-0.09230585384699051;-0.20910668948694366;-0.786929880888065;0.813;0.015189140761753522
53:30.8;-0.08711216760901533;-0.23157452672689904;-0.7406024345250595;0.774;0.014940142536762804
53:30.8;-0.07793311850030431;-0.2571458514102158;-0.6979273605740453;0.738;0.013986588613616237
53:30.8;-0.06489179352328328;-0.2850456777387535;-0.6599373248414855;0.711;0.012206943364330158
53:30.8;-0.048305090216541016;-0.3145021164048503;-0.6274628176857789;0.6940000000000001;0.009532448448466676
53:30.8;-0.02865531393899705;-0.3447549890090249;-0.6011128258689594;0.6809999999999999;0.005938431141500074
53:30.8;-0.006549523070049733;-0.3750628130303239;-0.5812687819369279;0.6809999999999999;0.001427876617746297
53:30.8;0.017327598271046574;-0.404709354070967;-0.5680919456813828;0.6829999999999999;0.00398382492906642
53:30.8;0.04226137293919111;-0.4330117134812359;-0.56154293895474;0.726;0.010276050198809028
53:30.8;0.06755102991652852;-0.45933305209792147;-0.561409486555197;0.726;0.01741964975846109
53:30.9;0.09254573953123027;-0.4831005934247637;-0.5673369346516165;0.759;0.02536501123444292
53:30.9;0.11666935210885103;-0.5038265540680089;-0.578856843054233;0.784;0.034025852187334546
53:30.9;0.13943418096401583;-0.5211294017859596;-0.5954111851669487;0.804;0.04326451258312692
53:30.9;0.16044700549971694;-0.534752756905571;-0.6163728685638942;0.831;0.05288447070172332
53:30.9;0.17941005030628515;-0.5445788015368429;-0.6410660765800071;0.861;0.0626340212991962
53:30.9;0.19611844132492406;-0.5506345427578595;-0.6687891875540165;0.934;0.07222226900026525
53:30.9;0.21045435214466648;-0.553091724055186;-0.6988366469166901;0.934;0.08134497737291439
53:30.9;0.22237665220415345;-0.5522622819420514;-0.7305091513289041;0.934;0.08971400229531044
53:30.9;0.23190574996622598;-0.5485908909750591;-0.7631041496269857;0.9540000000000001;0.09708316452258865
53:30.9;0.23910679373808957;-0.5426451835236272;-0.7958915284068925;0.9740000000000001;0.1032670451704492
53:31.0;0.2440760261149498;-0.5351027625091612;-0.8280896375619987;1.0;0.10815327301404871
53:31.0;0.24693270460717578;-0.5267320727692113;-0.858856759321062;1.0190000000000001;0.11170924447124823
53:31.0;0.2478160420771523;-0.5183627703828936;-0.8873077257760497;1.034;0.11398231719876742
53:31.0;0.24688629429256415;-0.5108423824039283;-0.9125602388842787;1.063;0.11509208159489956
53:31.0;0.24433023964287565;-0.5049800870363872;-0.933809774695689;1.13;0.11521522954501442
53:31.0;0.2403704399548508;-0.5014834768534915;-0.950422706646868;1.13;0.11456566758505381
53:31.0;0.23527409227575177;-0.5008975523429006;-0.9620273571031588;1.13;0.11337320869232637
53:31.0;0.22935438673354255;-0.5035547079247511;-0.9685820073220978;1.1420000000000001;0.11186393929345655
53:31.0;0.2229581887664355;-0.5095404901854053;-0.9704092606141332;1.146;0.11024453260438159
53:31.0;0.21643838371921556;-0.5186759972847967;-0.9681956395660614;1.138;0.10869099267194345
53:31.1;0.21011545327055514;-0.5305165241362559;-0.9629570326437189;1.128;0.10734055073959063
53:31.1;0.2042379626347491;-0.544366255816517;-0.9559704871703761;1.128;0.10628504255048511
53:31.1;0.19895273495994598;-0.5593081804683957;-0.9486752892438198;1.128;0.10556468920888826
53:31.1;0.1942926203990689;-0.5742469761428942;-0.9425486480749998;1.109;0.10516199040093882
53:31.1;0.19018578657320542;-0.5879623912424126;-0.9389627958517851;1.079;0.1049967821272084
53:31.1;0.18648663199249912;-0.5991718295819508;-0.9390349213778927;1.079;0.10492544878676317
53:31.1;0.1830238971344505;-0.6066018442614335;-0.9434889436510545;1.079;0.10474862724536474
53:31.1;0.179657586694363;-0.6090690152008399;-0.9525508390704372;1.0979999999999999;0.10423179861253767
53:31.1;0.17633476891687405;-0.6055709246571437;-0.9658933576962417;1.117;0.10314119234666345
53:31.1;0.17313361728848023;-0.5953847492415132;-0.982637915038612;1.136;0.10129141223257157
53:31.2;0.17028462115421258;-0.5781643907441937;-1.0014164579183935;1.167;0.09859195807195145
53:31.2;0.16816069867722191;-0.5540213790856882;-1.020491859814245;1.203;0.09507373856671486
53:31.2;0.167234618842177;-0.5235718894515671;-1.0379288014395767;1.225;0.090880366393588
53:31.2;0.16800943222036466;-0.4879314480061218;-1.0517994053686066;1.227;0.0862234498268943
53:31.2;0.1709329913679176;-0.4486438818931882;-1.0604019563254372;1.232;0.08132014848145372
53:31.2;0.17631048208145642;-0.407548743089092;-1.0624661237114417;1.232;0.076343625891465
53:31.2;0.18422893699589957;-0.3666153614641759;-1.0573132636098113;1.232;0.07141216254072957
53:31.2;0.1945053321431467;-0.3277776556255995;-1.0449412459456762;1.198;0.06661970852104358
53:31.2;0.20666632878763347;-0.29278502151778824;-1.0260146350553294;1.12;0.06208292001435461
53:31.2;0.21996372951772244;-0.2630681195764237;-1.001759260647424;1.02;0.05796724509894939
53:31.3;0.23342516165488192;-0.23962329781320355;-0.9737808935513961;0.935;0.054467564722039744
53:31.3;0.24593463638184668;-0.22293370657588965;-0.9438473557666891;0.903;0.05174843229670798
53:31.3;0.2563329012608691;-0.2129510212581916;-0.9136824202951245;0.92;0.04987459122058812
53:31.3;0.26352349158335336;-0.20915148346326332;-0.8848091791104566;0.9690000000000001;0.048767433988023474
53:31.3;0.2665691872781013;-0.2106567133327258;-0.8584542946188236;0.9009999999999999;0.04820614797610071
53:31.3;0.2647675094551825;-0.2163876479844092;-0.8355014275033893;0.9009999999999999;0.047867897553575435
53:31.3;0.2577011381958238;-0.22521383742843012;-0.8164778404296692;0.9009999999999999;0.04738662842711979
53:31.3;0.2452640379155017;-0.23607151896422773;-0.8015655352491979;0.892;0.04641052744473593
53:31.3;0.22766430022880793;-0.2480410761513129;-0.7906304269642622;0.878;0.044646977716164035
53:31.3;0.20540447305876158;-0.2603866567275343;-0.7832599812369964;0.8420000000000001;0.04189233427335126
53:31.4;0.1792432085698148;-0.27256644609429376;-0.7788022530689923;0.778;0.0380489170442137
53:31.4;0.1501453539741563;-0.2842250233874665;-0.7764106176973944;0.78;0.033133374931626346
53:31.4;0.11922553980503087;-0.29517787211964464;-0.7751117407948575;0.84;0.02727830684989129
53:31.4;0.08768332890458376;-0.3053885073095671;-0.7739158560473798;0.88;0.020723517076814333
53:31.4;0.05672390302073816;-0.31492868441775046;-0.7719696743400043;0.915;0.01379045402928519
53:31.4;0.027465593478637845;-0.32391652405872684;-0.7687239858228863;0.915;0.006838998733384122
53:31.4;0.0008512584274719563;-0.3324430375110642;-0.7640718401448885;0.915;0.00021622846252175208
53:31.4;-0.022413299812485153;-0.34050628648305425;-0.7584187978308767;0.89;0.005788153281518019
53:31.4;-0.04188265341710483;-0.3479683446697202;-0.7526658669238353;0.867;0.010969230096501846
53:31.4;-0.0573606195986709;-0.35454172432325237;-0.7481058277765669;0.8340000000000001;0.015214028460844657
53:31.5;-0.06886441400856776;-0.35980509836385577;-0.7462490040272821;0.802;0.01849038413690085
53:31.5;-0.07657518783812425;-0.3632441340301701;-0.7486050604357243;0.768;0.020822814921418676
53:31.5;-0.08078539638647644;-0.36431210168994793;-0.7564545793590448;0.7390000000000001;0.022263288512277317
53:31.5;-0.0818487975276276;-0.36250496872785526;-0.7706491695778305;0.741;0.022865620005028984
53:31.5;-0.08013464177942212;-0.3574442812489282;-0.791478197694115;0.88;0.022670839858957147
53:31.5;-0.07598875161049055;-0.34895785900243764;-0.8186245847328719;0.88;0.021707363386935227
53:31.5;-0.06970768320458973;-0.3371455662409061;-0.8512035714597292;0.88;0.020004676775288267
53:31.5;-0.06153216814516996;-0.322417365890844;-0.8878608092372418;0.95;0.017614305727925092
53:31.5;-0.05166207382605847;-0.30549387137369644;-0.9269114654668279;1.0090000000000001;0.014628931018393403
53:31.5;-0.0402905264153649;-0.2873653184308763;-0.9665088308731834;1.05;0.011190335849402544
53:31.6;-0.0276500257376255;-0.2692124061502505;-1.004824561860967;1.082;0.007479642694605768
53:31.6;-0.014057214770872012;-0.252300017827528;-1.0402168904498847;1.111;0.003689270190165516
53:31.6;6.128353541385583e-05;-0.23786014745310236;-1.0713681658256649;1.129;1.5617238155045533e-05
53:31.6;0.014176572129414373;-0.2269810577763634;-1.0973824775287613;1.157;0.003531171972615765
53:31.6;0.02770227331037612;-0.22051524240418655;-1.117840724484231;1.188;0.006828635810806214
53:31.6;0.040065197258692425;-0.21901159055939062;-1.1328128984250496;1.188;0.009940141572380256
53:31.6;0.05078016488298519;-0.22267053648585244;-1.1428277071551358;1.188;0.012922234657356226
53:31.6;0.05950862105052051;-0.2313179626978508;-1.1488018317711801;1.1740000000000002;0.015813731651525116
53:31.6;0.06609216061470828;-0.24439605859648345;-1.151936044020038;1.165;0.018606835359804355
53:31.6;0.07056271809821738;-0.26097476066168374;-1.1535897189126803;1.188;0.021243456728767977
53:31.7;0.07313406443136364;-0.27979063809112387;-1.1551450689144507;1.186;0.023636840102226483
53:31.7;0.0741765173802314;-0.29931887258764145;-1.1578680490304225;1.163;0.025707486108004923
53:31.7;0.07417377756154049;-0.3178793150908551;-1.162770976720592;1.151;0.027416174093435507
53:31.7;0.0736625660705665;-0.33377136729318213;-1.170487801218432;1.139;0.028778146115864843
53:31.7;0.07316247084331255;-0.34542698129191185;-1.181180971647287;1.214;0.029851149767431497
53:31.7;0.07310868996571246;-0.3515662605810322;-1.1944982176780647;1.214;0.030701648668342116
53:31.7;0.07379902888200807;-0.3513348826777642;-1.209587406733038;1.214;0.03136239172666385
53:31.7;0.07536087006905122;-0.3444016398781746;-1.2251683353120582;1.276;0.03179851790541452
53:31.7;0.07773888012535435;-0.3310015443337091;-1.2396561701612077;1.335;0.03189844750395897
53:31.7;0.08070149911134442;-0.3119190797459663;-1.2513235114283556;1.3619999999999999;0.03149873754730693
53:31.8;0.08386358181322498;-0.28841242612813267;-1.2584744944029977;1.355;0.030439098998984577
53:31.8;0.08672423347934811;-0.2620867108824827;-1.2595979899545229;1.329;0.028629741679565484
53:31.8;0.08872073313713678;-0.2347344656675924;-1.2534759738669903;1.3030000000000002;0.02610465734305714
53:31.8;0.08929758116634967;-0.2081682742147659;-1.239239967984039;1.281;0.02303613679316238
53:31.8;0.08798443393352982;-0.18406855163176394;-1.2163827851445876;1.162;0.019699522730931434
53:31.8;0.08447223886871831;-0.16386201475970846;-1.1847433951024584;1.162;0.016398970762539388
53:31.8;0.07867578160700642;-0.14863992019136515;-1.144489954419023;1.162;0.013384079716813262
53:31.8;0.07077255573299666;-0.1391189923058762;-1.0961215890104472;1.12;0.010792201215474594
53:31.8;0.06121106589317233;-0.1356402058495167;-1.0404912842311933;1.067;0.008638867817674855
53:31.8;0.05068554349448796;-0.1381950383875932;-0.9788364169282532;1.024;0.006856250509616435
53:31.9;0.04007828135668197;-0.14646862117352938;-0.9128008705457329;0.99;0.005358333354472246
53:31.9;0.03037520245905776;-0.15989217098708874;-0.8444343253861946;0.9329999999999999;0.004101212376044392
53:31.9;0.022564856087369956;-0.17770066202508492;-0.7761521954971562;0.8740000000000001;0.0031122072073777227
53:31.9;0.017535968618384763;-0.19899609934848506;-0.710638383526942;0.799;0.002479836137241742
53:31.9;0.015991801506689662;-0.2228202480498737;-0.6506808341702713;0.599;0.0023185691804931516
53:31.9;0.01839506274464544;-0.24823581590361385;-0.5989530804044172;0.599;0.002735007482421668
53:31.9;0.024944022930475897;-0.27440098016894243;-0.5577849000465038;0.599;0.003817850415563823
53:31.9;0.03556990785169152;-0.30061581514392427;-0.5289715143641498;0.599;0.005656227256778792
53:31.9;0.04994722124837948;-0.32633258120412717;-0.5136420240779622;0.573;0.00837205970109357
53:31.9;0.06751604988286375;-0.35114009063943075;-0.5121779713170768;0.563;0.012142506311599171
53:32.0;0.08751745123237681;-0.37473737260534856;-0.5241725740709374;0.574;0.017190795049073955
53:32.0;0.109039298484099;-0.3969064218891034;-0.5484385537443327;0.616;0.023735541901435495
53:32.0;0.13106716062802817;-0.41748922373385655;-0.5830814135780699;0.6779999999999999;0.031905706006978514
53:32.0;0.15253669599794467;-0.43637365622485247;-0.6256470168920273;0.757;0.04164493972080463
53:32.0;0.17238829070964812;-0.453491807412071;-0.6733339121592005;0.9570000000000001;0.05263900812128437
53:32.0;0.18962528936902553;-0.46882852703030387;-0.7232390988641538;0.9570000000000001;0.06429721801543732
53:32.0;0.20337240642174093;-0.48243081119644077;-0.7725904698729391;0.9570000000000001;0.07580125762242049
53:32.0;0.21292810405853096;-0.4944082474930732;-0.8189265497702253;1.008;0.08621119106409304
53:32.0;0.21780864422452245;-0.5049223547270956;-0.8602133000405496;1.047;0.09460320801071108
53:32.0;0.21778493035922236;-0.5141695639811735;-0.8949107423440221;1.081;0.10021065757464347
53:32.1;0.21290998856512613;-0.522363699348047;-0.9220033183194452;1.102;0.10254193526484355
53:32.1;0.20352977419136178;-0.5297219226387324;-0.9410006129864025;1.123;0.10145321257286995
53:32.1;0.19026875010876698;-0.5364553878653373;-0.9519122130785718;1.131;0.09716234225143344
53:32.1;0.1739839605970797;-0.5427626280406537;-0.9552008692208269;1.124;0.09020152054510788
53:32.1;0.15568592890137248;-0.5488219484350624;-0.9517188513792904;1.089;0.0813185273891449
53:32.1;0.13643468971233974;-0.5547801801826914;-0.9426341403369025;1.089;0.07134916744297962
53:32.1;0.11723337368750926;-0.5607378903294535;-0.9293547666684573;1.089;0.06109317518399435
53:32.1;0.09894603133508552;-0.5667339161819648;-0.9134569851345867;1.089;0.05122307951128829
53:32.1;0.0822525319087816;-0.5727338646486657;-0.8966156316954544;1.077;0.0422384958644847
53:32.1;0.06763547066609231;-0.5786270444223233;-0.8805290848178219;1.056;0.03446013310219059
53:32.2;0.05538765653565804;-0.5842335684184407;-0.8668325959952704;1.038;0.028050120489213768
53:32.2;0.04563200081543666;-0.5893191443607826;-0.857001499217996;1.024;0.02304632292304029
53:32.2;0.03835053599318856;-0.5936123709539823;-0.8522536416258791;1.015;0.019401854654775078
53:32.2;0.03342228665779093;-0.5968201949070103;-0.8534632077303811;1.016;0.01702411222754953
53:32.2;0.03066874901067715;-0.5986396602565662;-0.8610965808785312;1.022;0.015809328068866917
53:32.2;0.029900865318621142;-0.5987652055205346;-0.8751778877389663;1.05;0.01566883287730403
53:32.2;0.030957541391433814;-0.5968915220432756;-0.8952873575892166;1.05;0.01654338300788295
53:32.2;0.0337274375751533;-0.5927147016226741;-0.9205899022995219;1.073;0.018403280839218685
53:32.2;0.03815091363039174;-0.5859372364343927;-0.9498883191328825;1.107;0.021233842336365695
53:32.2;0.044203332094452;-0.5762829104296814;-0.9816957104853073;1.13;0.025007348265469912
53:32.3;0.051863969976771986;-0.5635266272396099;-1.0143210864862107;1.15;0.02964528657675588
53:32.3;0.0610775249899725;-0.5475413111396791;-1.0459621004134807;1.173;0.034979554191714446
53:32.3;0.07171680248735153;-0.5283560540352888;-1.0748039479306573;1.206;0.04072647847167478
53:32.3;0.08355488954980124;-0.50620770455068;-1.0991302663344655;1.2409999999999999;0.046488955360113
53:32.3;0.09625303965061877;-0.48156172960113625;-1.1174510419569568;1.287;0.051795845140854384
53:32.3;0.10936600244883157;-0.4550890525877943;-1.128639175176587;1.287;0.05617380561661384
53:32.3;0.12236087488072267;-0.42760898048389984;-1.1320497029464476;1.287;0.05923179392926497
53:32.3;0.13464390942363688;-0.40002033929477177;-1.1275907195744908;1.266;0.06073237706260847
53:32.3;0.1455936215220275;-0.3732336245589396;-1.1157273983740994;1.224;0.060629112250881766
53:32.3;0.15460135756614635;-0.34810624445153865;-1.097417171051123;1.167;0.059060465858129296
53:32.4;0.1611180095211531;-0.3253854533245575;-1.0739857919948481;1.111;0.056304195491576295
53:32.4;0.16470181078713386;-0.3056690808638909;-1.0469628556543045;1.064;0.05270856091829061
53:32.4;0.16506073632852114;-0.2893912277314794;-1.017902211575632;1.021;0.04862226638853262
53:32.4;0.1620829457847628;-0.27683085010588;-0.9882147399523655;0.9790000000000001;0.04434076024033604
53:32.4;0.15584917147213795;-0.268132436705023;-0.9590379267094985;0.953;0.04007648605257522
53:32.4;0.1466235743559385;-0.26332467879126387;-0.9311602231387671;0.9329999999999999;0.03595172898488877
53:32.4;0.13482528103244096;-0.2623275397153865;-0.905008204715701;0.9329999999999999;0.0320086779470693
53:32.4;0.12098861134943314;-0.2649478623442126;-0.8806916096829073;0.934;0.0282311630861163
53:32.4;0.10572110859193949;-0.27087128771683916;-0.8580893950919156;0.927;0.024572945392777573
53:32.4;0.08966462992605362;-0.2796595117990643;-0.8369535028660195;0.9179999999999999;0.02098708332796814
53:32.5;0.07346050976894561;-0.2907592355842264;-0.8170074168244207;0.905;0.017450724219498306
53:32.5;0.05771808997590875;-0.30352571588289445;-0.7980220941184335;0.879;0.013980488879500635
53:32.5;0.04298628204389115;-0.3172601459630053;-0.779860114065543;0.8490000000000001;0.010635602869039182
53:32.5;0.029729153400942492;-0.3312569018210621;-0.762488265172829;0.83;0.007508974713208114
53:32.5;0.018307756395045754;-0.34485490909682737;-0.7459673395799236;0.8079999999999999;0.004709679469661253
53:32.5;0.008970603005029153;-0.35748597546446165;-0.7304332623960584;0.8079999999999999;0.0023424006929150605
53:32.5;0.0018536655204911883;-0.3687115739827111;-0.7160840303360341;0.8079999999999999;0.0004894204711355849
53:32.5;-0.0030122286120444967;-0.37824148566259697;-0.70318101630985;0.8140000000000001;0.0008011691681397079
53:32.5;-0.005691264158865803;-0.38593380497159163;-0.6920628614521616;0.8190000000000001;0.001520082324609272
53:32.5;-0.006334059722121609;-0.39178114691702;-0.683161367656233;0.812;0.001695309464055142
53:32.6;-0.005171407599380369;-0.3958895271266321;-0.6770059982966009;0.799;0.001386038516208463
53:32.6;-0.002506805410162744;-0.3984563668189384;-0.6742066978858868;0.795;0.0006734330969771942
53:32.6;0.0012975069303996518;-0.3997531171792419;-0.6754113289617926;0.7879999999999999;0.00035032399610206876
53:32.6;0.0058441938835461366;-0.40011474802529184;-0.6812411174760732;0.779;0.001592978915696089
53:32.6;0.010733151078125227;-0.39993378302941657;-0.6922129181176673;0.7979999999999999;0.002971358364039816
53:32.6;0.015597678308971859;-0.399653498333297;-0.7086596181109709;0.7979999999999999;0.004417547864511489
53:32.6;0.02013769824834813;-0.39975458416305104;-0.7306594293727519;0.7979999999999999;0.005881908645083954
53:32.6;0.02414428553314268;-0.4007312208032368;-0.7579838301326536;0.825;0.007333773265542058
53:32.6;0.027513094394085974;-0.40305498789165967;-0.7900743653433023;0.851;0.008761363701870091
53:32.6;0.030246679996201866;-0.4071279292538726;-0.8260569842799378;0.899;0.010172287247667645
53:32.7;0.03244613089514105;-0.41322958144432215;-0.8647959537881277;0.951;0.011594925651615918
53:32.7;0.034293174895845935;-0.4214663230321061;-0.9049802667893633;0.992;0.013080058374898153
53:32.7;0.03602613007434033;-0.43173356589456036;-0.9452291972475624;1.026;0.014701801537091825
53:32.7;0.03791478731456445;-0.44370086271245657;-0.9842038931159472;1.072;0.016557088717547026
53:32.7;0.04023836589029063;-0.4568260865968396;-1.020716022621327;1.216;0.018762735806569286
53:32.7;0.04326734079595929;-0.47039644769226546;-1.0538233543632671;1.216;0.0214482595618135
53:32.7;0.04724664850566663;-0.48358414985498477;-1.0828945508453294;1.216;0.02474168269640055
53:32.7;0.052377168987834365;-0.4955020450587253;-1.1076258787477051;1.216;0.028746208170680854
53:32.7;0.058794874450535724;-0.5052532936067744;-1.128008458827078;1.2309999999999999;0.033508962151124554
53:32.7;0.06655047164452421;-0.5119787561373894;-1.144261614231283;1.245;0.03898777111267943
53:32.8;0.07559448888909599;-0.5149067312333138;-1.156752122461124;1.26;0.04502554821443952
53:32.8;0.0857726540450529;-0.513403830001363;-1.165914352922126;1.263;0.051342215050566346
53:32.8;0.09683415126264777;-0.5070204362587966;-1.1721809015730518;1.268;0.05755044102551074
53:32.8;0.10845214890531218;-0.4955229464976256;-1.1759300436847173;1.268;0.06319510188501525
53:32.8;0.12025311948973663;-0.4789080792874856;-1.1774537384477572;1.262;0.06780978508231315
53:32.8;0.13184855184879282;-0.45740109198923345;-1.1769466563739919;1.262;0.07097891243489016
53:32.8;0.1428602152054932;-0.431445624020085;-1.1745134483687292;1.262;0.07239279797083224
53:32.8;0.15293174369191032;-0.40169102876014967;-1.170189693393787;1.271;0.07188628517438882
53:32.8;0.16172594287761538;-0.368973526858217;-1.1639708072396864;1.26;0.06945715453095849
53:32.8;0.16891433189417251;-0.3342812638339898;-1.1558408507779419;1.2329999999999999;0.06526443383079131
53:32.9;0.17416951801665906;-0.29869821126804774;-1.1457913144732215;1.209;0.05960878883677172
53:32.9;0.1771712642453247;-0.2633332709192489;-1.1338219457468752;1.179;0.05289856325224492
53:32.9;0.1776317816617003;-0.22924962419606404;-1.1199213820164122;1.1420000000000001;0.04560546001113231
53:32.9;0.1753355937519035;-0.19741001963361093;-1.1040323819147093;1.1079999999999999;0.03821387615286879
53:32.9;0.1701812611471199;-0.1686473284291745;-1.0860135417811985;1.037;0.03116925659215916
53:32.9;0.16221345270030013;-0.1436613863384707;-1.0656154963503206;1.037;0.024832900524718322
53:32.9;0.15164243547273282;-0.12303623686100584;-1.042491447578777;1.037;0.019450299412961666
53:32.9;0.13885400672902973;-0.10726601466955699;-1.0162546183522638;1.044;0.015136417343664773
53:32.9;0.1244108667790938;-0.09677348156144572;-0.9865793249068495;1.041;0.011878092186456392
53:32.9;0.10904211736839164;-0.09190635888486287;-0.9533263092877766;1.026;0.009553915927753957
53:33.0;0.09361734038190551;-0.09290517274896229;-0.9166644959835563;0.9990000000000001;0.007972721702513338
53:33.0;0.07910450424512762;-0.09984895470236349;-0.8771613028349827;0.9570000000000001;0.0069282603583809095
53:33.0;0.06651316038890395;-0.11259519039942037;-0.8358196105267144;0.91;0.006259504848992653
53:33.0;0.056825496562785426;-0.13073374915390654;-0.79404865617976;0.857;0.005898995576525554
53:33.0;0.05091947473498321;-0.15357108603571445;-0.753567202706554;0.7070000000000001;0.00589271394216037
53:33.0;0.0494911949587384;-0.1801509660649876;-0.7162527750976861;0.7070000000000001;0.006386028507907704
53:33.0;0.05298608646879703;-0.20930515642301764;-0.6839669790376188;0.7070000000000001;0.007585372392655921
53:33.0;0.061548107380497576;-0.23972332509751046;-0.6583881937572489;0.6679999999999999;0.009714199767573211
53:33.0;0.07499289436235836;-0.2700383237050279;-0.6408665450131019;0.655;0.012978159873860362
53:33.0;0.09280728171265555;-0.2989263808310458;-0.6323041659826032;0.6659999999999999;0.01754172667547736
53:33.1;0.11417528635979397;-0.32521378137139056;-0.6330676656608445;0.6890000000000001;0.02350667391721036
53:33.1;0.13802896667282277;-0.3479730599465626;-0.6429453528057067;0.716;0.030880897973583513
53:33.1;0.16312127508068539;-0.3665916851961037;-0.6611589412747351;0.75;0.03953657947830265
53:33.1;0.1881178287704024;-0.3808027954268357;-0.6864324968920841;0.789;0.04917313767358945
53:33.1;0.21170407618843645;-0.3906763842650093;-0.7171133475442787;0.93;0.05931085514905254
53:33.1;0.23269925804339417;-0.39657724575463094;-0.751327636908726;0.93;0.06933494175632152
53:33.1;0.2501598933001809;-0.3991002457545569;-0.7871409073330345;0.93;0.07858726257120076
53:33.1;0.2634543214723197;-0.3989934435001624;-0.8226961260941956;0.968;0.08647897594708413
53:33.1;0.2723004758999845;-0.39707773455736156;-0.8563201807594926;1.0;0.0925891537828746
53:33.1;0.2767694866729182;-0.3941707728150252;-0.8866050822548357;1.031;0.09672368712501483
53:33.2;0.2772588916225329;-0.3910226172257513;-0.912469751307746;1.053;0.09892494952759102
53:33.2;0.2744368169038211;-0.3882690526960995;-0.9332019477855161;1.065;0.09943763489975899
53:33.2;0.26915978604235896;-0.3864056855216343;-0.9484773726470714;1.075;0.09864626739612867
53:33.2;0.262371930738658;-0.38578238279170707;-0.9583538173571969;1.083;0.09700310578712931
53:33.2;0.25499874227143077;-0.386613706531557;-0.9632401906495549;1.0590000000000002;0.0949620060182739
53:33.2;0.2478511074453526;-0.38899734936991015;-0.9638436119485049;1.0590000000000002;0.09292746266910049
53:33.2;0.2415538502122621;-0.39293088883533717;-0.9611024344009303;1.0590000000000002;0.09122204672750862
53:33.2;0.23650746431998046;-0.3983191896114579;-0.9561152513110225;1.0590000000000002;0.09007127852084185
53:33.2;0.23288441172339489;-0.4049698099416167;-0.9500726552943978;1.051;0.08960245036108985
53:33.2;0.2306553795853424;-0.41257882946760316;-0.9441933679094818;1.046;0.08985277060680363
53:33.3;0.22963699687998512;-0.42071296224997656;-0.9396643798732461;1.041;0.0907821608438635
53:33.3;0.22955020152505895;-0.428796050796472;-0.9375857183844377;1.037;0.09228676841081448
53:33.3;0.23007863762144626;-0.43610900274337605;-0.9389215786593724;1.044;0.09421079518056212
53:33.3;0.2309194758166965;-0.44181129903033683;-0.9444594987117786;1.057;0.09635643426199123
53:33.3;0.231822818653091;-0.44498907878065685;-0.9547773209609719;1.1159999999999999;0.09849351323677079
53:33.3;0.23261848730042972;-0.4447286052445623;-0.9702131874026834;1.1159999999999999;0.10037058723240631
53:33.3;0.23323050761090106;-0.44020554569218934;-0.9908294091492429;1.1159999999999999;0.10172782415508919
53:33.3;0.23368044504582772;-0.4307755984785481;-1.0163631244410003;1.1159999999999999;0.1023110084027206
53:33.3;0.23408054064508857;-0.41605404103705074;-1.0461673017051245;1.107;0.10188639552621993
53:33.3;0.23461611323014983;-0.3959764722048635;-1.0791585072555938;1.113;0.1002564809597011
53:33.4;0.23551580663267824;-0.37083559851144376;-1.113795661381681;1.129;0.09727629020052032
53:33.4;0.2370112470775255;-0.34128933121455235;-1.1481140023750447;1.157;0.0928702642710738
53:33.4;0.23929335298700247;-0.30833538212834966;-1.179831005814555;1.209;0.087051007940502
53:33.4;0.24247522957475237;-0.2732480368697975;-1.2065280753082517;1.2670000000000001;0.0799395799423537
53:33.4;0.2465693113536502;-0.2374759400219224;-1.2258947598267997;1.38;0.07178138378450732
53:33.4;0.25148156583726494;-0.20251050431234713;-1.2360014737051248;1.38;0.06294666123393423
53:33.4;0.2570202984057479;-0.16975039718976292;-1.2355495712515399;1.38;0.05390616011691866
53:33.4;0.26291432694765393;-0.14039090775721713;-1.2240483677337735;1.37;0.045180581262441975
53:33.4;0.2688363018647822;-0.11535115498645349;-1.2018885856968475;1.328;0.03727125964078258
53:33.4;0.27442794694990164;-0.09523668801545787;-1.1703045924364497;1.248;0.030586622965429026
53:33.5;0.2793230662932788;-0.0803331319385643;-1.1312345882594608;1.157;0.02538365611243322
53:33.5;0.28316486135095925;-0.0706284076705709;-1.0871030461958093;1.077;0.021741499180241326
53:33.5;0.28561777122254073;-0.06585876867789259;-1.040562691285806;1.035;0.01957343658195229
53:33.5;0.28637693505400663;-0.06557038481517133;-0.9942358925968791;0.996;0.018669608313495963
53:33.5;0.2851778636577602;-0.06918618019612598;-0.9504860431266199;0.887;0.018753438519120088
53:33.5;0.2818070539256499;-0.07606737604362372;-0.911238827046927;0.887;0.019533609956760283
53:33.5;0.2761139409840393;-0.08556123886459116;-0.8778686299563346;0.887;0.02073933988224193
53:33.5;0.2680248062011398;-0.09703117138322546;-0.8511585390953343;0.887;0.022135876618891784
53:33.5;0.25755761821627;-0.10987125254967516;-0.8313268560060996;0.872;0.02352503544481646
53:33.5;0.24483427527291474;-0.12351176572874162;-0.8180997763953712;0.86;0.02473926659517765
53:33.6;0.23008610185479653;-0.13742291456034758;-0.8108094924237843;0.857;0.025637068624635297
53:33.6;0.21364985306777237;-0.15112146971429433;-0.8085043749010125;0.86;0.026104245270952627
53:33.6;0.19595297588307586;-0.16418204582041931;-0.8100635116635744;0.8740000000000001;0.02606133127144656
53:33.6;0.17748759215196108;-0.17625268106785835;-0.8143088000792309;0.88;0.025473748563185673
53:33.6;0.15877387092307232;-0.1870728326245828;-0.8201064323489213;0.888;0.024359029063078675
53:33.6;0.14031737729674987;-0.1964896076283408;-0.8264492245618016;0.888;0.02278595422175119
53:33.6;0.12257006967159563;-0.20446609216104025;-0.832513305472134;0.888;0.020863968236147466
53:33.6;0.10590407180719408;-0.21107709361736968;-0.8376867241730004;0.882;0.01872558509933257
53:33.6;0.09059987985440103;-0.2164925309051831;-0.8415721036602882;0.877;0.01650676127443548
53:33.6;0.07684505607045819;-0.22095298558339554;-0.8439689880044825;0.87;0.014329871456625775
53:33.7;0.06474029653241475;-0.22474295442509307;-0.8448434418414945;0.8590000000000001;0.012292409148983802
53:33.7;0.05431166688977024;-0.22816609437362775;-0.8442934059397968;0.86;0.0104625522008537
53:33.7;0.045527011889731635;-0.23152480934192166;-0.8425182759510658;0.8640000000000001;0.008880675730006607
53:33.7;0.03831299848102946;-0.2351048243367461;-0.8397988184188206;0.873;0.007564547295933377
53:33.7;0.03256894423640553;-0.23916410615919367;-0.8364886889693727;0.88;0.006515680113159164
53:33.7;0.028175006751780387;-0.24392433955497955;-0.8330136813443596;0.88;0.005724944764261933
53:33.7;0.02499493243543442;-0.24956267612428387;-0.8298718863239626;0.88;0.005176576701576283
53:33.7;0.022875143195295496;-0.2562025141713709;-0.8276279817480917;0.878;0.004850453820584182
53:33.7;0.021641206663243286;-0.2639038469811439;-0.8268970983138689;0.8759999999999999;0.004722572799199871
53:33.7;0.021091690921577023;-0.2726542002817643;-0.8283167904298749;0.873;0.004763432942834332
53:33.8;0.020990033401968488;-0.2823601544820317;-0.8325086367740838;0.875;0.0049340697920668575
53:33.8;0.021056938119973372;-0.2928388547192725;-0.8400332334750563;0.883;0.005179888227309018
53:33.8;0.02096782221732565;-0.30380981555072417;-0.8513433340726019;0.888;0.005423253017572613
53:33.8;0.020361122092608763;-0.31488914048611755;-0.8667400556731263;0.888;0.0055571006037364885
53:33.8;0.018862697059049725;-0.3255898362269442;-0.8863373099788089;0.9490000000000001;0.005443442757441454
53:33.8;0.01612753399252825;-0.3353314217949593;-0.9100388931559371;0.9490000000000001;0.004921553039289734
53:33.8;0.011893002203220678;-0.34345903487462187;-0.9375296329456859;0.9940000000000001;0.0038295826607682502
53:33.8;0.006032610909757711;-0.3492694970923173;-0.9682795274422495;0.9940000000000001;0.002040171721560883
53:33.8;-0.0014010496860712364;-0.35204169150532527;-1.0015613305440951;1.047;0.000493997993155128
53:33.8;-0.010152827801578274;-0.3510702069153709;-1.0364846178734382;1.0979999999999999;0.0036943995002442827
53:33.9;-0.019766771847165673;-0.34570292244805423;-1.0720469250612015;1.146;0.00732575847132226
53:33.9;-0.02961566872659911;-0.3353841743643809;-1.107194853094969;1.178;0.010997353053795223
53:33.9;-0.03895656821563638;-0.31970442136332394;-1.1408824596333893;1.196;0.01420921996400221
53:33.9;-0.04700556610183487;-0.2984545679689621;-1.172117087576275;1.204;0.0164436610064687
53:33.9;-0.05302083613004824;-0.27167969852247603;-1.199991475520091;1.255;0.01728549893781937
53:33.9;-0.05638114253508157;-0.23972530899659378;-1.2237070240516088;1.255;0.016539608003487593
53:33.9;-0.05664920058154524;-0.20326870747194162;-1.2425924761997915;1.255;0.014308464517895518
53:33.9;-0.05361405865500451;-0.1633251385311038;-1.2561205986757182;1.28;0.010999249612791306
53:33.9;-0.047310648247051404;-0.12121432128995338;-1.2639262544146883;1.301;0.007248273429074735
53:33.9;-0.038016111353013214;-0.07847842032884375;-1.2658260176318772;1.319;0.003776521500677889
53:34.0;-0.026223637509724982;-0.036758900270248564;-1.2618299938973;1.295;0.0012163436421046094
53:34.0;-0.012597055684315827;0.002344601818329446;-1.2521309413197643;1.2670000000000001;3.6981787100441726e-05
53:34.0;0.0020888734699337887;0.037405333852451685;-1.2370619935994949;1.228;9.665785064475058e-05
53:34.0;0.017018890501905557;0.06726835991261845;-1.2170277839950534;1.182;0.0013932933884221634
53:34.0;0.03141663908785349;0.09110777223980872;-1.1924258367366098;1.122;0.0034130804707698456
53:34.0;0.04462840716789871;0.10844485409351555;-1.1635820327619473;1.107;0.0056314125199009
53:34.0;0.05619935585745659;0.11913610973423207;-1.1307245099775973;1.107;0.007570621932134209
53:34.0;0.06592706532500905;0.12334108484034335;-1.0940111656481317;1.107;0.008895969032378045
53:34.0;0.0738833735769794;0.12147962754870316;-1.0536078605996595;1.088;0.009456472659751148
53:34.0;0.0804053935533123;0.11418682089988166;-1.0097973339632953;1.065;0.00927118791101963
53:34.1;0.0860618796394291;0.10227004996986364;-0.9630917329791951;1.031;0.008476702672823066
53:34.1;0.09160087897378724;0.08666835895531144;-0.91432361193464;0.9990000000000001;0.00725872176569855
53:34.1;0.09788255227856502;0.06841170700767955;-0.8646949853395873;0.96;0.005790267828333547
53:34.1;0.10580003914952664;0.04857671157136083;-0.8157677237873702;0.915;0.0041925713120353645
53:34.1;0.11619237492028771;0.02823564931708174;-0.7693840119118328;0.7020000000000001;0.002524169793222042
53:34.1;0.12975566081575282;0.008399482517787878;-0.7275215062073238;0.7020000000000001;0.0007929114335447534
53:34.1;0.14696000054701266;-0.01003696948475278;-0.6921119450682817;0.7020000000000001;0.0010208879870254645
53:34.1;0.16798042055085888;-0.02633753088625766;-0.6648605961947222;0.649;0.002941469278318692
53:34.1;0.19265075293824374;-0.03995171755829918;-0.6470873218374718;0.613;0.004980455411774621
53:34.1;0.22044837315618673;-0.05052988340317754;-0.6395942619549706;0.601;0.007124587969237934
53:34.2;0.250513993865527;-0.05792949581834292;-0.6425682601925576;0.612;0.009325046565954351
53:34.2;0.2817068631682402;-0.062212628677758;-0.6555338007657022;0.6409999999999999;0.011488704775785267
53:34.2;0.3126928013372978;-0.06363375928890798;-0.6773708194317437;0.679;0.013478201589513086
53:34.2;0.34205927456376495;-0.06261637606710131;-0.706405308958312;0.731;0.015130150709224707
53:34.2;0.36844719223933;-0.05971609298243027;-0.7405723420909233;0.973;0.01629424062573706
53:34.2;0.39068283441766716;-0.055570299781715224;-0.7776332025776987;0.973;0.016882698508605944
53:34.2;0.4078881842858843;-0.05084093015067874;-0.8154025123747066;0.973;0.01690934003558191
53:34.2;0.41955169780563695;-0.04616113447373788;-0.851934585430679;0.973;0.016499402071800683
53:34.2;0.42555502381256666;-0.04209310000591739;-0.8856455216316236;1.018;0.01586450638911015
53:34.2;0.426162840142661;-0.039097779444640754;-0.9153802176417815;1.0490000000000002;0.015252084163460307
53:34.3;0.4219848144607209;-0.03751455641907202;-0.940441546440004;1.0659999999999998;0.01488772867548246
53:34.3;0.4139152854380071;-0.03754959331583768;-0.9605893051848731;1.079;0.014929815797804356
53:34.3;0.4030538916494263;-0.039272631750762246;-0.9760090189568962;1.08;0.015449234133912543
53:34.3;0.3906098094885416;-0.04262182783951144;-0.9872509164356823;1.072;0.01643625088305948
53:34.3;0.37779329700728115;-0.047414485551762676;-0.9951433339794076;1.0290000000000001;0.017825877972022935
53:34.3;0.36570337788071894;-0.05335952741362284;-1.000689581589451;1.0290000000000001;0.019527215746515825
53:34.3;0.3552285304313419;-0.060067672755617876;-1.0049613261408514;1.0290000000000001;0.0214436146618246
53:34.3;0.34697882498731764;-0.06705835865217731;-1.0090022732773967;1.0290000000000001;0.023477293859360128
53:34.3;0.34125863531748635;-0.07376638528395058;-1.0137526181790615;1.038;0.02551961635246218
53:34.3;0.3380781492146138;-0.07955348470771857;-1.0199996101930886;1.063;0.027433190287057922
53:34.4;0.33719740736337056;-0.08372909765869974;-1.028354154871609;1.088;0.029033764159219946
53:34.4;0.3381948656310542;-0.08558092552854182;-1.0392478891866996;1.111;0.030078982428555584
53:34.4;0.3405492527907466;-0.0844119201904888;-1.0529412596214487;1.128;0.030268287838542518
53:34.4;0.34372127970986993;-0.07957922033885256;-1.0695327604435299;1.145;0.029255006017933117
53:34.4;0.34722338860105206;-0.07053250104138359;-1.0889619727394548;1.1740000000000002;0.02666926023778903
53:34.4;0.3506698959270279;-0.05685282239300355;-1.1110018915197077;1.1740000000000002;0.022149570659733754
53:34.4;0.3538041066139798;-0.038295714814186074;-1.135238881178197;1.1740000000000002;0.015381557268879504
53:34.4;0.3565022408814256;-0.014840023081027887;-1.1610441637903006;1.1740000000000002;0.0061425058704986865
53:34.4;0.3587562306862349;0.013263389451557483;-1.187549222407936;1.189;0.005650743497990757
53:34.4;0.360639070973581;0.04545575423464097;-1.2136434740052102;1.215;0.019895404293023146
53:34.5;0.362258406890467;0.08086083678115089;-1.2380107691437219;1.26;0.03626445263060158
53:34.5;0.3637066637772594;0.1183109002317045;-1.2592118293817738;1.307;0.054184467796337454
53:34.5;0.365018218975023;0.15641154883628572;-1.275806842192256;1.347;0.07283972294747972
53:34.5;0.3661448010299647;0.19364255695520147;-1.2865013360782611;1.3880000000000001;0.09121450845397881
53:34.5;0.3669581941349524;0.22848358708026173;-1.2902926746859384;1.444;0.10818320160501138
53:34.5;0.36728144212431585;0.2595434376072575;-1.2865940540158702;1.444;0.12264520613196439
53:34.5;0.36693695412175353;0.2856653104100301;-1.2753158721120794;1.444;0.13368008767848205
53:34.5;0.3657918916170788;0.30598788080865275;-1.2568893708751834;1.4140000000000001;0.140680969882212
53:34.5;0.3637843671934498;0.31996081288847067;-1.2322242822276628;1.359;0.14342689167154093
53:34.5;0.36092207062686865;0.32732871702508093;-1.2026019213105401;1.2919999999999998;0.14207558138476892
53:34.6;0.3572522130334905;0.3281002205753649;-1.1695177779618082;1.22;0.13708447655035802
53:34.6;0.3528103906202902;0.3225133701171332;-1.1344992916471777;1.1540000000000001;0.12909021364888829
53:34.6;0.347565566731558;0.3110019360952667;-1.0989303788601745;1.111;0.11878730142960034
53:34.6;0.3413826444401557;0.2941619947048869;-1.0639126253967033;1.0859999999999999;0.10684002050859225
53:34.6;0.33401945453861753;0.2727154696905551;-1.030184464230151;1.06;0.09384184386909711
53:34.6;0.32516300235001794;0.2474694728546185;-0.9981065872932166;1.06;0.08031555780725796
53:34.6;0.3144957084054172;0.21927634348924346;-0.9677081469805451;1.06;0.06673457536182033
53:34.6;0.30177356014110884;0.18900052264059575;-0.9387771285257926;1.037;0.05354349203515437
53:34.6;0.2868976553404448;0.15749129562194655;-0.9109721056402749;1.006;0.04116125744787517
53:34.6;0.26996428928943994;0.12555573240756307;-0.8839335100062702;0.9670000000000001;0.02996142491816842
53:34.7;0.25128320826680933;0.09393054387272658;-0.8573792338569913;0.9279999999999999;0.020236866455323962
53:34.7;0.23136014250365067;0.06325712900086633;-0.8311771044814809;0.8909999999999999;0.01216442518946855
53:34.7;0.21084791128322022;0.03406369944823517;-0.8053917973199997;0.861;0.005784533192960239
53:34.7;0.19047689961438113;0.006754427170207892;-0.7803053153746013;0.8370000000000001;0.001003911437185456
53:34.7;0.17097811058046242;-0.018396593001606634;-0.7564100153555173;0.76;0.0023792231910061486
53:34.7;0.1530112385751667;-0.04124632985201583;-0.7343751150020644;0.76;0.004634752988527234
53:34.7;0.13710812685810758;-0.0617744203370606;-0.7149920599327955;0.76;0.006055821917431047
53:34.7;0.12363740403871781;-0.08006249854657733;-0.6991046251966148;0.7240000000000001;0.006920240572797505
53:34.7;0.11278943477982391;-0.09626606640282123;-0.6875245868913252;0.687;0.00746500117184126
53:34.7;0.1045776494097154;-0.11058918899198225;-0.68093294764866;0.6609999999999999;0.007875096742172908
53:34.8;0.09885456373179433;-0.12327023286607186;-0.6797749720004755;0.642;0.008283618910099912
53:34.8;0.09534260848497846;-0.1345805519759757;-0.684166890828958;0.63;0.008778723859452914
53:34.8;0.09367788571776152;-0.1448319553053822;-0.6938362556397717;0.634;0.009413659032003134
53:34.8;0.09346130986882313;-0.15438501095395812;-0.7081169819721492;0.669;0.010217437882133014
53:34.8;0.09430877280635297;-0.16364945565998204;-0.7260129099396972;0.8170000000000001;0.011204977842859652
53:34.8;0.09589145937146641;-0.17306973853834817;-0.7463249507176546;0.8170000000000001;0.012385941564704446
53:34.8;0.09795982816484758;-0.1830922242900414;-0.767812277595377;0.8170000000000001;0.01377123748375568
53:34.8;0.10034877504982606;-0.19411530086562245;-0.7893492120700522;0.857;0.01537591695213202
53:34.8;0.10296557972835342;-0.20642862285125152;-0.8100538617111358;0.8859999999999999;0.017217729520744626
53:34.8;0.10576624437693789;-0.22015152805864704;-0.8293807855307422;0.909;0.01931180010135702
53:34.9;0.1087290356258483;-0.2351822719887785;-0.8471728743091632;0.919;0.0216631775537453
53:34.9;0.11183438669697678;-0.2511688491748057;-0.8636666765769934;0.922;0.024259804646629603
53:34.9;0.11505718942855668;-0.2675091056528736;-0.8794503879734304;0.925;0.027068467917971264
53:34.9;0.11837270100191297;-0.283383427270831;-0.8953822005229343;0.93;0.03003547208986404
53:34.9;0.12177272826298531;-0.29781789840532497;-0.9124830120710065;0.987;0.033092198352210125
53:34.9;0.12528514783928504;-0.30976874647127767;-0.9318181466177581;0.987;0.036163324795332887
53:34.9;0.12898803272859763;-0.31821227358366083;-0.9543785395870747;0.987;0.039173016077378955
53:34.9;0.13301118850638924;-0.32222486448043475;-0.9809686365224881;1.025;0.04204383723587986
53:34.9;0.13752229803308236;-0.32104619854001193;-1.0121085458523698;1.065;0.0446856155391055
53:34.9;0.14269922249837996;-0.3141270994641864;-1.0479562756953562;1.093;0.04697536614420233
53:35.0;0.14869258217339684;-0.3011654622311554;-1.088250335675549;1.113;0.04873301472123798
53:35.0;0.15558418628682577;-0.2821317512770363;-1.1322708385862958;1.13;0.0497012990137278
53:35.0;0.16334794314940937;-0.2572835960404024;-1.178822704923895;1.145;0.049542082657365566
53:35.0;0.1718201023235328;-0.22716794016384795;-1.2262532372969304;1.1740000000000002;0.047863139318022566
53:35.0;0.1806839507717365;-0.19260882211887037;-1.2725200430195003;1.3419999999999999;0.044285380957017735
53:35.0;0.1894706021885834;-0.15468061083721477;-1.3153151427630498;1.3419999999999999;0.03854850447811565
53:35.0;0.1975749011631968;-0.11466942471591851;-1.3522301262842882;1.3419999999999999;0.030635855639468676
53:35.0;0.20428620491310945;-0.07402280224335189;-1.380937701270531;1.41;0.020882315305405942
53:35.0;0.2088367525957638;-0.034280579176938185;-1.39937567165773;1.469;0.010018193170786767
53:35.0;0.2104712553444389;0.0030175278424530703;-1.405926637113485;1.5019999999999998;0.0008929080465112789
53:35.1;0.20853675204867586;0.0364373319152335;-1.399576703127283;1.514;0.01063471556033123
53:35.1;0.20258198130813246;0.06474775634363822;-1.3800264643444538;1.4909999999999999;0.018101432821811748
53:35.1;0.19244591239645942;0.0869928633024368;-1.3477313066217345;1.452;0.02256293713194168
53:35.1;0.17831285432819663;0.10253027399619698;-1.3038597045087776;1.4040000000000001;0.023837770470431646
53:35.1;0.16071930111353708;0.11103657139469016;-1.250171205550318;1.137;0.022310205477087
53:35.1;0.14051276926460823;0.11248653552328183;-1.1888350772555811;1.137;0.018790483057879705
53:35.1;0.1187780783253949;0.10711684533185457;-1.122233289686029;1.137;0.0142783234519747
53:35.1;0.096750251830927;0.09538475701884262;-1.0527922358978756;1.045;0.00971569237244905
53:35.1;0.07572382320833775;0.07792813116998286;-0.982857821083088;0.9690000000000001;0.005799859755134018
53:35.2;0.056960538425289316;0.05552855797363425;-0.9146019930819986;0.894;0.002892828081912518
53:35.2;0.04160002157619037;0.029077222496362753;-0.8499489574466037;0.8270000000000001;0.0010281093790003323
53:35.2;0.03058288785567387;-0.00045737586964720184;-0.7905198862189925;0.77;1.105769329756497e-05
53:35.2;0.024595648323674262;-0.03206121030568019;-0.7375985566605725;0.722;0.000581645330420116
53:35.2;0.02404333290247829;-0.06470789489896041;-0.6921183715741352;0.688;0.001076793234984912
53:35.2;0.029051907945114405;-0.09739506466348499;-0.6546687406437995;0.639;0.0018523933541838675
53:35.2;0.03949698833618372;-0.1291827803588611;-0.6255185008535395;0.639;0.003191602293527379
53:35.2;0.055047099749697;-0.15922639226078786;-0.6046557262314539;0.639;0.005299777871280722
53:35.2;0.07520504321770745;-0.18679448983027885;-0.5918422789110479;0.639;0.008314133858722867
53:35.2;0.09933684941237139;-0.21127189128039614;-0.5866756261453159;0.647;0.012312610675521514
53:35.3;0.1266894701364937;-0.2321594294463017;-0.5886456429650379;0.662;0.017313336952030016
53:35.3;0.15640437229489598;-0.24908323924480322;-0.5971758599212192;0.6759999999999999;0.02326460258631198
53:35.3;0.18753267721825473;-0.26181665198077303;-0.611645214740064;0.687;0.030031277079481885
53:35.3;0.21905524792796224;-0.27030787868271666;-0.6313938230634402;0.7040000000000001;0.037386317962633094
53:35.3;0.24991207267230775;-0.2747024253225155;-0.655722527277221;0.725;0.04501630392173907
53:35.3;0.27904625914096165;-0.27535010068156895;-0.683898021501627;0.8640000000000001;0.052547588675407236
53:35.3;0.3054623882266767;-0.2727915574444334;-0.7151676637142625;0.8640000000000001;0.05959317685522651
53:35.3;0.32828755815637034;-0.26772703252478985;-0.7487730511009366;0.8640000000000001;0.06581075199758288
53:35.3;0.3468197042501303;-0.26097464349958105;-0.7839463554937549;0.8640000000000001;0.07095588513556103
53:35.3;0.36055907900694656;-0.2534232827482417;-0.8198881371988059;0.899;0.0749165122909158
53:35.4;0.36923133016015364;-0.24598057617505836;-0.8557435858071972;0.943;0.07772182895170103
53:35.4;0.37280999641818857;-0.23951603106020009;-0.8905970067081549;0.981;0.07952494300616496
53:35.4;0.3715363121651642;-0.2348027923128893;-0.9234944225714747;1.02;0.08056358806865895
53:35.4;0.3659258862059678;-0.23246379605047632;-0.953494022482418;1.056;0.08110851189890984
53:35.4;0.35674939963058583;-0.23292735215097987;-0.979739177141245;1.085;0.08141308565962493
53:35.4;0.3449782140977023;-0.23639456668182865;-1.0015457497156883;1.1320000000000001;0.08167703283339221
53:35.4;0.3316970417876478;-0.24281886424057042;-1.0184900929891734;1.1320000000000001;0.0820315335561443
53:35.4;0.31800054131064837;-0.25189723251814494;-1.0304783772666763;1.1320000000000001;0.08254487965676101
53:35.4;0.30489593209600707;-0.26307370310503436;-1.0377797911816113;1.1320000000000001;0.08324042281928144
53:35.4;0.29322522531442957;-0.27555724156752665;-1.0410171166741513;1.124;0.08411453098272538
53:35.5;0.28361152051752553;-0.2883563917591464;-1.0411187203665198;1.117;0.08514393279459821
53:35.5;0.2764327632786359;-0.3003305597613969;-1.0392401009063599;1.11;0.08627896705354048
53:35.5;0.2718269367661205;-0.3102547165943933;-1.0366641611368246;1.094;0.08742768286215936
53:35.5;0.269728970244502;-0.3168927391704901;-1.034691015115043;1.084;0.08844037201184675
53:35.5;0.2699340070182497;-0.3190748339498475;-1.0345302751929348;1.084;0.08910321166545553
53:35.5;0.27217681588077114;-0.315775676718423;-1.037208831109575;1.139;0.08914479886543704
53:35.5;0.27621239401917747;-0.3061912892111453;-1.043501361877462;1.139;0.08825290576242646
53:35.5;0.2818789023365242;-0.2898134743026751;-1.0538803153623306;1.139;0.08609391112197937
53:35.5;0.2891256555731765;-0.2664990811917288;-1.0684761365118387;1.139;0.08232792576316829
53:35.5;0.29799770328641373;-0.2365266026418425;-1.0870434649020684;1.125;0.07661958938901696
53:35.6;0.308579685978634;-0.20062808498421084;-1.1089393810663786;1.114;0.06865416146926658
53:35.6;0.3209111736624774;-0.15998483677756292;-1.1331272635751661;1.126;0.058175798158959215
53:35.6;0.3348934385752483;-0.1161805402522323;-1.1582213564414763;1.161;0.04506419307735291
53:35.6;0.3502120839726645;-0.07111100203151205;-1.182581457346839;1.228;0.02945092845229263
53:35.6;0.366298743596039;-0.026854738605414506;-1.2044536166214963;1.2990000000000002;0.011848038002802472
53:35.6;0.38234698010537616;0.014484821822293291;-1.2221356613809287;1.349;0.006768465794368802
53:35.6;0.3973811559179469;0.05094538680206442;-1.2341358749090756;1.349;0.024984755834734477
53:35.6;0.4103575120824814;0.08085342424726959;-1.239297505387826;1.349;0.041118416486373446
53:35.6;0.42026936288347977;0.10293319416462507;-1.2368769096833632;1.3459999999999999;0.053506884384582704
53:35.6;0.426238809898634;0.1163745741537399;-1.2265765860572062;1.338;0.060842319953194696
53:35.7;0.42759055953543557;0.12086788273199228;-1.2085396636509453;1.325;0.06245970533178871
53:35.7;0.4239070879615335;0.11660964134814507;-1.1833121591149123;1.296;0.05849307662239373
53:35.7;0.41506250593817534;0.10427549350614079;-1.151777723604823;1.249;0.04984991617347954
53:35.7;0.40123106452438534;0.08495610834595509;-1.1150694591804209;1.197;0.038009405872440845
53:35.7;0.3828665968652986;0.060056465460286125;-1.074465636890655;1.133;0.02470584870246215
53:35.7;0.3606521551177857;0.03116413707133258;-1.0312801922983754;1.004;0.011590984203290305
53:35.7;0.3354262828324512;-9.87287383874069e-05;-0.9867647906148656;0.966;3.267791370331862e-05
53:35.7;0.3081023023354799;-0.03221233677645977;-0.9420442347633864;0.966;0.009349501823756498
53:35.7;0.27960064300922666;-0.06385550008630951;-0.8981014358499196;0.966;0.016034737957268144
53:35.7;0.2508040859684089;-0.09394886161695852;-0.855808659707843;0.922;0.02016521265589573
53:35.8;0.22253063526224295;-0.12165506507693476;-0.8159824661705996;0.878;0.022090260118723056
53:35.8;0.195513848268569;-0.1463551715114483;-0.7794359966232685;0.8420000000000001;0.02230314232740314
53:35.8;0.17038653737907006;-0.16761713162492475;-0.7470115461165744;0.8079999999999999;0.02133442764290439
53:35.8;0.1476699033214807;-0.1851657400349882;-0.7195864352945897;0.777;0.01967594472114866
53:35.8;0.1277704549733625;-0.19885883432669868;-0.6980506118130454;0.757;0.017736268008007896
53:35.8;0.11098379741883252;-0.2086710218639869;-0.68325755479728;0.711;0.01582363168924036
53:35.8;0.09750206298962913;-0.2146834203181378;-0.6759538800309858;0.711;0.014149118239871535
53:35.8;0.08742224972817746;-0.21707657062267857;-0.6766970202816146;0.711;0.01284189736340903
53:35.8;0.08075341467247876;-0.2161246404409532;-0.6857711802346365;0.7020000000000001;0.01196862911316036
53:35.8;0.07741976851243554;-0.21219138210597965;-0.7031092589347661;0.706;0.01155054368590201
53:35.9;0.07725711997112167;-0.20572936483517906;-0.7282274373469833;0.721;0.01157448928707068
53:35.9;0.0800033568386039;-0.19728190544994248;-0.7601816619591758;0.7340000000000001;0.011998110366129485
53:35.9;0.08528742569186969;-0.18748318298519276;-0.7975581939958561;0.748;0.01275292205431832
53:35.9;0.0926245594586653;-0.17704982027488908;-0.8385118657941928;0.784;0.013750891595034617
53:35.9;0.10142804381495593;-0.1667587183137847;-0.8808653628186809;0.841;0.014898966073015007
53:35.9;0.111046158386984;-0.15740986491626696;-0.9222760466819304;1.057;0.016121164679421967
53:35.9;0.12082329596890164;-0.14977759240335917;-0.9604561197496114;1.057;0.01738101170826932
53:35.9;0.13017076588810114;-0.14455775416952152;-0.9934047840034234;1.057;0.018693090119231894
53:35.9;0.13862751604838092;-0.14231838506955605;-1.0196043760933258;1.109;0.020116023733743552
53:35.9;0.14589833728958307;-0.14345732404610193;-1.0381543654173049;1.13;0.021728762979001646
53:36.0;0.1518669542501649;-0.14816710979160244;-1.0488394813548487;1.137;0.0236006584402007
53:36.0;0.15658605841739087;-0.15640859161369178;-1.0521325437400575;1.119;0.025768204098700207
53:36.0;0.1602486030136745;-0.1678975622952282;-1.0491318371367928;1.092;0.028227259072048073
53:36.0;0.1631467717621332;-0.18210940754181137;-1.0414391823002123;1.0659999999999998;0.030941743340764515
53:36.0;0.16562518537336957;-0.19830418525651697;-1.0309941282621544;1.042;0.033862143781830854
53:36.0;0.16803326898411583;-0.2155699784398923;-1.01988551114913;1.008;0.036943239614110716
53:36.0;0.17068079743389242;-0.23287741092573197;-1.0101630885214714;1.008;0.0401516616171395
53:36.0;0.17380149411343365;-0.24913537025367802;-1.0036699691485054;1.008;0.043459009616202735
53:36.0;0.17753035936555528;-0.26324098014742425;-1.0019102578897945;1.015;0.04682253839503369
53:36.0;0.18189902846053457;-0.2741247366594355;-1.0059568827953802;1.0290000000000001;0.050160051460825784
53:36.1;0.18684954036917373;-0.2807971400950312;-1.0163971501407971;1.051;0.05332712283234029
53:36.1;0.19226124991681923;-0.2824017635684056;-1.0333110266842036;1.074;0.056103535439479886
53:36.1;0.19798040331800337;-0.27827412202016183;-1.05627766446369;1.0979999999999999;0.05819331831263037
53:36.1;0.20384043308131305;-0.26800011605818586;-1.0844072175668065;1.122;0.05924036353410765
53:36.1;0.2096646720191233;-0.25146412892670095;-1.1163970300413986;1.141;0.058859961505537316
53:36.1;0.21525011394591695;-0.22887597133624327;-1.1506123184991914;1.237;0.056685581971389835
53:36.1;0.22033876241103795;-0.20077172098513668;-1.185186893430125;1.237;0.052430051899651
53:36.1;0.22458977533018543;-0.16799622015295987;-1.2181296970932998;1.237;0.04596031771029065
53:36.1;0.22756769855274456;-0.13168031635616964;-1.2474216791421415;1.237;0.03738047072855749
53:36.1;0.22875842562407525;-0.09321339238901812;-1.2711025579340385;1.27;0.02710416331778743
53:36.2;0.2276177673242857;-0.05419638318181708;-1.287362093050627;1.3159999999999998;0.015880975682888866
53:36.2;0.22364926048261285;-0.016362554231404827;-1.2946476565221636;1.36;0.0047377283422331985
53:36.2;0.21649800318834042;0.018529664331891366;-1.291782956017479;1.393;0.0051821621419573406
53:36.2;0.20603846749223176;0.04881384175938317;-1.278076590661982;1.3940000000000001;0.012854292564613231
53:36.2;0.19243096881768013;0.07302525485324775;-1.2533923731818264;1.376;0.01761307138980144
53:36.2;0.1761279269392307;0.08999369104667397;-1.2181586436451528;1.161;0.019308304495930993
53:36.2;0.15782916646619227;0.09891408944746806;-1.1733139758511655;1.161;0.018317224326180218
53:36.2;0.13840673647076907;0.09938990834761012;-1.1202141259709055;1.161;0.0154099263615397
53:36.2;0.11882615386720279;0.0914460912488426;-1.0605338795793748;1.071;0.011523959783356684
53:36.2;0.10007882751245734;0.07551264215880966;-0.9961783495706844;0.99;0.007528335649215103
53:36.3;0.08312723374549408;0.0523830796192756;-0.9291995247572097;0.92;0.004046162630723909
53:36.3;0.06886156107789204;0.02315360627246048;-0.8617152261596819;0.855;0.0013739131317467373
53:36.3;0.05806761644069073;-0.0108509185278997;-0.7958346507266656;0.7959999999999999;0.000501445047761911
53:36.3;0.05140464233703134;-0.048158813007878304;-0.7335935353134205;0.743;0.001816074295091316
53:36.3;0.04939002101567614;-0.0872370319671268;-0.6768966119321193;0.698;0.002916503034325395
53:36.3;0.052387544967685745;-0.12657677233586176;-0.6274624236887889;0.612;0.004160732416001047
53:36.3;0.06059608484411746;-0.1647731024984832;-0.5867691806183257;0.612;0.00585865843539953
53:36.3;0.07403548789808688;-0.20058774709243743;-0.5560071686016496;0.612;0.008257046575755555
53:36.3;0.09252828962208307;-0.23298700876106937;-0.5360426776732975;0.597;0.011555948772269146
53:36.3;0.11568019188856175;-0.2611593825345445;-0.5273887822192294;0.594;0.015932925351628675
53:36.4;0.14286600683842335;-0.28452550346732175;-0.5301738400651128;0.595;0.02155104836647852
53:36.4;0.17322813003361023;-0.3027483478617108;-0.544106882020816;0.604;0.028535429790307317
53:36.4;0.20569301591575484;-0.31574288841670034;-0.5684510985618999;0.631;0.03691868585576964
53:36.4;0.23900960097396867;-0.3236798417886856;-0.6020236404580918;0.667;0.04657410796425982
53:36.4;0.2718121547655454;-0.32697655034331496;-0.6432412191674218;0.7140000000000001;0.05716883569749554
53:36.4;0.3027070608225004;-0.32626831629482045;-0.6902243539387305;0.96;0.06816912694519993
53:36.4;0.3303753934876294;-0.32235873041729496;-0.7409505237947992;0.96;0.07891078058689534
53:36.4;0.35367287906321976;-0.31615680780376654;-0.793414272904634;0.96;0.08871648051770391
53:36.4;0.37170811081294064;-0.30861337807422173;-0.8457440018069117;0.96;0.09701875839106111
53:36.4;0.3838937575930621;-0.3006643809841906;-0.8962571893691184;1.011;0.10344885398999618
53:36.5;0.3899788781864352;-0.2931814310935123;-0.9434743705101049;1.053;0.10787173230978159
53:36.5;0.3900692470926418;-0.2869278447842273;-0.9861225821930244;1.097;0.11036854379842186
53:36.5;0.3846319832451155;-0.28252004397096747;-1.0231475034365074;1.137;0.11118159709443177
53:36.5;0.374473266717856;-0.280395871999262;-1.0537403819791007;1.172;0.11064353901347392
53:36.5;0.36067845507748636;-0.28079245771440065;-1.077377193384186;1.194;0.10911222622187822
53:36.5;0.34451134728286614;-0.28373692154962393;-1.0938615276024006;1.203;0.10692560873550572
53:36.5;0.32728360975513754;-0.2890512705833301;-1.1033590207491188;1.203;0.10437968678335213
53:36.5;0.31022204169508605;-0.2963683843664057;-1.106410698928866;1.203;0.10172340551466794
53:36.5;0.2943653576942862;-0.3051540413668193;-1.1039161270839277;1.203;0.0991612294729786
53:36.5;0.2805067487338737;-0.3147333246889791;-1.0970831678125372;1.183;0.09685579177999377
53:36.6;0.26917943099558567;-0.3243239166175325;-1.0873463058278945;1.162;0.09492677576980858
53:36.6;0.26067498563418695;-0.33307837029296994;-1.076259700179114;1.141;0.0934464630647414
53:36.6;0.2550850944732546;-0.3401335909227986;-1.0653756715285938;1.125;0.09243519916266575
53:36.6;0.2523577294165104;-0.34466318076829144;-1.0561224214833238;1.124;0.09185985713095265
53:36.6;0.25235759428028576;-0.345928645822396;-1.0496937630566947;1.122;0.09163587310780438
53:36.6;0.2549199813165606;-0.34332719854455573;-1.046958749955662;1.124;0.09163083805764632
53:36.6;0.25988846959022893;-0.3364358412358142;-1.0483933833775512;1.109;0.09166710988570037
53:36.6;0.26712984342959034;-0.32505249703379613;-1.0540341352246725;1.109;0.09152307266483661
53:36.6;0.27652363667665053;-0.30923353650452234;-1.0634556122700012;1.097;0.09093649574799456
53:36.6;0.2879285675022405;-0.28932332233343294;-1.0757797382256586;1.0959999999999999;0.08961723913912162
53:36.7;0.30113355589034524;-0.2659677925268493;-1.0897271047607702;1.122;0.087278234878027
53:36.7;0.3158059818213681;-0.24010274100340837;-1.1037190546692597;1.163;0.08369047064662567
53:36.7;0.33145273628725064;-0.21290888046434098;-1.1160294956609338;1.205;0.07875734329300348
53:36.7;0.3474091677276411;-0.18573031912779056;-1.1249707164752065;1.247;0.07258807803639804
53:36.7;0.3628668517309925;-0.15996109776742443;-1.1290842983203215;1.278;0.06553722381996459
53:36.7;0.3769426596526953;-0.13691391187630764;-1.1273032148940272;1.249;0.058178646759754336
53:36.7;0.3887778110582986;-0.11769245542015641;-1.1190586500930892;1.249;0.05120388841096813
53:36.7;0.39764105336217404;-0.10309067496233389;-1.1043221457980525;1.249;0.0452695711305072
53:36.7;0.40300714069484217;-0.09353556901084188;-1.083587534852765;1.203;0.04084637632595833
53:36.7;0.40459448294006206;-0.08907726211140035;-1.0577999014680273;1.15;0.03812328701153769
53:36.8;0.40236200421015533;-0.08941991068782482;-1.028239363014571;1.092;0.036995203449769844
53:36.8;0.39647455431900785;-0.0939837517536726;-0.9963739433517437;1.037;0.03712705136468739
53:36.8;0.3872500107101975;-0.10198770520291389;-0.9637030587847752;0.988;0.03806120167850951
53:36.8;0.37510181127620906;-0.11254020198832362;-0.9316148654173211;0.9640000000000001;0.03932722123770379
53:36.8;0.36048714402484383;-0.12472565147070412;-0.9012767410418931;0.946;0.0405231993196997
53:36.8;0.3438649430764952;-0.1376770207980488;-0.8735700843187795;0.904;0.0413568178062346
53:36.8;0.3256645743370829;-0.15062924234279396;-0.8490713351942122;0.904;0.041650861588645643
53:36.8;0.3062675679765839;-0.16295134790789653;-0.8280739982102058;0.904;0.04132645138987025
53:36.8;0.2860048062297559;-0.17415847500201637;-0.8106412608766737;0.895;0.04037817163338296
53:36.8;0.26516633217484853;-0.18390901466657045;-0.7966744752719107;0.879;0.03885100896702584
53:36.9;0.24401660603743663;-0.19199449894122855;-0.785981669552595;0.8640000000000001;0.03682312018482628
53:36.9;0.22280948312415047;-0.19832817528166335;-0.7783340979272513;0.855;0.034394115404207413
53:36.9;0.20180048562580594;-0.20293414478493682;-0.7735049185177867;0.841;0.031676735060651565
53:36.9;0.1812549593550316;-0.2059355515189435;-0.7712889437085215;0.83;0.028789779011251217
53:36.9;0.16145027010492852;-0.207539318772453;-0.7715054663348231;0.816;0.025851048966984386
53:36.9;0.14267071652857866;-0.20801605107412743;-0.7739884100953243;0.805;0.02297027250662992
53:36.9;0.12519680666952476;-0.20767601413478562;-0.7785695565071811;0.805;0.020243099491892638
53:36.9;0.10929407634549528;-0.20684451324510325;-0.785060826453518;0.805;0.017747775913808706
53:36.9;0.09520556076510357;-0.20584079207562014;-0.7932408514154295;0.815;0.015545290124526122
53:36.9;0.08314617222470433;-0.20496303451259248;-0.802849812620593;0.8290000000000001;0.013682079612062805
53:37.0;0.07329389789161658;-0.20447979990123946;-0.8135941860008531;0.845;0.012193434978193748
53:37.0;0.0657756635488899;-0.20462705457573893;-0.8251595476477824;0.858;0.011106218671610069
53:37.0;0.06065065074431051;-0.2056099421411727;-0.8372268623227704;0.865;0.01044053443217761
53:37.0;0.057896566469068246;-0.20760849404310977;-0.8494877044936758;0.877;0.010210688429425878
53:37.0;0.057404351266743404;-0.21078570715197542;-0.8616564709986061;0.883;0.01042605775368141
53:37.0;0.058984622999916296;-0.21529485703149526;-0.8734805427836134;0.92;0.011092404511018193
53:37.0;0.062385155061399224;-0.22128148177538898;-0.8847498813193161;0.92;0.012213688595967833
53:37.0;0.06731441029104687;-0.22887553292234553;-0.8953056775165928;0.92;0.013793635726009496
53:37.0;0.07346489992669794;-0.23817177504738105;-0.9050470390656962;0.9329999999999999;0.015835848440420942
53:37.0;0.08053309855936445;-0.24920074114976948;-0.9139371005846623;0.943;0.018341719450575975
53:37.1;0.08823621427341032;-0.2618958356723247;-0.9220118370050179;0.955;0.021306492239711945
53:37.1;0.09632698631967038;-0.2760627896692277;-0.9293937395058683;0.971;0.024714713945514208
53:37.1;0.10460685712052185;-0.29135628755070925;-0.9363102412003934;0.9890000000000001;0.028536737637823315
53:37.1;0.11293734951850025;-0.307267141801229;-0.9431146806505357;1.0090000000000001;0.03272790584423698
53:37.1;0.12124956110440202;-0.3231228880937314;-0.9503052190112076;1.0270000000000001;0.03723154097152765
53:37.1;0.12955163952688878;-0.3381042532107419;-0.9585345886839554;1.08;0.04198569403274826
53:37.1;0.1379324223089934;-0.35127764122779365;-0.9686011150432057;1.08;0.046931219099188
53:37.1;0.1465560382454202;-0.3616397518706782;-0.9814103304675296;1.08;0.05201522772496147
53:37.1;0.15564136946541413;-0.3681693824998379;-0.9978998327364453;1.08;0.05718204229044595
53:37.1;0.16542482712694495;-0.36988588582678705;-1.0189284426615308;1.083;0.062346508112748014
53:37.2;0.1761107341748335;-0.3659179277829198;-1.0451398662697176;1.094;0.06735098155314544
53:37.2;0.1878156330767451;-0.3555843870254156;-1.076817041221404;1.109;0.07191447960681696
53:37.2;0.20051177982202298;-0.3384832601014148;-1.113746158153153;1.114;0.07558981913218674
53:37.2;0.21397469923193238;-0.3145781599633611;-1.1551112025206247;1.124;0.07775257631155084
53:37.2;0.2277420183539431;-0.28426613833952535;-1.1994425672015667;1.155;0.07765112508040196
53:37.2;0.24109493282384384;-0.2484050561814805;-1.244645146813855;1.196;0.07454080254125171
53:37.2;0.25307599629150135;-0.208278929507356;-1.2881246073035486;1.4040000000000001;0.06789756019849559
53:37.2;0.2625523703586311;-0.16549712711937675;-1.3270057397554558;1.4040000000000001;0.05766060621982059
53:37.2;0.26832207848345824;-0.12185435667714989;-1.3584022810322818;1.4040000000000001;0.04441461202630424
53:37.2;0.26925129284981375;-0.0791919705597236;-1.3796849367023596;1.466;0.029418387880101052
53:37.3;0.26442769568751034;-0.03928195750372455;-1.3887144875527098;1.5219999999999998;0.014424907208572991
53:37.3;0.2533096560624949;-0.003731754946313597;-1.3840276184923324;1.524;0.0013083068612254512
53:37.3;0.23584189848130246;0.0260947193267792;-1.3649624719489375;1.493;0.008400290463599198
53:37.3;0.21250935331108442;0.0491369909667163;-1.3317059160312934;1.431;0.013905766626315708
53:37.3;0.1843171193729576;0.06467312201199969;-1.2852520743378026;1.3330000000000002;0.015320671979636526
53:37.3;0.1527039598711066;0.07232677488830394;-1.2272778210641828;1.225;0.013554774127632955
53:37.3;0.11940884239300435;0.07204861757615984;-1.15995834954859;1.04;0.009979402415197439
53:37.3;0.08631515216381161;0.06408065812050028;-1.0857617154850912;1.04;0.0060054911044335165
53:37.3;0.0552974635188989;0.04891520677088186;-1.0072673236915124;0.97;0.002724544150306817
53:37.3;0.028089097726586687;0.027257516416453204;-0.9270387604678447;0.909;0.0007097770688376558
53:37.4;0.006177956115898985;-5.290254357449733e-06;-0.8475533821352959;0.852;2.7700552660925198e-08
53:37.4;-0.009268237756363967;-0.03183185014436624;-0.7711714773494894;0.794;0.00022751498491649721
53:37.4;-0.01744695243747447;-0.06705544752631973;-0.7001235481858088;0.735;0.0008190837832195524
53:37.4;-0.01793643201896624;-0.10441837802226099;-0.6364964044971038;0.675;0.0011920897489343318
53:37.4;-0.0106841727827413;-0.14261570869164425;-0.5822026081010556;0.625;0.0008871200884180108
53:37.4;0.004027080673048946;-0.18035170935349437;-0.5389246747994524;0.546;0.00039141607797843757
53:37.4;0.02562758884557786;-0.21640703343685969;-0.5080366231319898;0.546;0.0028175662734564433
53:37.4;0.053310872460539775;-0.24970575956589833;-0.4905173146404632;0.55;0.006529782140427748
53:37.4;0.08607477325978335;-0.27936878675466276;-0.48687285789588347;0.55;0.011707639287245716
53:37.4;0.12275043492209167;-0.3047485558447884;-0.4970771095407379;0.574;0.018594669347668378
53:37.5;0.162025660332146;-0.32544964899737333;-0.5205317143272592;0.608;0.027448258958999678
53:37.5;0.20247248112208371;-0.34134043881977877;-0.5560482576495523;0.6459999999999999;0.03842963251353288
53:37.5;0.24258606841096156;-0.3525546736358926;-0.6018608995001057;0.6890000000000001;0.05147406446100777
53:37.5;0.2808380715887418;-0.3594769933094994;-0.6556821221322758;0.75;0.06619427427681027
53:37.5;0.31574537976126965;-0.3627077542696206;-0.7148135254009824;0.825;0.08186280210816553
53:37.5;0.3459535596965899;-0.36300861216207336;-0.7763142356610143;1.046;0.09749274135397573
53:37.5;0.3703284653481561;-0.3612363321142957;-0.837208648503848;1.046;0.11199850495278821
53:37.5;0.3880410243499551;-0.3582746541562502;-0.8946936722602475;1.046;0.12438502380386086
53:37.5;0.398629113637006;-0.35497195798491293;-0.9463080539179329;1.107;0.13390463079458526
53:37.5;0.4020298772031398;-0.35208823552052;-0.9900549901265051;1.153;0.14014227404193688
53:37.6;0.3985839353365483;-0.35025201120994554;-1.0244913686456603;1.197;0.14302393822108514
53:37.6;0.3890124431093782;-0.3499274404017625;-1.0487934205919824;1.222;0.14276818794324272
53:37.6;0.37436544669091565;-0.35139198386361903;-1.0627953787198718;1.2309999999999999;0.13980968734562285
53:37.6;0.3559413710241592;-0.35472474515947355;-1.066991714932284;1.224;0.13471966725815943
53:37.6;0.3351818042630789;-0.35980602981268867;-1.062494486082956;1.21;0.12813729641764668
53:37.6;0.31355123476007635;-0.3663298552157646;-1.0509418154035195;1.112;0.12071451726474695
53:37.6;0.29241774184900654;-0.3738300538152637;-1.0343629849909308;1.112;0.11307091407517128
53:37.6;0.2729548193586176;-0.3817168253760639;-1.0150179335542557;1.112;0.10575618734638838
53:37.6;0.2560799308813085;-0.3893187275362352;-0.9952327252997931;1.08;0.09922143122147035
53:37.6;0.24243243385808433;-0.3959269979949768;-0.9772436420499893;1.053;0.09380126431684088
53:37.7;0.23238295003767592;-0.400840046486835;-0.9630545192140558;1.034;0.08970698035065287
53:37.7;0.22606434438962397;-0.40340382320621865;-0.954313677665438;1.035;0.08702884656374714
53:37.7;0.22341633596858687;-0.40304305526126044;-0.952219471944969;1.046;0.08574393797626659
53:37.7;0.22423623819836164;-0.3992818264403424;-0.9574587310317582;1.057;0.08572458796212015
53:37.7;0.2282277352989016;-0.39175695301350344;-0.9701739930452383;1.0590000000000002;0.08674306479240838
53:37.7;0.23503983930931166;-0.38023083678762243;-0.9899511915056375;1.07;0.08847133884561655
53:37.7;0.24428988236298563;-0.3646108361747281;-1.015822252246211;1.07;0.09048003796617533
53:37.7;0.2555675271940603;-0.3449790266541521;-1.0462846837146846;1.07;0.0922461461315511
53:37.7;0.2684212427694705;-0.3216294970689819;-1.0793492191373844;1.094;0.09318258112310833
53:37.7;0.28233368815814847;-0.29510261606025034;-1.1126324208925003;1.153;0.09270165156565702
53:37.8;0.2966962310460371;-0.2662008310277998;-1.1435076847884973;1.208;0.09031513261673933
53:37.8;0.3107944169802646;-0.23597065144810467;-1.169313626616629;1.255;0.08575554491928353
53:37.8;0.32381618187464273;-0.2056412749727339;-1.1876009160078116;1.304;0.079082312334971
53:37.8;0.33489250071826976;-0.17652188930185575;-1.1963862253432374;1.3459999999999999;0.07072539694215257
53:37.8;0.34317310553502856;-0.14987357886162522;-1.1943769860399407;1.3840000000000001;0.06142989167095992
53:37.8;0.34792695760417613;-0.12678070333188385;-1.181130783832359;1.381;0.052100180138694684
53:37.8;0.3486439250723367;-0.10804593821656615;-1.157119495728609;1.255;0.0435881822575716
53:37.8;0.34510989915823337;-0.09412538418504801;-1.1236850650558987;1.255;0.036501338251698
53:37.8;0.3374361158242347;-0.08511070390097016;-1.0828971972358556;1.161;0.0311001852062714
53:37.8;0.3260383884027293;-0.08075714425090848;-1.0373386446421706;1.062;0.02731305303206511
53:37.9;0.31157479021494117;-0.08055002155291975;-0.9898469848204391;0.987;0.02484254223004324
53:37.9;0.2948578117418758;-0.0837971844745801;-0.943243398415926;0.914;0.023305897890971632
53:37.9;0.2767587374583134;-0.08973097018137437;-0.9000812698310656;0.866;0.022352465257646364
53:37.9;0.25811880022139144;-0.09760212682262114;-0.8624436722499687;0.8290000000000001;0.02172749502992067
53:37.9;0.23967642509504794;-0.1067520171247536;-0.8318088938183932;0.802;0.021282613976026585
53:37.9;0.22201511169162397;-0.11665653067299571;-0.8089918349747169;0.812;0.020952494293544392
53:37.9;0.20553378408552522;-0.12694168382848292;-0.7941580478064394;0.812;0.02072022247499327
53:37.9;0.1904407345004265;-0.13737508471226553;-0.7868969304817314;0.812;0.020586649585915672
53:37.9;0.1767704780356502;-0.1478400330026032;-0.7863346205920724;0.821;0.02054987499105226
53:37.9;0.1644186624741302;-0.15830064948103045;-0.7912681218420579;0.8390000000000001;0.02059479517863477
53:38.0;0.15318759969920911;-0.16876668179312518;-0.8003062819664098;0.861;0.020690288610783668
53:38.0;0.1428359406471706;-0.17926486315335155;-0.8120052763122049;0.878;0.020791772969467524
53:38.0;0.13312726205246714;-0.18981992764947678;-0.8249870350722237;0.888;0.020847593355640202
53:38.0;0.1238720115070724;-0.20044420680269512;-0.8380319247233456;0.897;0.02080785257534269
53:38.0;0.11495699591082699;-0.21113236510502909;-0.8501421743699893;0.903;0.020633921801602943
53:38.0;0.1063581652025671;-0.22185778658351712;-0.8605774843604861;0.912;0.020306519465080008
53:38.0;0.09813663429016159;-0.23256819162268402;-0.8688668964855035;0.912;0.019830548482605244
53:38.0;0.09042301433949695;-0.24317945338503819;-0.8748016090031391;0.912;0.019236029377003864
53:38.0;0.08339653246451603;-0.25356882690621435;-0.8784135855487267;0.917;0.01857560206936712
53:38.0;0.07726199985843625;-0.26357141663463707;-0.87994493447129;0.9229999999999999;0.017919246826705842
53:38.1;0.07222471763550944;-0.2729839898145435;-0.8798120839348771;0.927;0.01734654360422421
53:38.1;0.06846418602773782;-0.2815774152073902;-0.8785665896506532;0.93;0.016936979072038297
53:38.1;0.06610956786268035;-0.2891161415672627;-0.8768523625118834;0.927;0.016759580123880596
53:38.1;0.06522080453467069;-0.29538257903088366;-0.8753584235548968;0.9259999999999999;0.016863858330526203
53:38.1;0.06577873590033122;-0.30020496210289505;-0.8747671803916338;0.9209999999999999;0.017274117540600598
53:38.1;0.06768539328439648;-0.3034870424865835;-0.8757002574777372;0.922;0.017988319285889037
53:38.1;0.07077251129173488;-0.30523588876175145;-0.8786663081859151;0.922;0.018981222313425226
53:38.1;0.0748144082473983;-0.30558168905442;-0.8840168133755262;0.922;0.020210315688189175
53:38.1;0.0795423480014091;-0.30478340996531145;-0.8919159852803189;0.922;0.02162288696533203
53:38.1;0.08466039754554482;-0.3032166847324645;-0.9023302599032142;0.934;0.02316321937355201
53:38.2;0.08986502166861286;-0.30134308473610444;-0.9150420062955568;0.948;0.024779523137143662
53:38.2;0.09487047664052277;-0.29966209363997426;-0.9296898854055368;0.978;0.026430233384522057
53:38.2;0.09943954970205852;-0.29864954619554535;-0.9458337676179002;1.0070000000000001;0.028088970568352762
53:38.2;0.10341547280139254;-0.29868880404079384;-0.9630363787384436;1.034;0.029747272970866278
53:38.2;0.10674780167186909;-0.3000028526268108;-0.9809492397901601;1.06;0.03141455118025002
53:38.2;0.10950473341603875;-0.3025969771052353;-0.9993880811867796;1.1179999999999999;0.033115524890195
53:38.2;0.11186744534515165;-0.30622174990675327;-1.0183814736256385;1.1179999999999999;0.03488592513280362
53:38.2;0.1141069993020807;-0.3103633692841171;-1.0381763235864627;1.1179999999999999;0.03676663324232325
53:38.2;0.11654800847602749;-0.3142647892275554;-1.0591897121946632;1.1179999999999999;0.03879487307869119
53:38.2;0.11952379927806535;-0.31697938635330786;-1.0819091746777256;1.122;0.04098983909397051
53:38.3;0.12332676820242378;-0.31745739060631734;-1.106755923241271;1.123;0.043330594538452165
53:38.3;0.12815746395361471;-0.31466011165435154;-1.1339325714870832;1.131;0.04572701240882037
53:38.3;0.13407695511764345;-0.3076888380264345;-1.1632801676315874;1.14;0.04798993970863009
53:38.3;0.1409681577009072;-0.2959087436443654;-1.1941708239955429;1.15;0.04981329596701479
53:38.3;0.1485124154802235;-0.2790456112252923;-1.2254618227203087;1.175;0.05078526748253688
53:38.3;0.15618756792864555;-0.25723564793567305;-1.2555316971931485;1.328;0.0504435098492771
53:38.3;0.16329168465457297;-0.23102085545787537;-1.2824008715854445;1.328;0.04837701435064202
53:38.3;0.16899235669589494;-0.2013029978198261;-1.303911683070746;1.328;0.044357338662727314
53:38.3;0.17239878377084686;-0.16927916180760777;-1.317929482902916;1.328;0.038461823549207935
53:38.3;0.17265522997082616;-0.13636883586520188;-1.3225415862956793;1.3769999999999998;0.031138967509156106
53:38.4;0.16905428829876812;-0.10412598206762746;-1.3162496132917785;1.4180000000000001;0.023169867958823497
53:38.4;0.16116031324834756;-0.07413276321796086;-1.2981474638118724;1.4269999999999998;0.015509304414543477
53:38.4;0.14892035123881203;-0.04788652889437702;-1.2680605273004009;1.406;0.009042893031892003
53:38.4;0.13273262155190693;-0.0266974103648728;-1.226613772692991;1.361;0.004346649744090248
53:38.4;0.11344809573820182;-0.011607544477361266;-1.1752030169079708;1.281;0.00154757057874512
53:38.4;0.09229734192178589;-0.0033357019587483628;-1.1158610222962415;0.961;0.00034354730148863607
53:38.4;0.07075731459094811;-0.0022476082954139315;-1.051040852308025;0.961;0.00016715199526051914
53:38.4;0.05039176626617796;-0.008349374443225175;-0.983374400542466;0.961;0.00041374467526123334
53:38.4;0.03270018990012692;-0.021299239546766286;-0.9154689380664488;0.8809999999999999;0.0006376142080737995
53:38.4;0.018993157204589398;-0.04043372322084615;-0.8497676538533389;0.826;0.0006525910187848657
53:38.5;0.010296216971501676;-0.06480671014385883;-0.7884630719450053;0.78;0.0005261129829087327
53:38.5;0.007282171739621986;-0.09324114197435206;-0.7334448640030274;0.737;0.0004980076024101901
53:38.5;0.010234687437964698;-0.12439287163214557;-0.6862699922522784;0.696;0.0008737055353363743
53:38.5;0.019046649863680744;-0.15682597174610993;-0.6481461664814604;0.664;0.001936018674600206
53:38.5;0.03325529965675817;-0.18909908979553772;-0.619921390795402;0.639;0.003898404737832344
53:38.5;0.05211326554227089;-0.21986156844719515;-0.6020761689990642;0.6709999999999999;0.006898410709883397
53:38.5;0.07468549684868525;-0.24795121195792078;-0.5947191687576251;0.6709999999999999;0.01101322334439633
53:38.5;0.09994866271083783;-0.27247473640446573;-0.5975895432672055;0.6709999999999999;0.016274446177124747
53:38.5;0.1268673054565051;-0.2928509336607882;-0.6100688490622074;0.6709999999999999;0.022666015364506804
53:38.5;0.15443745659099303;-0.3088115034480404;-0.6312045612645393;0.705;0.03010344780179706
53:38.6;0.18170729239531913;-0.3203709925292968;-0.6597473063962388;0.748;0.038406361864401925
53:38.6;0.20778909764560774;-0.32778168798666546;-0.6942031767152819;0.7879999999999999;0.047281804309623775
53:38.6;0.23187098229789588;-0.33148461974894106;-0.732899616005679;0.828;0.056331884322728044
53:38.6;0.2532315841806514;-0.3320621396450644;-0.7740613536027346;0.868;0.0650897523114903
53:38.6;0.27125953273274633;-0.3301936064429988;-0.815894141899858;0.905;0.07307813981476542
53:38.6;0.2854784922905677;-0.3266132045723711;-0.8566757032011335;1.036;0.07987733796692667
53:38.6;0.29557519648653163;-0.32206861885125926;-0.8948486025206427;1.036;0.08518555593466615
53:38.6;0.3014233266592926;-0.317281672769429;-0.9290995242911293;1.036;0.08885545250108871
53:38.6;0.3030953768239174;-0.31291394979747694;-0.9584086490584487;1.036;0.09089813253246425
53:38.6;0.30085925744546854;-0.3095387929438143;-0.9820690136415827;1.07;0.09145774146611536
53:38.7;0.29516100699772235;-0.3076182468763177;-0.9996915201922115;1.102;0.09076890250507476
53:38.7;0.2865956424343019;-0.30748315416427546;-1.0112092637167278;1.1179999999999999;0.08911112977460264
53:38.7;0.2758670317938776;-0.3093165466011271;-1.0168811565686204;1.127;0.08677071069647421
53:38.7;0.26373775808377375;-0.3131425537934502;-1.017284788830865;1.121;0.08401502285664882
53:38.7;0.2509714529112099;-0.31882398639029297;-1.0132876079699236;1.109;0.08107893659397943
53:38.7;0.2382722296995081;-0.3260709061228359;-1.005990977460773;1.054;0.07815910269914805
53:38.7;0.22622900948790564;-0.33445984138824375;-0.9966506473484664;1.054;0.07541109147464152
53:38.7;0.2152756174703218;-0.34346061621676666;-0.9865860146954817;1.054;0.07294688364809962
53:38.7;0.20567601220022141;-0.352467932105226;-0.9770923532652254;1.046;0.07083352720963267
53:38.8;0.19753677672971756;-0.3608373999723107;-0.9693635030161827;1.0390000000000001;0.06909492855650391
53:38.8;0.19084188008102035;-0.3679262026365655;-0.9644259367349881;1.036;0.06771786948354457
53:38.8;0.18550161314903788;-0.3731355624614328;-0.9630847234761536;1.043;0.06666207488167893
53:38.8;0.1814064309698261;-0.37594943053781515;-0.965883803739781;1.053;0.06587293196512772
53:38.8;0.17847556440862328;-0.3759638154477227;-0.973082283877208;1.061;0.06529416587425425
53:38.8;0.17669108018249266;-0.372902852072791;-0.9846459128428475;1.061;0.06487694831003368
53:38.8;0.1761116815042975;-0.3666204405016632;-1.0002511756296204;1.092;0.06458235969202612
53:38.8;0.17686588198920572;-0.35709136529773056;-1.0192980427139413;1.092;0.06437609114724091
53:38.8;0.17912861826630036;-0.3444017296962955;-1.0409256718443636;1.092;0.06421700094586434
53:38.8;0.18308680767933866;-0.3287488964120949;-1.064027559557157;1.092;0.06404337827275146
53:38.8;0.18889841731982532;-0.31045327572305775;-1.0872713497207527;1.11;0.06376208502671937
53:38.9;0.19664883779075784;-0.2899748645181522;-1.1091368010830007;1.127;0.06324655192475936
53:38.9;0.20630922472320815;-0.2679231511380689;-1.1279855693890262;1.1520000000000001;0.06234942219679523
53:38.9;0.21770347844278878;-0.24504978198045838;-1.1421693943748252;1.183;0.06093266978196244
53:38.9;0.23049251659566958;-0.22221691046371853;-1.150173535100801;1.22;0.058911123513780424
53:38.9;0.24418495830145007;-0.20033908755438104;-1.150781749896951;1.262;0.056296003543861745
53:38.9;0.2581794464511819;-0.18030257399367572;-1.1432391893260898;1.255;0.05321826299157955
53:38.9;0.2718327896152156;-0.16287460269382711;-1.1273846105472511;1.255;0.04991456762420689
53:38.9;0.284534431652862;-0.14862403345603512;-1.103726675106191;1.255;0.0466751164557563
53:38.9;0.295764195695504;-0.13787432542993028;-1.073446719713767;1.21;0.043773320528071695
53:38.9;0.3051206450045711;-0.13069723119433585;-1.0383169614956274;1.145;0.04140644349940596
53:39.0;0.3123196072717318;-0.12694259359106028;-1.0005321741232562;1.042;0.039667759903460165
53:39.0;0.31716801531622313;-0.12629440757514815;-0.9624696918316612;0.955;0.03855321205823506
53:39.0;0.3195216181526272;-0.128342588078886;-0.9264126159874134;0.872;0.03799054294761776
53:39.0;0.3192396960298484;-0.1326591471113979;-0.8942845393674403;0.823;0.03787300908561654
53:39.0;0.31615229475754797;-0.1388662259318153;-0.8674453321594704;0.8190000000000001;0.03808334484821205
53:39.0;0.3100523003014806;-0.14668340619693265;-0.8465850280950719;0.894;0.03850228707261589
53:39.0;0.30071662707916663;-0.1559454864065458;-0.8317267791319136;0.894;0.03900416056400671
53:39.0;0.28795193747782283;-0.1665893187597899;-0.8223188370802073;0.894;0.03944640198073206
53:39.0;0.27165466999461163;-0.17861542442924025;-0.8173779773120038;0.905;0.03966058059156514
53:39.1;0.25187353555277975;-0.1920339424418704;-0.815650665561202;0.9;0.039451610009874356
53:39.1;0.22886317641784037;-0.2068055771408811;-0.8157712660729074;0.894;0.0386106019106402
53:39.1;0.20311869432832463;-0.22278797030954778;-0.8164064855585267;0.89;0.0369443541870835
53:39.1;0.17538198086065962;-0.23969678436772454;-0.8163814060031638;0.8959999999999999;0.034319447163308946
53:39.1;0.1466128910522005;-0.25708861762112645;-0.8147854997910743;0.9059999999999999;0.03071130692082665
53:39.1;0.1179223337762381;-0.2743691617314831;-0.8110556203241995;0.9079999999999999;0.02624109781860707
53:39.1;0.0904715273009209;-0.2908250224356618;-0.8050295854799542;0.883;0.02118144252037115
53:39.1;0.06535236802290705;-0.3056722880215212;-0.7969643310018072;0.883;0.015920484526909737
53:39.1;0.04347286197337894;-0.3181107050444553;-0.7875181400382187;0.883;0.010890732295367375
53:39.1;0.025468838875303206;-0.327373061191568;-0.7777009183639058;0.867;0.006484323853256077
53:39.2;0.011649508817597016;-0.332766166617752;-0.7687958118634005;0.8420000000000001;0.002980284931559335
53:39.2;0.00197489737788035;-0.3337062867317316;-0.7622547549027822;0.836;0.000502353073602504
53:39.2;-0.003935530451735938;-0.32975328784686475;-0.7595735858780828;0.8240000000000001;0.0009857397397923268
53:39.2;-0.0067612145165814545;-0.32064601439800805;-0.7621553535133091;0.8170000000000001;0.0016523196429276228
53:39.2;-0.007407342273496199;-0.30633827362337057;-0.7711710099709688;0.807;0.0017499045821719903
53:39.2;-0.006907830725363399;-0.2870308481587444;-0.7874273427227196;0.804;0.001561279841249693
53:39.2;-0.006316478750255113;-0.2631920112094209;-0.8112542194392777;0.7979999999999999;0.0013486669373190309
53:39.2;-0.006600255605805379;-0.2355584646577903;-0.8424258331282748;0.813;0.0013097582590953743
53:39.2;-0.008548196629953313;-0.20511156659052837;-0.8801317069445281;0.813;0.0015431648482825465
53:39.2;-0.012705653815328026;-0.17302932800629406;-0.9230118516228877;0.8690000000000001;0.002029196089656836
53:39.3;-0.01933747286423949;-0.14061872489350047;-0.9692649080367847;1.043;0.002635635583538725
53:39.3;-0.02841762463188576;-0.10923502115866356;-1.0168223003772632;1.043;0.003156419609879706
53:39.3;-0.03963941315105141;-0.0801972190814649;-1.0635581999216541;1.133;0.0033810203560780037
53:39.3;-0.05244116613086908;-0.054707731901040724;-1.1074938984615152;1.194;0.0031773305074904805
53:39.3;-0.06604573010174933;-0.03377910099442559;-1.1469633624613544;1.224;0.0025588355622185306
53:39.3;-0.07951408132618089;-0.018168111531648864;-1.1807195894371632;1.23;0.001705691957282265
53:39.3;-0.09181200508458313;-0.008319571700314046;-1.2079725977019744;1.225;0.0009226936326979114
53:39.3;-0.10188476674516259;-0.004323547677388461;-1.228364458602171;1.225;0.0005410990233954993
53:39.3;-0.10873051162858745;-0.00588966522949731;-1.2419008860210379;1.225;0.0007952963304100096
53:39.3;-0.111463321573751;-0.012341330666756639;-1.2488644233286423;1.228;0.0017179450301940118
53:39.4;-0.10936193937720506;-0.022631927278268398;-1.2497306232119918;1.239;0.0030931725969444127
53:39.4;-0.10190457452404351;-0.035385022890381354;-1.2451000055608066;1.253;0.004489700758820881
53:39.4;-0.08879137985162437;-0.048961369337951956;-1.2356483456905807;1.252;0.005371792799578005
53:39.4;-0.06995678927144534;-0.06155538279311329;-1.2220888467837752;1.239;0.005262579697359543
53:39.4;-0.04557475517106977;-0.07132111555952986;-1.205135740040744;1.213;0.003917224283265661
53:39.4;-0.01606008493645643;-0.07652182675537376;-1.1854615754999902;1.181;0.0014568694909063162
53:39.4;0.01793033543788126;-0.07568956308642699;-1.1636481397928153;1.105;0.0015792325698537229
53:39.4;0.05549067691409926;-0.06777519922559593;-1.1401409729890715;1.105;0.004287946702780658
53:39.4;0.09544812628630507;-0.05226811850143963;-1.1152249479307341;1.105;0.005563739024028795
53:39.4;0.13633645766719032;-0.02926767657738799;-1.0890354202369006;1.078;0.0043455250543933364
53:39.5;0.17637885388917743;0.0005062468145811515;-1.061606501553045;1.062;9.479215342171543e-05
53:39.5;0.21350759908044584;0.035768700093493616;-1.0329470387045552;1.048;0.007888502165854227
53:39.5;0.24544453984049264;0.07478538775620444;-1.0031324024605703;1.047;0.01841316241509086
53:39.5;0.26985045175442396;0.11553178643142947;-0.9724008787830716;1.062;0.030315866146335465
53:39.5;0.28453085076952706;0.15587189785768188;-0.94124156886464;1.121;0.041744405916712565
53:39.5;0.2876666948913776;0.19373210735222363;-0.9104537548973848;1.1840000000000002;0.05073983815010497
53:39.5;0.2780270911622179;0.2272494886050375;-0.8811488168338543;0.9329999999999999;0.05567231655796391
53:39.5;0.2551274117344768;0.2548800947037909;-0.8546722391950103;0.9329999999999999;0.055576685260358326
53:39.5;0.21932089258116844;0.27546044618937043;-0.8324547217812586;0.9329999999999999;0.050292111799679046
53:39.5;0.1718313854724525;0.28822497466285507;-0.815828502115652;0.9329999999999999;0.04040480130604183
53:39.6;0.11472844354644211;0.29279128888216455;-0.8058382833200595;0.812;0.02706930771501812
53:39.6;0.05082838310316636;0.2891287689995513;-0.8030594558265204;0.728;0.011801719872720575
53:39.6;-0.01649459382371978;0.2775223949821486;-0.8074446227719156;0.7190000000000001;0.0036961739937782625
53:39.6;-0.08357919146395475;0.25853625055418467;-0.8182399851322272;0.764;0.017680734801412825
53:39.6;-0.1467916011122967;0.23297490048731012;-0.8340125186742969;0.828;0.028522192846820588
53:39.6;-0.20283003457081988;0.2018389915058788;-0.8528031733155407;0.8909999999999999;0.03491291732049041
53:39.6;-0.24897239809002106;0.16627387661896653;-0.8723894238098241;1.082;0.03611483347231902
53:39.6;-0.28324101322965817;0.1275161327831289;-0.8906116842906823;1.082;0.03216693349088258
53:39.6;-0.304478192849215;0.08684906397468532;-0.9056960342841412;1.082;0.023949905359188794
53:39.6;-0.3123402984534504;0.04557512475338501;-0.9165061441632575;1.093;0.013046417365732017
53:39.7;-0.30722681590909395;0.004999877571234562;-0.9226848567903344;1.072;0.0014173329478817734
53:39.7;-0.2901645113690583;-0.03358608244998065;-0.9246767989477548;1.033;0.009011427760317055
53:39.7;-0.2626650894514861;-0.06893607692756357;-0.9236404362887394;0.982;0.01672445049448607
53:39.7;-0.22657116623084878;-0.09988821310126487;-0.921268542658633;0.9329999999999999;0.020849955209968914
53:39.7;-0.18390237669773027;-0.1254161065668287;-0.9195467769198322;0.892;0.021208721185724533
53:39.7;-0.13671122483071865;-0.14468706208207763;-0.9204869131541742;0.8759999999999999;0.01820754914685273
53:39.7;-0.08695710937790462;-0.15712454520384267;-0.9258704694378904;0.894;0.012650257351224868
53:39.7;-0.03640913703194121;-0.1624686233529736;-0.9370301923332504;0.894;0.005542854399661313
53:39.7;0.01340869045389968;-0.16082336363045555;-0.9546852475378353;0.894;0.0020587125772727932
53:39.7;0.06122349022455207;-0.1526790175382268;-0.9788383499357135;0.9109999999999999;0.009149732917833362
53:39.8;0.10598255297228897;-0.13890164062065138;-1.0087419765002241;0.963;0.014849842436612302
53:39.8;0.1468095735845376;-0.12068946996374111;-1.0429397184593157;1.011;0.01847919142462688
53:39.8;0.18296886566080928;-0.0994998452635311;-1.0793817689269485;1.0759999999999998;0.019650548599205037
53:39.8;0.21384905375553964;-0.0769527336302528;-1.1156029005675037;1.163;0.018358661730948113
53:39.8;0.23897220144471346;-0.05471859684843865;-1.148941186014393;1.232;0.015023811792790281
53:39.8;0.25803233693233985;-0.03440012463712036;-1.1767671288976316;1.278;0.010445390492245108
53:39.8;0.2709636580368909;-0.017418343643408832;-1.1966900088140207;1.2590000000000001;0.0056480634411279285
53:39.8;0.2780272242394484;-0.00491280411229176;-1.2067187854049366;1.2590000000000001;0.0016482490925925509
53:39.8;0.279888173899035;0.002337120903818218;-1.205376851733627;1.2590000000000001;0.0007884761758182686
53:39.8;0.2776487849860151;0.003967172950289983;-1.1917871474624202;1.244;0.0013127306004044376
53:39.9;0.27281395856065643;6.0970358958790135e-05;-1.165744554583237;1.238;1.939048780155288e-05
53:39.9;0.26718390911986917;-0.008837196206034332;-1.1277809570513049;1.23;0.002662867481659808
53:39.9;0.2626850116505071;-0.02173110573691208;-1.079213795510406;1.215;0.00616062262694752
53:39.9;0.26116687276883516;-0.0372100056726324;-1.0221541595300978;1.1909999999999998;0.00993331540073379
53:39.9;0.26421039144232383;-0.05352535663647476;-0.9594393031912192;1.102;0.013568347862573491
53:39.9;0.27299605560108325;-0.06871494914231378;-0.894456230984147;0.945;0.016779024004558357
53:39.9;0.2882628971892393;-0.08077109622182889;-0.8308485437907056;0.727;0.019344904379328252
53:39.9;0.3103488857299079;-0.08783261673523253;-0.7721491098256054;0.727;0.021047823203215264
53:39.9;0.33926660489435173;-0.0883671433722473;-0.7214276677117216;0.727;0.021628416423175766
53:39.9;0.3747634306540456;-0.08131133718011771;-0.6810401780839731;0.733;0.020753007500394615
53:40.0;0.41634409163556046;-0.06615121843937398;-0.6525132262417278;0.764;0.01797130326377281
53:40.0;0.4632649237160142;-0.042940974212125456;-0.6365413516899544;0.785;0.012662747117428185
53:40.0;0.5145208297889929;-0.012268419628919858;-0.6330531887194946;0.799;0.003996058010585639
53:40.0;0.5688426776735964;0.02481962750959833;-0.6413075110742668;0.8320000000000001;0.00905427660491931
53:40.0;0.6247170968168827;0.06691670083718909;-0.6599961883016844;0.8740000000000001;0.027590485325614582
53:40.0;0.6804366095476426;0.11236714442417554;-0.6873474142681433;0.941;0.052553702649307366
53:40.0;0.7341827735855956;0.15937799095963787;-0.721232029258128;1.128;0.08439321724142262
53:40.0;0.7841334007528669;0.20612446197494713;-0.7592753399904799;1.128;0.1227209711362659
53:40.0;0.8285711676842356;0.25084192360675606;-0.7989723319774582;1.128;0.16605871751958834
53:40.0;0.8659722531657708;0.29190385916942563;-0.8378069848120807;1.192;0.21178138802298876
53:40.1;0.8950736992895076;0.32789616714519126;-0.8733869138996398;1.286;0.2563314042635546
53:40.1;0.9149344252985584;0.35769687337159967;-0.9036063853352239;1.3980000000000001;0.2957225237256154
53:40.1;0.9250012568218557;0.38055347543931184;-0.9268329923229964;1.4969999999999999;0.3262567459448373
53:40.1;0.9251755678889851;0.3961356854953393;-0.9420865353518838;1.564;0.3452700592162563
53:40.1;0.9158591662661256;0.4045426822800033;-0.949162065671022;1.578;0.3516684594021385
53:40.1;0.8979456092153978;0.40625641178977207;-0.948652336632309;1.534;0.34606473070001736
53:40.1;0.8727253349461777;0.4020468479512621;-0.9418471935239378;1.173;0.3304720185829453
53:40.1;0.8417041125294995;0.39284795241291026;-0.9305247581012298;1.173;0.3076889329699413
53:40.1;0.8063849524014188;0.37963174092288987;-0.9166878570144356;1.173;0.28062503337648165
53:40.1;0.7680871770499744;0.36330582350005364;-0.9023111389712224;1.173;0.251790414528228
53:40.2;0.7278466581753278;0.3446458745249711;-0.8891400745854203;1.136;0.22304020801435398
53:40.2;0.6863950055614451;0.3242600636116316;-0.8785506289054874;1.109;0.1955394423540937
53:40.2;0.6441942872475795;0.3025778847550038;-0.8714645705962512;1.092;0.16986495453698416
53:40.2;0.6015039983430156;0.27985843980433756;-0.8683161725367721;1.081;0.14616884561554422
53:40.2;0.5584595048557356;0.2562151614343515;-0.8690673063330178;1.075;0.12435118399409766
53:40.2;0.5151421277834337;0.23165214615886917;-0.873265034832771;1.063;0.10421001709247608
53:40.2;0.47162623604040466;0.20610451735074437;-0.8801307842210707;1.008;0.08555249480753498
53:40.2;0.42800288443195306;0.1794770169579731;-0.8886658524150722;1.008;0.06826436125368905
53:40.2;0.38439596522811226;0.1516815728640044;-0.8977573339928914;1.008;0.05234444574638049
53:40.2;0.3409877733806132;0.1226767754739306;-0.9062736754910825;0.988;0.03791058834225571
53:40.3;0.2980530754433674;0.0925059655390727;-0.9131477768226793;0.977;0.025177025167414494
53:40.3;0.255985506170678;0.06132608046947603;-0.917451609676325;0.9740000000000001;0.014402694601288558
53:40.3;0.21530188586746887;0.02942269876305096;-0.9184659004142727;0.972;0.005818263371941209
53:40.3;0.1766203875941219;-0.0027892418447208077;-0.9157432235849783;0.973;0.0004511289721923032
53:40.3;0.1406160938580255;-0.03477968074849361;-0.9091569550768489;0.97;0.004446307414713894
53:40.3;0.10796002665344694;-0.06593411038487104;-0.8989249243626922;0.96;0.006398770827726542
53:40.3;0.07924791892461626;-0.09560047840517184;-0.8855975829166404;0.873;0.0067094103524173825
53:40.3;0.054928168949218474;-0.1231462139644182;-0.870009075321772;0.873;0.005884911947357576
53:40.3;0.03524490200967722;-0.1480110641512895;-0.8532031315247961;0.873;0.004450849703977034
53:40.3;0.02021174045652219;-0.16974104216845645;-0.8363512431035387;0.873;0.0028693219707648073
53:40.4;0.009619785776341244;-0.18800145780567085;-0.8206711501629456;0.85;0.001484211472499761
53:40.4;0.0030706569015802685;-0.20257994987258354;-0.8073416871085772;0.8240000000000001;0.0005022097392758515
53:40.4;2.240159307659328e-05;-0.21339050300020715;-0.7974097551142334;0.797;3.811847657185993e-06
53:40.4;-0.0001606613889317902;-0.22048057241500485;-0.7916946930080142;0.779;2.8043975474799693e-05
53:40.4;0.0018400282433871278;-0.22403624895300378;-0.7907045387385527;0.7709999999999999;0.00032595452437252635
53:40.4;0.005339913577619397;-0.22437888480045115;-0.7945819518047651;0.768;0.0009520393732776952
53:40.4;0.009688112933864004;-0.22194944895498733;-0.8030940670890031;0.8370000000000001;0.0017268701454134013
53:40.4;0.014300125640491814;-0.21728168272979545;-0.8156702638761648;0.8370000000000001;0.0025344142343641054
53:40.4;0.01868784260684079;-0.21096877183934298;-0.8314786060434272;0.8370000000000001;0.0032781469786018953
53:40.4;0.02248661840697382;-0.20362803000720245;-0.8495258506573483;0.875;0.0038898988513966074
53:40.5;0.025478111410463015;-0.1958649408629568;-0.8687707976879967;0.909;0.004335399792770159
53:40.5;0.0276055860598784;-0.18823583469094674;-0.8882450517751352;0.946;0.004615641531666336
53:40.5;0.028975265269215986;-0.18120941800664572;-0.9071712426720202;0.983;0.004763185122337678
53:40.5;0.02983720920682291;-0.17512971973625902;-0.9250623751521451;1.006;0.0048338043636479335
53:40.5;0.030544063331315558;-0.1701846972221062;-0.9417842050682756;1.005;0.00489551877353764
53:40.5;0.03149272995657618;-0.1663847398382754;-0.9575671071134988;0.996;0.005017565154409217
53:40.5;0.03305912015350038;-0.16355406430936523;-0.9729641780507766;0.991;0.005260772032467098
53:40.5;0.035538417855724966;-0.161337352541886;-0.9887639224846033;1.01;0.005669250242044764
53:40.5;0.039101907275943544;-0.15922454367967562;-1.0058721173454475;1.01;0.006262543047798096
53:40.5;0.043776518729456156;-0.1565964653113133;-1.0251766498873518;1.021;0.0070278402778880655
53:40.6;0.04944726100931779;-0.1527908017460049;-1.0474063644783362;1.032;0.00791324584533108
53:40.6;0.05587793677698815;-0.14718211404447087;-1.072994745244792;1.044;0.008824558645969404
53:40.6;0.06274308295326714;-0.1392647661953512;-1.1019608085296773;1.057;0.009628824206025207
53:40.6;0.0696644106998919;-0.12872682944793776;-1.1338207826900897;1.078;0.01016774049927799
53:40.6;0.07624620995220821;-0.11550468251985471;-1.1675447436373245;1.1;0.010282326362754538
53:40.6;0.08210354029623934;-0.09980861441967084;-1.2015722099864674;1.13;0.009846452410881125
53:40.6;0.08687636179174898;-0.0821107919913901;-1.2338972713464031;1.265;0.008801989986609181
53:40.6;0.09022706299448001;-0.06309445133357146;-1.2622219466169302;1.265;0.007185611221967501
53:40.6;0.09182802524970031;-0.04357633449841813;-1.284158691550388;1.265;0.005138597916879807
53:40.6;0.09135235918005731;-0.024420450069937913;-1.2974555334062672;1.3319999999999999;0.0028944490806506757
53:40.7;0.08847975745264126;-0.006454509953253042;-1.3002249660865093;1.3880000000000001;0.0007425499943454677
53:40.7;0.08292420209201429;0.009605759016677984;-1.2911605921289662;1.4180000000000001;0.0010284738430571172
53:40.7;0.07448452901141414;0.023216001173900942;-1.2697138853901144;1.406;0.0021956310406670964
53:40.7;0.06311096740584396;0.0340347630225588;-1.2361945078097443;1.354;0.002655304785572481
53:40.7;0.0489714822577506;0.04192077734680249;-1.191765318921819;1.286;0.0024466019619613557
53:40.7;0.03249647052634094;0.04689874146438502;-1.138322325531028;1.194;0.0017348528204941336
53:40.7;0.014383636040484609;0.04910314367402805;-1.078272439591288;0.89;0.0007615641424313102
53:40.7;-0.004442201282772898;0.048713607074429156;-1.0142503078258327;0.89;0.00021947935242833656
53:40.7;-0.022903001924564924;0.04589732035444578;-0.9488428645198937;0.89;0.0009974107304910982
53:40.7;-0.03985699753248628;0.04077244775168579;-0.8843871045315378;0.8290000000000001;0.0014371886078332315
53:40.8;-0.05419246001877166;0.03339955345879671;-0.8228654242889574;0.79;0.0014893896810034874
53:40.8;-0.06492066280684364;0.023799293347976924;-0.7658832786816098;0.76;0.0011833401361109666
53:40.8;-0.07126018538025355;0.011988324984555692;-0.714703354489116;0.737;0.0006105641150998296
53:40.8;-0.07270138474596828;-0.001976784834563614;-0.6703135924701927;0.7170000000000001;9.633411446802365e-05
53:40.8;-0.06904263342455538;-0.017956986178876987;-0.6335064136534475;0.698;0.0007854197402013424
53:40.8;-0.06039520934155862;-0.035697425353640344;-0.6049453890997506;0.667;0.0013042341151383165
