Time;AccX;AccY;AccZ;Acc-old;Acc-trns
52:32.6;0.00787793547615905;-0.2988528496075874;-1.1138975729413252;1.1520000000000001;0.0026224974727310293
52:32.6;0.011913679336723293;-0.3089050128312692;-1.1242955149301712;1.273;0.004137627034304776
52:32.6;0.015435741803593594;-0.3173124207893227;-1.1339305055507896;1.296;0.005553937866041695
52:32.7;0.01784039056620112;-0.3227753220463642;-1.1418798311130496;1.219;0.006575443994458495
52:32.7;0.01872997087234492;-0.3241677019417372;-1.1474437981990844;1.219;0.006966878990599175
52:32.7;0.017951478727386217;-0.32064323389038546;-1.1501770263553968;1.219;0.0066204421883793415
52:32.7;0.015587743408200492;-0.3117257536097728;-1.1498669016943954;1.206;0.0055873194820286465
52:32.7;0.011909072738698201;-0.2973730254526502;-1.1464835096119046;1.188;0.004060199110101078
52:32.7;0.007296657403340065;-0.2780053132055067;-1.1401171506051342;1.151;0.0023127385016350525
52:32.7;0.002153564488314242;-0.25449148726307;-1.1309159256682857;1.138;0.0006198141131186089
52:32.7;-0.003177628865355454;-0.22808913884409207;-1.1190361947653171;1.143;0.0008110579979466483
52:32.7;-0.008473178324053489;-0.20034238662993406;-1.1046144025039306;1.125;0.0018751235624718577
52:32.7;-0.013650974239188486;-0.17294764095558657;-1.0877592336701167;1.099;0.0025680948989164213
52:32.8;-0.01875434106975761;-0.1476013242095812;-1.0685566972277638;1.035;0.002957941865883883
52:32.8;-0.023902892830284246;-0.12584741457197468;-1.0470837862188525;1.035;0.0031497508136373014
52:32.8;-0.02922556582337315;-0.10894709293088119;-1.023433390323433;1.035;0.003258653298052361
52:32.8;-0.034794560012485834;-0.0977898846623139;-0.9977529874062827;1.035;0.0033949104242905342
52:32.8;-0.04057507404776347;-0.09285248800122686;-0.9702904152150654;1.0;0.0036555658172122097
52:32.8;-0.04639906674344417;-0.09419885736649267;-0.9414320261760483;0.968;0.004114753738654892
52:32.8;-0.051965830198731515;-0.10151184599331145;-0.911720230088396;0.937;0.0048094585575595835
52:32.8;-0.05686736801814504;-0.1141489639129226;-0.8818455648995663;0.902;0.0057243692127732304
52:32.8;-0.060632005288138564;-0.13121703568312784;-0.8526150163319655;0.883;0.006783364145638364
52:32.8;-0.06277682499303831;-0.15166228625452888;-0.8249001731903868;0.8590000000000001;0.00785377292309594
52:32.9;-0.0628598014184982;-0.17437239751000555;-0.7995687566193209;0.782;0.008764084559423175
52:32.9;-0.06052571669452111;-0.19828095315935151;-0.7774071364312344;0.782;0.009329738294867402
52:32.9;-0.05554377039940492;-0.22245481306309864;-0.75905006242145;0.782;0.009378806677544824
52:32.9;-0.04783630935898029;-0.2461447836128019;-0.7449356180395564;0.782;0.008771362146354312
52:32.9;-0.03749693932501088;-0.2687950055696005;-0.735291767534698;0.78;0.007410998382880153
52:32.9;-0.02479506088639971;-0.2900228561651619;-0.7301472824276368;0.789;0.005250587222984313
52:32.9;-0.01016519209431525;-0.3095856133479691;-0.7293556771689876;0.795;0.0022952802952385318
52:32.9;0.0058174053915552165;-0.3273454511801575;-0.7326233209138576;0.8029999999999999;0.0013951354637402843
52:32.9;0.022471502904262215;-0.3432391521517124;-0.7395361221870799;0.8140000000000001;0.0057041157715056025
52:32.9;0.039052718001628454;-0.35725648359129125;-0.7495818906400694;0.826;0.01045804413744226
52:33.0;0.054803270350597656;-0.3694293746314164;-0.762167863176552;0.8640000000000001;0.015430803222200893
52:33.0;0.06900618174054128;-0.37983008738695445;-0.7766344212622567;0.8640000000000001;0.020356072832810355
52:33.0;0.08103832356245622;-0.3885719986573822;-0.7922670617666673;0.8640000000000001;0.024947874464389768
52:33.0;0.09041690108988855;-0.3958064651725259;-0.8083107413268357;0.889;0.02892749664633971
52:33.0;0.09683810587463414;-0.40171443133203166;-0.8239929046040315;0.917;0.032054366037468335
52:33.0;0.10020836796292949;-0.406496388937768;-0.8385597353781237;0.948;0.03415817713496176
52:33.0;0.10066516149947961;-0.4103649444587588;-0.851323612159891;0.97;0.03516771309136489
52:33.0;0.09858069738378596;-0.41354178785740353;-0.861713528548753;0.9790000000000001;0.035129680372015686
52:33.0;0.09454222537328108;-0.4162577560879356;-0.8693191782197109;0.981;0.034211130077005866
52:33.0;0.08930651239566757;-0.41875283761748033;-0.8739231005218249;0.986;0.03268241285537546
52:33.1;0.08373132655447577;-0.4212735668659664;-0.8755195550409488;0.991;0.030882896949315893
52:33.1;0.07869189957648083;-0.42406713464758844;-0.8743202758858448;0.991;0.02917663449229788
52:33.1;0.07499367207164648;-0.427372332193698;-0.8707463865428692;0.991;0.027907613717037035
52:33.1;0.0732919482266314;-0.4314072827108307;-0.8654048530821288;0.981;0.027362959318257926
52:33.1;0.07402545603011813;-0.436354609342047;-0.8590481051040547;0.9690000000000001;0.027748412605559443
52:33.1;0.07736910099828345;-0.4423461047750942;-0.8525170599731373;0.961;0.0291764760483653
52:33.1;0.08321215819406282;-0.4494495359583238;-0.8466705746066849;0.945;0.03166519660614662
52:33.1;0.09116687647848572;-0.45765952243558683;-0.8423076975436764;0.934;0.035143931849571666
52:33.1;0.1006072863257741;-0.46689328707499006;-0.840092513654614;0.924;0.039461553589280086
52:33.1;0.11073301448002702;-0.4769912051589052;-0.8404944043940843;0.92;0.04439379996780254
52:33.2;0.1206510461290987;-0.4877213226160777;-0.8437568252478991;1.013;0.04965010070091253
52:33.2;0.12946700072549702;-0.4987858756763692;-0.8499002105917476;1.013;0.054883420596956584
52:33.2;0.13637433864367549;-0.5098271316013527;-0.8587496674108388;1.013;0.059706578293066054
52:33.2;0.1407294362267888;-0.5204316270668959;-0.8699684054533349;1.028;0.06371652905423096
52:33.2;0.14210603168580072;-0.5301356301307663;-0.8830831094291257;1.032;0.06652748167467676
52:33.2;0.14032911808392937;-0.5384365910502223;-0.8974996194254423;1.037;0.06781357418408128
52:33.2;0.13549102506099922;-0.544813748156011;-0.9125152888337057;1.047;0.06735948163109051
52:33.2;0.12795226081261793;-0.5487581442230722;-0.9273376489871232;1.061;0.06511286946497352
52:33.2;0.11832879903569214;-0.5498103109208444;-0.9411191704753024;1.085;0.06122770159488068
52:33.2;0.1074669871431041;-0.5476032085613194;-0.9530135892378846;1.127;0.05608415114289295
52:33.3;0.09640741418953891;-0.5419078464237592;-0.9622501448773731;1.153;0.05027173325554705
52:33.3;0.08633793251549406;-0.5326779570278039;-0.9682118279494623;1.153;0.0445283655079595
52:33.3;0.07853176383750045;-0.5200878406213308;-0.9704991533306287;1.153;0.039638500137065345
52:33.3;0.0742622355824428;-0.50455519828928;-0.9689658563751646;1.124;0.03630656635167984
52:33.3;0.07468754315876135;-0.4867397017330746;-0.96372369874508;1.083;0.035034625863018955
52:33.3;0.08070988165566878;-0.46750952123025774;-0.9551239207272345;1.0759999999999998;0.03603934527143753
52:33.3;0.09282878494665142;-0.4478732571228064;-0.9437272273384868;1.073;0.03923595990571074
52:33.3;0.11101987811867886;-0.42888270003022677;-0.9302687964321004;1.043;0.04429428833772905
52:33.3;0.1346717991668231;-0.4115193253620349;-0.9156140324096554;1.008;0.05074337356923543
52:33.3;0.16260592745254956;-0.39658195663022683;-0.9006962467928642;0.9590000000000001;0.05808281775425203
52:33.4;0.19318667194268566;-0.38459405760956655;-0.8864345678640804;0.946;0.0658607109071332
52:33.4;0.22450354092417202;-0.37574632880519765;-0.8736433336115965;0.946;0.07369739017560673
52:33.4;0.25457967783380075;-0.3698837871393275;-0.8629526739732336;0.946;0.08125984825039256
52:33.4;0.2815581775462825;-0.36653884076450977;-0.8547569431069931;0.95;0.08821263288535505
52:33.4;0.30384240296637505;-0.36500675502645197;-0.8491962425769394;0.9620000000000001;0.09417970977539292
52:33.4;0.320193008103278;-0.36445705703704206;-0.8461665601017757;0.9990000000000001;0.09874476179672498
52:33.4;0.3297914733183493;-0.36406896699332725;-0.845350462085202;1.021;0.10149855953248041
52:33.4;0.33227349099633263;-0.36316914540649664;-0.8462599651213845;1.035;0.10211944225823529
52:33.4;0.32772804273067396;-0.3613415581202604;-0.8482844885812565;1.035;0.10045534347575173
52:33.4;0.3166551715712658;-0.35847883611541553;-0.8507400036035787;1.018;0.09657105165187523
52:33.5;0.2998793964663735;-0.35475574537036525;-0.8529188968507498;0.9390000000000001;0.09073687173642349
52:33.5;0.27842868358943335;-0.35053042717096783;-0.8541405858823256;0.9390000000000001;0.08336217834988484
52:33.5;0.2534061817197263;-0.3462099541213297;-0.8538001834413692;0.9390000000000001;0.07490537788047112
52:33.5;0.22588632838991146;-0.3421301388355518;-0.8514103068612594;0.922;0.06579913482860039
52:33.5;0.1968507636291639;-0.3384837203142046;-0.8466329961694771;0.9209999999999999;0.05641181590939049
52:33.5;0.16715973158369712;-0.33530426466743174;-0.8393028333500037;0.9279999999999999;0.047042395787637255
52:33.5;0.13754663305385056;-0.3324955814098506;-0.8294439165024002;0.922;0.03793349588762546
52:33.5;0.10862354109344255;-0.32988912605110765;-0.817281075911824;0.907;0.02928622535453168
52:33.5;0.08088749815534414;-0.3273093811395294;-0.8032433612749867;0.898;0.021266058328832792
52:33.5;0.054721015294027314;-0.3246280817256579;-0.78795804563396;0.888;0.013997269564839836
52:33.6;0.030385538713152783;-0.32179311561180013;-0.7722343267158783;0.825;0.00755079694998082
52:33.6;0.008012985420392419;-0.3188281373759022;-0.7570365914911119;0.825;0.0019340507514865185
52:33.6;-0.012394820378294548;-0.3158112927885423;-0.74344871619297;0.825;0.0029101736814764016
52:33.6;-0.030951282345204334;-0.3128474577633599;-0.7326310837432278;0.8029999999999999;0.007094088760043816
52:33.6;-0.04785634207652956;-0.31004481590327776;-0.7257689113119898;0.8;0.010768676614231497
52:33.6;-0.06336225514117697;-0.30750030019538577;-0.7240084853302218;0.789;0.014106517960756603
52:33.6;-0.07774118637940347;-0.3052949933648491;-0.7283806061469071;0.772;0.017287381649729355
52:33.6;-0.09125793396436568;-0.30349915898164437;-0.7397160401846063;0.774;0.02048769784277269
52:33.6;-0.10414798926525275;-0.30218646293344864;-0.7585627797103415;0.8009999999999999;0.02387357313961
52:33.6;-0.11659893867338504;-0.30145786522792456;-0.7851160454261291;0.838;0.02759656766325307
52:33.7;-0.1287325261139762;-0.30147424898116837;-0.8191671401172862;0.915;0.031791501226031034
52:33.7;-0.14058650408574874;-0.3024903074119411;-0.8600692897500376;0.915;0.03657535378113656
52:33.7;-0.15209869622409752;-0.30487414715318506;-0.9067151517258978;0.915;0.04204525229904249
52:33.7;-0.1630990518858028;-0.30909545614634054;-0.9575284838270602;0.946;0.04827205182667374
52:33.7;-0.17331811595767274;-0.31567255205419925;-1.0104871570689637;0.998;0.055285542927876394
52:33.7;-0.1824206866760312;-0.3250798499729749;-1.0632012859522948;1.067;0.06304920720889838
52:33.7;-0.1900691841350648;-0.3376274776439951;-1.1130610457959347;1.148;0.07142799813511275
52:33.7;-0.19601159403720672;-0.35333354877105116;-1.1574507422665823;1.254;0.08016211251446423
52:33.7;-0.20017607573683652;-0.37181799011597855;-1.194006890150583;1.37;0.08886881781030422
52:33.7;-0.20274308573773123;-0.39225493575449766;-1.220879976194364;1.4380000000000002;0.09709289265203329
52:33.8;-0.2041632660379814;-0.41342052396546863;-1.2369473316711481;1.426;0.10440489134216889
52:33.8;-0.20510476481029466;-0.43384653052958977;-1.241931150661522;1.426;0.11051198984628953
52:33.8;-0.20634492784764047;-0.45204089448359064;-1.2364032377717016;1.426;0.11532717590072489
52:33.8;-0.20864468473013875;-0.466706304166344;-1.221685199880555;1.411;0.11896256109627508
52:33.8;-0.21264252339673562;-0.4769024006479343;-1.199662113303804;1.324;0.1216574108666914
52:33.8;-0.21878987969907135;-0.48212608959936776;-1.1725310476506245;1.216;0.12368362751041309
52:33.8;-0.22733275766916636;-0.48230308526648674;-1.1425200211118576;1.14;0.12526965446941096
52:33.8;-0.23832583547767425;-0.47770289414132305;-1.1116297917193847;1.1179999999999999;0.12655787496741377
52:33.8;-0.25165427894604336;-0.4688111747406752;-1.0814500658403472;1.1059999999999999;0.12758768155054864
52:33.8;-0.26704489724548863;-0.4562012083967115;-1.0530792359262489;1.111;0.12829264668718493
52:33.9;-0.2840644177290463;-0.4404350175117066;-1.0271471165913806;1.161;0.12850834458920302
52:33.9;-0.3021142236290889;-0.4220064171816378;-1.0039160758748324;1.161;0.12799341782344195
52:33.9;-0.3204339648971387;-0.4013249623279497;-0.983420270347631;1.161;0.12646602634853288
52:33.9;-0.338125969711255;-0.3787328730729254;-0.9655983656430545;1.138;0.12365396662756575
52:33.9;-0.3542108596036724;-0.3545427896721358;-0.9503853036111309;1.1079999999999999;0.11935214852854087
52:33.9;-0.36771886799276654;-0.3290821377028883;-0.9377479363398434;1.092;0.11347660691056792
52:33.9;-0.3778096062982964;-0.3027308373703267;-0.9276677743428701;1.078;0.10610164776780377
52:33.9;-0.38389947629330995;-0.2759414328284487;-0.9200859022464655;1.063;0.09746816977538239
52:33.9;-0.385765814312984;-0.24923354305128248;-0.9148301526413906;1.0290000000000001;0.08795705922380713
52:33.9;-0.38359406414533465;-0.223159306052853;-0.9115462154177774;1.001;0.0780307125331835
52:34.0;-0.37794287245235825;-0.19824464716273255;-0.909654320461471;0.935;0.0681559876794994
52:34.0;-0.36962642677286645;-0.17492289166849137;-0.9083485762137894;0.935;0.05873029764134305
52:34.0;-0.3595466256390267;-0.15348725390290402;-0.9066455310792786;0.935;0.050033980907436264
52:34.0;-0.3485248297889151;-0.13408567221691522;-0.9034775977840942;0.9740000000000001;0.04222148322465978
52:34.0;-0.3371722028749162;-0.11676192727103042;-0.8978190959616029;1.006;0.03534612886574774
52:34.0;-0.3258198074186853;-0.10152365347723713;-0.8888241740075852;0.985;0.02940089686695094
52:34.0;-0.3145201237424299;-0.08840543749638187;-0.875949405174853;0.978;0.024356026483656083
52:34.0;-0.30311972889324584;-0.07749922617830673;-0.8590381791519028;0.997;0.02018013355141459
52:34.0;-0.2913816793411987;-0.0689419371322319;-0.8383552112181012;0.982;0.01684122942802881
52:34.0;-0.27911710425210934;-0.06287158599348064;-0.814565531850313;0.948;0.014294431763582973
52:34.1;-0.26628295331591556;-0.05937592640889067;-0.7886553699611846;0.753;0.012469269988984384
52:34.1;-0.2530225490868257;-0.05845465135369578;-0.7618053213303311;0.753;0.011267363442650833
52:34.1;-0.23965695521305275;-0.060002074247759024;-0.7352465110755098;0.753;0.010572781907373388
52:34.1;-0.22665285112074335;-0.0638051443902853;-0.7101354698321936;0.753;0.010269707816431602
52:34.1;-0.21458453640544137;-0.06955016552122618;-0.6874637497847568;0.716;0.010259977130038856
52:34.1;-0.20409125753764654;-0.07683651083446505;-0.6679958817860406;0.672;0.010475284380403715
52:34.1;-0.19582557549024893;-0.08519918939742394;-0.6522258977582702;0.639;0.010881854471301952
52:34.1;-0.19039283257265596;-0.09414136463451986;-0.640353384274149;0.645;0.011477592291582015
52:34.1;-0.18828746512704556;-0.10317400537977585;-0.6322873469884773;0.652;0.01228304917553007
52:34.1;-0.18983606468795136;-0.11185741010118158;-0.627681901141735;0.638;0.01332855560634656
52:34.2;-0.1951587014504566;-0.11984206780813579;-0.6259983768830839;0.679;0.01464098921837161
52:34.2;-0.20415719994377401;-0.12690864211040745;-0.6265831191562546;0.7;0.01623433816847498
52:34.2;-0.21653239913618813;-0.13300113393640692;-0.6287493054358705;0.7;0.01810738558895856
52:34.2;-0.23182662629642453;-0.13823953436889966;-0.6318513971530586;0.7;0.0202493239147495
52:34.2;-0.2494873757268267;-0.14290045499630713;-0.6353437530526242;0.701;0.022651186222608168
52:34.2;-0.2689506738565159;-0.14736550603462142;-0.6388208684575671;0.727;0.025319059615733518
52:34.2;-0.289738436723339;-0.15204804510511613;-0.6420416530062395;0.769;0.028284607567294652
52:34.2;-0.31155181369635404;-0.15731366843161942;-0.6449403253724523;0.789;0.03160940163924098
52:34.2;-0.33433397777998475;-0.16340921496817154;-0.6476219689406905;0.792;0.03538169477789931
52:34.2;-0.3582809534435954;-0.17041386571045952;-0.6503360379616115;0.799;0.03970694463438308
52:34.3;-0.38379415888291923;-0.1782248135395165;-0.6534219928280153;0.743;0.04469513749263404
52:34.3;-0.4113840066298317;-0.18658195130460617;-0.6572309312862008;0.743;0.050446963318609706
52:34.3;-0.4415454434057002;-0.19512066439148212;-0.6620419864160172;0.743;0.057037989187513335
52:34.3;-0.47463286356273604;-0.20343302717548475;-0.6680001442859214;0.792;0.06449942208633766
52:34.3;-0.5107627958761435;-0.21112349699387237;-0.6750929950513676;0.855;0.0727979966607595
52:34.3;-0.5497679354838156;-0.21785464702587412;-0.6831633168644151;0.892;0.08182212855876861
52:34.3;-0.591215617914642;-0.2233809577444715;-0.6919384049531787;0.9359999999999999;0.09138175255597018
52:34.3;-0.6344879016603352;-0.2275676106864921;-0.7010571666869396;0.9990000000000001;0.10122487018382344
52:34.3;-0.67890168758065;-0.23039204657521625;-0.7100890112146182;1.062;0.11106754250980183
52:34.3;-0.7238330785009108;-0.23192721797450816;-0.7185500352201997;1.111;0.12062773121973469
52:34.4;-0.7688081095772564;-0.23230558395681766;-0.7259228055507254;1.136;0.1296486638238255
52:34.4;-0.8135318069224803;-0.23166689092456152;-0.7316815391206805;1.136;0.13789883755726232
52:34.4;-0.8578432328349243;-0.23010290512904336;-0.7353236426012792;1.139;0.14514716624670548
52:34.4;-0.9016033484471901;-0.22761900758917564;-0.7364104218377535;1.139;0.15112766334246527
52:34.4;-0.9445434027355973;-0.2241273022166372;-0.7346178753875545;1.1520000000000001;0.1555171090383048
52:34.4;-0.9861166831944526;-0.21947341693557282;-0.7297923728924237;1.186;0.15794633452222684
52:34.4;-1.025399676481291;-0.21348733864795652;-0.7219988997148472;1.237;0.15805266938008522
52:34.4;-1.0610796854346254;-0.2060397919733727;-0.7115436422000249;1.271;0.15556097095107463
52:34.4;-1.0915461918839477;-0.19708216611403306;-0.6989534310902518;1.304;0.15036185914555034
52:34.4;-1.1150763071339804;-0.18665308525890845;-0.6849078702519031;1.368;0.14255154143395687
52:34.5;-1.130077755882005;-0.1748484668741412;-0.6701408106415361;1.3840000000000001;0.1324147063606466
52:34.5;-1.1353358789766472;-0.1617696577358845;-0.6553408110051658;1.3840000000000001;0.12036179158143316
52:34.5;-1.1302130251381577;-0.14747641379875745;-0.6410757505722653;1.3840000000000001;0.10685435466792015
52:34.5;-1.1147675620310837;-0.13196868450997032;-0.6277512084944811;1.3319999999999999;0.092351247845632
52:34.5;-1.089782377226824;-0.1152049622359493;-0.6155993826468137;1.2890000000000001;0.0772874791274009
52:34.5;-1.0567094248307327;-0.09714779523852049;-0.6046917497271175;1.248;0.06207583540675615
52:34.5;-1.017546505160682;-0.0778183266087611;-0.5949700128892143;1.195;0.047111966443155615
52:34.5;-0.9746663445161539;-0.0573416413631417;-0.5862890868600715;1.141;0.032767092000183004
52:34.5;-0.9306188947153718;-0.0359693280747248;-0.5784617114755656;1.09;0.019363274810725424
52:34.5;-0.8879282127885597;-0.01407073338712088;-0.5712909970768476;1.034;0.007137596115720958
52:34.6;-0.8489048161234951;0.007910414194104796;-0.5645796117240091;0.9420000000000001;0.0037912586327991274
52:34.6;-0.8154923598625292;0.029526333062706148;-0.5581145321374962;0.9420000000000001;0.013438560219246744
52:34.6;-0.789162984161054;0.05039880694421682;-0.5516393468329495;0.9420000000000001;0.021940281620643633
52:34.6;-0.7708659336973266;0.07026749101370104;-0.5448312225014387;0.9179999999999999;0.02951177207296826
52:34.6;-0.7610218980130015;0.08899918489278022;-0.5372938311539107;0.903;0.03639108774348908
52:34.6;-0.7595505764527098;0.10656398377580169;-0.5285699795113735;0.9009999999999999;0.042782842802331834
52:34.6;-0.7659235036848419;0.12299330339861309;-0.5181741996610388;0.92;0.04881380345918458
52:34.6;-0.7792396535754349;0.13833512144180407;-0.505642191898893;0.9470000000000001;0.054506312969509856
52:34.6;-0.798321238393382;0.1526191610352782;-0.49058826304918096;0.972;0.05977284109457128
52:34.6;-0.8218228641865317;0.165840278337414;-0.47275716935857526;1.004;0.06443270458007097
52:34.7;-0.8483425657988509;0.17796201333447811;-0.4520570885907664;1.0290000000000001;0.06824830227671812
52:34.7;-0.8765195662295467;0.18893457300574368;-0.4285681912422368;1.0290000000000001;0.07097297101548161
52:34.7;-0.9051030368508286;0.1987151642479764;-0.40253307025518625;1.0290000000000001;0.07239867163822562
52:34.7;-0.9329837564318466;0.20727898904989292;-0.37433963652612984;1.0190000000000001;0.07239276736228759
52:34.7;-0.9591953255732778;0.2146170709099951;-0.34450001871874497;1.011;0.07091866747359063
52:34.7;-0.9829030926648283;0.22072562853722713;-0.31362322759322925;1.0190000000000001;0.06804115602614687
52:34.7;-1.0034000956500264;0.22559582971839354;-0.28238276684606406;1.0490000000000002;0.06392097555172696
52:34.7;-1.020122039780231;0.22921281832521212;-0.2514843069498798;1.0859999999999999;0.05880333008688919
52:34.7;-1.0326818882331754;0.23156934254723388;-0.22163608713524505;1.112;0.05300149223363486
52:34.7;-1.040913569832908;0.23269177652304376;-0.19352012159178444;1.127;0.04687290106530678
52:34.8;-1.0449090988312302;0.23266799720938816;-0.1677609918162907;1.095;0.040785533494435436
52:34.8;-1.04503659297304;0.2316646360784093;-0.14489230524129612;1.095;0.03507814050189746
52:34.8;-1.0419347769353837;0.22992873705876596;-0.12532587423527838;1.095;0.030024413353885452
52:34.8;-1.036485791584303;0.22777815401791632;-0.10932870908490451;1.082;0.025811285949811053
52:34.8;-1.029769000499096;0.2255877052599229;-0.09700731813780201;1.077;0.022535112926746398
52:34.8;-1.0229965873791365;0.2237757734813126;-0.0882967794459919;1.062;0.020213062330229722
52:34.8;-1.0174312332482032;0.22279277500653946;-0.08295752274082695;1.043;0.01880450662107072
52:34.8;-1.014288656943458;0.22310887390441594;-0.08058768770437925;1.0270000000000001;0.018236735852112572
52:34.8;-1.01463258062921;0.2251951712125418;-0.08065652337100318;1.005;0.018429237876896657
52:34.8;-1.0192747480234357;0.2294937348725196;-0.08255643543252697;0.997;0.0193113676413703
52:34.9;-1.0286949566050527;0.23637693581364497;-0.0856636331000735;1.054;0.020829948613476007
52:34.9;-1.0429919334833577;0.24610157206604075;-0.08939477751516897;1.054;0.02294602621311768
52:34.9;-1.061866215850526;0.25876490736033086;-0.09325098603022043;1.054;0.025622919669975444
52:34.9;-1.0846302437022781;0.2742690701567532;-0.09684722519564185;1.095;0.028810163725671998
52:34.9;-1.1102434824167047;0.2922997269601392;-0.09992924254910836;1.135;0.03242942419540156
52:34.9;-1.1373732283148992;0.3123235684939619;-0.10238052385698188;1.1740000000000002;0.03636847637418925
52:34.9;-1.1644786295081655;0.33360546353702847;-0.10422063404521978;1.21;0.04048726015638771
52:34.9;-1.189911469922437;0.355242116347907;-0.10559537809973706;1.251;0.044635870521640274
52:34.9;-1.2120266687160723;0.3762070125503734;-0.10675877724847804;1.2830000000000001;0.048679112696771505
52:34.9;-1.2292962745919453;0.3954016211432243;-0.10804740583447535;1.295;0.052518142254616935
52:35.0;-1.2404212577994662;0.4117097756762134;-0.10984915481971587;1.35;0.05609925569539355
52:35.0;-1.2444349963875019;0.4240546453890886;-0.11256877784863555;1.35;0.05940349427535919
52:35.0;-1.2407902342761294;0.4314592681631784;-0.11659016742183348;1.35;0.06241659817802044
52:35.0;-1.2294196864217084;0.4331124253616915;-0.12223340820901883;1.3530000000000002;0.06508647143458554
52:35.0;-1.2107621506542248;0.42844102624369323;-0.1297075225945754;1.3359999999999999;0.06728450340577403
52:35.0;-1.1857493558477092;0.4171855577785564;-0.13906598336367476;1.306;0.06879281387608663
52:35.0;-1.1557520654962075;0.39946821558057083;-0.15017524939891383;1.261;0.06933384252031
52:35.0;-1.122488199212246;0.37583989329310286;-0.16270340508109854;1.2209999999999999;0.06864063650535711
52:35.0;-1.0879001371846966;0.34729351309212597;-0.17612998310508782;1.188;0.06654554655700795
52:35.0;-1.0540096558424112;0.31523303667057584;-0.18977479501829755;1.155;0.063054319946892
52:35.1;-1.0227577660152924;0.2813898858481783;-0.2028435462180499;0.983;0.05837709286758142
52:35.1;-0.9958404643777672;0.2476903471361323;-0.2144865129739891;0.983;0.05290525837155517
52:35.1;-0.9745615867303522;0.21609944964575437;-0.22386213328299057;0.983;0.04714586281156793
52:35.1;-0.9597263719509594;0.1884760088614287;-0.23019615618881967;0.983;0.04163912291233511
52:35.1;-0.9515853757593977;0.16645528268608312;-0.2328326155354779;0.9640000000000001;0.03687985106549406
52:35.1;-0.9498226428173211;0.1513528304596686;-0.23127859335590784;0.9540000000000001;0.03324822791308622
52:35.1;-0.9535794456843094;0.14408143611198418;-0.22524394784705926;0.9520000000000001;0.030946963345705042
52:35.1;-0.9615108926666249;0.1450857969974011;-0.21467273105252171;0.9640000000000001;0.029947183916252434
52:35.1;-0.9718766776568692;0.15430826220457938;-0.19976034468195605;0.9790000000000001;0.029957779468459608
52:35.1;-0.9826662398524073;0.17119825834819113;-0.18095012430835034;0.9940000000000001;0.03044137490790078
52:35.2;-0.9917544748483097;0.1947722008423806;-0.15890413897862243;1.07;0.03069490897067958
52:35.2;-0.9970772587799193;0.22371902102532412;-0.13444905139141372;1.08;0.02999089757677936
52:35.2;-0.9968077571644007;0.25652905059170994;-0.10851014566869312;1.08;0.02774714536154884
52:35.2;-0.9895117125053102;0.29161496447356444;-0.08205387046940137;1.08;0.023677171346799558
52:35.2;-0.9742662689749084;0.3274060687640202;-0.056050446721597987;1.0759999999999998;0.01787901011706586
52:35.2;-0.9507354881586281;0.36241911908283325;-0.031451943788651376;1.06;0.010837230145209724
52:35.2;-0.9192004825169989;0.3953173663644059;-0.009174159622932266;1.041;0.003333668637334748
52:35.2;-0.8805445537755267;0.42496302604527125;0.009925868278120439;1.022;0.0037142487742393812
52:35.2;-0.8361949834713921;0.4504613126108652;0.02507957237848457;1.0;0.0094468100518283
52:35.2;-0.7880218617851021;0.47119325167155296;0.03564329564657397;0.978;0.01323473290235336
52:35.3;-0.7381941964412672;0.4868353241559954;0.041138573407749617;0.8109999999999999;0.014784339821713028
52:35.3;-0.689004615210757;0.4973628234790847;0.04129166938394204;0.8109999999999999;0.01415004731800529
52:35.3;-0.642694407259122;0.5030325111158528;0.03606729197056958;0.8109999999999999;0.011660417773427184
52:35.3;-0.6013147537816899;0.504341961074147;0.025691817405235993;0.8109999999999999;0.007791512815834517
52:35.3;-0.5666343267075582;0.5019671497479287;0.010661700409561848;0.758;0.003032526829681834
52:35.3;-0.5400754246956855;0.4966835163509968;-0.008266864705620392;0.7090000000000001;0.0022175580278045383
52:35.3;-0.5226588003202107;0.4892787392151032;-0.030109200327170203;0.6729999999999999;0.007699700511079957
52:35.3;-0.5149538326989989;0.4804684392102197;-0.05370379835149601;0.649;0.013287343535453482
52:35.3;-0.5170446323463257;0.47082699174254344;-0.07778240859486919;0.642;0.01893523822959364
52:35.3;-0.5285265268635729;0.46074318141644854;-0.10105545286053318;0.654;0.0246085179414305
52:35.4;-0.5485432340210873;0.4504060063972305;-0.12230558507813098;0.7490000000000001;0.03021769445898731
52:35.4;-0.5758633619677862;0.43982123928132666;-0.14047604626687238;0.7490000000000001;0.035579342793023626
52:35.4;-0.6089803658753336;0.4288547964129852;-0.15473807694152972;0.7490000000000001;0.04041203846503317
52:35.4;-0.6462171304483106;0.41729516799210875;-0.1645277113917484;0.782;0.044367083293571905
52:35.4;-0.6858289810345456;0.4049253091004629;-0.1695537309143165;0.821;0.0470866838929634
52:35.4;-0.7261099574790624;0.39159445444255886;-0.16978704968186642;0.863;0.048277357124750744
52:35.4;-0.7655046978978739;0.377280931627094;-0.1654425431391635;0.905;0.04778151475009993
52:35.4;-0.8027198801181362;0.362137935302622;-0.1569588765311405;0.9490000000000001;0.04562721084199883
52:35.4;-0.8368233914735085;0.3465161107455586;-0.1449749128593809;0.986;0.04203877952609166
52:35.4;-0.8673169146316706;0.3309585986885473;-0.13029717069123978;1.004;0.037401280444567954
52:35.5;-0.894168588423304;0.31616528339666233;-0.11385339574727105;0.993;0.03218693166378926
52:35.5;-0.9177973784408873;0.3029275991707076;-0.09663278587743263;0.993;0.026866442037433443
52:35.5;-0.9390083186559068;0.2920451372379143;-0.0796214641348468;0.986;0.021834818107920696
52:35.5;-0.958886072695396;0.2842416266553264;-0.06374506032576784;0.986;0.01737405640427949
52:35.5;-0.9786615372444242;0.2800937417341998;-0.0498244712984588;0.988;0.013657733196766072
52:35.5;-0.9995698938878684;0.279978046628577;-0.03854259263975283;1.004;0.010786438489900796
52:35.5;-1.0227171990065695;0.2840369708962178;-0.03041725294138756;1.035;0.008835892455030357
52:35.5;-1.0489673880815098;0.29216282468257754;-0.025779175128685078;1.0659999999999998;0.007900525114410452
52:35.5;-1.0788551702133553;0.3039964316818774;-0.024758999072267848;1.091;0.008120162429480358
52:35.5;-1.112525931339203;0.31893566899934295;-0.02729005411889448;1.121;0.009683171680480102
52:35.6;-1.1497023139538327;0.3361516077907063;-0.03313160903468871;1.21;0.012804514790533164
52:35.6;-1.1896753642076217;0.35461395396414824;-0.04191025962584498;1.21;0.017680911099230957
52:35.6;-1.231315913172994;0.37312990330983636;-0.05316827617585158;1.21;0.02442767468295537
52:35.6;-1.2731063090239016;0.3904024703699382;-0.0664051057863872;1.266;0.033004921210540286
52:35.6;-1.3132035577756944;0.40511609007026467;-0.08110436314518989;1.33;0.04314751233603225
52:35.6;-1.3495485366205089;0.41605379851632474;-0.09674580156450278;1.403;0.054321296553051665
52:35.6;-1.3800252806292939;0.42223924749580144;-0.11280462457558149;1.482;0.0657313490468987
52:35.6;-1.402658034157297;0.42308358233814153;-0.12874192321166977;1.5659999999999998;0.07640081108082993
52:35.6;-1.4158197175792957;0.4185077717442501;-0.1439919022891367;1.633;0.0853197457989672
52:35.6;-1.4184147773525384;0.4090067657755821;-0.157952869211785;1.661;0.09163497350294803
52:35.7;-1.4099964734593258;0.39562558285920046;-0.1699896530608159;1.4709999999999999;0.09482544318901347
52:35.7;-1.3907936170867188;0.37983745331693314;-0.1794536761072589;1.4709999999999999;0.09480098147799855
52:35.7;-1.361652062146403;0.3633476300356249;-0.18572150265568554;1.4709999999999999;0.09188627983637034
52:35.7;-1.3239167220119643;0.3478670833153409;-0.18824737692123092;1.3630000000000002;0.08669677385505152
52:35.7;-1.2792769417417995;0.3348940255035314;-0.186623599622542;1.276;0.07995369400937202
52:35.7;-1.229592174665346;0.32553037305699567;-0.18064021343438103;1.213;0.07230478585368239
52:35.7;-1.1767207893785114;0.32035987165257807;-0.17033079678874896;1.1640000000000001;0.06421030240824431
52:35.7;-1.1223784217268276;0.3194096245890785;-0.15599120888189694;1.126;0.05592260976918871
52:35.7;-1.0680430422318217;0.32219867561829757;-0.13816586958769128;1.091;0.047545922795203824
52:35.7;-1.0149096979976844;0.32785809619860545;-0.11760519304624815;1.0659999999999998;0.039132700067768686
52:35.8;-0.9638881644538204;0.33529658555389197;-0.09520236627521139;0.996;0.030768301422535126
52:35.8;-0.9156348697401008;0.34338196482448136;-0.07191983559260157;0.996;0.02261249535379588
52:35.8;-0.870613037955212;0.35110877642775884;-0.04871822635288874;0.996;0.014892181512213866
52:35.8;-0.8291722875050898;0.35772800488753903;-0.026497997597918085;0.9670000000000001;0.007859786976309343
52:35.8;-0.7916290405325603;0.36282675983152446;-0.006054957630582328;0.932;0.0017391303600547922
52:35.8;-0.7583245903564757;0.36635595606149723;0.0119556197363458;0.8909999999999999;0.0033214711839213954
52:35.8;-0.7296457616367007;0.36860867665100394;0.027049109167671333;0.847;0.007274959577992738
52:35.8;-0.7060058562812759;0.37015537108653024;0.03893337214701902;0.8029999999999999;0.010174530548392569
52:35.8;-0.6877929866539007;0.3717469887705215;0.04751729451101769;0.764;0.012149458101648258
52:35.8;-0.6752984847370309;0.3742016036573684;0.052900925179378666;0.7340000000000001;0.01336794613778509
52:35.9;-0.6686407602640811;0.3782920477254291;0.05534368153139184;0.733;0.013998712847635628
52:35.9;-0.6676994540468706;0.38464961003977816;0.055212244137665914;0.733;0.01418017913715807
52:35.9;-0.6720714144132268;0.3936915214978428;0.05291840796481698;0.733;0.014001618997741726
52:35.9;-0.6810558468846688;0.4055732706323149;0.04886220583990749;0.733;0.013496623084078847
52:35.9;-0.6936730924292747;0.4201666556431103;0.04339158623695342;0.768;0.012646838104531622
52:35.9;-0.7087195031603379;0.43706753317781877;0.036782164357150676;0.809;0.011393580148435585
52:35.9;-0.724856878498176;0.45563617441106363;0.029236176068369278;0.858;0.00965586154816523
52:35.9;-0.7407279656065379;0.47506740364399536;0.020897842054951873;0.9109999999999999;0.0073538609972204775
52:35.9;-0.7550825869821136;0.4944818178389333;0.011879362613704546;0.951;0.004435452385666117
52:35.9;-0.7668954540528329;0.5130257869786177;0.002288012734224221;0.983;0.0009001891952359489
52:36.0;-0.7754582253036076;0.5299663051679382;-0.007756080626782925;0.986;0.003187491096499081
52:36.0;-0.7804349729622171;0.5447671586201873;-0.018116275290900992;0.986;0.00770223122990363
52:36.0;-0.7818797746360621;0.5571362053383054;-0.028644939853157043;0.986;0.012478123385306643
52:36.0;-0.7802225566472324;0.5670402464847103;-0.039188686526908253;0.976;0.017337764281190538
52:36.0;-0.7762309391840002;0.5746921055327227;-0.04958829123362604;0.977;0.02212102891583608
52:36.0;-0.7709535239724209;0.580519763840864;-0.059674587067290084;0.986;0.02670758567929677
52:36.0;-0.7656471045564691;0.5851266093432751;-0.06926385319220536;0.992;0.03103024046325647
52:36.0;-0.7616877675490914;0.5892462521756239;-0.07815589432290053;0.985;0.03507805841294908
52:36.0;-0.7604652771540923;0.5936894665162542;-0.08613737893110972;0.972;0.03888932319469252
52:36.0;-0.7632632557354506;0.5992788607953634;-0.09299263275233485;0.9570000000000001;0.04253553086313168
52:36.1;-0.7711333199805979;0.606769773258522;-0.09852362377942424;0.951;0.04609924196269597
52:36.1;-0.7847760995396712;0.6167615115716312;-0.10257851837830068;0.951;0.04965002301462224
52:36.1;-0.8044439318595163;0.6296084384709553;-0.10508398695196307;0.951;0.05322343032157032
52:36.1;-0.8298798379088288;0.6453432502558614;-0.10607442497135769;0.981;0.05680893814387333
52:36.1;-0.86030581071375;0.6636242335876215;-0.10571334311129019;1.04;0.06035383904523803
52:36.1;-0.894467903632538;0.6837145222713699;-0.10430468889597362;1.1179999999999999;0.06378864807670435
52:36.1;-0.9307341259159441;0.7044951596142295;-0.10229192721576257;1.178;0.06707258003277726
52:36.1;-0.9672284790676572;0.7245076056956401;-0.10024180878239441;1.214;0.07024588993677199
52:36.1;-1.0019791853921798;0.7420195735777118;-0.09880968405351803;1.23;0.07346383096559844
52:36.1;-1.0330644031175868;0.7551131642522317;-0.09868426258396719;1.253;0.07698167189019295
52:36.2;-1.0587482096524738;0.7618018785690075;-0.10051242694177608;1.348;0.081068938721117
52:36.2;-1.0776037182579044;0.7601831539534355;-0.10481009210923907;1.348;0.08585793226898747
52:36.2;-1.088617307328796;0.748621823689331;-0.11187183344251614;1.348;0.09117136851777906
52:36.2;-1.091266693042791;0.7259476856049093;-0.12169520660431432;1.367;0.09640725058419267
52:36.2;-1.08556998860762;0.6916462519418664;-0.13393237722169754;1.3780000000000001;0.10056050221608077
52:36.2;-1.0721052984401276;0.6460200458355219;-0.14787533145764065;1.3769999999999998;0.10241867845655087
52:36.2;-1.0519957745716255;0.5902923304073714;-0.16247692214119194;1.3519999999999999;0.1008957375644574
52:36.2;-1.0268490055911543;0.5266211527163395;-0.17640952558180178;1.2830000000000001;0.09539528685053511
52:36.2;-0.9986394105276537;0.4579968627289812;-0.1881624897277585;1.1740000000000002;0.08606057733036902
52:36.2;-0.9695304289904423;0.38801366363628437;-0.1961744577876103;1.062;0.0737990759958079
52:36.3;-0.9416485722158595;0.32053430827101104;-0.19898779241299386;0.856;0.06006061944797887
52:36.3;-0.916840903309623;0.2593019395499078;-0.19540574791006665;0.856;0.046455493724968246
52:36.3;-0.8964623299637755;0.20757740415623316;-0.18463317351619343;0.856;0.03435752380001721
52:36.3;-0.8812349329096251;0.16786923630274034;-0.16638652893883307;0.8340000000000001;0.024613931131566194
52:36.3;-0.8711985366846641;0.14178020278866835;-0.14096413345543862;0.8340000000000001;0.017411707244104103
52:36.3;-0.8657495996803615;0.1299574045163223;-0.10927067798905948;0.848;0.012294106367058782
52:36.3;-0.8637557284741363;0.13212373902629243;-0.07279157726764061;0.87;0.008307166709237625
52:36.3;-0.8637284999920961;0.14717251828025626;-0.03351378511375793;0.9;0.004260175121880651
52:36.3;-0.8640313222061485;0.17331061050671376;0.0062083168313256335;0.9390000000000001;0.0009296693454071446
52:36.3;-0.8630933723806732;0.20823841224017337;0.04383925587186131;0.973;0.007879194100594053
52:36.4;-0.8595988337052652;0.24935517720593975;0.07689054843828046;0.986;0.016481136860941648
52:36.4;-0.852626886504874;0.2939709150357611;0.10316594825285008;0.986;0.025858287634726352
52:36.4;-0.8417319796510564;0.33949704561386934;0.1209844261989253;0.986;0.03457317749975291
52:36.4;-0.8269661046781069;0.38359356041228454;0.129342150675285;0.9740000000000001;0.041029771195370504
52:36.4;-0.8088481349135167;0.4242714108781988;0.1279943492611917;0.963;0.04392396667092733
52:36.4;-0.788286068264411;0.4599627936980771;0.1174574334222768;0.956;0.042587981921535505
52:36.4;-0.766462528829255;0.48956666642846736;0.09893882432787202;0.9359999999999999;0.037125260789885796
52:36.4;-0.7446986926549933;0.5124651470996967;0.07420374142072711;0.9079999999999999;0.028318531527011255
52:36.4;-0.7243134526491217;0.5285027087878701;0.04539232470626086;0.8740000000000001;0.017376255511948973
52:36.4;-0.7064944617820332;0.537925465581249;0.014805881973702107;0.85;0.005626847555111849
52:36.5;-0.6921962548509417;0.5412872955922258;-0.015314531267699176;0.8340000000000001;0.005738003226103844
52:36.5;-0.6820761697857628;0.5393386835258177;-0.042990395874158906;0.8340000000000001;0.015814879659110374
52:36.5;-0.6764709516117341;0.532919583474506;-0.06666114668605627;0.8340000000000001;0.02403165120586851
52:36.5;-0.6754093850330357;0.5228754807024646;-0.08527328439895697;0.8340000000000001;0.030114687337750027
52:36.5;-0.6786531039751843;0.5100061336956508;-0.09830138863376167;0.848;0.034023805880332283
52:36.5;-0.6857576870766244;0.4950456885116178;-0.10571446027517478;0.868;0.03588809153156216
52:36.5;-0.6961449833061032;0.4786662616291256;-0.1079056613976107;0.883;0.03595644499035115
52:36.5;-0.7091750352706837;0.4614936984285776;-0.1056013885951309;0.885;0.034561202380396484
52:36.5;-0.7242061520290084;0.4441224517044069;-0.09976240694929048;0.8690000000000001;0.03208720264907865
52:36.5;-0.7406372871403626;0.42711816565924754;-0.09148678351552782;0.846;0.02894089611652091
52:36.6;-0.7579350998596176;0.411003506060548;-0.08192108450167418;0.873;0.025519563358273503
52:36.6;-0.7756518319409654;0.39623333358399115;-0.07218329251046555;0.873;0.022184748954308248
52:36.6;-0.7934363239098647;0.3831731046937168;-0.0632991404104292;0.873;0.019244423657874314
52:36.6;-0.8110369505147981;0.3720925487744785;-0.05615185701137847;0.873;0.01694555267107135
52:36.6;-0.8282994439901108;0.3631765975730291;-0.05144244216772647;0.899;0.015474862664716977
52:36.6;-0.8451681156083519;0.3565465929070769;-0.0496562773881952;0.929;0.014963512608007476
52:36.6;-0.8616961278260784;0.3522825688106268;-0.051035232452085015;0.956;0.015492281979349432
52:36.6;-0.878061205890452;0.35043941697060393;-0.05556024959161476;0.9740000000000001;0.017096292003224496
52:36.6;-0.8945764699221286;0.35105251078052346;-0.0629524892165211;0.9840000000000001;0.019769808454652052
52:36.6;-0.9116861808613065;0.3541316325247602;-0.07269913627339895;0.9940000000000001;0.023471418902463594
52:36.7;-0.9299405331778186;0.35964602413669133;-0.08410425442345984;1.034;0.028128618728023694
52:36.7;-0.9499475526064567;0.3675057477938297;-0.09635790145923977;1.034;0.033639621228606996
52:36.7;-0.9723024123236811;0.3775434507586124;-0.10861135377756392;1.034;0.039869751718577554
52:36.7;-0.9974981554456052;0.38949875063624684;-0.12004740450317748;1.055;0.04664133203768028
52:36.7;-1.0258280209854893;0.4030075427322433;-0.12994174665433367;1.078;0.05372005301022036
52:36.7;-1.0572941367515296;0.41759865723555334;-0.13771640008136382;1.099;0.06080518008585847
52:36.7;-1.091537663165792;0.43269906002409997;-0.14298462620851213;1.123;0.06753268572481326
52:36.7;-1.1278040491276926;0.44764870227907827;-0.14558328980545235;1.153;0.07349918245975286
52:36.7;-1.1649557794287748;0.46172862615212223;-0.14558773301580613;1.189;0.07831068530544052
52:36.7;-1.2015424568318556;0.47420919482498636;-0.1433053968247497;1.24;0.08165290454382072
52:36.8;-1.2359308281251438;0.48442513794458086;-0.13924602493542015;1.4469999999999998;0.08336881776058568
52:36.8;-1.2664805882945005;0.49187442870290515;-0.1340691554514055;1.4469999999999998;0.08351830206936522
52:36.8;-1.291730416053966;0.49632056517186535;-0.12851412198860127;1.4469999999999998;0.08239199334529206
52:36.8;-1.3105532175718988;0.4978681978855141;-0.12332022088476974;1.5;0.08046431915534585
52:36.8;-1.3222566131885467;0.49698876054105473;-0.11914322029372212;1.517;0.07829457110124466
52:36.8;-1.326621817334628;0.4944839622708019;-0.11647416202415523;1.501;0.07640625973933213
52:36.8;-1.3238776737368507;0.4913821567724255;-0.11557063978925071;1.442;0.07518215288771407
52:36.8;-1.314609943849479;0.4887732233085794;-0.11641446823602196;1.3659999999999999;0.07480166716432614
52:36.8;-1.2996189712221995;0.48760633485622346;-0.11870769360815123;1.297;0.0752253554741082
52:36.8;-1.2797543864096366;0.48849414226454474;-0.12191168595635685;1.253;0.07621339785136305
52:36.9;-1.2557635446260833;0.4915738313902976;-0.1253244376324624;1.256;0.0773628376307621
52:36.9;-1.22818753485488;0.49646047872986976;-0.1281814947294517;1.256;0.07815822694411925
52:36.9;-1.1973265659779242;0.5022968706974793;-0.12975966090579508;1.256;0.07803919719943227
52:36.9;-1.1632789155680576;0.507880120246069;-0.12946421371289443;1.271;0.07648826473806761
52:36.9;-1.1260399442102778;0.5118415610296915;-0.12688920156087424;1.29;0.07313310431062069
52:36.9;-1.0856356614953602;0.512857122805385;-0.12184946652993625;1.2990000000000002;0.06784285635528672
52:36.9;-1.0422603812323377;0.5098575334381412;-0.11438734491795928;1.2819999999999998;0.06078592777576354
52:36.9;-0.996388307719098;0.5022006891408183;-0.10475742999393177;1.235;0.05241924510067511
52:36.9;-0.9488338705469326;0.48977400045050046;-0.09339213283173992;1.167;0.043400646610007886
52:36.9;-0.9007451078992668;0.47301068184439415;-0.0808506496266844;1.089;0.03444739414272375
52:37.0;-0.8535279072062469;0.45282339095162005;-0.06775518466315265;0.867;0.02618720279101355
52:37.0;-0.8087177216551686;0.4304770765709193;-0.05472203317581245;0.867;0.019050624407565737
52:37.0;-0.7678335440450657;0.40743531445493336;-0.04229982773703022;0.867;0.013233183920877724
52:37.0;-0.7322484267217149;0.3852115597148393;-0.030926673193666054;0.7979999999999999;0.008723503982022719
52:37.0;-0.7030893898901247;0.36524034923403476;-0.02091012776610945;0.7440000000000001;0.005369650015047256
52:37.0;-0.6811628209376379;0.34877139710207056;-0.012426443138499806;0.7120000000000001;0.0029521514473219495
52:37.0;-0.666903734893348;0.3367900918490964;-0.005533631009002551;0.7040000000000001;0.001242889881292847
52:37.0;-0.660353946385355;0.3299702818153868;-0.00019416573731594254;0.711;4.230816618401343e-05
52:37.0;-0.6611725995477913;0.3286611280805802;0.0036959115167201524;0.7240000000000001;0.0008031279754666883
52:37.0;-0.6686762546192775;0.33290277414828234;0.006274480129886256;0.742;0.0013967255053052854
52:37.1;-0.6819010316629582;0.3424606261888251;0.007680581240097464;0.7959999999999999;0.0017936020067004783
52:37.1;-0.6996767292047388;0.356866381219698;0.008025094080216783;0.7959999999999999;0.002003794587551851
52:37.1;-0.7207019913744401;0.37545613719230303;0.007369178416033993;0.7959999999999999;0.0019940406209277652
52:37.1;-0.7436135004844862;0.3974026279051482;0.00571454103456448;0.826;0.0016887266463537717
52:37.1;-0.7670503791787949;0.42174684730188033;0.0030073396250952624;0.871;0.000972877614059909
52:37.1;-0.7897193739524723;0.4474377048447251;-0.0008458522121658127;0.914;0.00029888206876885334
52:37.1;-0.8104627269817932;0.4733844165975709;-0.0059540962825588885;0.9520000000000001;0.0022843511113670245
52:37.1;-0.8283247059841246;0.49851974091388496;-0.012414853216550966;0.985;0.005126542532030233
52:37.1;-0.8426102414267814;0.5218685432299286;-0.020287333739096174;1.016;0.00892098536039836
52:37.1;-0.8529295997004049;0.5426161518679108;-0.029568968120069553;1.04;0.01368491399607708
52:37.2;-0.8592241249119933;0.5601712744272485;-0.040176273261531066;1.0859999999999999;0.019337349477521932
52:37.2;-0.8617687060910029;0.5742158337579653;-0.05193010930465538;1.0859999999999999;0.025697159477803096
52:37.2;-0.8611470019556846;0.5847303109732879;-0.06454437605679328;1.0859999999999999;0.03250059471330449
52:37.2;-0.8581966408464871;0.5919839801902063;-0.0776185617862832;1.077;0.03943323037206201
52:37.2;-0.8539247148879683;0.5964866693103272;-0.09063812922927335;1.042;0.046166957940173614
52:37.2;-0.849399541984767;0.5989070712097703;-0.10298837600864406;1.002;0.052391360116809754
52:37.2;-0.8456321964361507;0.5999694092130606;-0.11398444077602801;0.972;0.05783039919508604
52:37.2;-0.8434676430072995;0.6003466747711974;-0.1229148046528448;0.9640000000000001;0.06224073773197509
52:37.2;-0.8435063852895892;0.6005719760498698;-0.1290919744449247;0.981;0.06539622525794109
52:37.2;-0.8460716176224745;0.6009852713247121;-0.13190438359901482;1.0070000000000001;0.0670702899487319
52:37.3;-0.8512253204018531;0.6017213769945745;-0.13086719293383697;1.0979999999999999;0.06703023798019181
52:37.3;-0.8588220144650097;0.6027313032557153;-0.12567299505198307;1.0979999999999999;0.06505323243191824
52:37.3;-0.8685762234108688;0.6038188922280748;-0.11624313803389973;1.0979999999999999;0.060965193869893054
52:37.3;-0.8801182698668881;0.6046738180443433;-0.10277694495351598;1.0979999999999999;0.054696294448098766
52:37.3;-0.8930253054742198;0.604889734521153;-0.08579223662218953;1.0759999999999998;0.04634340823191195
52:37.3;-0.9068302250766989;0.6039668904596228;-0.066147615385417;1.054;0.036228746732318504
52:37.3;-0.9210208337442845;0.6013082777652243;-0.04503511674394517;1.055;0.024941233575240536
52:37.3;-0.9350445102416947;0.5962255057861217;-0.023932290485626322;1.072;0.013342189387959245
52:37.3;-0.9483309800125675;0.587970477940327;-0.004507466038366455;1.094;0.0025133207809946733
52:37.3;-0.9603388799219797;0.5757997406360367;0.01151926289313331;1.128;0.006369724761615697
52:37.4;-0.9706225423186713;0.5590660671290666;0.022547039506002592;1.189;0.012234973484129734
52:37.4;-0.9789049351408271;0.5373232436890033;0.027276624585935272;1.189;0.0143471874417969
52:37.4;-0.9851344201927815;0.5104258605610797;0.02487823641962292;1.189;0.012509724739399458
52:37.4;-0.9895040422883185;0.4786038668367114;0.01512038783961033;1.168;0.00716072024191437
52:37.4;-0.9924234326806874;0.442492304271354;-0.0015564225705528578;1.119;0.0006834869897950119
52:37.4;-0.9944470147256551;0.40310370086558023;-0.02402940123152547;1.062;0.009632552459486495
52:37.4;-0.9961720321076328;0.3617451692235574;-0.05055079830488039;1.023;0.018216506925191583
52:37.4;-0.9981255047470587;0.31989824507417375;-0.07887231205002634;1.006;0.02518381860593345
52:37.4;-1.000659810928622;0.2790875991469245;-0.10642747961698093;1.005;0.029722187862899783
52:37.4;-1.0038719944341579;0.2407607800117268;-0.1305551256103361;1.001;0.031554260550134564
52:37.5;-1.007555510246006;0.20619006261195982;-0.1487437892515018;1.0;0.03090121487405156
52:37.5;-1.0111890859183912;0.17639959801538502;-0.15887557745797734;1.0;0.028339168710072977
52:37.5;-1.0139665430988463;0.15212044195686636;-0.15944474680058754;1.0;0.024593561135294983
52:37.5;-1.0148713060713301;0.13377496335574995;-0.14972667238414572;1.024;0.020327547615017427
52:37.5;-1.0127963037034733;0.12148598078679727;-0.12987981002763443;1.057;0.01598048355746583
52:37.5;-1.0067012674361793;0.1151027576793345;-0.10096928348863957;1.095;0.01169972404829517
52:37.5;-0.9957856504501938;0.1142399585392617;-0.06490279749640643;1.117;0.007383245630277182
52:37.5;-0.9796422066258793;0.1183287569415697;-0.024275185075397592;1.112;0.002813975680545523
52:37.5;-0.9583514687395472;0.12667551079161785;0.017869626826589467;1.082;0.002169366653606126
52:37.5;-0.932485158307729;0.13851706777112893;0.0583364783107663;1.0290000000000001;0.007535037630373874
52:37.6;-0.9030073618003309;0.1530604515752416;0.0941031438695023;0.816;0.013006439170338273
52:37.6;-0.8710965315586409;0.1695008991387228;0.12262915837594775;0.816;0.018106397000354612
52:37.6;-0.8379475843972745;0.18702159576805755;0.1421038767541566;0.816;0.022269708777595987
52:37.6;-0.8046208838434825;0.2047857031106925;0.15159764973728415;0.816;0.024979480516617317
52:37.6;-0.7719722716490595;0.2219347595909536;0.15110275363662978;0.7959999999999999;0.025888054080094744
52:37.6;-0.7406580475455274;0.23760630557295534;0.14147189231472404;0.795;0.024896934133757143
52:37.6;-0.7111908266987581;0.2509760991632183;0.12427268603448924;0.8;0.022181667779492566
52:37.6;-0.6840203325334419;0.2613188709234031;0.10158221364954068;0.8009999999999999;0.01815755870793368
52:37.6;-0.6596128321912359;0.2680724175099787;0.07575074036166009;0.7859999999999999;0.013394549409582748
52:37.6;-0.638503824441696;0.2708870949866107;0.0491650689636803;0.759;0.008503710592641824
52:37.7;-0.6213062535677368;0.26964693893119707;0.02403686402820366;0.654;0.004026975859300956
52:37.7;-0.6086722399772441;0.2644590914272618;0.002233042701918235;0.654;0.00035945044426568667
52:37.7;-0.6012233559260788;0.2556207612163725;-0.014841907078391982;0.654;0.002280981040709337
52:37.7;-0.5994707866753812;0.243578404265589;-0.026309044709653197;0.626;0.0038415977111234552
52:37.7;-0.6037403788673861;0.2288887189711853;-0.031828863805638874;0.61;0.004398410379625798
52:37.7;-0.6141113518964423;0.21218367096190996;-0.031575747604321566;0.605;0.004114458878490388
52:37.7;-0.6303782031426237;0.19413946211299446;-0.026182169413979314;0.625;0.0032042075444550493
52:37.7;-0.6520455724977134;0.17545013556256656;-0.016660230850295114;0.6559999999999999;0.001905955134517364
52:37.7;-0.6783597257221251;0.1568058643717652;-0.0043082292580263;0.698;0.00045826972015243603
52:37.7;-0.708371363135402;0.13887273852308255;0.009389911376203128;0.733;0.0009237181753040382
52:37.8;-0.7410174763704008;0.12226796886019489;0.022866257105356863;0.805;0.0020717446721001905
52:37.8;-0.7752056857512694;0.10752705772518621;0.03456812663990394;0.805;0.0028814464709899664
52:37.8;-0.8098841310958915;0.0950672066941794;0.04305338355790392;0.805;0.003314827332643168
52:37.8;-0.8440884821713258;0.08515530544465175;0.04708155447794571;0.8240000000000001;0.0033841568112354136
52:37.8;-0.8769733324249259;0.07788615679450235;0.04570124347874808;0.851;0.0031215815037296804
52:37.8;-0.9078455226758348;0.07317602299769342;0.03833075752217578;0.894;0.0025464090014456742
52:37.8;-0.9362139324054035;0.07078166146965283;0.024821478157393783;0.9470000000000001;0.0016448393734217993
52:37.8;-0.9618587215778369;0.07035590013246727;0.005488674621085439;1.0070000000000001;0.0003714319828812531
52:37.8;-0.9849098893695428;0.0715403924013882;-0.01890396751017237;1.063;0.00133198942944736
52:37.8;-1.005914074523932;0.07407998977367425;-0.04721395814284901;1.103;0.0035182946598508054
52:37.9;-1.025863270550208;0.07793135726154193;-0.07804281532692475;1.122;0.006239282482411524
52:37.9;-1.0461629421779768;0.08333717727913983;-0.10989532569201145;1.122;0.009581143370495539
52:37.9;-1.0685294950657098;0.09084605661269614;-0.14133887494551647;1.122;0.013720003595150769
52:37.9;-1.0948222921667732;0.1012708490989311;-0.1711233697290738;1.122;0.018973061160882026
52:37.9;-1.1268269431987115;0.1155880746217805;-0.19824538407800463;1.117;0.025821016571378152
52:37.9;-1.1660136589663266;0.1347880858638522;-0.22196725182703825;1.115;0.0348854274602757
52:37.9;-1.2133001523278766;0.1596936676642277;-0.2418105106950942;1.135;0.04685232225894931
52:37.9;-1.2688533741302268;0.19077551067231033;-0.257537074181665;1.159;0.06234100813706489
52:37.9;-1.3319656605781298;0.2280034581474133;-0.26912315145354027;1.229;0.08173075715140314
52:37.9;-1.4010357259724735;0.2707756717750854;-0.27672479798114297;1.3659999999999999;0.10498008760068041
52:38.0;-1.473667859395204;0.3179527102314216;-0.28063151254844354;1.6640000000000001;0.13149177259449357
52:38.0;-1.5468688112054463;0.3679845088031953;-0.28120919789390775;1.6640000000000001;0.1600709568801978
52:38.0;-1.617287967232538;0.4190776007562423;-0.2788450622396827;1.6640000000000001;0.1889925838942672
52:38.0;-1.6814481104780936;0.46934672727651927;-0.2739132306130986;1.742;0.21616743710741326
52:38.0;-1.7359526068159856;0.5169319991969482;-0.2667716608986257;1.8359999999999999;0.23939273903036026
52:38.0;-1.7776840970680077;0.5600976316331192;-0.2577839493019894;1.9340000000000002;0.2566694597246116
52:38.0;-1.80400267695933;0.597331165703531;-0.24734698382302495;2.008;0.2665378996887424
52:38.0;-1.8129291525250575;0.6274428983955703;-0.23590560825536058;2.04;0.26834487569456084
52:38.0;-1.803287028257424;0.649646611608536;-0.22394701940799705;2.019;0.26235377819012273
52:38.0;-1.774780133999169;0.6635987545017038;-0.21198053832190977;1.9680000000000002;0.24965835909101047
52:38.1;-1.7279951677654608;0.6693856582981574;-0.20051269922422665;1.912;0.23193207330508864
52:38.1;-1.6643329072019815;0.6674667145123925;-0.19002243631003704;1.764;0.2110934195117952
52:38.1;-1.5858844111125512;0.6585918035056539;-0.18093469754100572;1.764;0.1889773306940868
52:38.1;-1.4952746200107065;0.6437087663851391;-0.17359033426178394;1.6569999999999998;0.16708440827129506
52:38.1;-1.3954909749968145;0.6238691776411954;-0.16821396618325207;1.412;0.146447719345835
52:38.1;-1.2897092299811197;0.6001391020139712;-0.16488453174972156;1.412;0.12762144196207056
52:38.1;-1.1811327531987117;0.5735261842487237;-0.1635140236850895;1.308;0.11076612652132005
52:38.1;-1.0728596102668686;0.5449347783108133;-0.16383875801202327;1.218;0.09578644799999617
52:38.1;-0.967774005276149;0.5151519750275277;-0.16542517489303668;1.125;0.08247283511909945
52:38.1;-0.8684456385803365;0.48485605111284796;-0.16769116110224322;1.031;0.07060990551046153
52:38.2;-0.7770263689526569;0.45463292713199677;-0.16994452372183994;0.76;0.06003490368950913
52:38.2;-0.695153803895735;0.4249903520463603;-0.17143861586731945;0.76;0.0506487377242744
52:38.2;-0.6238930927244962;0.3963711933603461;-0.1714398807170588;0.76;0.04239592522941357
52:38.2;-0.5637463809246909;0.3691727196923992;-0.16929827121035684;0.7;0.03523431974806946
52:38.2;-0.5147287638551614;0.34377159736553015;-0.1645122300479293;0.65;0.029110295876131034
52:38.2;-0.47648392396430284;0.32054724051274713;-0.15678127860562643;0.619;0.02394608375021637
52:38.2;-0.4484133207205222;0.2998983787301231;-0.14603859773810107;0.603;0.01963904103436075
52:38.2;-0.4298027414980466;0.2822517488963823;-0.13245636497468746;0.585;0.016068622772246258
52:38.2;-0.41993300211379786;0.2680610149724931;-0.11642070781945026;0.56;0.013105207442606383
52:38.2;-0.4181615921626351;0.2577918577914958;-0.09847942146639607;0.541;0.01061594905129693
52:38.3;-0.42396587829583054;0.2518905387281696;-0.07927114359045549;0.51;0.008465602721106934
52:38.3;-0.4369456082244026;0.25073871199253694;-0.059448807297447566;0.51;0.006513162521047146
52:38.3;-0.45678942883398743;0.2546035887856929;-0.039612345494207245;0.51;0.00460692480864965
52:38.3;-0.4832152511086943;0.26359482007890067;-0.020261810845684874;0.534;0.0025808083860878782
52:38.3;-0.5158970916154905;0.277636000537531;-0.0017725152871059659;0.569;0.00025388020982271124
52:38.3;-0.5543908078825766;0.29645286591883896;0.015612528335898474;0.605;0.002565930645163204
52:38.3;-0.5980689527205738;0.31957584171718084;0.0317759804618487;0.637;0.006073291953634093
52:38.3;-0.6460740225590659;0.3463531938195787;0.046704805544466814;0.682;0.010451125049770797
52:38.3;-0.6973009279668637;0.3759726010379862;0.060453413478935056;0.7340000000000001;0.015848832233518743
52:38.3;-0.7504207476186886;0.407491573320145;0.07309365430719995;0.804;0.022351318133119656
52:38.4;-0.8039528469193992;0.4398771911894208;0.08465787744609124;1.055;0.02993845581496981
52:38.4;-0.8563743834390767;0.47204976557562167;0.09508352760424724;1.055;0.038437642204855134
52:38.4;-0.9062318836883748;0.5029165285363334;0.104167689359122;1.055;0.04747536120477314
52:38.4;-0.9522164245662278;0.5313826351492238;0.11153927722480508;1.055;0.056437900863374545
52:38.4;-0.9931933125477542;0.5563422979750957;0.116656514459153;1.078;0.06445919282331387
52:38.4;-1.028209930801265;0.576670036682601;0.11883662362263858;1.112;0.07046273312367282
52:38.4;-1.0565128318817611;0.5912383689229511;0.11732137763125677;1.188;0.07328490687989551
52:38.4;-1.0775900833730103;0.5989822690897645;0.1113762777939955;1.298;0.07188863748391391
52:38.4;-1.0912318953210876;0.5990123781983331;0.10041332379804366;1.396;0.06563631509598161
52:38.4;-1.097581564564994;0.5907501535008325;0.08411800959406905;1.44;0.054541821135836804
52:38.5;-1.0971407823057389;0.5740348762831718;0.06255413166155593;1.172;0.039396409039273404
52:38.5;-1.0907102510626692;0.5491616381389862;0.03622501175695624;1.172;0.021697920908992405
52:38.5;-1.079282214278007;0.516853272908104;0.006088669843607444;1.172;0.003396446016217076
52:38.5;-1.0639244739268563;0.47820360137513446;-0.026462014133302274;1.172;0.013463145483173523
52:38.5;-1.0456858536180749;0.4346191117070824;-0.05965082370594113;1.112;0.02710981149336494
52:38.5;-1.0255302540758573;0.3877571191980661;-0.0914116518080717;1.082;0.036350451866187114
52:38.5;-1.0042955068585409;0.33945003668933416;-0.11953151144644908;1.061;0.04074926603349
52:38.5;-0.9826729929283137;0.291615001629838;-0.1418355435625534;1.034;0.04064470347739518
52:38.5;-0.9612040954734391;0.2461540330271208;-0.1563948525480658;1.003;0.03700368908420915
52:38.5;-0.9402893370636498;0.2048480045535735;-0.1617345123883433;0.973;0.03115271862636425
52:38.6;-0.9202083265899813;0.16924684252756084;-0.1570179118294343;0.9490000000000001;0.024454339168115142
52:38.6;-0.901151565071606;0.14056299994063617;-0.14218231002534898;0.934;0.0180100295187797
52:38.6;-0.8832644932807867;0.11958295939256008;-0.11800307880959508;0.934;0.012463884274162673
52:38.6;-0.8666985478181197;0.10661609787729845;-0.08607215387348446;0.932;0.007953412787335676
52:38.6;-0.8516572589646599;0.10149438504966735;-0.04868620332847965;0.872;0.004208358967259663
52:38.6;-0.8384241779114595;0.10362001223840318;-0.008652905682561664;0.872;0.0007517430174390274
52:38.6;-0.8273659223343567;0.1120428709369615;0.030960188607289836;0.836;0.0028700235167173063
52:38.6;-0.8189128030571435;0.1255477917683183;0.06710173861492993;0.815;0.00689891052409245
52:38.6;-0.8135263686125542;0.14274151140607672;0.09700946199115307;0.82;0.011265125156275771
52:38.6;-0.8116667894205567;0.16214029534920027;0.11845531504972513;0.847;0.015589180602558688
52:38.7;-0.8137707809979915;0.1822621392987385;0.12993724705839158;0.9079999999999999;0.019272240956240614
52:38.7;-0.8202404780885892;0.201720743667401;0.13079537178055706;0.9079999999999999;0.021641339331814526
52:38.7;-0.8314315591138633;0.21930788249939723;0.12124205565948476;0.9079999999999999;0.02210721516199754
52:38.7;-0.8476260630091825;0.23404854215914306;0.10230675190503283;0.8959999999999999;0.0202961908973596
52:38.7;-0.8689843385999985;0.24522377843057128;0.0757027704045339;0.8859999999999999;0.016131929015251987
52:38.7;-0.8954830913084812;0.2523687597717427;0.04363048169240125;0.89;0.009860137949066828
52:38.7;-0.9268546884331034;0.2552580396542883;0.008542750169379807;0.9129999999999999;0.002021104580977841
52:38.7;-0.9625452313847782;0.253888267443214;-0.02709431288359517;0.955;0.006621279493192334
52:38.7;-1.0017061325601764;0.24846434057808878;-0.061015294413977655;1.004;0.015185990074441052
52:38.7;-1.0432274388150038;0.23938955984327867;-0.09132426057245152;1.051;0.02280711603106173
52:38.8;-1.0858124731337822;0.22725519471040712;-0.11660918680278644;1.197;0.028774077718648795
52:38.8;-1.1280813219414931;0.2128234773321053;-0.13599994237311552;1.197;0.03265116395707359
52:38.8;-1.1686785471001877;0.1970012845316153;-0.14917072431624712;1.197;0.034343751132436345
52:38.8;-1.2063620823838248;0.18080423424158562;-0.15629045321537538;1.239;0.034089350424937014
52:38.8;-1.240068139853496;0.16530915157459822;-0.15793017285938168;1.274;0.03237483452322704
52:38.8;-1.268960451575677;0.15159200865881697;-0.15494338105077737;1.304;0.029805569420775987
52:38.8;-1.292469044741802;0.1406527642467382;-0.14833980809656286;1.3230000000000002;0.0269665963801566
52:38.8;-1.3103158430201094;0.1333348235644505;-0.1391725873921376;1.337;0.024314944581817818
52:38.8;-1.322522753782847;0.13025118130031002;-0.12845229899151034;1.347;0.02212721241758883
52:38.8;-1.3294004462896238;0.1317304843655195;-0.11709227303882945;1.3530000000000002;0.020505499161752965
52:38.9;-1.331518138321849;0.13779350332939322;-0.10588242437916462;1.359;0.01942673006274669
52:38.9;-1.3296553193774854;0.14816369295451223;-0.09548515268900915;1.354;0.018811209337529756
52:38.9;-1.324736403631954;0.1623062345034324;-0.08644523853589871;1.354;0.01858684811819774
52:38.9;-1.317749783379455;0.1794824923048808;-0.07920531308673294;1.3330000000000002;0.01873308743029283
52:38.9;-1.3096542536332358;0.1988064768203043;-0.07411957516952297;1.3019999999999998;0.01929834687090613
52:38.9;-1.3012796040589298;0.21929654732068085;-0.07146119116416345;1.266;0.02039260315815957
52:38.9;-1.293234760108624;0.23992370190916198;-0.07142234742738258;1.245;0.022160759623039747
52:38.9;-1.2858425529638593;0.25966364077227133;-0.0741084648284688;1.256;0.024743820296749795
52:38.9;-1.2791192326293552;0.27756137351552884;-0.07952888050305576;1.276;0.028235463805502157
52:38.9;-1.2728075547509259;0.2928122658166216;-0.08758660887335373;1.2919999999999998;0.03264297418317397
52:39.0;-1.266459006387413;0.3048533922241774;-0.09807061131312628;1.365;0.03786352569369622
52:39.0;-1.2595484110943065;0.31344842886431185;-0.11065340271808974;1.365;0.043686347419725095
52:39.0;-1.251595400974475;0.31874281783810315;-0.12489359299856016;1.365;0.04982468091776578
52:39.0;-1.2422654285966457;0.32126808038211374;-0.14024137894977684;1.37;0.05597036653411252
52:39.0;-1.2314292420425563;0.3218844827437734;-0.15604806277948932;1.341;0.06185401350593382
52:39.0;-1.219169577872499;0.32166350184238457;-0.17158349803624853;1.286;0.06728858879912251
52:39.0;-1.2057345314526537;0.3217236590771765;-0.1860635677359795;1.232;0.0721765372840932
52:39.0;-1.1914495690594173;0.32304729963893863;-0.19868589362874245;1.19;0.0764731207867594
52:39.0;-1.1766113598313754;0.3263169836028155;-0.2086696572937852;1.1640000000000001;0.0801183538804166
52:39.0;-1.1613906985871492;0.33180937668176047;-0.2152957236278092;1.157;0.0829664297661348
52:39.1;-1.1457674545232683;0.3393695024845471;-0.21794548542364098;1.17;0.08474560239120159
52:39.1;-1.1295113078990622;0.3484639865079919;-0.21613879068147412;1.17;0.08507093402308454
52:39.1;-1.1122122636092773;0.35828941836317;-0.20957101311801785;1.17;0.08351276720601426
52:39.1;-1.0933563387086565;0.36790513639573813;-0.1981472133677012;1.19;0.07970499654366588
52:39.1;-1.07243407635354;0.37636959791880414;-0.18200894163952872;1.2;0.07346455707242193
52:39.1;-1.0490628240095574;0.3828693368973951;-0.161547800255407;1.2009999999999998;0.06488631819164975
52:39.1;-1.0230997157541009;0.38682902860416996;-0.13740079074633127;1.187;0.05437837849896386
52:39.1;-0.9947226573176472;0.38798807465089075;-0.11042545471546757;1.156;0.04261765836646534
52:39.1;-0.9644614177242401;0.38643185736734503;-0.08165504154920793;1.11;0.030432721057310087
52:39.1;-0.9331689022319659;0.3825733899491158;-0.05223392738560356;1.057;0.018647804081132743
52:39.2;-0.9019334424997186;0.37708960980585365;-0.023334554555325827;0.903;0.007936309047220301
52:39.2;-0.8719480192747064;0.3708247778435506;0.003935684479908292;0.903;0.001272563946355657
52:39.2;-0.8443669791937528;0.3646798703509675;0.028619066429072644;0.903;0.008812487122580457
52:39.2;-0.8201807366420362;0.3595067529704651;0.04996508580805935;0.86;0.0147327308573918
52:39.2;-0.8001221606700359;0.3560187717362742;0.06745594466071891;0.831;0.01921539981119276
52:39.2;-0.7846043664446072;0.3547229792433814;0.08080752952880879;0.816;0.0224901252274851
52:39.2;-0.7736896667301552;0.3558779953862234;0.08995475238185845;0.81;0.02476806304851946
52:39.2;-0.7670932938675505;0.35948126932459196;0.09502628506598593;0.8140000000000001;0.026204036998146916
52:39.2;-0.764224132285162;0.36528704237041126;0.09631182992536402;0.831;0.026886523414830086
52:39.2;-0.7642597506953989;0.3728531176557887;0.09422503975700042;0.853;0.02685004986102649
52:39.3;-0.7662474202331302;0.38161132771205686;0.08926513447908647;0.904;0.02610190151694106
52:39.3;-0.7692175597781044;0.39095166282991656;0.0819803034233122;0.904;0.024653681203869862
52:39.3;-0.7722932050138587;0.400304762688301;0.07293657098017987;0.904;0.022548534066149276
52:39.3;-0.7747813879759092;0.40920809364707056;0.06269519613132947;0.9129999999999999;0.019877312234621143
52:39.3;-0.776238630068165;0.41734907481662137;0.051798916367235416;0.9179999999999999;0.016780905101814653
52:39.3;-0.7765080127020185;0.424586019801022;0.04076510968335758;0.9159999999999999;0.013440030271803337
52:39.3;-0.775727358306939;0.4309497839748009;0.03008372015399684;0.9109999999999999;0.010056973733330926
52:39.3;-0.774309355699121;0.4366285837794218;0.020217570405789465;0.9059999999999999;0.006835269368336136
52:39.3;-0.7728963705956826;0.4419389789759723;0.011601609421120485;0.903;0.003962796916206669
52:39.3;-0.7722941610453292;0.44728666398307954;0.004636874360388355;0.9;0.0016017474069391182
52:39.4;-0.7733893960608663;0.4531202124302912;-0.00032455331254107044;0.893;0.00011373593299233046
52:39.4;-0.7770566330040638;0.4598798237366233;-0.00300440806661703;0.893;0.001073633236621606
52:39.4;-0.7840615403164453;0.46794273193921787;-0.00322876732260648;0.893;0.0011846214900841005
52:39.4;-0.7949678469477687;0.47756800499538526;-0.0009570552152922128;0.894;0.0003633471692805502
52:39.4;-0.810055601279873;0.48884536090723985;0.0036962782224072514;0.9059999999999999;0.0014636963203565382
52:39.4;-0.8292586231292801;0.5016535392680478;0.010450485978966634;0.927;0.0043474076355855375
52:39.4;-0.8521292108483939;0.5156325193474947;0.018859709536589702;0.953;0.008286683504315736
52:39.4;-0.8778369866316692;0.530171299065324;0.028328189297979155;0.985;0.013184051919981904
52:39.4;-0.9052061974355808;0.5444111763770125;0.038139895425475315;1.01;0.01879550716789785
52:39.4;-0.93279311814144;0.5572652176627026;0.047501899480658694;1.032;0.02469211247577321
52:39.5;-0.9590021013064045;0.5674573150451512;0.0556000682033598;1.162;0.030257154434441904
52:39.5;-0.982231065687736;0.5735854366967197;0.0616636467963289;1.162;0.03474089376776895
52:39.5;-1.0010253442963266;0.5742108092311103;0.06503179937116693;1.162;0.03738025051056961
52:39.5;-1.0142159333589442;0.5679708862911929;0.06521397792393843;1.162;0.03756619390585474
52:39.5;-1.0210312573169946;0.5537127960007658;0.06193933773174922;1.187;0.03501790457913738
52:39.5;-1.02118548183435;0.5306427085429953;0.05519419844852657;1.214;0.029908887804722416
52:39.5;-1.014945809415221;0.4984802486356417;0.04524655807092045;1.238;0.02289161100747064
52:39.5;-1.003170095156061;0.4575958872269012;0.03265409301315089;1.255;0.01498974742616513
52:39.5;-0.9872958255439434;0.4090977933187117;0.018249902334520986;1.245;0.007371145473246092
52:39.5;-0.9692577075147883;0.3548283552565222;0.0030997439075629474;1.177;0.0010660642910080413
52:39.6;-0.9513184660436378;0.29723890219012356;-0.011572859529446502;0.8640000000000001;0.0032724442553452955
52:39.6;-0.9358225412318004;0.23914878322630384;-0.024488712944020323;0.8640000000000001;0.005480594087850858
52:39.6;-0.9249167953782267;0.1834515949647065;-0.03442563463251077;0.8640000000000001;0.005841254288835602
52:39.6;-0.9202961986484142;0.13285334718366984;-0.04032167039423578;0.8640000000000001;0.004929906063158812
52:39.6;-0.9230126846200118;0.08968673663695152;-0.0413582150130952;0.8490000000000001;0.0034237155715041894
52:39.6;-0.9333579751067026;0.05579117373744492;-0.03702403537637824;0.855;0.0019279576645368402
52:39.6;-0.950820727377807;0.03243155548853098;-0.027164628379685512;0.875;0.0008376646485486012
52:39.6;-0.9741193983959595;0.020242423940717697;-0.012017219746401167;0.915;0.00023696200219534993
52:39.6;-1.001311267278049;0.019199763343555647;0.007775279924222612;0.965;0.000149479285088882
52:39.6;-1.0299720340866843;0.02863050933113802;0.031183429725911132;1.018;0.0009195564321201078
52:39.7;-1.0574313139477212;0.047270171092495046;0.05685433419681582;1.146;0.00284186157112699
52:39.7;-1.081038006458199;0.07336949246146379;0.08321796244615776;1.146;0.006600450155987202
52:39.7;-1.0984204993279174;0.10483544144195292;0.10861993699474988;1.146;0.012507954828532357
52:39.7;-1.1077102639902034;0.13938637950233168;0.13145908876905812;1.185;0.020297246922689763
52:39.7;-1.1077128622426664;0.17471226643955265;0.15031834123384158;1.226;0.02909126261419714
52:39.7;-1.098020409970789;0.20863982542594509;0.16408522082894694;1.25;0.037590412317412995
52:39.7;-1.0790563033713205;0.23929544377126824;0.17205242926384218;1.239;0.04442621812971819
52:39.7;-1.0520390753922244;0.26524508971521416;0.17398008341044147;1.1909999999999998;0.048548828926474684
52:39.7;-1.0188590295223032;0.2855858309408341;0.17010146653875044;1.1179999999999999;0.049494713326341644
52:39.7;-0.981876259331876;0.2999712934149568;0.16106464170982293;1.038;0.04743912455518058
52:39.8;-0.9436645732650527;0.3085687516759849;0.14781873401129678;0.873;0.043042657097927414
52:39.8;-0.906739917413369;0.31196168994117957;0.13147017944647313;0.873;0.037188722098178875
52:39.8;-0.873319556401894;0.3110220902380218;0.1131429675954671;0.873;0.030732082245789136
52:39.8;-0.8451485787652426;0.3067767540046295;0.09387083085346115;0.841;0.024338072203744236
52:39.8;-0.8234047641421962;0.3002840654844465;0.07453204156719105;0.823;0.01842844454190635
52:39.8;-0.8086722571152066;0.29253033205815315;0.05582307404786082;0.8240000000000001;0.013205571369244962
52:39.8;-0.8009698127403572;0.2843518085759498;0.038262724029388774;0.8340000000000001;0.00871461145817584
52:39.8;-0.7998208232463172;0.27638562413360845;0.022217321068016525;0.84;0.0049113382764850695
52:39.8;-0.8043520368033811;0.26904802180204734;0.007935412453256173;0.843;0.0017172972473239302
52:39.8;-0.8134084553220685;0.262535157968173;-0.004420976651549281;0.845;0.0009440921248079184
52:39.9;-0.8256751119698;0.25684265919726046;-0.014758193354473727;0.895;0.0031297492761639717
52:39.9;-0.8397985932732801;0.2518024691745095;-0.023047781000534836;0.895;0.00487376119698468
52:39.9;-0.8545003487030869;0.24713550826402433;-0.029331966762760002;0.895;0.006194247832206174
52:39.9;-0.8686747385301559;0.24251651869516472;-0.03372915059697092;0.92;0.007105651803019219
52:39.9;-0.8814698578512102;0.23764536193148125;-0.03643473268665751;0.943;0.007632246638549279
52:39.9;-0.892352223066551;0.23231727850629255;-0.03771663025894793;0.961;0.00781899086512143
52:39.9;-0.9011535850330961;0.2264828724819839;-0.037905369244426945;0.9740000000000001;0.007736328649727815
52:39.9;-0.9080942780306329;0.22028801937272208;-0.03737827558586847;0.98;0.007477235841124175
52:39.9;-0.9137768953816205;0.21408582188324457;-0.036538061668903846;0.981;0.0071478196126318954
52:39.9;-0.9191459471186845;0.20841685226149467;-0.035787464399939066;0.976;0.0068556436928554395
52:40.0;-0.9254122153962995;0.2039590900592322;-0.035502812655802095;0.955;0.006701022163246869
52:40.0;-0.933944824676273;0.20145461821310248;-0.03600987460943628;0.955;0.006775167814201439
52:40.0;-0.9461389584114225;0.2016248990493906;-0.037564806517804084;0.955;0.0071660567756290355
52:40.0;-0.9632706226889838;0.205087027342035;-0.04034213191568078;0.9590000000000001;0.007969761975357242
52:40.0;-0.9863508067060955;0.2122791746820022;-0.04443113415104458;0.971;0.00930306796520519
52:40.0;-1.0159910838492803;0.22339896058686168;-0.049841717571907605;0.9940000000000001;0.011312642028155014
52:40.0;-1.0522923722418358;0.23835698994378085;-0.05651986530923533;1.02;0.01417638283648543
52:40.0;-1.094768239129361;0.2567484176783547;-0.06437077335674697;1.051;0.018093337819722204
52:40.0;-1.1423140347936376;0.2778471823769083;-0.07328522438335777;1.084;0.023259904731359755
52:40.1;-1.1932338467327614;0.3006304833480511;-0.08316315774505541;1.124;0.029832493200507886
52:40.1;-1.2453355787432518;0.32384225456655574;-0.09392836581832885;1.3730000000000002;0.03788058494958274
52:40.1;-1.296091308119794;0.3460969929399722;-0.1055292476289971;1.3730000000000002;0.04733760331090963
52:40.1;-1.3428373718833553;0.36600982925224657;-0.11792229736083541;1.3730000000000002;0.057957827708748764
52:40.1;-1.382980944991549;0.3823306084368599;-0.1310384745307953;1.4569999999999999;0.06928737258326507
52:40.1;-1.4141972608669362;0.39406687855735023;-0.1447376174109596;1.538;0.0806605807897947
52:40.1;-1.4346155113537282;0.40058773571543277;-0.15875999728367649;1.599;0.09123768429907503
52:40.1;-1.4429820572523784;0.4016960400611801;-0.1726854187323203;1.632;0.10009540689994681
52:40.1;-1.4387743179088435;0.3976507018515985;-0.18591007638450555;1.62;0.10636466085826513
52:40.1;-1.4222368606379978;0.3891254161342585;-0.19765030817547768;1.564;0.10938531560148645
52:40.2;-1.39432274819051;0.3771059119216946;-0.20697932744727457;1.493;0.10883125197399929
52:40.2;-1.3565434237224554;0.36274772523933674;-0.21289709495338072;1.264;0.10476304993531918
52:40.2;-1.3107589672216728;0.3472299204757246;-0.21442543328881353;1.264;0.09759246210342928
52:40.2;-1.2589673938497945;0.33163796604056056;-0.21071367396571836;1.264;0.08797746516280518
52:40.2;-1.2031499336768738;0.3168929125088204;-0.20113909896248508;1.264;0.07668824123804187
52:40.2;-1.1451912181710673;0.30372586470972085;-0.185390955595911;1.209;0.06448345951908781
52:40.2;-1.0868532273106264;0.2926857030696308;-0.1635316601626402;1.153;0.05202046785880802
52:40.2;-1.0297712483041284;0.2841643704981704;-0.13603107082900767;1.094;0.03980599667982142
52:40.2;-0.975451705190369;0.2784250902109651;-0.1037701598528341;1.042;0.02818296147925768
52:40.2;-0.925263679400773;0.2756236414092978;-0.0680097691840633;0.995;0.017344160413170683
52:40.3;-0.8804196373263732;0.27581984376959917;-0.030319427393672757;0.956;0.0073626850606324035
52:40.3;-0.8419408663122327;0.27898209704324817;0.007535887947603766;0.847;0.001770077805364242
52:40.3;-0.8106080413638816;0.2849887902731944;0.04374151831770041;0.847;0.010104912083768906
52:40.3;-0.7869076953326101;0.29362744977768884;0.07658604160482196;0.847;0.017695794609304375
52:40.3;-0.7709888506395488;0.3045908292687726;0.10459379903243154;0.813;0.024562403339597933
52:40.3;-0.7626361512720515;0.3174719656436681;0.12662589598881133;0.79;0.030658104531549164
52:40.3;-0.7612607580954088;0.331764863350629;0.1419527303144747;0.8009999999999999;0.03585152072497246
52:40.3;-0.7659149865249361;0.3468793498053168;0.15029957458622986;0.838;0.03993160488357743
52:40.3;-0.7753391691780516;0.3621751106039208;0.15185964897424484;0.878;0.04264348773365471
52:40.3;-0.7880419756051833;0.3770115550719003;0.14726715280119101;0.912;0.04375320815654079
52:40.4;-0.8024054019458271;0.39080188060882737;0.1375256159661313;0.927;0.04312549445663817
52:40.4;-0.8168007251681264;0.40305736220496985;0.12389350290240143;0.948;0.04078791495783895
52:40.4;-0.8297020304332221;0.41341285149956375;0.10774162214850068;0.948;0.03695639803492899
52:40.4;-0.839786457562126;0.4216331921968935;0.09041142374204175;0.948;0.03201304371551129
52:40.4;-0.8460148245895054;0.4276074646970838;0.07310508849183027;0.958;0.02644666160913633
52:40.4;-0.8476921730268536;0.43134001703810576;0.05682223804807517;0.97;0.02077668520003224
52:40.4;-0.8445107803717439;0.4329440863197203;0.042337927021881605;0.977;0.015479844711994584
52:40.4;-0.8365761730258119;0.43263822349791187;0.03020518538739793;0.983;0.010932308617723603
52:40.4;-0.8244123649734768;0.43074146881018244;0.020765695417821247;0.9740000000000001;0.007374076882363451
52:40.4;-0.8089391318353888;0.42766270125584177;0.014162425600733022;0.951;0.004899534958974512
52:40.5;-0.7914141227449847;0.42388155123985816;0.010358563679266226;0.927;0.0034749443282406606
52:40.5;-0.7733382625250231;0.4199200082070564;0.009167641995280985;0.831;0.0029771019825933593
52:40.5;-0.7563338835388159;0.41630615414888233;0.01029319733409251;0.831;0.0032409825069109645
52:40.5;-0.7420153514423512;0.41353612641006265;0.013371620391111465;0.831;0.004103083778545639
52:40.5;-0.7318719093295049;0.4120432504420721;0.018011881342944795;0.838;0.005431714819694521
52:40.5;-0.7271710723640675;0.41217862309312897;0.023828138505861747;0.8320000000000001;0.007141873834352602
52:40.5;-0.7288802197580448;0.41419869917850116;0.03046265123718257;0.826;0.009196712148096784
52:40.5;-0.737602780379158;0.41825158022683157;0.03759630915625965;0.826;0.011598594032278668
52:40.5;-0.7535299562463824;0.424357234909539;0.04494474432731267;0.8320000000000001;0.014371796110159886
52:40.5;-0.7764133950144464;0.4323824902990526;0.05224056700577308;0.8420000000000001;0.017537553138230307
52:40.6;-0.8055670218316802;0.4420147885797166;0.0592055088003619;0.866;0.02108145571354976
52:40.6;-0.8399057096922286;0.4527397301363353;0.06551897929613086;0.986;0.024914160866841287
52:40.6;-0.8780201264006261;0.4638278863183899;0.07079127975000575;0.986;0.02882976420791413
52:40.6;-0.9182737816050455;0.47433693780558633;0.07455009394423905;0.986;0.03247187191379427
52:40.6;-0.9589058907009522;0.4831363594023073;0.0762478051466467;1.034;0.03532425861779275
52:40.6;-0.9981372299339343;0.48896293447160316;0.07529490935615572;1.099;0.036747839304761054
52:40.6;-1.03428602320469;0.4905136658219221;0.07112130363200052;1.169;0.03608207258622166
52:40.6;-1.0658936465586857;0.4865754143919417;0.0632620253316625;1.227;0.03281006769499791
52:40.6;-1.0918468675439983;0.47617828796772693;0.05145681296501161;1.281;0.026753105729399308
52:40.6;-1.1114770439699488;0.45874714062649485;0.03574514121905583;1.331;0.018225979810776866
52:40.6;-1.1246159278175327;0.43421748242836744;0.01653343981438872;1.359;0.008073739892682593
52:40.7;-1.1315898660160766;0.40308296953846223;-0.005387065322141924;1.169;0.0024571730340549806
52:40.7;-1.133145423449016;0.3663604546139939;-0.02888042621398841;1.169;0.011989410679516024
52:40.7;-1.1303212304360093;0.32549350456096177;-0.052551144602238545;1.169;0.019334208199227123
52:40.7;-1.1242961692105027;0.2822344836772183;-0.07485075245552826;1.169;0.023751277654520377
52:40.7;-1.116238993200316;0.23852635014334586;-0.09419343845447305;1.101;0.025079230271218927
52:40.7;-1.107171961366077;0.1963776652008684;-0.1090837512265513;1.062;0.02371740859131328
52:40.7;-1.097859014885821;0.15772477175955144;-0.11825736737428542;1.053;0.020477394002494927
52:40.7;-1.0887336047923561;0.1242949150291066;-0.12082148757181174;1.06;0.016350053133618966
52:40.7;-1.079878934040007;0.09749377611217303;-0.11637185964736141;1.075;0.012251801034907573
52:40.7;-1.0710619959381746;0.0783324593739333;-0.10506463813173943;1.087;0.008814809699260151
52:40.8;-1.0618103960089695;0.06739448746394529;-0.08762921293470692;1.0759999999999998;0.0062707611487457455
52:40.8;-1.0515141824396055;0.06483408777467853;-0.06532031600686933;1.0759999999999998;0.004453144793576316
52:40.8;-1.0395346770470042;0.07039561440848142;-0.03982087909860276;1.0759999999999998;0.0029140394600510634
52:40.8;-1.0253055611264903;0.08344751651842339;-0.013111053167154519;1.061;0.0011217712561753844
52:40.8;-1.0084151751871389;0.10302864721160668;0.012688773595669901;1.038;0.0013183083972653276
52:40.8;-0.9886630252614083;0.12790688426752864;0.0354972619581297;1.0190000000000001;0.004488870409852431
52:40.8;-0.9660884949471563;0.15664936633734877;0.053461853379727614;1.003;0.008090764554105722
52:40.8;-0.9409740796111548;0.1877018644819911;0.06513623957271265;0.982;0.011504531282275783
52:40.8;-0.9138274017812645;0.21947413781241645;0.06961863757946361;0.9590000000000001;0.013962817066166764
52:40.8;-0.8853466106191106;0.250429062196862;0.06662636947046369;0.937;0.01477216687360265
52:40.9;-0.856374132304911;0.2791736076442991;0.056491667061748324;0.8959999999999999;0.01350586145015312
52:40.9;-0.8278451737883796;0.3045453772144832;0.04008269961937081;0.8959999999999999;0.010105506761094079
52:40.9;-0.8007383055313676;0.32568094630004213;0.01867573776722434;0.8959999999999999;0.004870356178426321
52:40.9;-0.7760309025617865;0.34205183680173085;-0.006189002554658389;0.8859999999999999;0.0016428261403078845
52:40.9;-0.7546525701954683;0.3534637341252533;-0.03284874473585621;0.873;0.008762150229762367
52:40.9;-0.7374254016095289;0.36002330877151756;-0.059651599635516174;0.7809999999999999;0.015836923054772755
52:40.9;-0.7249890881371804;0.3620793676942434;-0.08507626991245537;0.7809999999999999;0.022332826328400245
52:40.9;-0.7177247797807792;0.3601473301037041;-0.10782575037487828;0.7809999999999999;0.02787151842007084
52:40.9;-0.7156987905066536;0.3548287830156292;-0.12688522867546545;0.7490000000000001;0.03222257117804577
52:40.9;-0.7186417088651493;0.34673701485564107;-0.141545806307723;0.736;0.035270338846037017
52:41.0;-0.7259708705232637;0.33643757794605766;-0.15140413591730809;0.81;0.03697953380710543
52:41.0;-0.736857829354315;0.32441274135095205;-0.15634739583406237;0.81;0.03737423027976577
52:41.0;-0.7503321633505788;0.3110565250764374;-0.15652831777797413;0.81;0.03653303870578787
52:41.0;-0.7654053008938092;0.2967006143887334;-0.15233210239779757;0.853;0.03459404510100072
52:41.0;-0.7812007385635408;0.28166377624927696;-0.14433642718474232;0.888;0.03175920287989602
52:41.0;-0.797080428320051;0.26631190750271766;-0.13326561374111495;0.9179999999999999;0.02828855959929036
52:41.0;-0.8127527810178911;0.251113942624704;-0.1199398640255696;0.94;0.02447895326165328
52:41.0;-0.8283427518595637;0.23668015331350306;-0.10522105636058458;0.946;0.02062882900375884
52:41.0;-0.8444065503649347;0.22377197021064515;-0.08995827721506079;0.943;0.016998022860360038
52:41.0;-0.8618820272267989;0.21327489274923622;-0.07493828039878155;0.925;0.013774989607824023
52:41.1;-0.8819770880229721;0.20613031102378743;-0.060847017055689005;0.91;0.011062122262078871
52:41.1;-0.9060087906693725;0.20323197900321371;-0.0482471378781838;0.91;0.008883743544564506
52:41.1;-0.9352122356711476;0.2053059742868908;-0.03757278374400321;0.91;0.007214149538319063
52:41.1;-0.9705414922976391;0.21279861651786522;-0.029138130271213588;0.91;0.0060178947474716455
52:41.1;-1.012487123068468;0.22579046740501943;-0.0231521648658266;0.955;0.0052928150384236846
52:41.1;-1.0609352746662302;0.24394484427476978;-0.01973126791124464;1.018;0.005106643338599609
52:41.1;-1.1150874356402503;0.2664935746912139;-0.01890423649276442;1.087;0.005617651667439077
52:41.1;-1.173448376667983;0.29225948929782997;-0.0206101697021726;1.149;0.007068287033450908
52:41.1;-1.2338801297198416;0.3197130998755352;-0.02469476315605754;1.195;0.009741778866130766
52:41.2;-1.29371832182905;0.34706215700250137;-0.030911723544523772;1.247;0.013879384623385784
52:41.2;-1.3499495354196842;0.37237573979681005;-0.03893299390431083;1.495;0.01957116662982275
52:41.2;-1.3994411369444903;0.39374058070346435;-0.04836663270685745;1.495;0.026650825532613717
52:41.2;-1.4391967489933748;0.4094339578605742;-0.058777474353753675;1.495;0.034634980666849835
52:41.2;-1.4666043486567093;0.4180894487843255;-0.06970597402960942;1.568;0.04274173782541716
52:41.2;-1.4796601893583123;0.41883877470732417;-0.08068410173228739;1.63;0.05000308942051038
52:41.2;-1.4771637892412415;0.41142090294512396;-0.09124856058055897;1.6740000000000002;0.05545504068493212
52:41.2;-1.4588687719472955;0.39624648201210716;-0.10094953160390628;1.6869999999999998;0.058356059131327215
52:41.2;-1.4255582990251607;0.37439922154524097;-0.10935286858526372;1.6440000000000001;0.05836467881417579
52:41.2;-1.3790117896383962;0.34755612561544474;-0.1160383723386693;1.538;0.0556153346427967
52:41.3;-1.3218440835761018;0.31781887407253556;-0.12060271645228303;1.396;0.05066604520061164
52:41.3;-1.2572263238165247;0.2874703583397336;-0.12267658596398397;1.062;0.04433719534262682
52:41.3;-1.1885374361483165;0.25869891590653643;-0.12195877134778259;1.062;0.037499071530341765
52:41.3;-1.1190287574412368;0.23335146857889927;-0.11825944776626467;1.062;0.03088073528173141
52:41.3;-1.0515778969280973;0.2127674348725699;-0.11153928099854825;1.006;0.02495596957511807
52:41.3;-0.9885587465804542;0.19771277515301305;-0.10193382134824167;0.972;0.019923036041836557
52:41.3;-0.9318086023873193;0.188403233743598;-0.0897589965893974;0.9490000000000001;0.015757708317343015
52:41.3;-0.8826600928687007;0.18459183029744897;-0.0754982482902326;0.9279999999999999;0.012301068667223627
52:41.3;-0.8420090628512806;0.18569229403165596;-0.059774109816260544;0.9079999999999999;0.009345956700503186
52:41.3;-0.8103923771957809;0.1909112064441392;-0.04330740973201372;0.885;0.006700218693909474
52:41.4;-0.7880528399706278;0.19936687024507568;-0.026866605961872514;0.8590000000000001;0.004221056209367817
52:41.4;-0.7749756934428826;0.21018157721790903;-0.011209770953377666;0.8009999999999999;0.001825910419533642
52:41.4;-0.7708927759451101;0.22254285161153675;0.0029756838823927073;0.8009999999999999;0.0005104984376110452
52:41.4;-0.7752631254807987;0.23573578076386234;0.015126854809648075;0.8009999999999999;0.0027645425099382874
52:41.4;-0.7872454358921753;0.24915267694077128;0.024844739088483142;0.795;0.004873154150036534
52:41.4;-0.8056764532820878;0.2622889095147496;0.03191674896846;0.797;0.006744647339450313
52:41.4;-0.8290674217803783;0.2747343971117861;0.03632355863656572;0.8170000000000001;0.008273538209145226
52:41.4;-0.855631728517585;0.28616848489110447;0.03823012345460249;0.856;0.00936083058482863
52:41.4;-0.88335562635462;0.29636231099250876;0.037959286112995046;0.912;0.009937487341038583
52:41.4;-0.9101160458909326;0.3051880488224727;0.03594813761971337;0.978;0.009984830333591786
52:41.5;-0.9338370489898198;0.31262989314702233;0.0326903218569645;1.028;0.009543788333631436
52:41.5;-0.9526641852759085;0.3187894714521561;0.028670360734068367;1.087;0.008707168832466562
52:41.5;-0.9651284011074122;0.3238796999655038;0.024299522161840288;1.0759999999999998;0.0075956782113075485
52:41.5;-0.9702719080087223;0.32820484397766264;0.019865465074625062;1.0759999999999998;0.00632611643380979
52:41.5;-0.9677183919235492;0.33212822207981146;0.015506172989784912;1.0759999999999998;0.004983786168834888
52:41.5;-0.9576832469586296;0.3360310587597379;0.01121232414637246;1.047;0.003608252782593782
52:41.5;-0.940928368157271;0.3402669805964902;0.006855617744113364;1.003;0.002194941570778426
52:41.5;-0.9186709494077592;0.345117978834806;0.002236187603330154;0.961;0.0007089829694181466
52:41.5;-0.8924611450369049;0.3507594509500256;-0.002860595826123117;0.927;0.0008954785752320294
52:41.5;-0.864047548900315;0.35724248614573506;-0.008608792034969137;0.905;0.00265731452979846
52:41.6;-0.8352478767750087;0.3644992621059266;-0.015097707088730478;0.8909999999999999;0.004596455174380935
52:41.6;-0.8078359806980409;0.37237222504679013;-0.022305285670386834;0.866;0.006709779712340248
52:41.6;-0.7834507271757187;0.3806601229982274;-0.030090149666673487;0.866;0.008973738700468149
52:41.6;-0.7635297682300889;0.3891665334146953;-0.038197328534480685;0.866;0.011349963103044302
52:41.6;-0.7492676450168998;0.39773569535349085;-0.046270886488181076;0.866;0.01378920945312715
52:41.6;-0.7415905336642422;0.4062683596666828;-0.053871096617534864;0.863;0.016230540935536122
52:41.6;-0.7411352425178658;0.41471920622637365;-0.06049912946548532;0.856;0.018595195108628716
52:41.6;-0.7482233588297404;0.4230803372629513;-0.06563288530340879;0.846;0.020776653695023586
52:41.6;-0.7628302279224414;0.43135505730742696;-0.0687743789645129;0.843;0.022630255936610666
52:41.6;-0.7845573198561114;0.4395272307005781;-0.0695051048131351;0.847;0.023967744590189913
52:41.7;-0.8126224932249402;0.44753365051677946;-0.06754245671363758;0.867;0.024563564468743124
52:41.7;-0.8458827994036706;0.4552469249367509;-0.0627885622469817;1.016;0.02417896760498883
52:41.7;-0.8828939358765538;0.462471655992056;-0.05536461339362354;1.016;0.022606114674402985
52:41.7;-0.921993135830392;0.46894837361960656;-0.04562845367139367;1.016;0.019728245911751145
52:41.7;-0.9613866344880871;0.47435515834474157;-0.03417612862591148;1.0659999999999998;0.015585637585145577
52:41.7;-0.9992358072880398;0.4783009529512402;-0.021826485049347425;1.101;0.01043165071058819
52:41.7;-1.0337481883957493;0.4803124729328982;-0.009585382413533147;1.123;0.004759354672637171
52:41.7;-1.0632773480595603;0.4798230999623435;0.001413420907316094;1.156;0.000721106192617466
52:41.7;-1.0864282427509069;0.47617669813758384;0.009990940346023118;1.198;0.005168631286744837
52:41.7;-1.1021604926514845;0.4686594964972057;0.015025865897870548;1.2229999999999999;0.0077614304418542595
52:41.8;-1.1098796275602836;0.4565660140172292;0.015569459393527578;1.239;0.00788956381162925
52:41.8;-1.1095051057562284;0.439294151636828;0.010958990689904705;1.251;0.005341402244865953
52:41.8;-1.1015051311375896;0.41645636721823387;0.0009140851851393038;1.22;0.00041931722328151876
52:41.8;-1.086891647467741;0.38799003336284826;-0.014396407500304432;1.22;0.0060710100541506665
52:41.8;-1.0671722805381507;0.3542490656677093;-0.03432325495524112;1.22;0.012975727481262644
52:41.8;-1.0442563708899206;0.3160582483812067;-0.05774463596525954;1.1640000000000001;0.019058376850564458
52:41.8;-1.020311008040059;0.2747113895162293;-0.08311711467278055;1.081;0.02329698374002453
52:41.8;-0.9975679168015427;0.23190037869178004;-0.10857203787499611;0.9940000000000001;0.025116661959016847
52:41.8;-0.9780963677243467;0.1895780687976385;-0.13205183086956526;0.92;0.02448579267598372
52:41.8;-0.9635733196212367;0.14977658300229577;-0.15147299096154457;0.872;0.02186069100782766
52:41.9;-0.9550905443670614;0.11441362465188123;-0.16489934988615787;0.851;0.018019437645006187
52:41.9;-0.9530353425412537;0.0851189877543699;-0.17070931011798596;0.9470000000000001;0.01384817885310767
52:41.9;-0.9570644644403425;0.06310495820674475;-0.16774311610738474;0.9470000000000001;0.010130931554500728
52:41.9;-0.9661650699912503;0.04909237363595253;-0.1554203921229002;0.9470000000000001;0.007371796934842066
52:41.9;-0.9787802749857173;0.04329222259844994;-0.13382148344343173;0.9470000000000001;0.0056704944698758065
52:41.9;-0.9929812359459772;0.045434202960920156;-0.10372559620339494;1.008;0.0046796125324506475
52:41.9;-1.006677482205574;0.054831089001006444;-0.06659606927123753;1.063;0.0036759180613228164
52:41.9;-1.0178525079679586;0.07046916054505968;-0.024503794066182413;1.109;0.0017575888267706808
52:41.9;-1.0247960249248511;0.0911159514220792;0.020013851095651743;1.1420000000000001;0.0018687986462164441
52:41.9;-1.0262944759796238;0.11543575125543869;0.06415204151170664;1.155;0.00760016124717769
52:42.0;-1.0217445969309;0.14210239525104754;0.10508021658519455;1.156;0.015256844063542241
52:42.0;-1.0111688960304506;0.1698988224897827;0.1402028975534932;1.026;0.024086353738568933
52:42.0;-0.9951370789879103;0.197792162931827;0.1674070942462524;1.026;0.03295079113836853
52:42.0;-0.9746275328769881;0.22497251569046614;0.1852577472582308;1.026;0.04062043026748999
52:42.0;-0.9508747889135889;0.25084910180509884;0.1931093608753794;1.026;0.04606162016016614
52:42.0;-0.925230575958615;0.2750105678450977;0.19112194791983628;0.97;0.048630632968665696
52:42.0;-0.8990416059021262;0.29716743219588115;0.18018824276191983;0.9209999999999999;0.048140151427545665
52:42.0;-0.8735424529489416;0.317095817605006;0.16178871571649112;0.892;0.04481493360905567
52:42.0;-0.8497707273911714;0.3345953005636831;0.1377969146458788;0.879;0.03917969917300926
52:42.0;-0.828515075697815;0.3494665256836709;0.11026337508266544;0.879;0.03192546851761408
52:42.1;-0.8102996415015008;0.361508940700042;0.08120796299075418;0.884;0.02378829448534621
52:42.1;-0.795399419288672;0.3705348060800626;0.052445899789657094;0.877;0.0154570218176046
52:42.1;-0.7838763340856575;0.37639208017251513;0.025464593409521074;0.877;0.007513196989641026
52:42.1;-0.7756263676548851;0.37898762333927366;0.0013595491053087303;0.877;0.00039964325764629333
52:42.1;-0.7704301367585468;0.37830489015426305;-0.01917229983489266;0.865;0.00558791035400662
52:42.1;-0.7680008636849102;0.37441525100474293;-0.03579325975035515;0.855;0.010292396086997004
52:42.1;-0.7680259668460307;0.3674858076312236;-0.04845578361109027;0.856;0.013676094597754663
52:42.1;-0.770201911122923;0.35778685710929536;-0.057318993275356916;0.8590000000000001;0.015795287281393976
52:42.1;-0.7742638956595976;0.34569921223567823;-0.06266433734494274;0.863;0.01677288810574838
52:42.1;-0.7800112851350797;0.33171755135377584;-0.06482310885309985;0.8590000000000001;0.01677255375695524
52:42.2;-0.787328545431672;0.3164438238459155;-0.06412623996842771;0.8540000000000001;0.01597674844371743
52:42.2;-0.7962013456779118;0.3005665603666516;-0.06088138433027913;0.872;0.01456961539578806
52:42.2;-0.8067267134203729;0.2848276793818855;-0.055375483757540075;0.872;0.012724073315856397
52:42.2;-0.8191136552951604;0.26998419590870915;-0.04789557652720152;0.872;0.010591998580792352
52:42.2;-0.8336701312315462;0.25677195222534027;-0.03875833360807591;0.884;0.008296729318483992
52:42.2;-0.8507758375512101;0.2458722642659022;-0.028339257606874932;0.897;0.005928067730037602
52:42.2;-0.8708433913948775;0.23787854644680692;-0.017093490803597605;0.9059999999999999;0.0035410014058645405
52:42.2;-0.8942702114038525;0.23326262633539296;-0.00556094671858243;0.92;0.0011600124743247166
52:42.2;-0.9213829257696883;0.23234435633786796;0.0056491587504030015;0.941;0.0012093613008473721
52:42.2;-0.9523777606405098;0.23526840087981166;0.01589401351669557;0.966;0.003561282487445791
52:42.3;-0.9872623438001152;0.24198961441263855;0.024546684657666244;0.996;0.005864380532986164
52:42.3;-1.0258053318426694;0.25226609462382865;0.031049404668241125;1.03;0.008034837789886564
52:42.3;-1.0674995665235163;0.26565807787328916;0.03496083714543099;1.13;0.009914539714718111
52:42.3;-1.1115400873933499;0.2815309803449188;0.03599008488968776;1.13;0.011262484172952144
52:42.3;-1.1568127722417862;0.2990622474416575;0.03401389477603808;1.13;0.011767413959424617
52:42.3;-1.2018927632523904;0.31725552718951766;0.02907673695976356;1.161;0.011087166893992386
52:42.3;-1.2450657041390358;0.3349710483169779;0.021375415299953213;1.213;0.008914851313869357
52:42.3;-1.2843936415318098;0.3509833882873116;0.011231768409827139;1.28;0.005063290546222279
52:42.3;-1.3178400291490187;0.3640733776485642;-0.0009407428486000278;1.3619999999999999;0.0004513594540554009
52:42.3;-1.3434507492564867;0.3731508899100142;-0.014670086450111365;1.4409999999999998;0.007354258729752064
52:42.4;-1.3595701461816554;0.3773944156721456;-0.029453514203649424;1.5230000000000001;0.015112426744462606
52:42.4;-1.3650570161210962;0.3763852744572421;-0.044777453588293145;1.555;0.02300608965154029
52:42.4;-1.3594587542257708;0.37020934547026274;-0.060127680744585354;1.555;0.03026131985445149
52:42.4;-1.3431056762513303;0.3594974078869735;-0.0749892159415527;1.555;0.0362080186775662
52:42.4;-1.3170998866714234;0.345379495859322;-0.08883892590069488;1.454;0.04041276474789693
52:42.4;-1.283189812367111;0.32934271458752334;-0.10113868837496048;1.321;0.04274214181516918
52:42.4;-1.2435437223962817;0.31300639321628765;-0.11133874780581633;1.192;0.04333717524983925
52:42.4;-1.2004622970332441;0.2978567420719119;-0.1188967808402361;1.094;0.0425134212238862
52:42.4;-1.1560898771978474;0.2850017315667191;-0.12331049358990806;1.038;0.04062928066530692
52:42.4;-1.1121845184787946;0.27500540537943785;-0.12415568638410825;1.015;0.03797385527290503
52:42.5;-1.0699887776510815;0.26784045630021486;-0.12112151492432463;1.0190000000000001;0.034711764685926585
52:42.5;-1.0302155499336039;0.2629666703601414;-0.11403953071245389;1.064;0.03089471759112158
52:42.5;-0.9931360047510261;0.25950893705322636;-0.10290870326990807;1.064;0.026522420207620717
52:42.5;-0.9587368119511088;0.25648281984900145;-0.08792027645724475;1.064;0.021619553868981362
52:42.5;-0.9269052258597356;0.2530117840178573;-0.0694825220685348;1.057;0.016294898275745387
52:42.5;-0.8976023637960852;0.24849784813955447;-0.04823958295930118;1.038;0.01075994780218315
52:42.5;-0.8709928082734779;0.24272804649735732;-0.02507549531697849;1.0;0.005301320367484954
52:42.5;-0.8475091813215258;0.2359103787872049;-0.0010953698281330354;0.9490000000000001;0.00021900409416636545
52:42.5;-0.8278427762420085;0.22864004146638692;0.0224217514941015;0.897;0.004243944429248736
52:42.5;-0.8128643929572438;0.22180549640495104;0.044100857414428186;0.851;0.007951287137296446
52:42.6;-0.8034903310516035;0.21645191724384447;0.06257740059968914;0.82;0.010883275197036897
52:42.6;-0.8005153342106838;0.2136233204006299;0.07662253060494129;0.762;0.013103122699835486
52:42.6;-0.8044385866093141;0.21420529002501731;0.08526984803653481;0.762;0.01469327392853528
52:42.6;-0.8153116205999418;0.2187897599797658;0.08792276352052714;0.762;0.01568382378777715
52:42.6;-0.8326352998545178;0.22758051003639182;0.08442536152724084;0.772;0.01599789398408095
52:42.6;-0.8553254739684268;0.24035196629808603;0.07508871236415826;0.809;0.01543667437524684
52:42.6;-0.8817569105802199;0.25646706302577604;0.0606721211494632;0.875;0.013720490865152498
52:42.6;-0.9098843400282237;0.274952792372094;0.04232235852265149;0.9520000000000001;0.010588006201887691
52:42.6;-0.9374266828596526;0.2946225604969616;0.021476685185042876;1.022;0.005931582316064542
52:42.6;-0.9620884229587279;0.3142242773307479;-0.0002608702372144455;1.082;7.886408300441661e-05
52:42.7;-0.9817859429642585;0.33258735749894813;-0.02125815414645593;1.129;0.00694141640862066
52:42.7;-0.9948481371046897;0.3487435878071513;-0.03999637191851178;1.13;0.013876617594629319
52:42.7;-1.0001681546259553;0.36200555038239834;-0.05520094009836352;1.13;0.0199864069436775
52:42.7;-0.9972942643266229;0.37199853970382385;-0.06594524947775164;1.13;0.02446516065268058
52:42.7;-0.9864577081258419;0.3786522467952043;-0.07171289944831169;1.13;0.0267865197144027
52:42.7;-0.9685391401742364;0.3821630033957187;-0.07241342085479317;1.089;0.02680309104705474
52:42.7;-0.9449753527704086;0.3829370796705933;-0.06835568710750112;1.032;0.024735606039745558
52:42.7;-0.9176122817820074;0.3815239639217066;-0.06018705619827995;0.973;0.021070951210880644
52:42.7;-0.8885202581106401;0.37854750782758856;-0.04880825105001349;0.925;0.016416515129857156
52:42.7;-0.8597959788786462;0.37464194777743864;-0.035276218259310266;0.884;0.011363021629078405
52:42.8;-0.8333769579321896;0.3703984181022266;-0.020706872513080142;0.848;0.006391828610543003
52:42.8;-0.8108897123916617;0.3663256235050603;-0.006186035399669457;0.826;0.0018375598327590962
52:42.8;-0.7935465058772588;0.36282632741656273;0.007305662338784898;0.826;0.002103443117956565
52:42.8;-0.7820982576930813;0.36018939658630683;0.01894754089509519;0.826;0.005337588577250955
52:42.8;-0.7768432302544318;0.3585953903861655;0.028107972568014155;0.826;0.007830105417373657
52:42.8;-0.7776842359251387;0.35813269506597056;0.03434830431917971;0.856;0.00956648882681265
52:42.8;-0.7842226231904768;0.3588206841331988;0.037407518587651685;0.9;0.010526299846620138
52:42.8;-0.7958729107350321;0.36063438758885286;0.03717374212785388;0.9390000000000001;0.010669575487251936
52:42.8;-0.8119765536412066;0.36352128682093066;0.0336459892103482;0.96;0.009931312261621418
52:42.8;-0.8318906999293832;0.3673991536734577;0.026888648596175038;0.9790000000000001;0.00821813736489918
52:42.9;-0.8550316373411735;0.37212835914975695;0.016983504573498513;0.965;0.005403837303942315
52:42.9;-0.8808633053857112;0.37746105889016096;0.0039871653245321355;0.934;0.001325698962223208
52:42.9;-0.9088369243384959;0.38297936153224;-0.012095998976725812;0.934;0.004210203379436177
52:42.9;-0.9383033774165447;0.38804290798424385;-0.03131394012743905;0.934;0.011401467324690565
52:42.9;-0.9684289690420737;0.39176907710765285;-0.05373139578772363;0.934;0.020385719687342724
52:42.9;-0.9981458500149788;0.39306321747873313;-0.07936014140916539;0.99;0.031135714996912638
52:42.9;-1.0261621347711665;0.39070536285880253;-0.10806851520153198;1.0590000000000002;0.04332759091309184
52:42.9;-1.0510427438518084;0.3834879057081924;-0.1394905678577862;1.1340000000000001;0.056223372460799455
52:42.9;-1.0713519392608104;0.3703868624666924;-0.1729558933510727;1.199;0.06863143805888326
52:42.9;-1.0858303507454001;0.35073954944955704;-0.20745815190643604;1.2590000000000001;0.07900911937919775
52:43.0;-1.0935696881781123;0.32439496648987404;-0.24167531606192194;1.306;0.08573395642814256
52:43.0;-1.0941483331253328;0.29180215090508893;-0.274047065897674;1.2109999999999999;0.08749633229897087
52:43.0;-1.087701693402051;0.25401484897002125;-0.302901102678217;1.2109999999999999;0.08368926697976245
52:43.0;-1.074920894368049;0.2126178652573939;-0.32660426754497857;1.2109999999999999;0.07464455156501729
52:43.0;-1.0569894132349393;0.1695975341918739;-0.3437114127314051;1.151;0.061614669602857865
52:43.0;-1.0354703459112928;0.12717274945180118;-0.35309822886353487;1.112;0.046497249766908874
52:43.0;-1.0121560590603997;0.08759718979426265;-0.3540745747548473;1.077;0.031392969296935636
52:43.0;-0.9888958181297215;0.05295382923201279;-0.346471194000921;1.045;0.018143248277766474
52:43.0;-0.9674204730303627;0.02497241273503952;-0.33068645790657575;0.995;0.007988995717773546
52:43.0;-0.9491824591251626;0.0048954706719437245;-0.3076815305529448;0.953;0.0014297021960664005
52:43.1;-0.9352280444791963;-0.006593989893804641;-0.2789188956469992;0.93;0.0017200605512028317
52:43.1;-0.92611747967895;-0.009380891758842526;-0.24624571604880044;0.9129999999999999;0.00213933546069213
52:43.1;-0.9219021120595863;-0.003870883625815812;-0.21173459956074694;0.9129999999999999;0.0007555909659351901
52:43.1;-0.9221550787168855;0.009092721911305491;-0.1775109117171409;0.9129999999999999;0.0014884111886057138
52:43.1;-0.9260431506016927;0.02832442828836226;-0.14559955533062452;0.9129999999999999;0.0038190243297840714
52:43.1;-0.9324283550339394;0.05239163912682075;-0.11780377432918128;0.9309999999999999;0.0057548851783244355
52:43.1;-0.9399930844204345;0.07971108167016022;-0.09560593268234652;0.955;0.007163548467092207
52:43.1;-0.9473823721376159;0.10865282439777273;-0.08007967637433012;0.987;0.008243063190376806
52:43.1;-0.9533513871254736;0.13765216590819956;-0.07181851694687098;1.034;0.00942480741690956
52:43.1;-0.9568996593820323;0.16532081597992687;-0.07089783877402239;1.063;0.011215714268168314
52:43.2;-0.9573694740732254;0.19054244280908308;-0.07688680080059115;1.063;0.014025653162654816
52:43.2;-0.9544883252029778;0.21253625490794936;-0.08891641645765402;0.985;0.01803788424587765
52:43.2;-0.9483492726147592;0.23087734577323588;-0.10579443802404395;0.985;0.02316394218992752
52:43.2;-0.9393436113564099;0.24547307436647814;-0.12614259174718748;0.985;0.029086408398224354
52:43.2;-0.9280706895383772;0.2565055203465716;-0.1485290477227832;0.965;0.03535812035111713
52:43.2;-0.9152432310718468;0.2643555587626927;-0.17158112158740832;0.953;0.04151398987029682
52:43.2;-0.901596518536483;0.2695237241925802;-0.1940745125390942;0.9420000000000001;0.047160427040682934
52:43.2;-0.8878072558808702;0.27255922117270054;-0.21499623480261518;0.9329999999999999;0.05202480055342062
52:43.2;-0.8744286364451485;0.2740033414147694;-0.23357714316125;0.925;0.05596423519940786
52:43.2;-0.8618465150179461;0.2743492681347829;-0.2492937896175994;0.9129999999999999;0.05894475886143086
52:43.3;-0.8502588074221856;0.2740180902368226;-0.26184543782605135;0.898;0.061006398321422566
52:43.3;-0.8396788444681049;0.2733500130041749;-0.2711164613332941;0.9;0.06222833737778309
52:43.3;-0.8299632372862208;0.2726088274608702;-0.2771350968109869;0.9;0.06270328584193414
52:43.3;-0.820863849293439;0.2719964998878638;-0.28003597598037716;0.9;0.06252421872231105
52:43.3;-0.8121006800024037;0.2716742518960609;-0.28002920280776256;0.9;0.061781959440435054
52:43.3;-0.8034490487979188;0.2717872028678475;-0.2773768802752487;0.912;0.06057000426362601
52:43.3;-0.7948315949526056;0.2724902359453185;-0.2723779938042668;0.9209999999999999;0.05899267423892461
52:43.3;-0.7864029616947873;0.2739720510948136;-0.2653617613005847;0.9209999999999999;0.05717283693883769
52:43.3;-0.7786128871228898;0.2764734421124703;-0.2566880215162871;0.927;0.055256148445638295
52:43.3;-0.772233441564005;0.2802958552600725;-0.24675164361454036;0.922;0.05341033905043843
52:43.4;-0.7683389107268448;0.28579638550532505;-0.23598627390842733;0.92;0.05181986802117086
52:43.4;-0.7682319351713011;0.2933650664223864;-0.22486239780720743;0.851;0.05067778111691761
52:43.4;-0.7733182644955101;0.30338173064506974;-0.2138775047263467;0.851;0.05017793685858417
52:43.4;-0.784944314605573;0.31615448106801153;-0.20354014742273233;0.851;0.05051126844032536
52:43.4;-0.804219671279943;0.33184780630278576;-0.19435019677669035;0.8420000000000001;0.051867895540030046
52:43.4;-0.8318462150621213;0.3504125431304201;-0.18677439441533056;0.85;0.054442746397677357
52:43.4;-0.867972247172157;0.3715313018580292;-0.18121508953492807;0.879;0.05843803530110009
52:43.4;-0.912089069243779;0.3945907737691004;-0.17797397332649711;0.925;0.0640531767710387
52:43.4;-0.9629863396056728;0.4186860287561678;-0.1772180257840386;0.976;0.07145234553260793
52:43.4;-1.0187787580421876;0.4426550700039339;-0.1789571510833749;1.031;0.08070387378794225
52:43.5;-1.0770120306286708;0.4651400272404201;-0.18304128918224627;1.088;0.09169662145023338
52:43.5;-1.134848938728311;0.48467418431684883;-0.18918008293015004;1.395;0.10405509629078741
52:43.5;-1.1893169022684202;0.49979338695903264;-0.19698059111184557;1.395;0.11708776949216117
52:43.5;-1.2375697368487468;0.5091620584893229;-0.20599051148177727;1.395;0.12979947333719583
52:43.5;-1.2771098682255297;0.5116982489958827;-0.215732793528531;1.395;0.140980276740913
52:43.5;-1.3059489821925394;0.5066876465983963;-0.2257250886421265;1.452;0.1493641457941473
52:43.5;-1.322720279243656;0.4938838991680794;-0.2354869261121537;1.493;0.15383660286260542
52:43.5;-1.326759517094607;0.4735900722561641;-0.24454148895938552;1.518;0.1536552323245913
52:43.5;-1.3181545422190686;0.44670671147869073;-0.25241801155336346;1.52;0.1486309142633091
52:43.5;-1.297748835473453;0.41472539800969505;-0.258658933449712;1.505;0.13921266997368378
52:43.6;-1.2670811348833855;0.3796469488336023;-0.2628347138389387;1.474;0.12643492719272018
52:43.6;-1.2282490912980495;0.3438124232389172;-0.2645679059592201;1.155;0.11172366572706759
52:43.6;-1.183706132860124;0.3096598520653074;-0.26356538784788275;1.155;0.09660890875991689
52:43.6;-1.1360333013656825;0.2794553184876149;-0.25965408486704494;1.155;0.08243252462504115
52:43.6;-1.087738957059673;0.255061020956066;-0.25281351084337866;1.155;0.07014053214111671
52:43.6;-1.0411099009629348;0.23777664624113456;-0.24319874889819354;1.081;0.06020424442235988
52:43.6;-0.9981010733739608;0.22825522695947142;-0.23114799895404395;1.01;0.0526605501904576
52:43.6;-0.9602450365407955;0.22648395083425052;-0.2171688941857217;0.956;0.04722991057555951
52:43.6;-0.9285796232646212;0.23182605269509082;-0.2019000301380298;0.919;0.043462807225169924
52:43.6;-0.9036059089796905;0.2431211926281816;-0.18604981646354085;0.898;0.040872492770773546
52:43.7;-0.8852893656971345;0.25883523172530415;-0.17032141675182766;0.895;0.0390281440246961
52:43.7;-0.8731100147542683;0.27724226137634594;-0.1553372089932155;0.945;0.03760139003153723
52:43.7;-0.866157925828889;0.2966147714119821;-0.14157745480481365;0.945;0.036373405096856604
52:43.7;-0.8632614004268243;0.31539409633628307;-0.12934496225999886;0.945;0.0352164358874873
52:43.7;-0.8631309229147163;0.33231891521637463;-0.11876066196950037;0.97;0.03406468264730046
52:43.7;-0.8645036066208228;0.34650396835541236;-0.10978720525998871;0.993;0.03288718883795641
52:43.7;-0.8662751185042381;0.3574724207769679;-0.10227291556896918;1.002;0.031670798912267636
52:43.7;-0.8676059262625643;0.36514735171784374;-0.09600676867739243;1.002;0.030415328949825626
52:43.7;-0.8679895879660919;0.36980718265094104;-0.09077407873424567;1.004;0.029137461160348405
52:43.8;-0.8672745579858995;0.372011780727848;-0.08640251250874653;0.998;0.027876591499617707
52:43.8;-0.8656354540818734;0.37250815177198654;-0.08279063678529011;0.977;0.026696359358144763
52:43.8;-0.8634952054024838;0.37212465744489737;-0.07991556029171083;0.895;0.025679095770703035
52:43.8;-0.861409237386615;0.37166336544427386;-0.07782095584399241;0.892;0.024914710234375678
52:43.8;-0.8599345049834014;0.37180338657522916;-0.07659169196377094;0.892;0.024488398286972576
52:43.8;-0.859509881267143;0.3730289611729629;-0.07632444770233178;0.892;0.024471303034215547
52:43.8;-0.8603661630514955;0.37559093335600097;-0.07710226172881716;0.8959999999999999;0.024915266667080303
52:43.8;-0.862472791098351;0.37950298245940206;-0.07897649913658686;0.904;0.025849876633418166
52:43.8;-0.8655228834949136;0.38456860873385296;-0.08195599389695997;0.915;0.02727929279251742
52:43.8;-0.8689567740914824;0.39043181596661447;-0.08600147441806945;0.932;0.02917758015564951
52:43.9;-0.8720222938686615;0.3966436696314567;-0.09102366686776496;0.9570000000000001;0.03148345910674488
52:43.9;-0.8738663657579973;0.40273718328296165;-0.09688557794893296;0.98;0.03409776291239259
52:43.9;-0.8736481216489983;0.4083021916054745;-0.10341147746665685;1.01;0.036888160736685494
52:43.9;-0.8706599274744744;0.4130507389612953;-0.11040314824512998;1.01;0.039703922790666146
52:43.9;-0.8644408948585931;0.4168647758202463;-0.11765779801005649;1.01;0.0423985710773745
52:43.9;-0.8548688204407118;0.4198219782811171;-0.12497864066549444;1.014;0.04485392421138849
52:43.9;-0.8422197982009337;0.4221993678616685;-0.13217377193198546;1.0090000000000001;0.04699896659939905
52:43.9;-0.8271873879394687;0.42445555039950705;-0.13904676243390462;0.99;0.04881991313695658
52:43.9;-0.8108554337561282;0.42719176894416244;-0.14538640692002605;0.96;0.05036050901956087
52:43.9;-0.794623102716417;0.43109242891014576;-0.15096276405303777;0.9229999999999999;0.051713201118963735
52:44.0;-0.780087953884633;0.4368485454676763;-0.15553429665049226;0.893;0.053003022405088016
52:44.0;-0.7689001484800817;0.44507184928858606;-0.15886664573106388;0.8690000000000001;0.05436667801007085
52:44.0;-0.7626053250265666;0.45621086599664523;-0.16075737924668848;0.871;0.05592891265097577
52:44.0;-0.7624940581591534;0.47047966848660316;-0.1610574114292225;0.871;0.05777740588314521
52:44.0;-0.7694726986613031;0.4878047478639473;-0.15968324880985602;0.871;0.059937496390636884
52:44.0;-0.7839657537108148;0.5077920478915439;-0.1566208521941292;0.871;0.0623494418145166
52:44.0;-0.8058568040428541;0.5297192663465793;-0.15192438616865736;0.922;0.06485315913108741
52:44.0;-0.8344737879374069;0.5525611554142273;-0.14571199305523141;0.975;0.06718747949339467
52:44.0;-0.8686220901547523;0.5750492864125056;-0.13816076281743472;1.03;0.06901137191837381
52:44.0;-0.9066635914249841;0.5957568677679128;-0.12950404098346283;1.084;0.06995174518588522
52:44.1;-0.9466343708923448;0.6131942982385403;-0.12003306169062884;1.1340000000000001;0.0696756871957049
52:44.1;-0.9863909625715773;0.6259043402263522;-0.11010153151408308;1.173;0.06797518648410208
52:44.1;-1.0237749700859455;0.6325520813916987;-0.10012790728649301;1.213;0.06484193042651747
52:44.1;-1.0567856083599856;0.6320106653399233;-0.09058685689239046;1.319;0.06050294137816799
52:44.1;-1.0837449366848317;0.6234463021975738;-0.08198106844715133;1.319;0.05539106417881186
52:44.1;-1.1034331537531177;0.6064022810244853;-0.0747894791700181;1.327;0.05004346398441274
52:44.1;-1.1151726393427945;0.580874033035435;-0.06939653168197137;1.308;0.04495332641196354
52:44.1;-1.118853194482614;0.5473629616253243;-0.06601529787199616;1.285;0.0404290093826755
52:44.1;-1.1149051707208544;0.506899040265738;-0.06462150805861913;1.261;0.036520480880306065
52:44.1;-1.1042323237677532;0.4610268035021589;-0.06491329758355516;1.2409999999999999;0.03304610687904679
52:44.2;-1.0881144380546777;0.4117500040172032;-0.06630588932925156;1.2209999999999999;0.029707102139930216
52:44.2;-1.0680852875049487;0.36142617089896406;-0.06796729376213752;1.178;0.02623768462560661
52:44.2;-1.0457887093836484;0.31260207233774423;-0.0688992893490526;0.982;0.02252426063212866
52:44.2;-1.022821984401594;0.2677977623687728;-0.06806033919858938;0.982;0.018642369309273453
52:44.2;-1.0005899051812037;0.22927646633047916;-0.0645136612964644;0.982;0.014800189853518251
52:44.2;-0.9801972845113807;0.19884899741028295;-0.0575753588266316;0.96;0.011222085002031798
52:44.2;-0.9623931208311922;0.17774042215397542;-0.046939911677648355;0.9570000000000001;0.00802936102235029
52:44.2;-0.9475614088989254;0.16652236831216463;-0.03276498045669978;0.958;0.005169991834050534
52:44.2;-0.9357456936762041;0.16510847498372558;-0.01569937832408366;0.9490000000000001;0.00242554679930495
52:44.2;-0.9266940636307374;0.17280992936544812;0.0031562520011537486;0.941;0.0005054483049567658
52:44.3;-0.9199134761844701;0.1884417061548966;0.02235404368966888;0.943;0.003875074925881121
52:44.3;-0.9147263959722529;0.21046379780269128;0.04025356970322558;0.941;0.007749488075489914
52:44.3;-0.9103271997182147;0.23713903987612667;0.05520298220435433;0.9590000000000001;0.011916895100644413
52:44.3;-0.9058394243209898;0.26668641581650226;0.06572009205669134;0.9590000000000001;0.015876335798087515
52:44.3;-0.9003772213354423;0.29740660151342907;0.07064881622270562;0.9590000000000001;0.018918207857914246
52:44.3;-0.8931138612685738;0.32776374601120983;0.06927390424268644;0.9590000000000001;0.020278573873490118
52:44.3;-0.8833565628384857;0.3564257370487841;0.061387155341665486;0.973;0.01932780810507556
52:44.3;-0.8706222266969882;0.38228075614357077;0.04730534560932584;0.988;0.01574426556143125
52:44.3;-0.8547043144935601;0.4044489265791939;0.027842078928421075;0.992;0.009624567965096942
52:44.3;-0.8357182780826931;0.42229764428447925;0.004236452379037487;0.9890000000000001;0.001495136653918873
52:44.4;-0.8141132986663159;0.43545807638086104;-0.021956460219207385;0.976;0.007783833257897894
52:44.4;-0.79064188916236;0.44383448582194107;-0.04900460023925453;0.953;0.017196406969922532
52:44.4;-0.7662858772962272;0.44759779001874245;-0.07515392248718021;0.8540000000000001;0.025776883435311614
52:44.4;-0.7421490702304329;0.4471584690723024;-0.0987810254974945;0.8540000000000001;0.032781297471240506
52:44.4;-0.7193397698882397;0.44311964401702175;-0.11852329761719747;0.8540000000000001;0.037779725756030794
52:44.4;-0.6988674624045819;0.4362151871380351;-0.1333728636136961;0.815;0.040659597853237035
52:44.4;-0.6815648458656611;0.42723851730882023;-0.1427329561295738;0.784;0.04156251714420352
52:44.4;-0.6680350183372741;0.4169689456246752;-0.14644270770386703;0.764;0.04079159532423188
52:44.4;-0.6586236226654978;0.4061059637283988;-0.14477374203341545;0.758;0.03872277480715963
52:44.4;-0.6534184461932768;0.39522328478435026;-0.13839596419875688;0.76;0.03574022972434491
52:44.5;-0.652276722877087;0.38474992679104686;-0.12830827256493432;0.768;0.03220068307354309
52:44.5;-0.654875263167324;0.37497709237910387;-0.11573446877924064;0.773;0.028420129056078637
52:44.5;-0.6607745021082497;0.3660821181428615;-0.10199308814841228;0.774;0.024671896432146793
52:44.5;-0.6694858759348441;0.35815894774836793;-0.08835874536732655;0.774;0.021186868213124366
52:44.5;-0.6805327083042795;0.3512488050621803;-0.07593782113183548;0.774;0.018151895838796773
52:44.5;-0.6934986836078418;0.34536946654887163;-0.06557786330732313;0.78;0.01570676850723592
52:44.5;-0.7080639109805885;0.3405421580840132;-0.05781880770294779;0.7959999999999999;0.013941595410218725
52:44.5;-0.7240320906349436;0.3368138017931312;-0.05288425287051689;0.816;0.012896565498442397
52:44.5;-0.741350752555504;0.3342721661596678;-0.05070738644036875;0.843;0.012565945597770512
52:44.5;-0.7601224678909541;0.3330515275528108;-0.050984340171807946;0.8590000000000001;0.012907192960665665
52:44.6;-0.7806021799926698;0.3333261068630109;-0.05324469082810315;0.873;0.013854006891263924
52:44.6;-0.8031762078580775;0.3352894926796575;-0.05692666629287441;0.884;0.015330154452277303
52:44.6;-0.8283211756145725;0.33912123490581614;-0.061445391554529896;0.932;0.01726009036502059
52:44.6;-0.8565427851978268;0.34494532047664606;-0.06624614745364284;0.932;0.01957311491717294
52:44.6;-0.8882942093371154;0.35278761573257134;-0.07083989870636723;0.932;0.02219975051415124
52:44.6;-0.9238772869408213;0.36253992665570983;-0.07482300132529618;0.9520000000000001;0.02506139592689719
52:44.6;-0.9633389723662849;0.37393693707789993;-0.07788498884451737;0.9840000000000001;0.028056355684807452
52:44.6;-1.0063829978471486;0.3865489364463016;-0.07980841106880221;1.031;0.031046770985216413
52:44.6;-1.052315353470155;0.399789237239296;-0.08046527204280501;1.087;0.03385209017342686
52:44.6;-1.100034172181775;0.4129330438018849;-0.07981533178296485;1.138;0.03625535294473887
52:44.6;-1.1480662201868055;0.42514536097214234;-0.07790971216942569;1.1840000000000002;0.03802734311174069
52:44.7;-1.194647486165673;0.43551805180287123;-0.0748990200615182;1.238;0.038969252025151245
52:44.7;-1.2378441004161242;0.4431188001799748;-0.07104134573961086;1.297;0.03896703010764289
52:44.7;-1.2757072824718956;0.4470556342255806;-0.0667035753176978;1.4340000000000002;0.03804185800143148
52:44.7;-1.3064471502127704;0.4465568822268212;-0.062350408546173686;1.4340000000000002;0.03637541328919123
52:44.7;-1.328599439707511;0.441058550977359;-0.058519323208637286;1.4340000000000002;0.0342917466166497
52:44.7;-1.3411602932711781;0.43028607067192515;-0.05578305508494298;1.4509999999999998;0.03219143005897896
52:44.7;-1.3436789601254018;0.41431992404081225;-0.0547013575431505;1.464;0.030452954930655373
52:44.7;-1.3363090359658731;0.39364018252248967;-0.05576355187744048;1.475;0.029333018630361533
52:44.7;-1.319815871485875;0.3691453707812194;-0.05932572117268243;1.47;0.028903723867224076
52:44.7;-1.2955305778952724;0.3421343792133178;-0.06555073300277081;1.4340000000000002;0.029055070704031894
52:44.8;-1.2652402658450463;0.3142327714186749;-0.07436416763479331;1.36;0.02956570244022078
52:44.8;-1.231013586578195;0.2872487862939731;-0.08544183181701151;1.126;0.03021284337917532
52:44.8;-1.1949822306355753;0.2629691474192229;-0.09823805652627896;1.126;0.030870666626498892
52:44.8;-1.1591230767680265;0.2429397125693051;-0.11204790905365718;1.126;0.03155235808255812
52:44.8;-1.1250878638997994;0.22828869651538478;-0.12608534705359223;1.088;0.032384371031773246
52:44.8;-1.0941020898509575;0.21962814717305412;-0.1395629341233617;1.069;0.0335363610601583
52:44.8;-1.0669294599298393;0.21703909121016302;-0.1517660928852318;1.068;0.03514377606133506
52:44.8;-1.0438907267084174;0.22012889666459579;-0.1621159834243893;1.073;0.037252715143909085
52:44.8;-1.024925756779807;0.2281404140136134;-0.17021508752051243;1.079;0.039800880969195346
52:44.8;-1.0096848866059673;0.2400862603800702;-0.1758729691436616;1.084;0.042633624734959415
52:44.9;-0.9976326244462174;0.25488264165231955;-0.17911288404872672;1.085;0.04554468780038607
52:44.9;-0.9881472916443457;0.27146522042192206;-0.180159827000391;1.0659999999999998;0.04832744523324027
52:44.9;-0.9806049383620027;0.28887795104371067;-0.17940971790757504;1.0659999999999998;0.05082231392237938
52:44.9;-0.9744428581807346;0.30633025556649385;-0.17738160204255032;1.0659999999999998;0.05294864408846509
52:44.9;-0.9692024450646094;0.32322167356280457;-0.1746579702038876;1.0659999999999998;0.05471461962614991
52:44.9;-0.9645505527507784;0.33913963362951366;-0.17181801667808294;1.058;0.056204649328505336
