Time;AccX;AccY;AccZ;Acc-old;Acc-trns
15:08.5;0.05343300522201778;-0.3119718499281365;-0.8633221395932029;0.9229999999999999;0.014391229114769633
15:08.5;0.05377204948003309;-0.3262805563301569;-0.8768841992254535;0.9229999999999999;0.01538473529193305
15:08.5;0.05437827082639442;-0.3400218617141122;-0.8915086411179433;0.927;0.01648381725990945
15:08.5;0.05508661374590701;-0.35256201545458205;-0.908125385665433;0.9420000000000001;0.01763710956180399
15:08.5;0.05570854408525115;-0.36337260106725;-0.9274382965043075;0.958;0.018774095008590872
15:08.5;0.056028757712212954;-0.37206680107289986;-0.949836969564874;0.982;0.01980072001327805
15:08.5;0.055791297700756984;-0.37841906485689686;-0.9753512190033309;1.016;0.020592093543438935
15:08.5;0.05468593004274069;-0.3823676987704306;-1.0036517832242584;1.063;0.020986492499293633
15:08.5;0.05234754974824011;-0.38400293007702546;-1.034093382619705;1.1079999999999999;0.020786944451424285
15:08.6;0.04837521451971108;-0.3835403569777632;-1.0657905407716082;1.1640000000000001;0.0197745146763005
15:08.6;0.04237025284339545;-0.3812781385908565;-1.0977118851875802;1.1640000000000001;0.017733372095152983
15:08.6;0.0339898559813171;-0.377541074102884;-1.1287769026978025;1.193;0.014485104933686526
15:08.6;0.023011895926662685;-0.37262186436383965;-1.1579435350682137;1.229;0.009929059609793933
15:08.6;0.009404702224520816;-0.36673360741868577;-1.18428166032198;1.2670000000000001;0.00408461157440943
15:08.6;-0.006608860820707778;-0.35998679336962514;-1.207028560919345;1.295;0.0028716448052678906
15:08.6;-0.024509171373641263;-0.3523980938116037;-1.2256192699500745;1.3030000000000002;0.010585655584830843
15:08.6;-0.043478625157222325;-0.34392781320494603;-1.2396854554382049;1.287;0.01853764695986701
15:08.6;-0.06245581995037565;-0.3345341695767442;-1.2490240215238766;1.2770000000000001;0.02609661561830672
15:08.6;-0.08024634965319521;-0.32423081358953093;-1.2535465045776386;1.275;0.03261519820375859
15:08.7;-0.09567561228365395;-0.3131366395073443;-1.2532266273467931;1.278;0.03754609291177505
15:08.7;-0.10775588016244521;-0.3015094906604099;-1.2480628203311332;1.278;0.040548837834373755
15:08.7;-0.11583243214711378;-0.2897573927167816;-1.2380664566016861;1.278;0.04155360027446114
15:08.7;-0.11967739329579662;-0.2784226180690943;-1.2232786465217762;1.273;0.04076073709190068
15:08.7;-0.1195151615098641;-0.26813550704551925;-1.2038111132091567;1.2670000000000001;0.03857764203610016
15:08.7;-0.11597929907086732;-0.2595399456856545;-1.179900282934277;1.252;0.035516486348765926
15:08.7;-0.1100108239210381;-0.25320140745201647;-1.1519587187234719;1.2209999999999999;0.03208768967478895
15:08.7;-0.10271502584904625;-0.24951579887575376;-1.1206064855016475;1.18;0.028720047969122114
15:08.7;-0.09519982654480744;-0.24863839900727913;-1.0866689160704466;1.13;0.025721814515022437
15:08.7;-0.0884209122040611;-0.25044791314403964;-1.0511356075139806;1.078;0.023277222425471703
15:08.8;-0.08305680343820529;-0.25455352048683655;-1.0150855509749963;0.997;0.02146134649439255
15:08.8;-0.07943202313150413;-0.2603437018932465;-0.9795930224054616;0.997;0.02025761826707482
15:08.8;-0.07749945684244636;-0.2670666597722865;-0.9456343386999582;0.966;0.019572286652669153
15:08.8;-0.07688406946632316;-0.2739274336551479;-0.9140117272054005;0.938;0.019249686418453732
15:08.8;-0.07697953683306787;-0.28018681939262724;-0.8853009772037417;0.917;0.019094748323905876
15:08.8;-0.07707844564294218;-0.28524834676961824;-0.8598242550366323;0.903;0.018904525287955238
15:08.8;-0.07650892615996215;-0.2887214702661572;-0.837649479404778;0.894;0.018503484046982266
15:08.8;-0.07474972519343187;-0.2904535333030236;-0.8186163984217557;0.883;0.017773244053504583
15:08.8;-0.07150293601650187;-0.29052865226101265;-0.8023853754652047;0.87;0.016668474265793216
15:08.8;-0.06671600903333494;-0.28923651871883216;-0.7885009702457781;0.8590000000000001;0.015215471557790902
15:08.9;-0.06055716936587991;-0.2870181845454365;-0.7764605013976931;0.846;0.01349566681743329
15:08.9;-0.05335708179618627;-0.28439877623459253;-0.7657778847615734;0.831;0.0116204410653605
15:08.9;-0.045533449425326604;-0.28191788372682014;-0.7560349336716302;0.813;0.009704988870624884
15:08.9;-0.03751466078434409;-0.28006735438782027;-0.7469158067338927;0.7979999999999999;0.007847569364434192
15:08.9;-0.029674867078231963;-0.2792441092459308;-0.7382245502577385;0.785;0.006117321229155077
15:08.9;-0.022288273359818873;-0.2797224374303829;-0.7298891057478861;0.7809999999999999;0.004550515636177638
15:08.9;-0.015506625083688313;-0.2816462942729304;-0.7219562976423088;0.779;0.0031530600159078285
15:08.9;-0.009360429063487491;-0.285038609754719;-0.7145809781526681;0.774;0.001906561850824013
15:08.9;-0.003780681413366016;-0.2898226919721727;-0.7080102392728348;0.768;0.0007757861228657312
15:08.9;0.0013655009666645606;-0.2958507447784631;-0.7025625742481765;0.762;0.00028382437480833846
15:09.0;0.0062339053743151905;-0.3029356440856301;-0.6986026292723899;0.7609999999999999;0.0013192916021279547
15:09.0;0.010965445027744464;-0.3108832807539101;-0.6965133838501841;0.7659999999999999;0.0023743956854592055
15:09.0;0.015657882284944444;-0.319522947432577;-0.6966678833848826;0.77;0.0034854661337443416
15:09.0;0.02034964236027602;-0.3287324302370368;-0.699402001709727;0.775;0.004678710809463274
15:09.0;0.025014870077460474;-0.3384539653236886;-0.7049891944409525;0.778;0.005968707804699942
15:09.0;0.029567031787463935;-0.34869830191564116;-0.713618738230504;0.7809999999999999;0.007357390477914097
15:09.0;0.03386803265170449;-0.35953666155222186;-0.7253804371454354;0.792;0.008832812066679808
15:09.0;0.03774006347780313;-0.37108303409718635;-0.7402602397509863;0.8109999999999999;0.010367120553077256
15:09.0;0.04097745951731402;-0.3834703283964487;-0.758151479895555;0.836;0.011913319312855565
15:09.0;0.04335601180723545;-0.39682272723216205;-0.7788849017708576;0.8740000000000001;0.013400442785167662
15:09.1;0.044638484719213244;-0.411224483616789;-0.8022770358753214;0.922;0.01472694852995319
15:09.1;0.044578163001719885;-0.42668451707739463;-0.8281905718022747;0.971;0.01575285712715593
15:09.1;0.04292582539626917;-0.4430974914718335;-0.8565930546086494;1.012;0.016292678764619633
15:09.1;0.03944660649360116;-0.46020490532640834;-0.8875949802369681;1.041;0.016112974829369797
15:09.1;0.033949910086507835;-0.4775626816107892;-0.9214492045961941;1.058;0.014939649551847178
15:09.1;0.026329853503330742;-0.49452344428209843;-0.9585016112694714;1.075;0.012480390533375412
15:09.1;0.016609465313113577;-0.5102414591726264;-0.9990953216348747;1.094;0.008467170815018812
15:09.1;0.004980737847221195;-0.5237063151207033;-1.0434425781357266;1.117;0.0027217613909488255
15:09.1;-0.008166507719209244;-0.5338082547348618;-1.0914863429779995;1.151;0.004758170151949076
15:09.1;-0.022233140547567243;-0.5394338324815457;-1.1427767839856682;1.198;0.013705674189772473
15:09.2;-0.03642237595881231;-0.5395852324175227;-1.1963851906029022;1.334;0.023512529673283336
15:09.2;-0.04977870085149123;-0.533509803650087;-1.2508673678124538;1.334;0.03321981620209925
15:09.2;-0.0612553708673134;-0.5208196495508305;-1.304275696091195;1.334;0.041610308560453994
15:09.2;-0.06981032233111117;-0.5015790119178251;-1.3542187170181361;1.381;0.047418499902501604
15:09.2;-0.07452834747416873;-0.4763421893162471;-1.3979800383433643;1.452;0.04962968403165419
15:09.2;-0.07475791345426626;-0.4461335339311094;-1.4327119465837792;1.5319999999999998;0.04778382620502239
15:09.2;-0.07023591826617454;-0.4123697000371682;-1.4556998956365501;1.6;0.04216167560874691
15:09.2;-0.061165956292083164;-0.3767321805930315;-1.4646656547404704;1.6369999999999998;0.03375056031537709
15:09.2;-0.04822300414166917;-0.341006109583183;-1.4580579234951225;1.6369999999999998;0.023976798826278258
15:09.2;-0.03247561413679113;-0.3069083449114055;-1.4352763671483373;1.598;0.014305452634639084
15:09.3;-0.015238039109154916;-0.2759303240063256;-1.3967868284045046;1.5219999999999998;0.0058729816756560235
15:09.3;0.0021170517447736685;-0.24921659414349617;-1.3441071725191807;1.4169999999999998;0.0007091568925110128
15:09.3;0.01834502646615581;-0.22749101313350806;-1.279668551645626;1.2990000000000002;0.005340477437720368
15:09.3;0.03247725589137416;-0.21103459000323482;-1.2065795071617873;1.181;0.008269684044363035
15:09.3;0.04390627637039024;-0.19971325759500932;-1.1283350653395805;1.078;0.009893992740473149
15:09.3;0.05240178960859613;-0.1930482109248129;-1.0485169327412827;1.0;0.010606872505083489
15:09.3;0.05806667934279607;-0.19031517500820014;-0.9705240751380572;0.934;0.010725232672786056
15:09.3;0.06125152870603528;-0.19065501052039727;-0.8973585125952591;0.8740000000000001;0.010479272710432076
15:09.3;0.06244954383350127;-0.19317892373682233;-0.8314750324713747;0.8220000000000001;0.01003086129929672
15:09.3;0.0621933550507167;-0.1970563164239507;-0.774691532831567;0.777;0.009494304477354675
15:09.4;0.060971459493623655;-0.201579279099483;-0.7281513636309678;0.711;0.008949404662314834
15:09.4;0.05917455424079415;-0.2062028662894606;-0.6923296977321003;0.711;0.00844778114495821
15:09.4;0.057072618858417065;-0.21056361103594803;-0.6670789245332794;0.6920000000000001;0.008016565419982833
15:09.4;0.05481691078062649;-0.214479870594771;-0.651707979562385;0.684;0.007662211482297971
15:09.4;0.05245894847405562;-0.2179370258948427;-0.6450873739778777;0.6829999999999999;0.007375120876346162
15:09.4;0.04997860443035382;-0.22105981101303895;-0.6457705632947843;0.6890000000000001;0.007134641632577059
15:09.4;0.047313674409458974;-0.22407470272076568;-0.6521240068529152;0.701;0.006913686683754837
15:09.4;0.04438469488590369;-0.22726722904605123;-0.6624592784086929;0.721;0.006682350368646697
15:09.4;0.04111200250183699;-0.2309401833038058;-0.6751598382484861;0.7440000000000001;0.006410246611195773
15:09.4;0.037425332861908654;-0.23537732411619688;-0.6887940700154337;0.757;0.006067638417883013
15:09.5;0.03326797674518839;-0.2408141466917813;-0.7022062031654345;0.7829999999999999;0.005625654377224755
15:09.5;0.028598354614773395;-0.24741524133380055;-0.7145780520683208;0.7829999999999999;0.0050561176344469895
15:09.5;0.02339247216257944;-0.25525763943944835;-0.7254568651260919;0.7909999999999999;0.00433178072868815
15:09.5;0.017649655829351397;-0.26432047309097684;-0.734748233133514;0.792;0.0034277220192806667
15:09.5;0.011400953599376451;-0.2744820539700665;-0.7426775137959253;0.797;0.002324103196240382
15:09.5;0.004717026307085413;-0.2855256325586608;-0.7497265644766018;0.8009999999999999;0.0010097556684037956
15:09.5;-0.0022880375548218726;-0.29715483610431753;-0.7565535927719492;0.8059999999999999;0.000514381865514633
15:09.5;-0.009459232757222878;-0.3090191503694217;-0.7639036493449788;0.8109999999999999;0.0022329545882498764
15:09.5;-0.01660971591595639;-0.32074838540899137;-0.7725170825058624;0.8190000000000001;0.004115615319482844
15:09.5;-0.02353498348747868;-0.33199288693100626;-0.7830435571499866;0.8290000000000001;0.006118269420091064
15:09.6;-0.030030178380624842;-0.3424641579165274;-0.7959695455753623;0.845;0.008185957560744672
15:09.6;-0.03590929420267803;-0.35196939244159864;-0.8115667819668845;0.867;0.010257370209589594
15:09.6;-0.04102586060777947;-0.36043350004179336;-0.8298674177282249;0.895;0.01227132795421773
15:09.6;-0.04529416276181263;-0.3679035716836097;-0.8506682931061336;0.92;0.014175437976986196
15:09.6;-0.048707924279362005;-0.3745334633423536;-0.8735627278064667;0.943;0.015936184332176046
15:09.6;-0.05135123734864393;-0.38054978816731483;-0.8979953768048368;0.971;0.017548358495545587
15:09.6;-0.05339675157481051;-0.38620391203644233;-0.9233347112725842;1.0070000000000001;0.019041040130776152
15:09.6;-0.05508948758142454;-0.39171641882068753;-0.9489568804352404;1.0490000000000002;0.020477973996984644
15:09.6;-0.05671893166129404;-0.3972208720726831;-0.9743320411095221;1.09;0.02195164583403074
15:09.6;-0.05858435795880159;-0.4027134998911493;-0.9991000650055294;1.123;0.0235714799254724
15:09.7;-0.060957937509802745;-0.40801547439743474;-1.0231197473726832;1.14;0.025446811103075895
15:09.7;-0.06404852630858493;-0.4127545526671459;-1.0464775194568854;1.14;0.02766501544102507
15:09.7;-0.06796752186894449;-0.4163724366641256;-1.069449389379915;1.143;0.030265206711306336
15:09.7;-0.07269761744926392;-0.4181628650877678;-1.092420893944387;1.158;0.0332089877873128
15:09.7;-0.07806610787536646;-0.4173422677166502;-1.1157787984195762;1.181;0.03635239291478737
15:09.7;-0.08372713027484967;-0.41314874348331954;-1.1397911421768632;1.194;0.03942738012269693
15:09.7;-0.08916180989696817;-0.4049570515067297;-1.1644907266935818;1.196;0.04204592156360688
15:09.7;-0.09370906613814482;-0.3923911180555094;-1.1895765121272965;1.198;0.043741448322933835
15:09.7;-0.09663820451056318;-0.37541487827491943;-1.214349658860733;1.213;0.044055901037199766
15:09.7;-0.097265014615345;-0.35438604156577785;-1.2377026770467543;1.242;0.04266282349535762
15:09.8;-0.09509762963696905;-0.3300619779212196;-1.2581766151393847;1.285;0.03949178817659463
15:09.8;-0.08998152771424718;-0.3035521488694393;-1.2740907077195713;1.334;0.03480062328503954
15:09.8;-0.08220225567250426;-0.27621989200558794;-1.283733276184394;1.376;0.02914831706506519
15:09.8;-0.07250795791149771;-0.24954690388139042;-1.285586397400021;1.4;0.023261575633138385
15:09.8;-0.062033517399021215;-0.2249811990188631;-1.2785456169727871;1.403;0.017843862243348847
15:09.8;-0.05213592467030759;-0.20379047281220916;-1.2620941188438375;1.374;0.013409503575036433
15:09.8;-0.044174311345467086;-0.18693930163446845;-1.2363992524268879;1.317;0.01021007982516811
15:09.8;-0.039280414896125125;-0.1750033802382754;-1.2023159425730765;1.247;0.008264966725685403
15:09.8;-0.03816509783452506;-0.16812865906782234;-1.1613013106319328;1.176;0.00745166024824954
15:09.8;-0.040996558370715405;-0.16603821778599903;-1.1152611636953185;1.1079999999999999;0.007591577708360555
15:09.9;-0.047369925238618174;-0.16808451004878142;-1.0663569848128054;1.048;0.008490494986184222
15:09.9;-0.05636959950135756;-0.1733388866916917;-1.0168021747065634;0.958;0.00993521840280436
15:09.9;-0.06670742869163154;-0.18070501371436856;-0.968673130514917;0.958;0.011676741240583488
15:09.9;-0.07690611308728246;-0.1890404894542951;-0.9237557013325232;0.917;0.01342990149204614
15:09.9;-0.08549463513013421;-0.1972733548730647;-0.8834378076288005;0.887;0.014899897298579415
15:09.9;-0.0911893970110857;-0.20450432500195243;-0.8486477852633353;0.865;0.015826115223615968
15:09.9;-0.09304173256297185;-0.21008680484792214;-0.8198334050660431;0.843;0.016025152650998305
15:09.9;-0.09053660418858166;-0.21367601828057123;-0.7969779207518546;0.828;0.015417937235934091
15:09.9;-0.08363271485454876;-0.21524048284213892;-0.779650116149003;0.8170000000000001;0.01403459551256057
15:10.0;-0.0727419088710278;-0.21503473912473006;-0.7670832318527185;0.802;0.011998744599647927
15:10.0;-0.05865385146962958;-0.21353906313020518;-0.7582749964875618;0.792;0.009497309777128952
15:10.0;-0.042419816277901534;-0.21137711134983656;-0.7520997077829238;0.7859999999999999;0.006743760865703436
15:10.0;-0.0252154793595829;-0.2092246469799482;-0.7474239328418021;0.787;0.003943184268671765
15:10.0;-0.00820439731546218;-0.2077218361289629;-0.7432185915726347;0.792;0.0012666172595583876
15:10.0;0.007579426567681364;-0.20739943859811652;-0.7386603308169106;0.797;0.0011611510049459686
15:10.0;0.02131788474272135;-0.2086264720222025;-0.7332142102902982;0.8009999999999999;0.0032609519321239915
15:10.0;0.032458729759603656;-0.2115834012318421;-0.7266890861865721;0.799;0.004990703305841415
15:10.0;0.04072924730276476;-0.2162607069346601;-0.7192579454278785;0.782;0.006335321669067903
15:10.0;0.046117756845905494;-0.2224792845518199;-0.7114387154035012;0.76;0.0072995359125443285
15:10.0;0.048830102223092926;-0.2299279693698753;-0.7040368983805114;0.7440000000000001;0.007904508271896454
15:10.1;0.0492300392582817;-0.23821378678475746;-0.6980580907709505;0.7290000000000001;0.008186318550935915
15:10.1;0.04777272436974812;-0.24691963377854484;-0.6946033033948893;0.7290000000000001;0.008193556963638892
15:10.1;0.04493967490112579;-0.25566160177538605;-0.6947611846324925;0.73;0.007982353908430443
15:10.1;0.04118165247941222;-0.2641371788046131;-0.6995087322547741;0.7340000000000001;0.007608980036367145
15:10.1;0.03687337114477014;-0.27215740589088844;-0.7096280233511925;0.7440000000000001;0.007121373416452736
15:10.1;0.03228204739960739;-0.2796584625317193;-0.7256437614234503;0.7559999999999999;0.006551073958273926
15:10.1;0.027551135523989804;-0.2866903528680969;-0.7477854551554344;0.778;0.005906491670923021
15:10.1;0.022700399001979222;-0.29338356230369567;-0.7759770919764432;0.81;0.0051679484000405965
15:10.1;0.01764283967082868;-0.29989859519869166;-0.8098549678619302;0.8490000000000001;0.004284993520248515
15:10.2;0.012217432802272788;-0.30636680301099833;-0.8488108891910847;0.895;0.0031771125937591444
15:10.2;0.006234159910018696;-0.3128326591889743;-0.892054389895716;0.9490000000000001;0.0017397280234647912
15:10.2;-0.0004749416756298001;-0.31920705641411934;-0.9386849457441525;1.012;0.00014230908174043023
15:10.2;-0.008007090828071512;-0.3252386754275311;-0.9877632474428101;1.07;0.0025723484728641995
15:10.2;-0.016350730509108024;-0.33050721722965054;-1.0383692699362188;1.123;0.005611383296419326
15:10.2;-0.025363244080596113;-0.3344395534485395;-1.0896353923116324;1.167;0.009242801731993325
15:10.2;-0.03476455005008119;-0.33634802202506586;-1.1407466001053659;1.2009999999999998;0.01333873590217578
15:10.2;-0.044142961287067434;-0.33548883392276035;-1.1909067461402698;1.226;0.017636698453947337
15:10.2;-0.05296922678825545;-0.33113753403337814;-1.2392783764064184;1.255;0.021737065582141932
15:10.2;-0.06061763659849676;-0.3226769910499711;-1.2849111840141698;1.291;0.025132755574806147
15:10.2;-0.06639816911568183;-0.3096900435560406;-1.326678022109375;1.3230000000000002;0.027280283668352466
15:10.3;-0.06960773549523339;-0.2920438576161649;-1.3632369521316992;1.3330000000000002;0.027712578186715228
15:10.3;-0.06960663035033321;-0.26995047020294427;-1.393035507504816;1.348;0.02617561442927486
15:10.3;-0.06591564422211241;-0.24399217100294857;-1.4143712812750915;1.389;0.022747193487492236
15:10.3;-0.05831522367920352;-0.2151082515992372;-1.4255184039186501;1.444;0.017881825178572328
15:10.3;-0.046920996491712545;-0.184543561113796;-1.424917620870128;1.489;0.0123383157733821
15:10.3;-0.03221436836605796;-0.15375877576260435;-1.4114091306554923;1.5230000000000001;0.006991050762045736
15:10.3;-0.01501792206305512;-0.12430498873231363;-1.3844694812525065;1.528;0.002584531272676114
15:10.3;0.003582809068040295;-0.09767443595185135;-1.3444044192607374;1.489;0.0004704727869675268
15:10.3;0.022359048362102757;-0.07514897614856336;-1.2924526635864184;1.411;0.0021716559852852186
15:10.4;0.040079866359681325;-0.05767156389228318;-1.2307712533862254;1.308;0.0028448890734390445
15:10.4;0.055651024903603914;-0.045761816170695704;-1.1622969627051811;1.1909999999999998;0.00296001234324523
15:10.4;0.06822941488186011;-0.03948717473923416;-1.0905023775460478;1.071;0.002938017141264471
15:10.4;0.07729678002774641;-0.03848980697279997;-1.0190828244560788;0.961;0.003031912181800235
15:10.4;0.08268541721363386;-0.04205987342952562;-0.9516186772004296;0.87;0.0033094806088543433
15:10.4;0.08455848086279397;-0.04924038808782015;-0.8912569508013157;0.7959999999999999;0.0037109198047983933
15:10.4;0.08335540559252569;-0.058947622126972354;-0.840448573428695;0.748;0.004129630590654351
15:10.4;0.07971630828842026;-0.07009192782219413;-0.8007664869449638;0.7190000000000001;0.004474258504043958
15:10.4;0.07439771551652154;-0.08168537445860523;-0.7728177941989419;0.7040000000000001;0.004696572356842095
15:10.4;0.06818804172914494;-0.0929250708524822;-0.7562525216804475;0.706;0.004791902301357732
15:10.5;0.061828302394316255;-0.10324539920802196;-0.7498629922874075;0.728;0.004786741235234832
15:10.5;0.05594309004347088;-0.11233788269780737;-0.7517605899314974;0.7659999999999999;0.0047244606925186325
15:10.5;0.05098773819425672;-0.12014208761139264;-0.7596094564716381;0.809;0.004653195333901131
15:10.5;0.047217566560328376;-0.1268134418313809;-0.7708897193455868;0.843;0.004615950521608885
15:10.5;0.04468274106165321;-0.1326741520790301;-0.7831589531894123;0.868;0.0046427579784435544
15:10.5;0.0432482127066055;-0.13815262424152847;-0.7942822998790008;0.8809999999999999;0.004745720839447251
15:10.5;0.04263435236221289;-0.14371646534122176;-0.8026086955791916;0.882;0.0049177908908497586
15:10.5;0.04247167918570217;-0.14980490565169033;-0.8070803526925547;0.8740000000000001;0.0051350212171451725
15:10.5;0.042362301406808335;-0.1567672752788987;-0.8072724966195534;0.856;0.005361114867033298
15:10.5;0.041940298076021766;-0.16481382497546282;-0.8033689550519767;0.835;0.0055531601231689175
15:10.6;0.0409230730573059;-0.17398392447680197;-0.7960857001051801;0.816;0.005668095835371232
15:10.6;0.03914678344568288;-0.18413487933114336;-0.7865583222948893;0.7879999999999999;0.0056697391093706645
15:10.6;0.03658201977966741;-0.19495170933560171;-0.7762107254148459;0.7879999999999999;0.005535723210899204
15:10.6;0.03332983626024663;-0.2059749389664556;-0.7666207782256708;0.784;0.005262936729350228
15:10.6;0.029600859777377076;-0.21664227759956417;-0.7593934206148628;0.7829999999999999;0.00486983636674359
15:10.6;0.025681289439576482;-0.22634099629527013;-0.7560446809473466;0.78;0.004394682568475321
15:10.6;0.021890752400254076;-0.23446786164011202;-0.757895908249846;0.78;0.0038900355825492814
15:10.6;0.018538339637867912;-0.24049179630227255;-0.765978171069022;0.785;0.0034149747272499194
15:10.6;0.015883088274560992;-0.24401272308782387;-0.7809497586060661;0.795;0.003026707940592822
15:10.6;0.014103263802185453;-0.24480957283802177;-0.803032230103111;0.81;0.0027725603096938737
15:10.7;0.013276344641559835;-0.24287156634398402;-0.8319715968970135;0.831;0.002682648002234562
15:10.7;0.013369936050220913;-0.23840921998020612;-0.8670312571596036;0.862;0.002763676026301388
15:10.7;0.014242961420482309;-0.23184383761246977;-0.9070224769482845;0.902;0.002995117773158435
15:10.7;0.01565565551989056;-0.22377564579557227;-0.9503762241055416;0.95;0.0033295047494853827
15:10.7;0.01728629699844751;-0.21493158653500602;-0.9952566331793148;1.006;0.0036977478705291257
15:10.7;0.01875328410682414;-0.20609537236030165;-1.0397112310534566;1.077;0.004018447591921453
15:10.7;0.01964301513509743;-0.19802556083055542;-1.0818461990916042;1.15;0.004208185996080967
15:10.7;0.019545394982016864;-0.19137106685477354;-1.1200068872355793;1.212;0.004189299621758271
15:10.7;0.018097496072199796;-0.18659509822511808;-1.1529372066923664;1.252;0.0038933583310002792
15:10.7;0.015031313088276741;-0.18391649312563726;-1.1798906243956016;1.2670000000000001;0.0032618151709605347
15:10.8;0.010216674937301372;-0.1832736318967865;-1.2006726525319902;1.2570000000000001;0.002248196052299123
15:10.8;0.0036903312795442153;-0.18431397628228205;-1.2156085851563891;1.228;0.0008268322000246582
15:10.8;-0.004331566908645043;-0.18641307991541467;-1.2254463846171268;1.228;0.0009894998302158095
15:10.8;-0.013453507593037034;-0.18872784010074978;-1.2312165897674312;1.237;0.003126122242658379
15:10.8;-0.023109521238970237;-0.19028549450448187;-1.234073274706182;1.235;0.005426722057753788
15:10.8;-0.03258586549340949;-0.1901011316806535;-1.2351339467782132;1.215;0.007651172983296358
15:10.8;-0.04107013444157465;-0.18730727965920155;-1.235330504086027;1.198;0.009503070399901224
15:10.8;-0.0477370585363244;-0.18127645483025728;-1.2352834976698537;1.192;0.010689655125107703
15:10.8;-0.051868856466870825;-0.1717211378650287;-1.2352146339123244;1.1909999999999998;0.01100203086928838
15:10.8;-0.052992755416343434;-0.1587590412890882;-1.2349120771804365;1.199;0.010389412919148924
15:10.9;-0.05100669405907988;-0.14293272891199432;-1.2337582489561463;1.216;0.00899474656044546
15:10.9;-0.046259571522229946;-0.12517562045436095;-1.2308218245650704;1.236;0.007127160630853002
15:10.9;-0.039556979525582396;-0.10672340358017204;-1.2250055780443694;1.264;0.005171551524225269
15:10.9;-0.032077889641099054;-0.0889790126254307;-1.2152307562084577;1.281;0.0034685832590302707
15:10.9;-0.02520879732792888;-0.07334789553021563;-1.200629260441789;1.288;0.002219978189676085
15:10.9;-0.020322564226154676;-0.06106618170304687;-1.1807105209589432;1.274;0.0014652870233683062
15:10.9;-0.0185432911217067;-0.05304640529593393;-1.1554730970019313;1.2329999999999999;0.0011365868157000697
15:10.9;-0.02054259874057142;-0.04976384920165875;-1.125441716720219;1.179;0.0011505151918104518
15:10.9;-0.02640684214898132;-0.05120171788595789;-1.0916257087323824;1.1179999999999999;0.0014759605745915906
15:10.9;-0.03560160257390704;-0.0568647669957684;-1.0554093942253766;1.056;0.0021366518700941116
15:11.0;-0.047042149790627895;-0.06585957863437482;-1.0183943797210417;1.004;0.0031551651920556896
15:11.0;-0.059258437940499786;-0.07702828830509849;-0.9822173879035613;0.924;0.004483405957047631
15:11.0;-0.07062297330559118;-0.08911333356874085;-0.948368582323513;0.924;0.005968508905651675
15:11.0;-0.07959622141790343;-0.10092564671224342;-0.9180348141304376;0.889;0.00737484918477
15:11.0;-0.08494534645442955;-0.11149078782139618;-0.8919863606318211;0.865;0.008447667076063353
15:11.0;-0.08590540570964206;-0.12015527630543278;-0.8705165215060943;0.848;0.008985460879143193
15:11.0;-0.08226572959763437;-0.1266426780542364;-0.8534377491119103;0.841;0.008891415143476095
15:11.0;-0.07437415699883272;-0.13105471981947353;-0.8401350537620593;0.847;0.008188867198529718
15:11.0;-0.06306271549240522;-0.1338200714321113;-0.8296712466490103;0.856;0.007001643017976006
15:11.0;-0.04951072013978476;-0.13560194831794045;-0.8209293659773511;0.8590000000000001;0.005511514624070866
15:11.1;-0.03507061582904264;-0.1371818493890773;-0.8127707908334885;0.862;0.003910282488910979
15:11.1;-0.021085240440477146;-0.13933875947045965;-0.8041865566973888;0.86;0.002362693063818245
15:11.1;-0.008723194042266163;-0.14274135652290415;-0.7944233028135305;0.852;0.0009891845573040898
15:11.1;0.0011462114807375284;-0.14786628231827567;-0.7830711107609974;0.838;0.0001327196140894259
15:11.1;0.008024301023261834;-0.15494981971794503;-0.7701064224371443;0.8170000000000001;0.0009575225994528557
15:11.1;0.01179574668971696;-0.1639749666639988;-0.7558889164763475;0.7909999999999999;0.0014620457621408822
15:11.1;0.012687642093060912;-0.17469168387538891;-0.7411165942348116;0.765;0.0016426297636213771
15:11.1;0.011188629992257289;-0.18666458222185867;-0.7267480733373157;0.746;0.0015178285715513847
15:11.1;0.007947047460156623;-0.19933895967143372;-0.7139043492797158;0.735;0.0011309359819623253
15:11.1;0.0036676686208015987;-0.21211358110766018;-0.7037629763124059;0.721;0.0005475010816347986
15:11.2;-0.0009769327697056655;-0.22440866928988545;-0.6974559541025521;0.713;0.0001529047912494006
15:11.2;-0.005410450690732887;-0.23572104197100957;-0.695980228399501;0.716;0.0008876233078986503
15:11.2;-0.009189397894269098;-0.24566326013007395;-0.7001272183448343;0.741;0.0015805354068254716
15:11.2;-0.012015740381376018;-0.25398677473282344;-0.7104341702686849;0.741;0.0021681308111215565
15:11.2;-0.013733470757536895;-0.26058952465521246;-0.7271562164766131;0.759;0.0026023456615588145
15:11.2;-0.014317526795081026;-0.2655084350935409;-0.7502568162205521;0.78;0.002852044367707603
15:11.2;-0.01386110555458201;-0.2688981538180149;-0.7794160543768005;0.807;0.0029050595438025145
15:11.2;-0.012564286903677245;-0.2709983473362396;-0.8140579116625648;0.838;0.002771786586369871
15:11.2;-0.010723740949301834;-0.27209261700868204;-0.8533975705446979;0.877;0.0024900867318906135
15:11.2;-0.00871997170510211;-0.27246288624519477;-0.8965088690814373;0.932;0.002129987324340697
15:11.3;-0.006996273259755879;-0.2723435917888858;-0.9424098223246742;0.998;0.001795658429190486
15:11.3;-0.006024444951161447;-0.27188003637274066;-0.9901584334808539;1.122;0.0016218065516899378
15:11.3;-0.006256533461520709;-0.2710954089715648;-1.0389407058360975;1.122;0.0017621655100286565
15:11.3;-0.008066891785088844;-0.26987133396228774;-1.0881244054236618;1.168;0.0023688716909544246
15:11.3;-0.011691908447766188;-0.2679464990121807;-1.1372570968480749;1.197;0.0035628057830244335
15:11.3;-0.017175743743961993;-0.26493650452757156;-1.186004232487741;1.213;0.005396890330938509
15:11.3;-0.024330432789367817;-0.260376218952735;-1.2340390921729627;1.229;0.007817719212950701
15:11.3;-0.032717690394451784;-0.25378370643446546;-1.2809053815466191;1.254;0.010635634999086277
15:11.3;-0.041658349084843956;-0.24474095623348413;-1.3258786863360785;1.27;0.013518001702147524
15:11.3;-0.05027541291407057;-0.23298061565962996;-1.367855918885583;1.28;0.0160219653712356
15:11.4;-0.05757624757522152;-0.21846226223546528;-1.4053024565185082;1.3030000000000002;0.017676227771180136
15:11.4;-0.062572455928958;-0.20142118707543588;-1.4362837407978297;1.429;0.018102084856640683
15:11.4;-0.06442126241673594;-0.18237900185312317;-1.4585956284459898;1.429;0.017137164803501578
15:11.4;-0.06255894123244045;-0.1621137684418663;-1.469985621012022;1.5030000000000001;0.01490810277110917
15:11.4;-0.05679570858157159;-0.14159201997341067;-1.4684375469846644;1.567;0.011808909118204619
15:11.4;-0.04735162627782382;-0.12186843267309622;-1.452480865969489;1.6119999999999999;0.008381785549601605
15:11.4;-0.034825972892336625;-0.10396650711982833;-1.4214752609034682;1.611;0.0051467848857371
15:11.4;-0.020105739473743004;-0.08876175680442283;-1.3758134309289853;1.5419999999999998;0.0024553052073402024
15:11.4;-0.0042335391930493765;-0.07688929045644786;-1.3169928073490715;1.4180000000000001;0.0004286993657871982
15:11.4;0.011733632944075107;-0.06869001468522697;-1.2475342867470007;1.276;0.001005491950050961
15:11.5;0.026843118848724555;-0.0641999203008266;-1.1707628290403638;1.141;0.0020176061293230804
15:11.5;0.040322453994741145;-0.06317846463537778;-1.0904950039443069;1.032;0.002778047727614412
15:11.5;0.051608290368824965;-0.06516557268792827;-1.010690798268219;0.937;0.003399037847765736
15:11.5;0.0603380513308138;-0.06955372458372759;-0.9351209367255737;0.8540000000000001;0.003924455890445026
15:11.5;0.06632115511254333;-0.07566288557966334;-0.8670853925795442;0.7959999999999999;0.004351077828907492
15:11.5;0.06950635965441516;-0.08280961053392669;-0.8092027444722832;0.753;0.004657604764777237
15:11.5;0.0699557924564365;-0.09036465600011598;-0.763277189670408;0.7190000000000001;0.00482508050810086
15:11.5;0.06782874611011562;-0.0977954670672862;-0.7302405430081761;0.698;0.004843936656189323
15:11.5;0.0633732289726364;-0.1046924291105875;-0.7101607350346264;0.688;0.004711701498323318
15:11.5;0.056921202970754294;-0.11078094102491241;-0.7023060524391813;0.691;0.004428590570123441
15:11.6;0.04888294179824343;-0.11592330476282323;-0.7052543337190265;0.698;0.003996445098450593
15:11.6;0.039736337383659004;-0.12011387650817884;-0.7170369233703433;0.7440000000000001;0.003422335149855014
15:11.6;0.03000848097430827;-0.12346882127962423;-0.7353068987364318;0.7440000000000001;0.0027243942482249243
15:11.6;0.02024859168896444;-0.126210024485194;-0.7575202856334995;0.78;0.001935900095500545
15:11.6;0.010992270325391844;-0.1286425065484272;-0.7811200427929712;0.8170000000000001;0.0011045609242113044
15:11.6;0.002718378441136332;-0.13112589464306718;-0.8037147542188869;0.85;0.0002864839674751565
15:11.6;-0.004196680996112054;-0.13404187329881423;-0.8232436005412692;0.883;0.00046310003133109455
15:11.6;-0.009518472093322879;-0.1377603062471931;-0.8381167258738446;0.9059999999999999;0.0010989953332873384
15:11.6;-0.013177814088403938;-0.14260694763404722;-0.8473189840205453;0.9209999999999999;0.001592322373592651
15:11.6;-0.015270770222591048;-0.1488352998090932;-0.8504662784444283;0.92;0.0019329649862162097
15:11.7;-0.016034047270232523;-0.15660431122460272;-0.8478069000627653;0.9059999999999999;0.0021288439135833015
15:11.7;-0.015800849683833235;-0.16596275247048098;-0.8401658978447032;0.853;0.002203211146745701
15:11.7;-0.014946798794840883;-0.17684057127969044;-0.8288390916004305;0.853;0.0021907878496864167
15:11.7;-0.013836560146957704;-0.18904758097056523;-0.815451931281165;0.823;0.002133033250644943
15:11.7;-0.01277915840868232;-0.20228086461095435;-0.8018013647028768;0.7979999999999999;0.0020726398598368877
15:11.7;-0.011996041828622085;-0.21614321771350486;-0.78969615604171;0.7829999999999999;0.002047574007942965
15:11.7;-0.011603923117997192;-0.2301736860417461;-0.7808085455945292;0.774;0.0020854754089447273
15:11.7;-0.011614445038606409;-0.2438878342166598;-0.7765493653240139;0.773;0.002199670696787346
15:11.7;-0.011952256889532229;-0.2568221969770107;-0.7779768403096157;0.784;0.0023880815002536855
15:11.7;-0.01249062859400246;-0.268576191743616;-0.7857455614319361;0.8059999999999999;0.002635929210400409
15:11.8;-0.013100079341346185;-0.27884571408232206;-0.8000973909681555;0.831;0.002922676542341071
15:11.8;-0.013701971643172295;-0.2874448321583148;-0.8208904440118495;0.902;0.003233127038155536
15:11.8;-0.014316350033070314;-0.29431407919885305;-0.8476557765320344;0.902;0.003571600477351004
15:11.8;-0.015092481493101278;-0.2995149402158709;-0.8796666470616119;0.945;0.003976465952540997
15:11.8;-0.01631303386549247;-0.3032107448886102;-0.916006776966565;0.9790000000000001;0.004530832549992807
15:11.8;-0.0183685066310444;-0.3056351245957075;-0.9556307882761346;1.008;0.005364969359981831
15:11.8;-0.021704975560065842;-0.30705045390450075;-0.9974155631049367;1.04;0.006647298559614822
15:11.8;-0.02675307965402956;-0.30769989549434945;-1.0402041381351466;1.072;0.008562877055004222
15:11.8;-0.03384903419267043;-0.3077575662352046;-1.0828463420723948;1.11;0.011280331282126608
15:11.8;-0.043159797863877636;-0.3072822179075622;-1.1242417830581388;1.162;0.01490996255971016
15:11.9;-0.0546241756351554;-0.306181194903375;-1.163388434498834;1.217;0.019457549837686612
15:11.9;-0.06791900474549868;-0.3041929421987163;-1.1994339282815791;1.264;0.024780882947206283
15:11.9;-0.08245494733134201;-0.3008967606236943;-1.231719259931475;1.3359999999999999;0.030559480228008893
15:11.9;-0.09740149751992921;-0.29575618864864833;-1.2597990087929078;1.3359999999999999;0.03629115057777538
15:11.9;-0.11173862793411422;-0.28819613822221424;-1.28342194781804;1.338;0.04132957631521485
15:11.9;-0.12433480812141574;-0.27770482148075853;-1.3024652650637711;1.3090000000000002;0.04497200999946798
15:11.9;-0.13405388211302116;-0.26394317630469905;-1.3168336250339183;1.286;0.04659300721953464
15:11.9;-0.13988921930072712;-0.24684158266923;-1.3263517814920802;1.284;0.04579955874374697
15:11.9;-0.14111169228356965;-0.22666775888534707;-1.3306867016088368;1.3;0.0425626409608634
15:11.9;-0.13740602583807326;-0.20405547758187637;-1.3293291044154092;1.328;0.037272330585474335
15:12.0;-0.1289657455144772;-0.17998563509555252;-1.3216479417604272;1.358;0.030678067721673523
15:12.0;-0.11652218193144687;-0.1557136134001182;-1.3070106017712861;1.3619999999999999;0.02371451797617597
15:12.0;-0.10129557220267299;-0.1326478761048373;-1.2849432809045787;1.3619999999999999;0.017265323513080015
15:12.0;-0.08487151583894532;-0.11220016815821372;-1.2552960678685143;1.3430000000000002;0.011953680263355965
15:12.0;-0.06901788794655735;-0.09563329411835893;-1.2183779217950261;1.3090000000000002;0.00804179135452958
15:12.0;-0.055465248470134544;-0.0839256195782671;-1.17503453602609;1.254;0.005469733291588494
15:12.0;-0.04568099545655151;-0.07766428288515662;-1.1266526435405235;1.181;0.003997117691413112
15:12.0;-0.04067116708782292;-0.07697763718508516;-1.0750864209352882;1.0959999999999999;0.0033658486838802387
15:12.0;-0.04083945540267207;-0.08151656953258465;-1.0225149845020816;1.0090000000000001;0.0034040467676805055
15:12.0;-0.045923139487473064;-0.09048989411161233;-0.9712520350216679;0.935;0.0040361155603416835
15:12.1;-0.05501496760803178;-0.10275138407967607;-0.9235358153233701;0.884;0.005220622424866311
15:12.1;-0.0666698425467794;-0.11692752670222076;-0.8813273376999485;0.8440000000000001;0.006870422333127684
15:12.1;-0.07908486642395318;-0.1315687915996697;-0.8461382904092575;0.8109999999999999;0.008804153787180934
15:12.1;-0.09033082837397981;-0.1453052730736953;-0.8189017768570834;0.79;0.010748532682727062
15:12.1;-0.09860440141823897;-0.1569896503536287;-0.7998938227476199;0.78;0.012382252791465447
15:12.1;-0.10246586051804048;-0.16581374743392097;-0.7887120880577526;0.78;0.013400414226356195
15:12.1;-0.10102820803304874;-0.17138723890233618;-0.7843175751695974;0.7929999999999999;0.013580416167605231
15:12.1;-0.09406969639869926;-0.17376871346194697;-0.785142074921915;0.818;0.01283422295264021
15:12.1;-0.08205236578667119;-0.17344256558345195;-0.7892566744472714;0.845;0.011232205995965272
15:12.1;-0.06604376418344819;-0.17124168747874896;-0.7945854851727379;0.863;0.008986321339946488
15:12.2;-0.04755512453774547;-0.16822533435011044;-0.7991381921668469;0.8759999999999999;0.006393086937731687
15:12.2;-0.028323564976958388;-0.16553086406182516;-0.8012304753991033;0.895;0.0037565083377766443
15:12.2;-0.010076410495149048;-0.16422328665091232;-0.7996640161872257;0.895;0.0013232690196122996
15:12.2;0.00568063611425038;-0.165165572955172;-0.7938446460007486;0.878;0.0007448211815430567
15:12.2;0.01781844034056751;-0.16892652090742133;-0.7838261001684944;0.845;0.002359322153893597
15:12.2;0.025668345059801773;-0.1757348561839744;-0.7702777623595475;0.809;0.0034745865910448294
15:12.2;0.029038409250073113;-0.18548056266086432;-0.7543862308320988;0.778;0.004063169869429354
15:12.2;0.028174588336519903;-0.19775728119080077;-0.7377090622315057;0.754;0.004110315704528573
15:12.2;0.023682638022699105;-0.21193344694716645;-0.7220023061666566;0.733;0.0036238328996442944
15:12.2;0.016426931352150932;-0.2272371852437591;-0.7090419366242753;0.7140000000000001;0.0026467185780780374
15:12.3;0.007421289875428066;-0.24284228012823414;-0.7004555792280495;0.705;0.0012623631146200264
15:12.3;-0.0022754836596398727;-0.2579475318382055;-0.697577494864821;0.703;0.0004094468731641291
15:12.3;-0.01165068789359434;-0.2718457891137243;-0.7013373005909581;0.7120000000000001;0.0022212687965589488
15:12.3;-0.019811578814908117;-0.2839801478644997;-0.712190686961889;0.731;0.004006852520854549
15:12.3;-0.026041760247640475;-0.2939841505098532;-0.730097682154966;0.759;0.005589529119222504
15:12.3;-0.0298407061920922;-0.30170235890933816;-0.7545503294627508;0.8;0.006793225255508971
15:12.3;-0.0309459001348867;-0.3071889843287053;-0.7846465424302853;0.847;0.00745903805842781
15:12.3;-0.02933667527826676;-0.310684934033894;-0.8192007376816791;0.893;0.007466574832507209
15:12.3;-0.025220806710060852;-0.31257589965864985;-0.8568766430056752;0.932;0.006755115335274016
15:12.3;-0.01900800068844487;-0.3133354371656724;-0.8963259867056287;0.972;0.005338410201769176
15:12.4;-0.011276021982328993;-0.31345817798062464;-0.936319081369902;1.014;0.003309477194564843
15:12.4;-0.002733719118776823;-0.31338942192346836;-0.9758566164018752;1.097;0.0008360345672273322
15:12.4;0.005819041894737046;-0.3134580343785301;-1.0142520994124715;1.097;0.001850021626110978
15:12.4;0.013539339204580343;-0.313819852984856;-1.051172626492906;1.138;0.004466341499092451
15:12.4;0.019603901634318622;-0.31441808739920846;-1.086628619107945;1.17;0.006697784581383575
15:12.4;0.023290422528507673;-0.31496520171188713;-1.1209110311950585;1.186;0.008222636371806424
15:12.4;0.02407409565527313;-0.3149493138592469;-1.1544807885892363;1.188;0.008753411771039497
15:12.4;0.02172763790039664;-0.3136685623319781;-1.187819787710255;1.193;0.00809532081172445
15:12.4;0.01640650152614002;-0.3102973213716742;-1.221259767304995;1.207;0.006217303382657756
15:12.4;0.008697321402462455;-0.30398529216457343;-1.2548125992598838;1.226;0.003317546062502663
15:12.5;-0.000392837259502096;-0.29398269122773363;-1.2880285919117402;1.238;0.00014875101493893895
15:12.5;-0.009523709207835773;-0.2797741540789291;-1.319908380201571;1.266;0.0035168796274322404
15:12.5;-0.017186596672319556;-0.26119695870070364;-1.348890752029399;1.266;0.0060552876442525
15:12.5;-0.021922559099843843;-0.2385206393463684;-1.3729337080474318;1.328;0.007179046762223738
15:12.5;-0.02255152154345394;-0.21247196435117485;-1.3896977111393831;1.409;0.0066588284161579105
15:12.5;-0.01836791275518934;-0.18419645806121263;-1.3968241015221718;1.49;0.004725881228555531
15:12.5;-0.009266047701068793;-0.15515642171059912;-1.3922763437317565;1.55;0.0020016573278757066
15:12.5;0.004229105576243754;-0.12697798203013866;-1.37468626073401;1.571;0.0007382110472941544
15:12.5;0.0210303915407038;-0.10127207408153789;-1.3436354398368877;1.536;0.0028616631642900564
15:12.5;0.0396380289162918;-0.07946052601086695;-1.2998099854680136;1.45;0.004093957735129187
15:12.6;0.058336048539909244;-0.0626364318199193;-1.2449923261060354;1.3330000000000002;0.004549154559015464
15:12.6;0.07539698835825175;-0.051478835478796205;-1.1818904160694164;1.092;0.004587329372785301
15:12.6;0.08926240426576665;-0.04622792261426062;-1.1138444086404504;1.092;0.004596184851071109
15:12.6;0.09867936787446388;-0.046713135287446195;-1.0444780998465846;0.997;0.004814649918597205
15:12.6;0.10278696396793521;-0.05241862525470415;-0.9773588348924446;0.912;0.005265961849303471
15:12.6;0.10115697550811459;-0.06256974693233067;-0.915702579208014;0.841;0.005795817098757193
15:12.6;0.09379710480947522;-0.07622716109699668;-0.86214008648919;0.794;0.006164204212727673
15:12.6;0.08112429839309405;-0.09237822658485997;-0.8185547078716339;0.762;0.006134346240228517
15:12.6;0.06391278088023396;-0.11001817642101237;-0.7859986829328135;0.746;0.005526802874470163
15:12.6;0.04321912417337019;-0.12821647573789832;-0.7646867190232736;0.746;0.004237437879890412
15:12.7;0.02028697568049267;-0.1461668339263933;-0.7540574339382718;0.758;0.0022359936937712283
15:12.7;-0.003562744484035064;-0.16322195856164753;-0.7528871353786409;0.7909999999999999;0.0004378175209779564
15:12.7;-0.027044890338093108;-0.1789152202479857;-0.7594366218551725;0.7909999999999999;0.0036747182669017537
15:12.7;-0.049010477889348744;-0.1929711703079746;-0.7716115996583451;0.8079999999999999;0.007297601022136186
15:12.7;-0.06852031521144382;-0.20530674657412173;-0.7871224062582013;0.8290000000000001;0.011072988485798439
15:12.7;-0.08488580629972303;-0.2160246221804743;-0.8036365449592868;0.855;0.014736624255171924
15:12.7;-0.09767813172227033;-0.22539799508228914;-0.8189226435875238;0.8759999999999999;0.01802977357490648
15:12.7;-0.10671053703479955;-0.23384398027445244;-0.8309848183462001;0.89;0.020736076655024152
15:12.7;-0.11200074750394803;-0.24188405351346387;-0.8381845130727007;0.91;0.022707419924336666
15:12.7;-0.11372206997961758;-0.2500941582808003;-0.8393446828554939;0.9329999999999999;0.02387199128778689
15:12.8;-0.11215106464429823;-0.25905033233445895;-0.8338284063952014;0.9259999999999999;0.024225025383888113
15:12.8;-0.10761801063604359;-0.26927592461085437;-0.8215816379667489;0.905;0.023808564432079876
15:12.8;-0.10046666707943173;-0.2811947983955176;-0.8031313721524657;0.882;0.022689026824299675
15:12.8;-0.0910311094550677;-0.29509345314685625;-0.7795367325019348;0.86;0.020940449249042047
15:12.8;-0.07963497878598273;-0.3110946749126481;-0.7522968978033436;0.83;0.018637416764975726
15:12.8;-0.06661070213271189;-0.32914571859440195;-0.7232228579973102;0.794;0.015856391702892506
15:12.8;-0.052327237546845415;-0.3490241361684261;-0.6942817037738511;0.7509999999999999;0.012679992292818137
15:12.8;-0.03721008254118264;-0.3703632181021574;-0.6674260112084845;0.715;0.00919796199106515
15:12.8;-0.021739660339067223;-0.39269590968391166;-0.6444269593548586;0.7020000000000001;0.005501521730666894
15:12.8;-0.006423494221159352;-0.41551123729072825;-0.6267343312854191;0.708;0.0016727752589501426
15:12.9;0.00825029633071971;-0.43831263552620275;-0.6153850191381907;0.735;0.002225360923805005
15:12.9;0.021862411919498698;-0.4606658376443234;-0.6109725920433847;0.763;0.0061532676763608905
15:12.9;0.03409925338551068;-0.482226682539891;-0.61367685468002;0.785;0.010091038217393074
15:12.9;0.04476949007833489;-0.5027455828170411;-0.6233398595035737;0.812;0.014029923730198736
15:12.9;0.053801868385528986;-0.5220529500166405;-0.6395679316388263;0.85;0.017963815741222827
15:12.9;0.06123103203987917;-0.5400349973376183;-0.6618380114930543;0.887;0.02188493149091217
15:12.9;0.06717748412396626;-0.5566095460417657;-0.6895886581067026;0.9229999999999999;0.025784843226860792
15:12.9;0.07182435068895546;-0.5717078646584788;-0.7222800623590531;0.9540000000000001;0.029658658403135238
15:12.9;0.07539110340577963;-0.5852644146488766;-0.7594135043817355;0.981;0.03350815642912344
15:12.9;0.0781037210512185;-0.5972131504112459;-0.8005091558818114;0.995;0.03733940480308912
15:13.0;0.08016150414506983;-0.6074864760098835;-0.845051589394139;1.013;0.041151502316962185
15:13.0;0.08170361667269546;-0.6160120191061016;-0.8924218095068382;1.068;0.04491595545370599
15:13.0;0.08278318133429786;-0.6227048452306087;-0.9418374896571109;1.068;0.04855124048449381
15:13.0;0.08335990089936467;-0.6274579054070983;-0.992318278855167;1.137;0.051903037703786965
15:13.0;0.0833194170436487;-0.6301374648995243;-1.0426858036905133;1.219;0.05474380559054854
15:13.0;0.08251835514219051;-0.6305896089482741;-1.091599589800652;1.276;0.05680162186005196
15:13.0;0.08084291469973376;-0.6286594649819522;-1.1376191727170615;1.306;0.05781683640923763
15:13.0;0.07826287052644988;-0.6242209364962518;-1.1792762158743313;1.3330000000000002;0.05761156109363769
15:13.0;0.07486507070997651;-0.6172144995066136;-1.2151449413343682;1.369;0.056149183107000615
15:13.0;0.07085741300030772;-0.607690754741226;-1.2439085466057394;1.403;0.05356194918494078
15:13.1;0.06654086998600363;-0.5958527043251115;-1.264424566086143;1.426;0.050132609897049187
15:13.1;0.062253117900161754;-0.5820826324400955;-1.2757912952822525;1.4380000000000002;0.04623015863863588
15:13.1;0.05829461870628613;-0.5669389488558447;-1.2774126703659932;1.431;0.04221783708773024
15:13.1;0.05485499503802329;-0.5511174807867957;-1.269053923351263;1.4069999999999998;0.03836546291552461
15:13.1;0.05196004854241592;-0.5353837337022113;-1.2508788493440033;1.376;0.03479765431740202
15:13.1;0.049455841367206856;-0.5204896877445394;-1.2234626704163465;1.351;0.031493465108698715
15:13.1;0.04703724319756893;-0.5070889297458737;-1.1877785868509962;1.3159999999999998;0.028330972428876108
15:13.1;0.044317197376026116;-0.4956606206145716;-1.1451573092300982;1.2590000000000001;0.025154857040916065
15:13.1;0.04092292328409649;-0.4864501477137627;-1.097218523036796;1.192;0.021842287527647528
15:13.1;0.036598766128558634;-0.47943404977160314;-1.045775616091129;1.133;0.01834990542015899
15:13.2;0.031293171069423274;-0.47431688563924623;-0.9927205017852428;1.079;0.01473483072901474
15:13.2;0.02520909427893708;-0.47056474122288955;-0.9398999134228433;1.028;0.011149572992166514
15:13.2;0.01880360191632365;-0.46747357795461725;-0.8889953090773042;0.9790000000000001;0.007814435067815453
15:13.2;0.012733960376840615;-0.4642636881124086;-0.8414168324026409;0.934;0.004974385136729514
15:13.2;0.0077612195069771735;-0.4601870785752436;-0.7982202158516937;0.9;0.002850933644798962
15:13.2;0.004631881146677358;-0.45463303900007146;-0.7600546267496014;0.8759999999999999;0.0016005277468689137
15:13.2;0.003960095727128574;-0.44721741722863745;-0.7271477554024526;0.851;0.0012877959686197868
15:13.2;0.0061291279044896835;-0.4378428600317508;-0.6993309930626372;0.8240000000000001;0.0018767210802422367
15:13.2;0.011225604654186011;-0.42672120764156274;-0.6761033521258595;0.805;0.003238672694112446
15:13.2;0.01901484334717989;-0.41435538990038107;-0.6567288185666734;0.7959999999999999;0.005174302546500898
15:13.3;0.028959843720697594;-0.40148458085435945;-0.6403574098171626;0.785;0.0074453912385817125
15:13.3;0.04028010983145315;-0.38900103691966403;-0.6261551076738908;0.7709999999999999;0.00981122719462633
15:13.3;0.05204047405425785;-0.37785015955491913;-0.6134241928775432;0.758;0.012062067490602194
15:13.3;0.06325623764997673;-0.3689274202315045;-0.6016958371725585;0.738;0.014041752027082854
15:13.3;0.07299980247124827;-0.3629857586292632;-0.5907816240024762;0.716;0.01565446570689641
15:13.3;0.08049470728137081;-0.3605640501018317;-0.5807787778599227;0.693;0.016856231505499066
15:13.3;0.08518539329496237;-0.3619424553810365;-0.5720330552582483;0.672;0.01763704352221452
15:13.3;0.08677616583824346;-0.3671262005917095;-0.5650705010896054;0.6609999999999999;0.018001905307251483
15:13.3;0.0852399910758718;-0.37585687613149965;-0.5605124927107342;0.655;0.01795771984997174
15:13.3;0.08080320738520913;-0.3876488486438722;-0.5589881769371886;0.6579999999999999;0.017509337766078742
15:13.4;0.07391316570441081;-0.40184644156775334;-0.5610564897277383;0.675;0.016664355455039574
15:13.4;0.0651935057264818;-0.41769527197421075;-0.5671470338452589;0.705;0.015443991714197053
15:13.4;0.05538919881349636;-0.4344193306634807;-0.5775244961476587;0.728;0.01389647451425201
15:13.4;0.045302388678305605;-0.4512946551262434;-0.5922759504162395;0.743;0.012108919448597908
15:13.4;0.03572084416733195;-0.4677116857847523;-0.6113174677028765;0.765;0.010213315315336431
15:13.4;0.027343225978609918;-0.48322143286237584;-0.6344175780984781;0.799;0.008382453407929296
15:13.4;0.020707945349704382;-0.49756315406035445;-0.6612375104534085;0.8420000000000001;0.006813067699600681
15:13.4;0.01613294689727277;-0.5106718771166721;-0.6913873580511042;0.887;0.0056960931167541915
15:13.4;0.013672161109536464;-0.5226644127531258;-0.7244920580734789;0.935;0.005177185512947097
15:13.4;0.013093363674713554;-0.5338047828329513;-0.7602539172437375;0.978;0.005313642820059812
15:13.5;0.013882975128079022;-0.5444535178550335;-0.7984937083135821;1.008;0.006035522208892137
15:13.5;0.015283222177143462;-0.5550069897292553;-0.8391536654962637;1.048;0.007117949053433129
15:13.5;0.01636317226584892;-0.565831524598716;-0.8822533520801837;1.048;0.008168606198536125
15:13.5;0.016118810980091533;-0.5771948334328765;-0.9278008162348413;1.064;0.008631975275752856
15:13.5;0.013592676776980832;-0.5891978258342936;-0.9756736075565042;1.084;0.007813950985924144
15:13.5;0.00800158203455831;-0.6017136710008375;-1.0254933550195704;1.111;0.004937403169643943
15:13.5;-0.0011410463613925875;-0.6143447673836252;-1.0765204693278312;1.151;0.0007546363937797277
15:13.5;-0.013924242636344527;-0.6264087281210693;-1.1275927034010482;1.205;0.009835164761493527
15:13.5;-0.02997622192477849;-0.6369613190147241;-1.177125081639723;1.27;0.022475665939383355
15:13.5;-0.04845067308952001;-0.6448598206383663;-1.2231795165357373;1.337;0.03821688914953958
15:13.6;-0.0680673938487008;-0.6488667598109786;-1.263600819271817;1.412;0.055809039506154914
15:13.6;-0.08720566102275083;-0.6477901232018775;-1.2962037232846682;1.5390000000000001;0.07322380032871308
15:13.6;-0.10404449551115919;-0.6406475153524771;-1.318984561979507;1.5390000000000001;0.08791803386475489
15:13.6;-0.11674073471783686;-0.6268289271260857;-1.3303252166307318;1.561;0.09734850263333128
15:13.6;-0.1236320556833337;-0.6062258771618253;-1.3291617850206487;1.56;0.09961928203083985
15:13.6;-0.12344494208147455;-0.5793001075580829;-1.315103436758684;1.5390000000000001;0.0940452406514382
15:13.6;-0.11547721049997305;-0.5470770771338787;-1.2884969902811356;1.489;0.08140071334572271
15:13.6;-0.09971979938352107;-0.5110618289097666;-1.2504357995276774;1.4180000000000001;0.06372593845826446
15:13.6;-0.07689090144831512;-0.4730874292141231;-1.202712429654791;1.3359999999999999;0.04375001033898797
15:13.6;-0.0483741681450422;-0.4351187131283167;-1.147716370495288;1.245;0.02415771467185557
15:13.7;-0.01607297207917676;-0.3990427141233694;-1.088280574902956;1.148;0.006980016565910829
15:13.7;0.01779234713197442;-0.3664787940397164;-1.0274846292566076;1.051;0.006699731937655962
15:13.7;0.05091113603001718;-0.3386361832249945;-0.9684285881748981;0.97;0.016696050510946577
15:13.7;0.08110207645706004;-0.3162362982847371;-0.9139981885412697;0.903;0.023441695824731896
15:13.7;0.10650240536844077;-0.2995042579416367;-0.8666459123987446;0.853;0.027644205352299125
15:13.7;0.1257121056170365;-0.2882214449139297;-0.8282114567199128;0.826;0.03000852336698206
15:13.7;0.1378856723980563;-0.2818215569172917;-0.7998003329755321;0.815;0.0310795650056197
15:13.7;0.14276882726396087;-0.2795079165738207;-0.7817317464532314;0.815;0.031195018991438065
15:13.7;0.1406810365480736;-0.2803704622530732;-0.7735577070559128;0.818;0.030511287534011618
15:13.7;0.13244809166911992;-0.2834864846306027;-0.7741465240776753;0.8290000000000001;0.029067068356444604
15:13.8;0.11929242423262902;-0.28799764916638176;-0.7818175050672508;0.851;0.026860073529974462
15:13.8;0.10269221748004077;-0.2931635387275985;-0.7945101277135906;0.8740000000000001;0.02391921512570185
15:13.8;0.08422385454578224;-0.29839596080046854;-0.8099693890139729;0.8959999999999999;0.020356197662524902
15:13.8;0.06540508587233058;-0.303278338220615;-0.8259294814884547;0.9179999999999999;0.016383092391877893
15:13.8;0.04755710752681473;-0.3075727189696579;-0.840280693503039;0.937;0.012291011628756574
15:13.8;0.03170149814088317;-0.31121533585575734;-0.8512084617306347;0.9490000000000001;0.00839801620662809
15:13.8;0.018502524706592492;-0.3143009212561528;-0.8572974063499967;0.9490000000000001;0.004985493525803979
15:13.8;0.008257707281508797;-0.3170563387790039;-0.8575967122312798;0.9440000000000001;0.0022453240680010175
15:13.8;0.0009316543127324949;-0.3198054002896591;-0.8516467964911721;0.929;0.00025374652820613124
15:13.8;-0.0037780720538013782;-0.32292799312757253;-0.839470757096362;0.9079999999999999;0.0010241922897512767
15:13.9;-0.006357735309537001;-0.32681705996020777;-0.8215370116657981;0.887;0.001707003044719406
15:13.9;-0.007391646472004155;-0.3318369146645977;-0.7987010175314878;0.8640000000000001;0.001959070755964388
15:13.9;-0.0074856798783522254;-0.3382862442118772;-0.7721335323986516;0.8390000000000001;0.0019552756986875234
15:13.9;-0.007206969328157681;-0.3463686687778615;-0.7432411214480541;0.813;0.0018553293043274395
15:13.9;-0.007041229479305533;-0.35617275845860685;-0.713583011210626;0.7859999999999999;0.0017895906426454759
15:13.9;-0.007364919810669636;-0.36766222157183265;-0.6847878452757296;0.765;0.0018542704306610826
15:13.9;-0.00842797530285845;-0.3806760342022448;-0.6584740000000985;0.7440000000000001;0.0021126007128115325
15:13.9;-0.0103444084028298;-0.39493803300026425;-0.636176919002529;0.735;0.0025990373803042198
15:13.9;-0.013091249553046204;-0.41007584039059025;-0.6192860225628417;0.731;0.0033245782804222287
15:13.9;-0.01651889665970076;-0.4256491356921968;-0.6089923578756438;0.7340000000000001;0.004281980004528217
15:14.0;-0.02037664128327861;-0.4411868180244441;-0.6062465963017794;0.746;0.0054500996285128936
15:14.0;-0.024355075266451053;-0.45623127919681267;-0.6117255566431029;0.7879999999999999;0.006797217361675091
15:14.0;-0.02814169711983218;-0.4703846182760343;-0.62580468814655;0.7879999999999999;0.008284040406982638
15:14.0;-0.03147935775801381;-0.48334682086908665;-0.6485351308002294;0.815;0.00986775223157214
15:14.0;-0.034213485009334695;-0.49493382978541745;-0.6796281060583778;0.841;0.011508422159840047
15:14.0;-0.03631478795594676;-0.5050666450884851;-0.7184543469760744;0.85;0.013177450024396336
15:14.0;-0.03786887642522426;-0.5137308317975683;-0.7640673115034827;0.887;0.0148644782758148
15:14.0;-0.03903412884748171;-0.5209168903972594;-0.8152548047238931;0.945;0.01657701375144164
15:14.0;-0.03998149662679446;-0.5265584461512501;-0.8706181585962612;1.008;0.01832877126499879
15:14.0;-0.040836662176255;-0.5304821698992497;-0.9286733649588869;1.078;0.020117963625678883
15:14.1;-0.04164250109123222;-0.5323776411502771;-0.9879627179019039;1.158;0.02190267553768284
15:14.1;-0.04235149730099413;-0.5317940265071941;-1.0471586274749327;1.2209999999999999;0.02358439277372441
15:14.1;-0.0428476644069691;-0.5281701749343843;-1.105137406097038;1.271;0.025010208155847424
15:14.1;-0.0429884154516493;-0.5209004509572898;-1.1610041579151855;1.315;0.025998000385735683
15:14.1;-0.042650820676506426;-0.5094306622247523;-1.2140603869746966;1.345;0.02637866195369204
15:14.1;-0.041765306071002116;-0.49336979721346813;-1.2637192542517037;1.358;0.02603987112766601
15:14.1;-0.04032423485168304;-0.4725968215486556;-1.3093855790269198;1.354;0.024953098756061106
15:14.1;-0.03836235916115831;-0.4473401549345779;-1.3503277527709792;1.3419999999999999;0.02317300655565895
15:14.1;-0.03591759914800987;-0.418212420268542;-1.3855760912813966;1.337;0.020812996281176593
15:14.1;-0.032990145384461184;-0.38619320180395295;-1.4138840174849179;1.379;0.018013688118502624
15:14.2;-0.029521918736185142;-0.3525630923308225;-1.4337799897397494;1.465;0.014923268128952265
15:14.2;-0.025413204860026843;-0.31879873882978993;-1.4437155379651196;1.531;0.011696546794193423
15:14.2;-0.020577442948516548;-0.2864409944048821;-1.4422831209399496;1.567;0.008501138661954667
15:14.2;-0.015014355337249388;-0.25695073104128285;-1.42845238276154;1.556;0.0055108972701531905
15:14.2;-0.008867978758726748;-0.231570740794227;-1.401768690301646;1.511;0.0028786222941648188
15:14.2;-0.0024395115117629915;-0.21121323054374141;-1.3624734793958302;1.44;0.0007020241438320073
15:14.2;0.0038559471344574367;-0.1963872747500037;-1.3115306779426097;1.3630000000000002;0.0009931683431747605
15:14.2;0.009575921989985397;-0.18717146090221756;-1.2505655228184116;1.2830000000000001;0.002241437744216255
15:14.2;0.014351833951489262;-0.18322838453134443;-1.1817350716541488;1.204;0.0031075654073308328
15:14.2;0.017975291453026544;-0.1838524704948332;-1.1075532226266618;1.111;0.003660243818944505
15:14.3;0.020450227598773966;-0.18804213125008587;-1.03069112239229;1.01;0.0039635272278776695
15:14.3;0.022005235901003273;-0.19459088909409686;-0.9537728391308576;0.8590000000000001;0.004084072864415619
15:14.3;0.023068823635542045;-0.20219501483288174;-0.8791903137200626;0.8590000000000001;0.004100896299100803
15:14.3;0.0242118146864188;-0.20957276573054223;-0.8089645609840244;0.809;0.004104796984034169
15:14.3;0.02606093367939548;-0.21558461386913638;-0.7446696237184138;0.763;0.00418380439657099
15:14.3;0.029191692414697656;-0.21933979281220833;-0.6874158509246873;0.715;0.004401454791083644
15:14.3;0.03401720082616669;-0.2202737196823533;-0.6378781489579278;0.669;0.004779681797667086
15:14.3;0.040696749874280125;-0.2181846412245144;-0.5963571094460438;0.653;0.00529529675878871
15:14.3;0.04908784750147203;-0.21322621510246398;-0.5628638876908398;0.638;0.005891392706253835
15:14.3;0.058755566539603336;-0.205861093819941;-0.5372163292925338;0.623;0.00649789215792837
15:14.4;0.0690370854672465;-0.19678482707328315;-0.5191285276057386;0.604;0.007052595135719092
15:14.4;0.07914471891730668;-0.18683102176916774;-0.5082758750160233;0.551;0.007515717139083484
15:14.4;0.08828312939010378;-0.17687133408937744;-0.5043256249552757;0.551;0.007874921009754742
15:14.4;0.09575671882802866;-0.1677262367499258;-0.5069351773707648;0.542;0.008141842334241428
15:14.4;0.1010504033834989;-0.1600982232342946;-0.5157291923690868;0.535;0.008343461736869026
15:14.4;0.10387798471491781;-0.15452773569887418;-0.53026925771358;0.526;0.00851189790932138
15:14.4;0.10420121455974417;-0.15136423759272832;-0.5500296964048841;0.5529999999999999;0.008675253950656929
15:14.4;0.10222535070970785;-0.15074771720466412;-0.574391488026502;0.595;0.008851509684966797
15:14.4;0.09837502588589354;-0.15260256450821127;-0.6026600383878419;0.647;0.009047301984620264
15:14.4;0.09325177529296735;-0.15664728139126538;-0.6341020168556757;0.68;0.009262732136810507
15:14.5;0.08757390825539181;-0.16242144651518697;-0.6679881943140823;0.6920000000000001;0.009501384489023866
15:14.5;0.08210097714395743;-0.16933084286459302;-0.7036292343503937;0.741;0.009782013804025014
15:14.5;0.07754913736779434;-0.17671147894651512;-0.7403986237586658;0.741;0.010146291508248959
15:14.5;0.07450821302376381;-0.1839103849898212;-0.77774523506407;0.789;0.01065731396089465
15:14.5;0.07337226239093109;-0.190377268986046;-0.8152030528133664;0.848;0.011387091235788389
15:14.5;0.07429228094307005;-0.19575832036543697;-0.8524049607467277;0.9079999999999999;0.012396808456410441
15:14.5;0.07715503153502368;-0.1999799496387716;-0.889100194873523;0.975;0.013718335288873585
15:14.5;0.08158734335978776;-0.20330558684999583;-0.9251653416316833;1.02;0.015345868065746063
15:14.5;0.08698255660683035;-0.206346335312807;-0.9605940738019496;0.986;0.017241253272800964
15:14.5;0.09254827016441762;-0.21001075127676927;-0.9954567277429298;1.002;0.01934782810844569
15:14.6;0.09738088793268405;-0.2153903171124978;-1.0298362319348666;1.0270000000000001;0.02160071232364913
15:14.6;0.10057433839106099;-0.2235897142861019;-1.063760073148763;1.082;0.023921185062738902
15:14.6;0.10135783902740099;-0.235523900364731;-1.0971472655608816;1.082;0.02619131190953769
15:14.6;0.09923317644582727;-0.25172015960116634;-1.1297793363692554;1.119;0.028220747889472812
15:14.6;0.09406670095343969;-0.27217113334294024;-1.1612982940164307;1.188;0.02973183834145079
15:14.6;0.08610080574371705;-0.2962683875991149;-1.1912330671863685;1.247;0.030387101042891277
15:14.6;0.07587626728647642;-0.32281582964033007;-1.2190499562902952;1.268;0.029859482984602764
15:14.6;0.0640878169594329;-0.3501067897499589;-1.2442129245644649;1.306;0.027917126854959885
15:14.6;0.05142214063470007;-0.37605608147465575;-1.2662358575398052;1.344;0.024485973545300563
15:14.6;0.03843515340989508;-0.3983867988567131;-1.2847137225931446;1.383;0.019671610687556476
15:14.7;0.02550517426642892;-0.4148617122398212;-1.2993267476943038;1.395;0.013748332583672742
15:14.7;0.012863761129645422;-0.4235302195375833;-1.309817873135105;1.385;0.007136138701615301
15:14.7;0.0006771226578636227;-0.42295311950159176;-1.3159509268285585;1.367;0.0003768766866825412
15:14.7;-0.010861444805817856;-0.41237291540751786;-1.317465962978259;1.3519999999999999;0.0059008848065472625
15:14.7;-0.021463566483680065;-0.3918090123869743;-1.3140544263791263;1.3430000000000002;0.011050696790262892
15:14.7;-0.03072205413839798;-0.3620680816111673;-1.3053746762966798;1.3619999999999999;0.01452030284507869
15:14.7;-0.03813231620011411;-0.3246688323617389;-1.2911155632160902;1.405;0.01598449429344051
15:14.7;-0.04314723505067032;-0.28169010698213076;-1.271094877259914;1.334;0.015449076858541745
15:14.7;-0.04525190333004109;-0.23556182099747675;-1.245362291252385;1.318;0.013275089723624893
15:14.7;-0.044047530195217864;-0.18882567556861682;-1.2142760609078167;1.29;0.010099503923207877
15:14.8;-0.039333991916367994;-0.14389491217776745;-1.1785351380922153;1.23;0.006670463286913929
15:14.8;-0.031177759125081292;-0.10284229707550986;-1.139159241200206;1.167;0.0036525914947455576
15:14.8;-0.01994988998894061;-0.06724350662235558;-1.0974172898057335;1.095;0.0014721859083743937
15:14.8;-0.006320465370841686;-0.03809593132980229;-1.054714727856189;1.024;0.00025395844657859673
15:14.8;0.008796742089249623;-0.015819501888276084;-1.0124598708874906;0.963;0.00014089399469727608
15:14.8;0.024344567238879025;-0.00032988480399796913;-0.9719336257056116;0.9159999999999999;7.805504468330503e-06
15:14.8;0.039253111733920196;0.008839291061254674;-0.9341852213053633;0.885;0.0003241339469944421
15:14.8;0.052579504326386015;0.012395491160546382;-0.8999701781622437;0.875;0.0005865544666468573
15:14.8;0.06363187307621655;0.011156883523085123;-0.8697370504854314;0.8740000000000001;0.0006174553781104389
15:14.8;0.07205335073354215;0.005953608453938383;-0.8436583824582158;0.8640000000000001;0.00036191041150629097
15:14.9;0.0778492327391413;-0.002431117981283139;-0.821691704515857;0.853;0.0001555139221531394
15:14.9;0.08135391821136656;-0.01328542032869374;-0.8036515959412284;0.841;0.0008686035206318423
15:14.9;0.08314931317287433;-0.025972713655079846;-0.7892748298246058;0.8220000000000001;0.0017045284211511975
15:14.9;0.08395681283773293;-0.03992989198373821;-0.7782654821477667;0.799;0.002609046670793315
15:14.9;0.08452712556703436;-0.05466908653437571;-0.7703141693989856;0.754;0.0035596377547464603
15:14.9;0.08554666443061823;-0.06978528245404081;-0.765095060001539;0.754;0.004567539575849584
15:14.9;0.08757036638683231;-0.08496703037056125;-0.7622529810523015;0.755;0.005671614942322479
15:14.9;0.09098306458194019;-0.10000622718847803;-0.7613948805244508;0.765;0.0069278353412126166
15:14.9;0.09598623161719534;-0.11480366053264478;-0.7620939773882468;0.774;0.008397948502274615
15:14.9;0.10260401334955392;-0.12936646038148744;-0.7639073619770715;0.778;0.010139738140899125
15:15.0;0.11070271473276348;-0.14379279642824036;-0.7664039178575576;0.789;0.012199811406111285
15:15.0;0.1200202267421559;-0.15824156678893625;-0.7691986315212505;0.81;0.01460876557766493
15:15.0;0.13020300233620657;-0.17289022534541695;-0.7719887240843858;0.81;0.017378104161858643
15:15.0;0.1408472849376317;-0.18788888411548613;-0.7745859334706174;0.816;0.020498362670923947
15:15.0;0.1515407824788953;-0.20332066270800042;-0.7769396857310825;0.83;0.023938577927941813
15:15.0;0.16190102697655445;-0.21917615031649687;-0.7791483898487441;0.838;0.027647958930289533
15:15.0;0.1716050191906215;-0.23534527324527985;-0.7814585707578761;0.836;0.03156032196871415
15:15.0;0.18040290266078296;-0.2516259378479425;-0.7842533142884226;0.838;0.03560043382621439
15:15.0;0.18811075307529043;-0.26774707415838217;-0.7880334031303721;0.856;0.03969017214339747
15:15.1;0.1945844243135121;-0.28340247145127706;-0.7933951537634493;0.882;0.04375233649136688
15:15.1;0.19968314821912328;-0.298289491486786;-0.801006006279204;0.899;0.0477106289316701
15:15.1;0.2032343797295727;-0.31214467973820237;-0.8115739245466461;0.9109999999999999;0.05148505706186494
15:15.1;0.20501021379038348;-0.3247687578671434;-0.8258044314450353;0.9109999999999999;0.05498281257793408
15:15.1;0.20472241087331441;-0.33603691546315223;-0.8443424306931521;0.914;0.058085935905330406
15:15.1;0.20203876655341216;-0.34589497393761615;-0.8677033540696476;0.9179999999999999;0.06063874943600454
15:15.1;0.19661855213545318;-0.35434513085165276;-0.896205787650658;0.953;0.062439398015254687
15:15.1;0.18816025493086141;-0.36142514271298226;-0.9299209902991481;0.9990000000000001;0.0632400645802799
15:15.1;0.17645325875091217;-0.3671833105869911;-0.9686503041103983;1.04;0.06275952323037404
15:15.1;0.16142690149849784;-0.37165093117563774;-1.0119317876841027;1.079;0.06071029939688042
15:15.1;0.14319277617056334;-0.3748147724689275;-1.0590699363340073;1.126;0.05684109665766268
15:15.2;0.12207667389903346;-0.37659348416600963;-1.1091809569250595;1.182;0.05099268665794585
15:15.2;0.0986355286763959;-0.3768224737006508;-1.161246196283435;1.2990000000000002;0.04316129606434054
15:15.2;0.07365418358771511;-0.3752516427858428;-1.2141615686403469;1.2990000000000002;0.03355803358662181
15:15.2;0.04811742045108158;-0.3715593613364532;-1.266764777330688;1.339;0.022647826217833966
15:15.2;0.023153213193256972;-0.3653833862876318;-1.3178270150462623;1.3519999999999999;0.011148552243894308
15:15.2;-5.496120431757275e-05;-0.3563657479956288;-1.3660132580522617;1.357;2.6755132755016243e-05
15:15.2;-0.020381911919031773;-0.344206344916316;-1.409832310393386;1.379;0.00989079615929808
15:15.2;-0.03688545719851733;-0.3287198823284628;-1.4476056024058912;1.415;0.017552193536913046
15:15.2;-0.04892060853464437;-0.3098904270145794;-1.4774825901612607;1.4480000000000002;0.02239867783322978
15:15.2;-0.056223294826855;-0.28791577247225714;-1.497521826279491;1.492;0.02424124442261206
15:15.3;-0.05895003877686855;-0.2632323264995411;-1.5058428585273285;1.54;0.02336700066525751
15:15.3;-0.05766657716736531;-0.23651317588201518;-1.500837775679709;1.604;0.02046978430531329
15:15.3;-0.05328450544492949;-0.2086378055315033;-1.4814134135440764;1.604;0.01646911332934018
15:15.3;-0.04695134406895876;-0.18063836907171463;-1.4472203235930434;1.595;0.012274185585530298
15:15.3;-0.039905176465290654;-0.1536289603065332;-1.398820891767938;1.545;0.008575598449650137
15:15.3;-0.03331117438856899;-0.128721716461064;-1.3377586741728766;1.454;0.005736137352568414
15:15.3;-0.02810498698430392;-0.10693405506962117;-1.2665083716494034;1.335;0.0038063392161052766
15:15.3;-0.02487194721766995;-0.08909670050900609;-1.1883062842117802;1.209;0.0026332967460023075
15:15.3;-0.023785182357002707;-0.0757766237381283;-1.1068815745277596;1.087;0.0019949999756778167
15:15.3;-0.024611787082931328;-0.06722840110005864;-1.0261237350092374;0.97;0.0016978357155583393
15:15.4;-0.026780799453027047;-0.06338253324100224;-0.9497275726079947;0.863;0.0016121007382084434
15:15.4;-0.029494684648375524;-0.06387250160448732;-0.8808567756434029;0.711;0.0016594454564524087
15:15.4;-0.031859902391313324;-0.06809533567654202;-0.8218666148443641;0.711;0.001783048454292989
15:15.4;-0.03301306954303228;-0.07529471943751546;-0.7741237633458533;0.6729999999999999;0.0019242470319394667
15:15.4;-0.03222639972302368;-0.08465358821717633;-0.737947628085972;0.6559999999999999;0.002013180439653032
15:15.4;-0.028985429700937808;-0.09538439306626677;-0.712675032124576;0.682;0.001970373725499717
15:15.4;-0.023037845453086982;-0.10680632356818931;-0.6968315232670667;0.733;0.0017146149885602507
15:15.4;-0.01441281660254818;-0.11839913469129525;-0.6883804191780136;0.759;0.0011746971017917677
15:15.4;-0.0034097610166117145;-0.12982569616161932;-0.6850103404476743;0.7659999999999999;0.00030323667689607567
15:15.4;0.009442961274971262;-0.1409218325710294;-0.6844181144125414;0.772;0.0009107684678755263
15:15.5;0.023456569490767284;-0.15166093120404453;-0.6845515869080468;0.779;0.00243525473770922
15:15.5;0.03787099471781635;-0.1621074936506607;-0.6837905358850768;0.7559999999999999;0.0041979077362248
15:15.5;0.051950504143980725;-0.1723736702963603;-0.6810567323171737;0.7559999999999999;0.006098794300917593
15:15.5;0.06506508207577047;-0.1825866215642905;-0.6758549810732024;0.732;0.008029166311369582
15:15.5;0.07673955842175574;-0.19286821463629295;-0.6682549771336322;0.711;0.009890589065431924
15:15.5;0.08666439801228257;-0.20332547536522047;-0.6588280593626907;0.6970000000000001;0.011609261889602953
15:15.5;0.09467518601364439;-0.21404853334758953;-0.6485542483940074;0.691;0.013143006783144052
15:15.5;0.10071607583328007;-0.2251113263731029;-0.6387133644614972;0.682;0.01448111980270142
15:15.5;0.10480348881446458;-0.23657043252357504;-0.630769892925174;0.6679999999999999;0.015638934476048038
15:15.5;0.10699997283122602;-0.2484596747657489;-0.6262578414045664;0.664;0.01664917646919567
15:15.6;0.10739803179126954;-0.26078191359686637;-0.6266709889855492;0.6759999999999999;0.017551465318685233
15:15.6;0.10610649702928407;-0.2735031884266098;-0.6333631360621915;0.688;0.018380492880906128
15:15.6;0.1032319239419658;-0.2865553640356078;-0.6474603712539881;0.688;0.019152953566420817
15:15.6;0.09885298494581084;-0.2998506449983373;-0.6697858664197226;0.7120000000000001;0.01985321080676036
15:15.6;0.09299180770165598;-0.31330726450108143;-0.7007998273631214;0.75;0.02041780920174812
15:15.6;0.08559031690475097;-0.32688174477908055;-0.7405598888923746;0.8109999999999999;0.020719319495485566
15:15.6;0.0765025278920415;-0.3405981209688062;-0.7887058447231484;0.8809999999999999;0.02055100631831028
15:15.6;0.0655140793845469;-0.3545601177839378;-0.8444669358924896;0.935;0.01961585197369749
15:15.6;0.05239558088356494;-0.36893322474764567;-0.9066842692787332;0.978;0.017526633627004424
15:15.6;0.03698697630984928;-0.38389140699522273;-0.9738408931829424;1.008;0.013827549679417434
15:15.7;0.019298917296396125;-0.3995341011397039;-1.0440999316379433;1.052;0.00805061143073115
15:15.7;-0.00039220267948466664;-0.41578851270688666;-1.1153621839293508;1.129;0.00018188586874606078
15:15.7;-0.021482161215156073;-0.43231820979885655;-1.1853590158638785;1.228;0.01100858265960175
15:15.7;-0.04303060532140499;-0.44846129062436024;-1.2517879139330044;1.341;0.024156453376306078
15:15.7;-0.06381296227106745;-0.4632182744708129;-1.3124792969866814;1.511;0.038796009014890054
15:15.7;-0.08242067967145429;-0.475299755989219;-1.3655626697955447;1.511;0.05349527432224731
15:15.7;-0.09738544467960468;-0.48323066163621825;-1.4095901789389333;1.551;0.06633479631275575
15:15.7;-0.10730553326703209;-0.48549947067427346;-1.4435864868501103;1.57;0.07520620704122731
15:15.7;-0.11096685307158029;-0.48073773839149775;-1.4670193194072987;1.575;0.07825954510388465
15:15.8;-0.10746328810662496;-0.4679106492278801;-1.4797062459619514;1.5530000000000002;0.0744043901230655
15:15.8;-0.09631986652796834;-0.44649201250415577;-1.4816838670995167;1.506;0.06372137202874587
15:15.8;-0.07760835312526077;-0.4165944593344725;-1.4730728199835503;1.4609999999999999;0.04762622655568751
15:15.8;-0.05202751980883763;-0.37903140384623196;-1.4539776583140025;1.435;0.02867253229009524
15:15.8;-0.020912562615265206;-0.3352968823492073;-1.4244583284447174;1.4140000000000001;0.009988183635721919
15:15.8;0.0138517805270313;-0.28745887172023865;-1.3845944832981598;1.43;0.005513202130860324
15:15.8;0.05001269255617957;-0.2379751862287575;-1.334636423074528;1.43;0.015884548853669633
15:15.8;0.08519273858072415;-0.18945777998344132;-1.2752056184488714;1.435;0.020582363350411418
15:15.8;0.11714884602323465;-0.14441869339787056;-1.2074864562162861;1.393;0.020428839415182472
15:15.8;0.14400686868476326;-0.1050272331393232;-1.1333474798165857;1.2930000000000001;0.01714147599432949
15:15.8;0.16444266683960454;-0.07290649396164033;-1.0553455349967518;1.153;0.012652472501066934
15:15.9;0.17778879282691898;-0.048998351148141016;-0.9765965087799895;1.0070000000000001;0.008507481517664528
15:15.9;0.18405640473966778;-0.03351779683939302;-0.9005328096010551;0.877;0.005555535653386911
15:15.9;0.18387503058628604;-0.02599971334178239;-0.8305954138187475;0.774;0.00397082590504621
15:15.9;0.17836472160527844;-0.025423650893385843;-0.7699168062637495;0.703;0.0034913282014444745
15:15.9;0.16896397133468719;-0.03039088469436021;-0.7210420205371019;0.657;0.003702525229179815
15:15.9;0.15724057017173623;-0.03932314122917108;-0.6857172998392479;0.627;0.0042399225097066884
15:15.9;0.14471095540138257;-0.05065278475797118;-0.6647588526252611;0.605;0.004872690949222422
15:15.9;0.13268868059339878;-0.06297962300767285;-0.6580032700157405;0.602;0.005498724793887028
15:15.9;0.12217603327710232;-0.07517891352028967;-0.6643369812847602;0.617;0.006101975989958879
15:16.0;0.11380503421032365;-0.08645616916993368;-0.6818010403021285;0.65;0.006708340858060934
15:16.0;0.10782606558126086;-0.09635412370102527;-0.7077652827709272;0.7;0.007353317539958084
15:16.0;0.10413613063397;-0.10472355028708831;-0.7391601000223753;0.8170000000000001;0.008060914398062023
15:16.0;0.10233578288407795;-0.11167159534092509;-0.7727442057388553;0.8170000000000001;0.008830920887602647
15:16.0;0.10180425991630183;-0.11749982547710981;-0.8053777003505814;0.8759999999999999;0.009633914177345401
15:16.0;0.10178490604729229;-0.12264130225501861;-0.8342704226609237;0.925;0.01041422557368811
15:16.0;0.10147512193139935;-0.12760286340355337;-0.8571848240800345;0.951;0.011099271514709465
15:16.0;0.10011505923667356;-0.1329155799581656;-0.8725798847129945;0.956;0.011611290651948384
15:16.0;0.09706748768979276;-0.13909368590759233;-0.8796867488092024;0.95;0.011877068334205612
15:16.0;0.09187987824981218;-0.1466009153785956;-0.878513845177631;0.934;0.011833295324189079
15:16.1;0.08432095310764261;-0.15582286278678897;-0.8697881140017976;0.912;0.011428261108180609
15:16.1;0.07438828748994732;-0.16704415555573146;-0.8548445987707342;0.884;0.010622408974611057
15:16.1;0.062289662464419165;-0.18042985053037347;-0.8354788873471076;0.82;0.00938987577145909
15:16.1;0.04840664426252972;-0.19601092216627342;-0.8137789441377442;0.82;0.007721322589350025
15:16.1;0.033251485495708104;-0.21367365165842084;-0.7919547368692832;0.795;0.005626811739496808
15:16.1;0.01742526490224644;-0.2331536596618471;-0.7721812512956138;0.777;0.0031371904074076946
15:16.1;0.0015783165644048147;-0.25403775027049896;-0.7564630932438932;0.764;0.0003033053820198038
15:16.1;-0.013629885895831638;-0.2757782665888387;-0.7465234883698412;0.7609999999999999;0.0028060521262479837
15:16.1;-0.027572197511485978;-0.29772349497763956;-0.7437196116514962;0.773;0.006105113232063442
15:16.1;-0.039693150308184495;-0.3191641757381374;-0.7489862473318528;0.8009999999999999;0.00948863084133443
15:16.2;-0.049540320218075445;-0.33939155275055616;-0.762808195022111;0.836;0.012825526086869017
15:16.2;-0.056782171903949887;-0.3577584081776874;-0.7852189291482026;0.857;0.015951172447355947
15:16.2;-0.061209527931981145;-0.3737330249926848;-0.8158208124414799;0.907;0.018662734879896496
15:16.2;-0.06272320899265141;-0.38693738115103776;-0.8538226872555439;0.907;0.02072223753596346
15:16.2;-0.06131673746219377;-0.3971641988046902;-0.8980942235395708;0.9620000000000001;0.021871120599156423
15:16.2;-0.05706495557255353;-0.4043716714486726;-0.9472406890152574;1.036;0.02185800654600875
15:16.2;-0.05012420067742307;-0.4086582853577793;-0.9997010582667593;1.111;0.020477546479980787
15:16.2;-0.04074134730881873;-0.4102218746143048;-1.0538630926607875;1.175;0.017613205296925394
15:16.2;-0.0292632624083981;-0.40930751167510115;-1.1081777076218855;1.23;0.013273390340629519
15:16.2;-0.016137276984980797;-0.4061494621408697;-1.1612511333251017;1.275;0.007611009897665531
15:16.3;-0.0018964252104942127;-0.40091399401870453;-1.2118981845213426;1.301;0.0009214103168072053
15:16.3;0.01287203774144053;-0.3936526559891082;-1.2591489179717419;1.3130000000000002;0.006380248396760357
15:16.3;0.027571979497859608;-0.3842784059973538;-1.3022111384301864;1.354;0.013797338942238821
15:16.3;0.041649904348809365;-0.3725760844991888;-1.3404004098848856;1.354;0.020800009561747868
15:16.3;0.05463966371104212;-0.35825182969598646;-1.3730549714937117;1.3869999999999998;0.02687722084514634
15:16.3;0.06618623069310113;-0.34101503044434733;-1.3994552139364003;1.392;0.03158640317116391
15:16.3;0.07603979149916128;-0.3206758611788299;-1.4187679603336654;1.375;0.0345954161744539
15:16.3;0.08402047306761336;-0.29723638427897486;-1.4300360689793465;1.375;0.03571363730122222
15:16.3;0.08996486104738009;-0.2709564471614746;-1.4322329566212963;1.4169999999999998;0.034912911338935294
15:16.3;0.09367554632315074;-0.24238320024391416;-1.4243937041036354;1.489;0.03234139847299061
15:16.4;0.09489760559671884;-0.21233810594319516;-1.4058131850396858;1.55;0.02832766683828319
15:16.4;0.09333786052273865;-0.1818583791759903;-1.3762713674164246;1.5659999999999998;0.023361204578204366
15:16.4;0.08872815429093174;-0.15209712230422298;-1.3362224871309247;1.5130000000000001;0.018032719235077176
15:16.4;0.08091868891296229;-0.12419809404102776;-1.286884120117234;1.4069999999999998;0.01293311711904397
15:16.4;0.06997626646627571;-0.09916993073898472;-1.2301877795198373;1.276;0.008536939147335502
15:16.4;0.056259144626991005;-0.0777851203926733;-1.1685943644540442;1.047;0.005113914239536183
15:16.4;0.04044702597873184;-0.060521136410665505;-1.1048200488686803;1.047;0.002704488971844182
15:16.4;0.023517660271915816;-0.04754880758515228;-1.041542469375443;0.966;0.0011646910171162598
15:16.4;0.006673287140987477;-0.03876162789093788;-0.9811483032295333;0.907;0.00025379115220355527
15:16.4;-0.008771997533669666;-0.033832961160045874;-0.9255518349556938;0.867;0.00027468772800525
15:16.5;-0.021526825370657983;-0.032286133253899396;-0.8760884995412559;0.836;0.0006088972351165821
15:16.5;-0.030458702494047075;-0.03356386361355131;-0.8334773778306848;0.807;0.0008520737053434759
15:16.5;-0.03471323628599982;-0.037087462048474594;-0.7978425168077183;0.778;0.0010271630670726664
15:16.5;-0.03380329784826636;-0.042301559450274286;-0.7687806211956585;0.7559999999999999;0.0010993041753958612
15:16.5;-0.027660459041109815;-0.04870498074886951;-0.7454634448074031;0.746;0.0010042899370305005
15:16.5;-0.01664503416961037;-0.0558712366311341;-0.7267649558057019;0.7440000000000001;0.0006758758872519502
15:16.5;-0.00151353602422615;-0.06346254732955395;-0.7114031380143209;0.742;6.833230002385545e-05
15:16.5;0.016655099840951818;-0.07123953778119901;-0.698084294140387;0.738;0.0008282781419633028
15:16.5;0.036568627333006;-0.07906583920204109;-0.6856364244774689;0.731;0.001982400620538052
15:16.5;0.056853734688236034;-0.08690496721307467;-0.67311962578574;0.721;0.0033257978773809475
15:16.6;0.07619392046662904;-0.0948079159456037;-0.6599052329744654;0.708;0.0047670147159408665
15:16.6;0.09345396550316352;-0.10289317278665126;-0.6457199964872479;0.696;0.006209098212210663
15:16.6;0.10777479688476262;-0.11132297267526602;-0.6306560417546326;0.65;0.007566491849099846
15:16.6;0.11862896303719588;-0.12027882594822029;-0.6151520298927752;0.65;0.008777328970995835
15:16.6;0.12583536344888274;-0.1299382133094909;-0.5999545074659669;0.644;0.009809749538279098
15:16.6;0.12953860658606903;-0.1404550517258292;-0.5860671569302921;0.636;0.010663111966291421
15:16.6;0.1301601113229221;-0.15194703262481046;-0.5746897942647134;0.623;0.011365894465789835
15:16.6;0.12832664387964193;-0.16449129163676934;-0.5671446480124998;0.613;0.011971638252864363
15:16.6;0.12478171095828965;-0.17812772593483997;-0.5647882766270156;0.599;0.012553595569501416
15:16.6;0.1202871938997669;-0.19286852623113146;-0.56891119621974;0.594;0.013198520045579042
15:16.7;0.1155253613244225;-0.20871270570136669;-0.5806311704985779;0.603;0.013999952766077725
15:16.7;0.11101356601816242;-0.22566392866712298;-0.6007892062138807;0.612;0.015050825468445982
15:16.7;0.10704383012099701;-0.24374796993559814;-0.6298594509251688;0.638;0.01643411409367338
15:16.7;0.10365578564162044;-0.263024001935195;-0.6678855647985009;0.6779999999999999;0.018209205031508472
15:16.7;0.1006452109733809;-0.28358374636457473;-0.7144558341683073;0.737;0.020391531151487674
15:16.7;0.09760473685129682;-0.3055348785744515;-0.7687253035360307;0.8170000000000001;0.022924658041439703
15:16.7;0.09399032592285218;-0.3289687931271765;-0.8294848814030502;0.902;0.025647576382803197
15:16.7;0.08920696776256411;-0.35391651302827026;-0.8952667920668559;0.998;0.028265201087512012
15:16.7;0.08270781664136337;-0.38029873718845886;-0.9644665532147013;1.0979999999999999;0.03033602062293913
15:16.7;0.07409976775202662;-0.4078756880545375;-1.0354567992936454;1.176;0.031295122108617644
15:16.8;0.0632442617359009;-0.43620067830596887;-1.1066691352473061;1.23;0.0305298915553001
15:16.8;0.050337521601624004;-0.46458123895077935;-1.176627897276657;1.2690000000000001;0.02751646486896398
15:16.8;0.03595305274361729;-0.4920545972293035;-1.243933981481279;1.2919999999999998;0.022006267994639367
15:16.8;0.021032990439674965;-0.5173881011804863;-1.3072140304723165;1.3130000000000002;0.01422538934081946
15:16.8;0.006823028389138484;-0.5391158330920318;-1.3650649656280267;1.3619999999999999;0.005021258565448902
15:16.8;-0.005244054241387973;-0.5556172617375991;-1.416029778997276;1.527;0.004125867640811817
15:16.8;-0.013700299180208474;-0.5652344749893928;-1.4586295633659754;1.527;0.01129545436613148
15:16.8;-0.017205589731947156;-0.566418224146932;-1.4914514633042593;1.6159999999999999;0.014535029098353422
15:16.8;-0.014698876419071274;-0.5578926966698579;-1.5132711853463936;1.69;0.012409422677800394
15:16.8;-0.005526741656374322;-0.5388277476704886;-1.5231817314109737;1.7209999999999999;0.004535976947632688
15:16.9;0.010451565564846237;-0.5089982981879934;-1.520699140916866;1.704;0.008089859520763283
15:16.9;0.03278853749927711;-0.46889919227213833;-1.505819860213194;1.64;0.023151255673759086
15:16.9;0.06042318856496566;-0.41978347316518555;-1.479019537125595;1.5019999999999998;0.03751482171067755
15:16.9;0.09173088072799644;-0.3636084994526472;-1.4412052844915577;1.5019999999999998;0.04807014538184747
15:16.9;0.12465558510813037;-0.30289629713137783;-1.3936481545269783;1.426;0.052620970032375466
15:16.9;0.15691001250460918;-0.2405263156629159;-1.337919259036742;1.37;0.050494393627739234
15:16.9;0.18621656141011694;-0.17948271057190873;-1.2758374465149098;1.319;0.042641872508404226
15:16.9;0.21055420012301274;-0.12258602985063594;-1.209423770693652;1.281;0.031216441131741515
15:16.9;0.2283718789627181;-0.07224599704651535;-1.140852712138696;1.238;0.0188228765245053
15:16.9;0.23873524499755344;-0.030267810354353445;-1.0723875425787837;1.1340000000000001;0.007749065005169237
15:17.0;0.24138962452737417;0.0022662104681187532;-1.0062885782564803;1.043;0.0005504797959243056
15:17.0;0.23673967174175872;0.025027403345474274;-0.9446929960621487;0.963;0.005597286401703362
15:17.0;0.22575821455732578;0.03838335396915398;-0.8894795405907299;0.83;0.0077076581732851
15:17.0;0.20984387603046548;0.043267841747325626;-0.8421416852692833;0.83;0.007646218374029103
15:17.0;0.19065123597408878;0.04100735900801507;-0.803693298709365;0.787;0.00628335753535601
15:17.0;0.1699166011081335;0.03313640005555563;-0.774620738171677;0.76;0.00436144355948064
15:17.0;0.14929672997384158;0.021227410690907614;-0.7548806040006479;0.745;0.0023923547787113764
15:17.0;0.1302324483368618;0.006752683377151285;-0.7439338035293952;0.741;0.0006542291414530701
15:17.0;0.11384570925123846;-0.009012628832519591;-0.7408061476749409;0.7390000000000001;0.0007601034971395005
15:17.0;0.10087490082476577;-0.025045206190342163;-0.7441675788694132;0.74;0.0018800892985303492
15:17.1;0.09164945879413582;-0.040591439179664644;-0.752424025108788;0.748;0.002799155392418165
15:17.1;0.08610247974643073;-0.05515775624923397;-0.7638184401062171;0.764;0.00362754149919112
15:17.1;0.08381826978988083;-0.06848356554420038;-0.7765395744995934;0.785;0.004457472254513494
15:17.1;0.08410950758095456;-0.08050565009086803;-0.7888367633927316;0.8140000000000001;0.005341442950346939
15:17.1;0.08611601748749435;-0.0913203674230977;-0.7991364155034985;0.841;0.00628452573150455
15:17.1;0.08891467081604314;-0.10114736918713432;-0.8061521610625308;0.861;0.007250117396596172
15:17.1;0.0916282070330252;-0.1102961447286538;-0.8089776997226555;0.871;0.008175721157260599
15:17.1;0.09352036818880341;-0.11913460382290783;-0.8071510856414442;0.868;0.008992883517420497
15:17.1;0.09406644049071967;-0.12805765274009642;-0.8006820241902481;0.851;0.009644957670683322
15:17.1;0.09299240182703548;-0.13745408720133692;-0.7900389596932988;0.825;0.01009842470077307
15:17.2;0.09028133942894222;-0.14767227928262305;-0.7760990389713138;0.7929999999999999;0.01034699210067759
15:17.2;0.08615067180325517;-0.15898777331879368;-0.7600699467817142;0.77;0.01041060469905534
15:17.2;0.0810064922632387;-0.17157714318238163;-0.7433961634511016;0.759;0.010332361075004886
15:17.2;0.0753818755527302;-0.18550162934880698;-0.7276614479865966;0.754;0.010175225288768195
15:17.2;0.0698654840407253;-0.20070204709790676;-0.7144943080096964;0.746;0.010018743266197278
15:17.2;0.06502681176229984;-0.21700456484851582;-0.7054771000267666;0.737;0.009955068481264196
15:17.2;0.06134495520802938;-0.23413585916700497;-0.7020565034675559;0.728;0.01008367532516577
15:17.2;0.059147547950406776;-0.2517455257843525;-0.7054551187806375;0.725;0.010504318821192321
15:17.2;0.05856499896888165;-0.2694331499323365;-0.7165888351711316;0.732;0.011307307575468788
15:17.2;0.05950397397680594;-0.2867776192381094;-0.7359987574309307;0.7559999999999999;0.012559383078608714
15:17.3;0.06164467107314667;-0.3033670871310128;-0.7638073161278609;0.7959999999999999;0.014283933351451793
15:17.3;0.06446797168914029;-0.31882810527687583;-0.79970549143117;0.838;0.016437307623355584
15:17.3;0.06731747220594254;-0.3328509197433372;-0.8429731389973611;0.932;0.01888823151403423
15:17.3;0.06949404141284049;-0.345205628321425;-0.8925287422005451;0.932;0.021411527318486674
15:17.3;0.07036889054913673;-0.3557429607219704;-0.9470019369677406;0.998;0.023706524369510075
15:17.3;0.0694936259673014;-0.3643757261252057;-1.0048251639430057;1.081;0.025443972213029863
15:17.3;0.06668654807663607;-0.37104184864519896;-1.0643441145876067;1.166;0.026335598682447125
15:17.3;0.06207932343263556;-0.37565517518117697;-1.1239404730299252;1.242;0.026210762896107354
15:17.3;0.056114318544954904;-0.37805504180894484;-1.182147879839642;1.3;0.025078441000963812
15:17.3;0.04949165824709403;-0.3779691204454196;-1.2377358268009078;1.3319999999999999;0.02315348064084364
15:17.4;0.04307527105089261;-0.3750040233790717;-1.2897423304925018;1.3559999999999999;0.020833723699765015
15:17.4;0.03777455585871952;-0.36867328598275245;-1.337450800343902;1.39;0.0186259679592599
15:17.4;0.03441981168904983;-0.35846356356309267;-1.38032108092091;1.436;0.01703074430635812
15:17.4;0.03364605659468912;-0.34392915500088767;-1.4178920364716376;1.436;0.016407647877044677
15:17.4;0.03579513720469397;-0.3247962935806658;-1.4496739148536144;1.431;0.016854094336213536
15:17.4;0.04084321069041413;-0.30105692641624004;-1.475050101789248;1.4280000000000002;0.018137409984442566
15:17.4;0.0483604665069604;-0.27303712407449604;-1.4932120374012887;1.4369999999999998;0.01971667440690977
15:17.4;0.0575113270211999;-0.24143168939698295;-1.5031518690473245;1.4680000000000002;0.02087134914416721
15:17.4;0.0671038797440099;-0.20729901007154292;-1.503728976903942;1.508;0.020917723950546536
15:17.4;0.07569431249869273;-0.172011056298516;-1.4938092638655405;1.54;0.019449782987338692
15:17.5;0.08174464180767886;-0.13715789927623911;-1.4724558045767169;1.5519999999999998;0.016509061613392315
15:17.5;0.08382071885280305;-0.10441477340620188;-1.4391341942976335;1.5490000000000002;0.012595477130108675
15:17.5;0.08080459718587953;-0.07538805739294191;-1.3938911052152718;1.516;0.00849116869017064
15:17.5;0.07208529976693481;-0.05146069588774296;-1.3374697395231279;1.445;0.004961423831370857
15:17.5;0.05769023220344267;-0.03365751592071756;-1.271337979456046;1.349;0.002468569552216378
15:17.5;0.03832851446514054;-0.022548261792449238;-1.1976212851197898;1.242;0.0010350338701042019
15:17.5;0.015334751241593524;-0.018201288139269575;-1.118949080796179;1.123;0.00031231236860112605
15:17.5;-0.00947858048210795;-0.02019366353980467;-1.0382363319572234;1.003;0.00019872597681767774
15:17.5;-0.034035450348295096;-0.027675449472417433;-0.9584298606748806;0.895;0.0009027895438663871
15:17.5;-0.05624273066807736;-0.03947911321326869;-0.8822527536806533;0.8029999999999999;0.0019589655995466827
15:17.6;-0.07423177627484626;-0.0542602304801508;-0.8119802790756837;0.737;0.003270521198579345
15:17.6;-0.08656193056087125;-0.0706526413741072;-0.7492762229059526;0.691;0.004582445280457928
15:17.6;-0.0923611575348325;-0.08741928591361217;-0.6951095824157976;0.6559999999999999;0.005612416558777702
15:17.6;-0.09139061568657227;-0.10357861090693647;-0.6497596263514226;0.6559999999999999;0.006150698060659017
15:17.6;-0.08403232193822555;-0.11848768744804801;-0.6129038999056693;0.649;0.0061025587908891555
15:17.6;-0.07120854931409965;-0.13187026159393972;-0.5837701643083449;0.6409999999999999;0.005481771151249846
15:17.6;-0.0542476910251574;-0.14378976463112308;-0.5613229707652041;0.633;0.004378466645147137
15:17.6;-0.03471616176851777;-0.15457827965812088;-0.5444525920363364;0.621;0.002921731095870785
15:17.6;-0.014239053193521587;-0.16473896645648092;-0.5321384961950713;0.607;0.0012482515884664428
15:17.6;0.0056683943859036365;-0.17484115060601033;-0.523568309607908;0.5920000000000001;0.0005188921097854797
15:17.7;0.023740334500116683;-0.1854247844575607;-0.5182034246356848;0.575;0.0022811555238414264
15:17.7;0.039057997130594296;-0.19692607971509857;-0.5157921943630074;0.557;0.003967235395322141
15:17.7;0.051098873065084115;-0.2096308087408156;-0.5163398043495828;0.551;0.005530979362133016
15:17.7;0.059737827707479894;-0.22365610700335448;-0.5200496480575797;0.551;0.0069482429269555265
15:17.7;0.06520701556510859;-0.23895612887493636;-0.5272531325089318;0.5660000000000001;0.008215455853421108
15:17.7;0.06802525323463691;-0.2553446864444449;-0.5383421687420826;0.589;0.009350942615506615
15:17.7;0.06890820426130043;-0.2725294201618541;-0.5537124222230392;0.615;0.010398449604669588
15:17.7;0.06866953997218861;-0.29015339172137544;-0.5737191252825129;0.645;0.011431181415859349
15:17.7;0.06812123045819199;-0.30783992106390234;-0.598643338733187;0.6759999999999999;0.01255381074837851
15:17.7;0.06797908084363018;-0.3252366297898669;-0.6286653845117405;0.708;0.013899343507306471
15:17.8;0.06877882600251459;-0.3420552240150992;-0.6638432487448204;0.745;0.015617680317963789
15:17.8;0.07080926023217635;-0.3581035989407347;-0.7040961217211109;0.79;0.017853801216318715
15:17.8;0.07407067101928586;-0.37330585974102126;-0.749195490030836;0.84;0.0207160161271881
15:17.8;0.07826660500349979;-0.38770444006358007;-0.7987670391382709;0.888;0.02423803486791012
15:17.8;0.0828336367344628;-0.401439131983637;-0.8523056591672087;0.9359999999999999;0.028341433053080786
15:17.8;0.08700869595860232;-0.4147026758479171;-0.909202694688078;1.06;0.03280652356332176
15:17.8;0.089927864689309;-0.42767966161618276;-0.9687781082830124;1.06;0.03725951483308251
15:17.8;0.09074538599140049;-0.4404801005947616;-1.0303040391179927;1.129;0.04118283576328092
15:17.8;0.08875893192590001;-0.45307874847996693;-1.0930090857521453;1.193;0.04395512625376835
15:17.8;0.0835265714290442;-0.4652675531956481;-1.1560634858955334;1.24;0.04492717446584114
15:17.9;0.07495979405391263;-0.4766247864920165;-1.2185528408869033;1.2819999999999998;0.04353608525982696
15:17.9;0.0633764996536538;-0.4865037790959294;-1.2794497616577905;1.3230000000000002;0.03944915498443314
15:17.9;0.04950204345671991;-0.49404679577304356;-1.337593448683969;1.442;0.03271262137496406
15:17.9;0.03441660000289442;-0.4982312171394647;-1.3916841481172135;1.442;0.02386379887055173
15:17.9;0.019458899554317784;-0.49795245848135594;-1.440291925544872;1.499;0.01395586254004242
15:17.9;0.006101377086883064;-0.49214207318937836;-1.4818766460924522;1.5490000000000002;0.004449696754382658
15:17.9;-0.004192337361539377;-0.47991177737546153;-1.514821282676846;1.5730000000000002;0.0030477478222298068
15:17.9;-0.010121861685560141;-0.4607048246369735;-1.53748504645967;1.5819999999999999;0.007169585682292842
15:17.9;-0.010709389133015241;-0.43442848321554706;-1.548283592422523;1.591;0.0072033331757828355
15:17.9;-0.005448465692845319;-0.4015405439512933;-1.5458037774516105;1.605;0.0033818783996528595
15:18.0;0.005584029892985799;-0.36306959474786804;-1.528956898726236;1.62;0.0030997941749435977
15:18.0;0.021684013591616317;-0.320559550763563;-1.4971625052602702;1.6280000000000001;0.010406803007485522
15:18.0;0.041568118168268955;-0.2759407116454052;-1.4505374177059174;1.6130000000000002;0.01663815171993089
15:18.0;0.06351719639812105;-0.23134176537907286;-1.3900491835151507;1.557;0.020425633393313856
15:18.0;0.08559454403499395;-0.1888685140189367;-1.3175881492550718;1.4580000000000002;0.021300280673909863
15:18.0;0.10589870860006335;-0.15038294491471263;-1.2359229354732222;1.3219999999999998;0.019682517261854854
15:18.0;0.12280443757247972;-0.11731793144081004;-1.1485288312663342;1.17;0.01654704160877878
15:18.0;0.13515235647484444;-0.09055670269340191;-1.0593090045464526;1.024;0.012964831809396633
15:18.0;0.14236203549562781;-0.070392730463449;-0.9722534858893827;0.898;0.009743197571946815
15:18.0;0.14445803628416515;-0.05656875088796172;-0.8910925364317014;0.799;0.007281839495675644
15:18.1;0.1420126284858879;-0.048379242341450426;-0.8189971150899518;0.733;0.005626889678595537
15:18.1;0.13602167135692916;-0.04481285978771482;-0.7583631942424182;0.698;0.004622618083449389
15:18.1;0.12773929945391782;-0.044709916447692885;-0.7106952416456134;0.66;0.004058932191433364
15:18.1;0.11850036949459958;-0.04691237328489746;-0.676584708903744;0.66;0.0037612247669495447
15:18.1;0.10955691552283382;-0.05038824334947841;-0.6557670200446485;0.649;0.0036200834831016473
15:18.1;0.10194724089239349;-0.05431870253303734;-0.647235769529387;0.6509999999999999;0.0035841598855206737
15:18.1;0.096406980520297;-0.058143557074721575;-0.6493933011218784;0.669;0.0036401382862283186
15:18.1;0.09332434966044902;-0.06156711527347829;-0.6602199106086075;0.691;0.0037934327984238247
15:18.1;0.09273723893769166;-0.06453138936386883;-0.6774468543915844;0.71;0.004054155549497909
15:18.1;0.09436612561365837;-0.06716746135252473;-0.69872053822013;0.7290000000000001;0.004428723511656705
15:18.2;0.09767394375863006;-0.069738300835133;-0.7217486348387349;0.75;0.004916273736063116
15:18.2;0.10194290045726649;-0.07258576363878509;-0.744423778335656;0.773;0.005508440629830392
15:18.2;0.1063584251120873;-0.07609011746019774;-0.7649244400342833;0.812;0.006190399677056122
15:18.2;0.1100913365574398;-0.08064355406089146;-0.7817935519491954;0.812;0.006940885623185653
15:18.2;0.11237115727185944;-0.08663301798238679;-0.7939944471438375;0.833;0.007729577618629679
15:18.2;0.11254632299095288;-0.09442537259781016;-0.8009434661872692;0.8440000000000001;0.008511809217085404
15:18.2;0.11012948248649007;-0.10434950164938006;-0.8025192495128199;0.8420000000000001;0.009222516397597592
15:18.2;0.10482730621125831;-0.11667327384426927;-0.7990485728618082;0.8340000000000001;0.00977279953072294
15:18.2;0.09655493287026962;-0.13157701577394706;-0.7912684691574823;0.821;0.010052598993160139
15:18.2;0.08543577086757358;-0.1491281293518972;-0.7802659325665477;0.807;0.00994127203162851
15:18.3;0.07178739003605204;-0.1692620644123897;-0.7673987808433291;0.7879999999999999;0.009324571907332305
15:18.3;0.056093698176173816;-0.19177288024960337;-0.7542029375406372;0.775;0.008113149597446793
15:18.3;0.03896331215471651;-0.21631410742405832;-0.742292336552004;0.7609999999999999;0.006256272959826668
15:18.3;0.021074979683755025;-0.24240954196736292;-0.7332578270759859;0.752;0.0037460501149793437
15:18.3;0.0031131326832627287;-0.2694740855083043;-0.7285710576390312;0.757;0.000611204513497344
15:18.3;-0.014300690034260198;-0.2968450422522814;-0.7294987369889699;0.772;0.0030967870182805465
15:18.3;-0.030672228559870125;-0.32382269513052026;-0.7370317457390257;0.789;0.007320467370330928
15:18.3;-0.04568453759597741;-0.3497158957762598;-0.7518325243722437;0.81;0.01201173426673333
15:18.3;-0.059224032303916596;-0.3738859228470931;-0.7742041680198299;0.843;0.017143227645842047
15:18.3;-0.07137655933009258;-0.3957814562256713;-0.8040854830499776;0.888;0.02271502780301147
15:18.4;-0.08239283453896136;-0.4149589354812381;-0.8410753164833059;0.943;0.02875606473229927
15:18.4;-0.09262716615653024;-0.43108495055890733;-0.884485008038548;1.002;0.03531764322820359
15:18.4;-0.10245628399026191;-0.44392033400285824;-0.9334111786333703;1.065;0.042453806548911434
15:18.4;-0.11218770035483787;-0.45328954080715056;-0.986814902838067;1.125;0.05018300269214656
15:18.4;-0.12197078400604937;-0.45904329143814393;-1.0435896920370324;1.1740000000000002;0.05843045134643483
15:18.4;-0.13172757672709548;-0.46102541150358445;-1.1026015898407022;1.214;0.06696073022101597
15:18.4;-0.14112089358106095;-0.4590546669773115;-1.1626914060540436;1.248;0.0753217127936279
15:18.4;-0.14957132547149238;-0.4529294333118121;-1.222640307646515;1.2830000000000001;0.08282808025291112
15:18.4;-0.15632348268982307;-0.4424581222691057;-1.2811115964136308;1.3219999999999998;0.08861012644892777
15:18.4;-0.1605509524047994;-0.4275115865764619;-1.336589662012421;1.359;0.0917400290945443
15:18.5;-0.16148358114597722;-0.40808634804541644;-1.387340229330596;1.396;0.09142467353111029
15:18.5;-0.15853859641899617;-0.3843630426938664;-1.4314145683912924;1.4280000000000002;0.08722521821796314
15:18.5;-0.15143590024222947;-0.3567465374833053;-1.4667145645346404;1.508;0.0792381294699704
15:18.5;-0.1402787503968716;-0.325881734641747;-1.4911245415779828;1.508;0.06816568855532987
15:18.5;-0.12558606438816547;-0.2926455423997779;-1.502701860004273;1.5619999999999998;0.05522760220055777
15:18.5;-0.10826971223977364;-0.2581155552318424;-1.4999074086603372;1.6159999999999999;0.04191655776779211
15:18.5;-0.08955657044986821;-0.22351344455063896;-1.481848170578081;1.636;0.029662299374958453
15:18.5;-0.07086113863495677;-0.1901232323824628;-1.4484921915147349;1.62;0.019514591933262812
15:18.5;-0.053621239257562514;-0.15919118469907664;-1.4008078954855758;1.5619999999999998;0.01195733626239428
15:18.5;-0.03911663257547647;-0.1318195572025659;-1.340785792623968;1.46;0.00691354364010234
15:18.6;-0.02829693104522737;-0.10886859975344565;-1.2713211882569868;1.3259999999999998;0.003916492135455523
15:18.6;-0.02164759186638355;-0.09088080743805828;-1.1959638500532324;1.187;0.0023528802313556776
15:18.6;-0.019117788418615615;-0.07803865182925267;-1.118568487972378;0.956;0.0016688218956083358
15:18.6;-0.020122047332246387;-0.07016183342581038;-1.0429038954919843;0.956;0.0014723714413163635
15:18.6;-0.02361342566723828;-0.06674379490553493;-0.9722888933902549;0.8690000000000001;0.001532375560161849
15:18.6;-0.028215612816688815;-0.06702192080528135;-0.9093085796859208;0.8009999999999999;0.0017195612361247412
15:18.6;-0.032395828153096135;-0.07007205302380533;-0.8556346499574984;0.755;0.0019423267529984245
15:18.6;-0.034656689147497526;-0.07491527359154021;-0.811953680459135;0.732;0.0021080878034656137
15:18.6;-0.03372305894298582;-0.08062391078498128;-0.7780017897253466;0.732;0.0021152973148464245
15:18.6;-0.02870093425121689;-0.08641484187354087;-0.752698973252845;0.75;0.0018668339787580605
15:18.7;-0.019188788940491062;-0.091720424262548;-0.7343660835202311;0.7829999999999999;0.0012924871436361257
15:18.7;-0.005326544741711891;-0.09622991350613244;-0.7209955953977558;0.81;0.0003695628319025261
15:18.7;0.012225173187824628;-0.09989745111726675;-0.7105376267077232;0.82;0.0008677537690114257
15:18.7;0.03237223296036163;-0.10291720212459954;-0.7011590448814179;0.812;0.002336023293019934
15:18.7;0.05372608231370882;-0.10567127980686825;-0.6914391143526111;0.79;0.0039255099646918114
15:18.7;0.07477181010789143;-0.10865987286375858;-0.680479189876218;0.754;0.005528686130252782
15:18.7;0.09403954241366526;-0.11242417977786416;-0.6679218760198796;0.7070000000000001;0.007061482754663777
15:18.7;0.1102567563655653;-0.11747195914604068;-0.6538921085708349;0.66;0.008469261057177787
15:18.7;0.12246599695331163;-0.1242141788440279;-0.6388856481346765;0.629;0.009718736943299238
15:18.7;0.13009946369431644;-0.13291954470458295;-0.6236370320863418;0.615;0.010784406446312804
15:18.8;0.13300683378169972;-0.1436908432801299;-0.60899707851479;0.611;0.011639069406812188
15:18.8;0.1314366922270851;-0.1564633846764324;-0.5958400598911807;0.616;0.012253468549874531
15:18.8;0.1259771905760425;-0.17102246804076343;-0.5850068580662263;0.621;0.012603931835313609
15:18.8;0.11746716290098456;-0.18703413085171874;-0.5772785331573494;0.621;0.0126830222257621
15:18.8;0.1068913807227297;-0.20408255972829772;-0.5733686401435205;0.621;0.012507845718343657
15:18.8;0.09527149614412822;-0.22171006146350905;-0.5739226282138968;0.621;0.012122766381488438
15:18.8;0.08356098184915689;-0.23945940906163835;-0.5795165659376904;0.627;0.011595815477697159
15:18.8;0.07255184951348716;-0.25691914116491127;-0.590652678011161;0.64;0.011009741622770684
15:18.8;0.0628016235012132;-0.27376939571769976;-0.6077537782171453;0.6709999999999999;0.010449209478611114
15:18.8;0.05458757373894902;-0.2898220226519471;-0.6311607985891112;0.715;0.009985393674812765
15:18.9;0.047891753817292076;-0.3050460334245164;-0.6611357507910395;0.758;0.009658657492139164
15:18.9;0.04241690927970893;-0.3195694316554431;-0.697867339272786;0.794;0.00945969478284883
15:18.9;0.03763053500888211;-0.33365276635460506;-0.7414719122743544;0.8270000000000001;0.009309574399603397
15:18.9;0.032832278363856764;-0.34763737815317497;-0.79198241738178;0.865;0.009039471234804168
15:18.9;0.027238544941694462;-0.36187822684275417;-0.8493224928405211;0.92;0.008371802680790335
15:18.9;0.020077472581897973;-0.3766737069054991;-0.9132678252045426;0.992;0.00690673041863682
15:18.9;0.01068728718307786;-0.3922026049944015;-0.9833983969730365;1.068;0.0041219948952071145
15:18.9;-0.0013886983599513201;-0.40847392950756917;-1.0590429411878168;1.1320000000000001;0.000600739011736673
15:18.9;-0.01631727654652119;-0.4252918048306616;-1.1392151400388693;1.183;0.007905701934006033
15:18.9;-0.03390925165026848;-0.44223642258758566;-1.2225450305339276;1.2309999999999999;0.018333170532789454
15:19.0;-0.053583790552565506;-0.4586625927657818;-1.3072190369692434;1.2919999999999998;0.03212736580408667
15:19.0;-0.07437674567208283;-0.4737182812318745;-1.390952144658593;1.369;0.04900828503853705
15:19.0;-0.09500243926948035;-0.48638578114985115;-1.4710171057040677;1.564;0.06797251663698163
15:19.0;-0.11396688267695548;-0.49554745799223227;-1.5443422767218449;1.564;0.08721827288485706
15:19.0;-0.12971747122465802;-0.5000760918722922;-1.6076695983836558;1.6580000000000001;0.10428728584830285
15:19.0;-0.14080947131656293;-0.49894664662806365;-1.6577561350107135;1.735;0.11646800054801773
15:19.0;-0.14607223771608285;-0.4913614080168343;-1.6916083896525278;1.806;0.12141394104756102
15:19.0;-0.14475801208513495;-0.4768745695441148;-1.7067396876105916;1.8719999999999999;0.11781865516237586
15:19.0;-0.13665239347135633;-0.45549784198858606;-1.7014298999576623;1.9169999999999998;0.10590528349637034
15:19.0;-0.12212646759304106;-0.42776614465123886;-1.674953681633174;1.899;0.0875022069944811
15:19.1;-0.10211831666945677;-0.3947425907383182;-1.627737546300108;1.8159999999999998;0.06561483115659611
15:19.1;-0.07804220219634024;-0.35794945306469045;-1.5614122041994223;1.7;0.04361830535908097
15:19.1;-0.051635733560765194;-0.3192283679460623;-1.478744418047727;1.5730000000000002;0.02437501811009681
15:19.1;-0.02476818943191686;-0.2805509291697145;-1.3834541804174756;1.4340000000000002;0.009613261408043146
15:19.1;0.0007579738617223097;-0.24381087164654736;-1.279939231235419;1.276;0.00023653567272161155
15:19.1;0.02338124371079033;-0.21063033296233577;-1.1729381173807998;1.123;0.005776484640989751
15:19.1;0.04190996585665475;-0.18220870643703965;-1.0671686314233313;0.983;0.00814928456052229
15:19.1;0.05559817912738271;-0.15923428725995126;-0.9669816503611675;0.867;0.008560820472376033
15:19.1;0.06416969001573238;-0.1418666831192453;-0.8760685335978986;0.78;0.007975325883909945
15:19.1;0.06779640676852552;-0.12978525094012125;-0.7972516019700657;0.723;0.0070149958503461654
15:19.2;0.06703902394362815;-0.12228912909956587;-0.7323733058636304;0.6859999999999999;0.006004101716117391
15:19.2;0.0627586470524035;-0.11842852096778006;-0.6822840619278313;0.669;0.00507101744215596
15:19.2;0.05600807076841121;-0.11714491927018626;-0.6469151033137852;0.6609999999999999;0.004244449408502038
15:19.2;0.047912538592569366;-0.11740078049586952;-0.6254133819160238;0.6609999999999999;0.0035179311520803424
15:19.2;0.039551621032699436;-0.11828585717456876;-0.6163114427999468;0.662;0.0028833498494263065
15:19.2;0.03185448709588838;-0.11909446267949371;-0.6177064361065162;0.665;0.0023433885979175094
15:19.2;0.025519058316732162;-0.11937241528361363;-0.6274283061655593;0.669;0.0019113170470687058
15:19.2;0.020961904987035967;-0.11893439293469457;-0.6431855415426883;0.675;0.0016035203707740547
15:19.2;0.018301541153407118;-0.11785378504708445;-0.6626850109041725;0.682;0.0014293492079549002
15:19.2;0.017373892216424963;-0.11642893693706241;-0.6837285943517571;0.696;0.0013830624742276931
15:19.3;0.017775944600176726;-0.11513155025147452;-0.7042928071990551;0.7170000000000001;0.0014413859805701434
15:19.3;0.01893213727536337;-0.11454398872814432;-0.722597974028335;0.7390000000000001;0.0015669988825439327
15:19.3;0.020176755663805574;-0.11529198851686497;-0.7371707810957724;0.7709999999999999;0.0017148201481616656
15:19.3;0.020843520607202907;-0.1179783790055624;-0.7468994562201738;0.7709999999999999;0.001836689080505014
15:19.3;0.02035197103893119;-0.12312267060434612;-0.751077100308762;0.782;0.0018820407559156393
15:19.3;0.018280658814856455;-0.1311108204710315;-0.7494283053944916;0.778;0.0017962238988175933
15:19.3;0.014418657735693173;-0.14215879540082296;-0.7421165810971995;0.7659999999999999;0.0015211453099554927
15:19.3;0.008788281785779218;-0.15629262066566724;-0.7297327669276225;0.755;0.0010023197654828952
15:19.3;0.0016347594937225214;-0.17334645189857723;-0.7132663593146401;0.7440000000000001;0.00020212524825240447
15:19.3;-0.006615923522823898;-0.19297886413941953;-0.6940621539219087;0.732;0.0008861323382159254
15:19.4;-0.015423642845991547;-0.21470601304062853;-0.6737633621529782;0.731;0.0022312002952121416
15:19.4;-0.02421323533722365;-0.23794821819910467;-0.6542399076398564;0.736;0.003769400745241151
15:19.4;-0.03245181119682828;-0.2620834774037585;-0.6374983499093256;0.708;0.005421976713994288
15:19.4;-0.03971076510152142;-0.2864982087934688;-0.6255703182539992;0.708;0.007117152966374072
15:19.4;-0.04570346766337877;-0.3106250743060248;-0.6203809630102338;0.682;0.008807327080034965
15:19.4;-0.050296618894311626;-0.33396285896588346;-0.6236053407844416;0.6679999999999999;0.010474825277952984
15:19.4;-0.053499635724919115;-0.35608125622396175;-0.6365265828386752;0.6729999999999999;0.012125969845351116
15:19.4;-0.05543957221156161;-0.3766175072175421;-0.6599149888888193;0.701;0.01377870391112418
15:19.4;-0.05632844127695152;-0.39527051268087815;-0.6939488764082348;0.75;0.015450752206934284
15:19.4;-0.05642692718949865;-0.41179481852220096;-0.7381926558160046;0.807;0.0171528779978891
15:19.5;-0.05600579742477245;-0.42599440868747723;-0.7916374381991206;0.871;0.018887009936965984
15:19.5;-0.05530618111144829;-0.43771491510217403;-0.8527999250569529;0.946;0.020644870853138302
15:19.5;-0.054502863084048815;-0.44683244588801097;-0.9198675881490259;1.119;0.022402131098606018
15:19.5;-0.053677858131053906;-0.45323791465481617;-0.9908678019061572;1.119;0.02410666469177665
15:19.5;-0.05281056888556355;-0.4568180702763039;-1.0638279890232183;1.21;0.025664661053054875
15:19.5;-0.05178573353492586;-0.4574377271802074;-1.1368958626961798;1.284;0.02693163987625781
15:19.5;-0.05041493744209723;-0.45492998903374077;-1.2084036282603285;1.339;0.027715059782599603
15:19.5;-0.04846473035312074;-0.4491011043625517;-1.2768721078573277;1.37;0.02779184148662195
15:19.5;-0.04568548777987605;-0.4397536592447768;-1.340957856040329;1.382;0.026940326643367287
15:19.5;-0.041839507536599076;-0.42672674129188226;-1.3993582611760818;1.3880000000000001;0.02498419376317069
15:19.6;-0.03673142832503043;-0.4099467123428766;-1.4507055795651898;1.4;0.02184462057467067
15:19.6;-0.03024524979394641;-0.38947977554307983;-1.4934913997361263;1.429;0.01759319890596843
15:19.6;-0.02238861590290686;-0.36557773913746433;-1.5260609880914784;1.55;0.012490472819577911
15:19.6;-0.01333806356459098;-0.33870955431307215;-1.5466990762315085;1.55;0.006987568145409237
15:19.6;-0.003472335866802079;-0.30957194285133266;-1.5538009631863214;1.6219999999999999;0.00167023932765866
15:19.6;0.006621346897339824;-0.2790727354313737;-1.5461001252004671;1.672;0.0028569416213906984
15:19.6;0.016179834704974697;-0.24828292156643322;-1.5229112023985039;1.686;0.0061178032933833105
15:19.6;0.024340143544476937;-0.21835997161544163;-1.48433911905318;1.653;0.007889133359658266
15:19.6;0.03025428896570049;-0.19045251106045918;-1.43140364364957;1.5719999999999998;0.008247755386682515
15:19.6;0.03322652957789858;-0.16560007907504962;-1.366042613477936;1.449;0.0075163980270369175
15:19.7;0.032846549984789225;-0.14464137182802952;-1.2909843894213695;1.304;0.006133428168665122
15:19.7;0.029089010697675922;-0.12814261642379807;-1.2095105149334695;1.163;0.004508501171261368
15:19.7;0.022356507287353045;-0.11635541851285958;-1.125153049491172;1.0490000000000002;0.002926861484901973
15:19.7;0.013456103566381543;-0.10920983479224099;-1.0413804420341972;0.96;0.0015303490145249662
15:19.7;0.00351331530719232;-0.10634330301191812;-0.9613193577911611;0.882;0.0003591657873487625
15:19.7;-0.006161982150465387;-0.10716049797455271;-0.8875432303609899;0.8190000000000001;0.0005860635006503054
15:19.7;-0.01423633520605742;-0.11091473639927017;-0.8219407695278856;0.77;0.0012978603933414144
15:19.7;-0.019515451212917728;-0.11679935835279015;-0.765665072642734;0.737;0.0017452509788007241
15:19.7;-0.021084966105279962;-0.12403772785157831;-0.7191561942747189;0.715;0.001880831695505136
15:19.7;-0.018410724962148663;-0.13196204349097376;-0.6822244828804773;0.7040000000000001;0.0016574759026712165
15:19.8;-0.011388964415291025;-0.1400727862355818;-0.6541774849076105;0.6970000000000001;0.0010435988604334066
15:19.8;-0.000345914023592866;-0.1480725831970815;-0.6339702548071643;0.6859999999999999;3.247219928559927e-05
15:19.8;0.014007502457911906;-0.15587160774129352;-0.6203587844816292;0.672;0.001354473955669597
15:19.8;0.030657219366894653;-0.16356599792312398;-0.6120399240172988;0.66;0.003069061149861616
15:19.8;0.04839366240167337;-0.1713943198837844;-0.6077678436217704;0.652;0.005041068905646787
15:19.8;0.06593430562469327;-0.17967889954389854;-0.6064441591068916;0.6509999999999999;0.007184546061446208
15:19.8;0.08204958069077846;-0.18875966615950204;-0.6071836133005734;0.657;0.009403848174851757
15:19.8;0.09568029982660956;-0.19892880647723876;-0.6093586546109911;0.669;0.011598269296238362
15:19.8;0.10603434220509685;-0.21037481325059035;-0.612625064846653;0.68;0.013665799716371005
15:19.8;0.11265102752840218;-0.22314389269156415;-0.6169283917636352;0.6920000000000001;0.01550796884452933
15:19.9;0.11542506447409971;-0.2371248466431634;-0.6224887671968636;0.7040000000000001;0.017037611374828582
15:19.9;0.11458805072129151;-0.2520601065376814;-0.6297608628012324;0.7070000000000001;0.01818943103388335
15:19.9;0.110652500288429;-0.2675804567212734;-0.6393673337079583;0.7;0.018930673535197253
15:19.9;0.10432966937995075;-0.28325531455697983;-0.6520091108474243;0.7;0.019268129766389617
15:19.9;0.09643598906682463;-0.29864726013236487;-0.668363217069459;0.706;0.019249090510374003
15:19.9;0.08780188853714742;-0.3133611588799281;-0.6889844496135248;0.723;0.018956512515018068
15:19.9;0.07919291380482112;-0.3270822064014193;-0.7142283316679335;0.754;0.018500365769006367
15:19.9;0.07124968877069958;-0.3395992263454599;-0.744209404479905;0.7979999999999999;0.018007143174632385
15:19.9;0.06445045121485463;-0.35081007761923844;-0.7788020163434538;0.852;0.017608610626663895
15:19.9;0.05909593207088863;-0.36070817758502444;-0.8176811160501997;0.909;0.01743000626191214
15:20.0;0.05531229052690322;-0.36935312525434694;-0.8603907887007426;0.9620000000000001;0.0175775836613832
15:20.0;0.05306680577437247;-0.3768322730121844;-0.906421829365285;1.016;0.01812597568961278
15:20.0;0.052193824130990024;-0.38322199058762035;-0.9552784370934816;1.07;0.01910730847571821
15:20.0;0.052431223396981;-0.38855626194285037;-1.0065174816587383;1.1159999999999999;0.020505257438086916
15:20.0;0.05346630163696619;-0.3928069082494674;-1.059749760799742;1.157;0.02225679309321504
15:20.0;0.054985645640603424;-0.3958761999987437;-1.1145999102137687;1.192;0.0242620629647049
15:20.0;0.0567206088553984;-0.39760019992262063;-1.1706296727843397;1.219;0.02640018720175422
15:20.0;0.05848091206269906;-0.3977599066268359;-1.2272374233547527;1.244;0.028547214113725468
15:20.0;0.06017252670519272;-0.39609728950107986;-1.2835539530073088;1.2790000000000001;0.030592449191818152
15:20.0;0.06179989010108017;-0.39233484175111577;-1.338358520365577;1.325;0.0324501754123232
15:20.1;0.06345479165087471;-0.38619945776841025;-1.3900377786144378;1.3840000000000001;0.034064552328954265
15:20.1;0.06529447705456479;-0.3774527116700806;-1.4366028621070213;1.44;0.03540590706175616
15:20.1;0.06750993815445591;-0.3659291070826906;-1.4757695303818639;1.4769999999999999;0.03645719116159205
15:20.1;0.0702834425004602;-0.35158201954036633;-1.5050977855930276;1.511;0.03719156027570957
15:20.1;0.07373519841360061;-0.3345347869847157;-1.522183483732832;1.556;0.03754768308873508
15:20.1;0.07786463180893988;-0.3151310105556782;-1.5248920707457565;1.61;0.03741713084489451
15:20.1;0.0824993864467994;-0.2939720887251125;-1.5116178586110445;1.6469999999999998;0.03666053774137263
15:20.1;0.08726916433103048;-0.27192401864106047;-1.4815400650327997;1.649;0.035157807804487955
15:20.1;0.09161867233413333;-0.250076622328877;-1.4348352249577438;1.619;0.032874497177213774
15:20.1;0.09486527929073567;-0.22964978156953408;-1.372802255209971;1.541;0.02990758256008266
15:20.2;0.09629557897249619;-0.21185754420244857;-1.2978650633145283;1.411;0.02647767361662603
15:20.2;0.09528453207709686;-0.19775376071313244;-1.2134375814342513;1.261;0.022864652128546537
15:20.2;0.09141440702844884;-0.18808788920247654;-1.1236632328062368;1.12;0.019320201419514012
15:20.2;0.08456980791960275;-0.18319693968457162;-1.033065988007978;0.9890000000000001;0.016005219038191
15:20.2;0.0749898520028523;-0.18295190201613665;-0.9461635169498889;0.875;0.012980924485505318
15:20.2;0.06326801542670234;-0.1867677175299036;-0.8670920049699311;0.7879999999999999;0.010245925766611826
15:20.2;0.05030090099487415;-0.19367633509003726;-0.7992822587187753;0.7240000000000001;0.007786683021989592
15:20.2;0.03719517488361142;-0.20245235540098375;-0.7452141263754054;0.6809999999999999;0.005611649245032437
15:20.2;0.025146054770098052;-0.2117713767603029;-0.7062647368433246;0.6609999999999999;0.003761011315473564
15:20.2;0.015302611094019028;-0.22037537730815346;-0.6826571943199453;0.6559999999999999;0.0023021376177559745
15:20.3;0.008636030700413494;-0.22721922960118865;-0.6735098565199304;0.675;0.0013216096965397407
15:20.3;0.0058265886642074665;-0.23157745885214837;-0.6769801746791311;0.7120000000000001;0.0009134538154849206
15:20.3;0.0071826406199351385;-0.2330992278020577;-0.6904883907340618;0.787;0.0011560626046085232
15:20.3;0.012600634135784793;-0.2318105354287592;-0.7109942203345349;0.787;0.0020767854970638933
15:20.3;0.02157042539516098;-0.22807262949749516;-0.7352900961239042;0.8220000000000001;0.0036173505386004395
15:20.3;0.033226215028163704;-0.2225104640464308;-0.760276779789781;0.856;0.005620863481512994
15:20.3;0.04643891774926968;-0.21592413091419535;-0.783198811288369;0.8859999999999999;0.007853356091283412
15:20.3;0.059939335531615234;-0.20919352184805629;-0.8018263768067588;0.9;0.010054037351615698
15:20.3;0.0724551363969273;-0.20318486077847525;-0.8145737616371443;0.8959999999999999;0.011991981252913933
15:20.3;0.08284210060197311;-0.19866711922378216;-0.820549184785545;0.884;0.01350459969518508
15:20.4;0.09019260910441326;-0.19624579466576114;-0.8195390880964692;0.86;0.014505776498339397
15:20.4;0.09390987221889656;-0.19631991750153183;-0.8119387486868301;0.836;0.014969209981288603
15:20.4;0.09374257989325933;-0.1990649925508287;-0.7986472481345193;0.799;0.01490344925326781
15:20.4;0.08978105027299006;-0.2044404856663809;-0.7809470849450411;0.799;0.014334191218686298
15:20.4;0.08242177196778501;-0.21221665002113205;-0.7603862734513379;0.785;0.013300123389348271
15:20.4;0.07230992554509832;-0.22201369968002288;-0.7386734505818826;0.769;0.011858511478238383
15:20.4;0.060268737300367414;-0.23334678659734417;-0.71758771492812;0.758;0.010091806440408226
15:20.4;0.04722296060767304;-0.24567128714274197;-0.6988996783960661;0.748;0.008108162671526005
15:20.4;0.034122190647798416;-0.2584242507941132;-0.6842989602576298;0.742;0.006034149294686309
15:20.4;0.0218676407221504;-0.27105998518165714;-0.6753233345293124;0.733;0.004002940146608889
15:20.5;0.011244839227848382;-0.2830796381436966;-0.6732856190896481;0.721;0.002143192696600545
15:20.5;0.002865704527249535;-0.29405536643722174;-0.6791977617459902;0.718;0.000572343513747228
15:20.5;-0.002874370993279525;-0.3036494231237525;-0.6936973748074272;0.7240000000000001;0.0006054598276042295
15:20.5;-0.00581757643088158;-0.3116272945972463;-0.7169877572184491;0.7390000000000001;0.0012998382931306799
15:20.5;-0.006037376501351753;-0.3178623676314048;-0.748805395114806;0.77;0.0014369985795255101
15:20.5;-0.003803213795936332;-0.3223292662579636;-0.7884274648073508;0.825;0.0009665230680641409
15:20.5;0.00048028466899722387;-0.32508493381187425;-0.8347254163496066;0.894;0.00013032844205540845
15:20.5;0.006350704613025623;-0.32623939554472237;-0.8862602534432257;0.96;0.0018361983364388488
15:20.5;0.013368434743323204;-0.3259201999216093;-0.9414046039721757;1.024;0.00410174026853016
15:20.5;0.02118557800759363;-0.3242355936652777;-0.998471145124397;1.084;0.0068586165771817855
