Time;AccX;AccY;AccZ;Acc-old;Acc-trns
20:20.5;0.004770244852573714;-0.2682816109251585;-0.9877124992490389;1.025;0.001264043811332296
20:20.6;0.01048386605498774;-0.26597157285207723;-1.024787345837266;1.089;0.002857527635753873
20:20.6;0.015450235942142657;-0.2643273096567484;-1.0608754456671234;1.089;0.004332529707613678
20:20.6;0.01919451401702199;-0.26368768766619144;-1.0949832239049424;1.089;0.005542101023835748
20:20.6;0.021399544854073183;-0.2642207405463023;-1.1261777513341633;1.1159999999999999;0.006367638283104376
20:20.6;0.021946826640415428;-0.2658871925123178;-1.153612152379338;1.161;0.0067317654201555
20:20.6;0.020942987033488427;-0.2684339884485106;-1.176566801428612;1.215;0.006614434468041824
20:20.6;0.018725179502562927;-0.2714185121580467;-1.194510842781888;1.271;0.006070934557515815
20:20.6;0.015836231578291567;-0.2742600007517138;-1.207172557509037;1.311;0.0052430460351902556
20:20.6;0.012964171956259719;-0.27630982576170504;-1.2145950786068356;1.3330000000000002;0.0043508351543719015
20:20.6;0.010850389147218892;-0.2769296690872174;-1.21715027105248;1.335;0.0036572866543588016
20:20.7;0.0101798563477654;-0.27556593806006074;-1.2154907057682214;1.186;0.0034097208599547543
20:20.7;0.011471536706598864;-0.2718095340290651;-1.210440900653303;1.186;0.003774243147093112
20:20.7;0.014988864240669073;-0.26543438862763064;-1.2028578946006057;1.186;0.004785642324321214
20:20.7;0.020689148079543696;-0.2564140659721023;-1.193505446148959;1.1640000000000001;0.006331532762673953
20:20.7;0.028224335034538;-0.24491783479942952;-1.1829739731802789;1.171;0.008177476784831142
20:20.7;0.03699497858495671;-0.2312867105712714;-1.1716562483264057;1.187;0.010025214479211713
20:20.7;0.046247765016122676;-0.21599114937187447;-1.159773143186312;1.203;0.011585099091992032
20:20.7;0.0551966056367853;-0.1995766466119399;-1.1474326585740962;1.218;0.012640064762297119
20:20.7;0.06314072056172017;-0.18260839418634003;-1.1346968401661908;1.212;0.013083083603491058
20:20.7;0.06955292244888055;-0.16562706639403094;-1.121629402832392;1.177;0.01292099855538327
20:20.8;0.07411911153543196;-0.14912304481620875;-1.1083056055887193;1.07;0.012249955109196518
20:20.8;0.07672613399222017;-0.1335291559525056;-1.09478494681391;1.07;0.011216264365348793
20:20.8;0.07741353987380795;-0.11922643816368295;-1.0810677540244424;1.07;0.009977974967476762
20:20.8;0.07631333421083393;-0.10655431205750693;-1.0670628935497837;1.043;0.008676837740935198
20:20.8;0.07359690206174482;-0.09581549942872014;-1.0525827385973383;1.0270000000000001;0.007422522883390523
20:20.8;0.06943960061044709;-0.0872685549606909;-1.037368705551626;1.0270000000000001;0.0062863439820205515
20:20.8;0.06400796557169079;-0.0811068649931254;-1.0211452903255764;1.042;0.00530126088857921
20:20.8;0.05746911217593886;-0.07742919458346946;-1.0036957772668964;1.06;0.00446623249110292
20:20.8;0.05001491176491061;-0.07621103247836883;-0.9849436446075114;1.062;0.003754297934767636
20:20.8;0.04188848362049626;-0.07728830616431405;-0.9650151072394397;1.05;0.003124226708216888
20:20.9;0.033400468307919554;-0.08036447414806171;-0.9442582065438526;0.925;0.002534588332704355
20:20.9;0.024927391359319262;-0.08504519854121238;-0.9232078254367287;0.925;0.0019571589968909488
20:20.9;0.016891230099865397;-0.0908932119477641;-0.9025081820313677;0.925;0.001385619149024464
20:20.9;0.00972306612715957;-0.09748927520049767;-0.8828159179234554;0.862;0.0008368165027169903
20:20.9;0.0038137840461376243;-0.10448840138303507;-0.8647012492582756;0.8140000000000001;0.0003445801604091158
20:20.9;-0.0005431194982572685;-0.11166619700757839;-0.8485593290574486;0.799;5.1463501618008664e-05
20:20.9;-0.0032054821566012224;-0.11895110767619595;-0.8345484438686767;0.795;0.0003182096940019042
20:20.9;-0.00421811350315702;-0.12643703605658205;-0.8225731183328945;0.795;0.0004386994409671732
20:20.9;-0.0038184490876708105;-0.13437156620338053;-0.8123210203154333;0.804;0.0004167945919447465
20:20.9;-0.0024099415173075216;-0.1431183671431066;-0.8033501488227835;0.8270000000000001;0.00027708100532175664
20:21.0;-0.0005111273071357377;-0.1530966888154831;-0.7952126595057832;0.875;6.222690014711246e-05
20:21.0;0.0013062251046009395;-0.16470488910679892;-0.7875923133799706;0.875;0.00016944391849282853
20:21.0;0.0024782831553910355;-0.1782383478509676;-0.7804248761395542;0.875;0.0003447332526497096
20:21.0;0.002504152957096316;-0.193814661286018;-0.7739710708964083;0.856;0.0003756403247673289
20:21.0;0.0009943209613299537;-0.21132002798949726;-0.7688222738863784;0.8320000000000001;0.00016154488496913536
20:21.0;-0.002286557001823031;-0.23038947341667193;-0.7658344992915932;0.802;0.00040344059075579316
20:21.0;-0.007383885266046311;-0.2504285407615442;-0.7660007219902225;0.775;0.0014164392141000415
20:21.0;-0.014129625361059881;-0.27067524971903517;-0.7702838448867947;0.7509999999999999;0.002945981278329103
20:21.0;-0.022138620204300973;-0.2902920881277628;-0.7794420325749408;0.748;0.005009213833711646
20:21.0;-0.030831914337862008;-0.3084718243642179;-0.793883031919107;0.77;0.00755044437304898
20:21.1;-0.039491909039849206;-0.32453778418052404;-0.8135806113885401;0.91;0.010427350812359442
20:21.1;-0.04734721243257063;-0.33801901585804867;-0.8380686638616676;0.91;0.013412667243934322
20:21.1;-0.05367270761795887;-0.34868570853506753;-0.8665019365646571;0.91;0.016216502365073264
20:21.1;-0.0578830917695127;-0.35654008108561436;-0.8977583825645225;0.9740000000000001;0.01852761631103269
20:21.1;-0.05960351661610982;-0.36176851396657056;-0.9305653408778298;1.026;0.020065478601025356
20:21.1;-0.05871010939834818;-0.3646686139690908;-0.9636394006503995;1.074;0.020631263452104677
20:21.1;-0.05533715321929704;-0.3655691886032231;-0.9958240999550939;1.111;0.020145081588986532
20:21.1;-0.04984984143749281;-0.36476011536092545;-1.0262031324670984;1.137;0.018659691600378444
20:21.1;-0.04278612552193709;-0.36244207569372205;-1.0541708064852124;1.146;0.01634754550112418
20:21.1;-0.03477690657898427;-0.3586971000609042;-1.0794524580064206;1.15;0.013465495337637023
20:21.2;-0.026457762831684026;-0.35347601690203223;-1.1020785186470106;1.168;0.010306841774197401
20:21.2;-0.018386170499265754;-0.3466004444046874;-1.1223227116495662;1.168;0.007152175289555164
20:21.2;-0.010975883001610265;-0.3377811560517464;-1.1406163695785607;1.168;0.004228774109034086
20:21.2;-0.004454965304413343;-0.32665604839627815;-1.1574505110666644;1.178;0.0016843698582673736
20:21.2;0.0011529779565218595;-0.3128493928810654;-1.1732773136396468;1.203;0.0004232110455679018
20:21.2;0.006029361744642756;-0.29605308044078354;-1.1884198416188034;1.235;0.0021213426296580384
20:21.2;0.01054499129281177;-0.27612758459480613;-1.2029921445724847;1.237;0.00350282798609163
20:21.2;0.015220689277060231;-0.25320969500265833;-1.216827744554729;1.205;0.004689685874032208
20:21.2;0.020650199328159934;-0.22780079452511648;-1.2294203282938259;1.175;0.0057833552791752155
20:21.2;0.027378626284240794;-0.20080528147769344;-1.239894134427374;1.168;0.006816656194413503
20:21.3;0.03574993081606836;-0.17349704852859502;-1.2470309328961044;1.239;0.007734718691186108
20:21.3;0.04575847399565974;-0.14741084264534346;-1.2493726697723253;1.239;0.00842738748475181
20:21.3;0.05694975049837081;-0.12417940928525481;-1.2453957532692057;1.239;0.008807421799636778
20:21.3;0.06840918121281117;-0.1053490036619091;-1.2337337569876399;1.2919999999999998;0.00889132065676045
20:21.3;0.07885785515147567;-0.09219683244839533;-1.2134200367297678;1.3219999999999998;0.008822102982045209
20:21.3;0.08684618282705123;-0.08556481072779296;-1.1841182745653973;1.329;0.00879915589569542
20:21.3;0.09100844744767543;-0.08572966968436477;-1.1463007738683106;1.3130000000000002;0.008943580937407871
20:21.3;0.09032346247400252;-0.09233587477484319;-1.1013327649008735;1.262;0.00918522089936512
20:21.3;0.08432488078299415;-0.10441066154884586;-1.0514327169130653;1.171;0.009257251653513677
20:21.3;0.07321726765398893;-0.12046442004509786;-0.9994985335133079;1.063;0.008815652712858252
20:21.4;0.05787677074192283;-0.13866430871937238;-0.9488133251602333;0.863;0.007614646694965405
20:21.4;0.039743584321499895;-0.15705620863428216;-0.9026710608033313;0.863;0.0056344517031859135
20:21.4;0.020637005051238697;-0.17380055830620592;-0.8639827863158662;0.7859999999999999;0.0030988669310009196
20:21.4;0.0025306842274687826;-0.18738716281257553;-0.8349240061563838;0.735;0.00039593577306695164
20:21.4;-0.012681596215542174;-0.19680247755345123;-0.8166675783554973;0.708;0.002038214078248683
20:21.4;-0.02340562706158839;-0.20163075702097777;-0.8092341086628326;0.7090000000000001;0.003819013918788593
20:21.4;-0.028527873058462237;-0.20207563606485157;-0.8114860766760911;0.752;0.004678045273160442
20:21.4;-0.027533917387831962;-0.19889735854566112;-0.82127855205447;0.823;0.00449766911229936
20:21.4;-0.020545578985500284;-0.19327471523646697;-0.8357532318389582;0.905;0.003318726713842842
20:21.4;-0.008270176270926589;-0.18661558058182498;-0.8517319396060519;0.983;0.00131451516252604
20:21.4;0.008127270760238028;-0.18035041361500617;-0.8661428613387953;1.032;0.0012695546529416753
20:21.5;0.02720177652814571;-0.17574524083839646;-0.8764066788426201;1.045;0.004189734665908782
20:21.5;0.04742036842733483;-0.1737636294513247;-0.8807221203881356;1.022;0.007257093313807543
20:21.5;0.06733383656180025;-0.17499353424710043;-0.8782161341589564;0.983;0.01034800844394993
20:21.5;0.0857026372920522;-0.17963926511468967;-0.8689538890093913;0.9359999999999999;0.013378030676687571
20:21.5;0.10156436789849872;-0.18756591925847632;-0.8538290679943442;0.88;0.016265455723479236
20:21.5;0.11424372439527002;-0.1983764986817614;-0.8343705648362818;0.83;0.01890956542589545
20:21.5;0.1233170273840759;-0.21150112400073567;-0.8125076822848922;0.8;0.021191573410853547
20:21.5;0.1285517799691034;-0.22628163189598244;-0.7903334337224474;0.7829999999999999;0.022989935400482574
20:21.5;0.1298470592229093;-0.2420406563220037;-0.7698956330285492;0.775;0.024196485852471968
20:21.6;0.12720001226119276;-0.2581295137509155;-0.7530317285007784;0.777;0.024725101993559023
20:21.6;0.12071341888618542;-0.27395358239664885;-0.741251014237746;0.782;0.02451307730758919
20:21.6;0.11063940890004033;-0.28897965472455495;-0.7356593846462834;0.794;0.023520897765184432
20:21.6;0.0974342187354532;-0.30273617530197056;-0.7369171484701201;0.794;0.02173674396702114
20:21.6;0.08179135096106448;-0.3148183797647014;-0.7452205506751428;0.78;0.019188997390399927
20:21.6;0.06462837671647764;-0.32490446151598656;-0.7603036493075782;0.784;0.01596489247386299
20:21.6;0.04701816180577343;-0.332781885004937;-0.7814661505217582;0.8140000000000001;0.012227438714860074
20:21.6;0.030072789678509834;-0.3383782434816841;-0.8076375100567407;0.8740000000000001;0.008218501330794204
20:21.6;0.014804518720029284;-0.3417876579192305;-0.8374823286972278;0.9359999999999999;0.004237662073876447
20:21.6;0.0019967935085093433;-0.34328253484386645;-0.8695387267078659;0.985;0.0005960377869385099
20:21.7;-0.007884245390548841;-0.3433031818049006;-0.9023682834939877;1.045;0.002442428076864768
20:21.7;-0.014719671806797868;-0.34242299388381414;-0.93469029045896;1.045;0.004711170027529685
20:21.7;-0.018707868114701806;-0.3412913801167006;-0.9654768613138861;1.057;0.006164409613822204
20:21.7;-0.02028734255688274;-0.34055834736443436;-0.9939981770973504;1.054;0.006867557115988726
20:21.7;-0.020031324876691244;-0.3407850502740243;-1.0198235302531429;1.053;0.006961698927407304
20:21.7;-0.018534520891612845;-0.3423462225370022;-1.0427952063253312;1.088;0.006616768350390667
20:21.7;-0.016311036609641352;-0.34533463771287454;-1.062992889940146;1.127;0.005987590121862758
20:21.7;-0.01371801011124435;-0.34948487541407425;-1.080696169766643;1.147;0.005181113621921394
20:21.7;-0.010911786140729695;-0.354140663641078;-1.0963388525743198;1.157;0.004236590105622466
20:21.7;-0.00783548595553121;-0.358289810314871;-1.1104425602881203;1.1640000000000001;0.003117428434762697
20:21.8;-0.004232974499216867;-0.3606778933811385;-1.12352329606284;1.16;0.0017153283223037053
20:21.8;0.0003145821541539222;-0.3599877291457234;-1.135978383941926;1.16;0.00012864468465897683
20:21.8;0.0063307805137168575;-0.3550466287621401;-1.1479745735030051;1.16;0.002580328024391028
20:21.8;0.014365895398370567;-0.3450145431741062;-1.1593641920140914;1.157;0.005746322346322546
20:21.8;0.02490446083273041;-0.329517873962604;-1.1696529466538697;1.176;0.009598715952236714
20:21.8;0.03827217669284746;-0.3087105124674765;-1.1780343467065888;1.204;0.013918503231089556
20:21.8;0.054560806699583735;-0.28325498353068507;-1.1834937233953435;1.239;0.018290446244540053
20:21.8;0.073585689093033;-0.2542281988722416;-1.1849682555677512;1.2790000000000001;0.022167861422277915
20:21.8;0.09487930818004564;-0.2229717266817345;-1.18153180148394;1.298;0.024995781620073473
20:21.8;0.11771430487368613;-0.19091898273162444;-1.1725624913637296;1.2930000000000001;0.026352046709866704
20:21.9;0.14114557712804934;-0.15943487190515143;-1.1578537872860541;1.165;0.02605579397511532
20:21.9;0.16406306219523303;-0.1296964607939798;-1.137649649260668;1.165;0.02420736260598994
20:21.9;0.18525210197310013;-0.10262901076714356;-1.1126129552295827;1.165;0.021153264496367483
20:21.9;0.2034653229225225;-0.0788947627919931;-1.083751106707136;1.111;0.017396750331143077
20:21.9;0.2175143069944223;-0.05891854588237503;-1.0523157566195946;1.065;0.013486085882870948
20:21.9;0.22638424753619388;-0.04292930453280406;-1.0196845967816406;1.031;0.009909823418038446
20:21.9;0.2293604446607439;-0.030999720734444496;-0.9872362633925955;0.995;0.0070193581641419395
20:21.9;0.22614174407955503;-0.023074079679119085;-0.9562350114605959;0.97;0.004989646359080904
20:21.9;0.21691193141401402;-0.018984166219862784;-0.9277400351614813;0.95;0.0038203334182699083
20:21.9;0.20234614248028376;-0.018460327886148722;-0.9025472310578887;0.925;0.003371353389123321
20:22.0;0.18354248466924922;-0.021146115699923966;-0.8811637208900723;0.863;0.0034199819885407557
20:22.0;0.16188957064563234;-0.02662010962648638;-0.8638110171535209;0.863;0.003722609228926527
20:22.0;0.13890303535034934;-0.0344226811043666;-0.8504518436115733;0.863;0.0040663631085220515
20:22.0;0.11607004846138444;-0.04408402995729309;-0.8408348709779694;0.856;0.004302413712006132
20:22.0;0.09472433520848954;-0.055152242407452964;-0.8345490826866862;0.857;0.0043599009711918
20:22.0;0.07595560076448662;-0.06722113577624779;-0.8310778979842111;0.852;0.004243335609097676
20:22.0;0.06055141050407546;-0.07995567928678836;-0.8298448818690386;0.841;0.004017635208217748
20:22.0;0.0489698446109361;-0.09311095240543281;-0.8302472920215717;0.825;0.0037856195226634525
20:22.0;0.041340910736187904;-0.10654079761562818;-0.8316797450822877;0.818;0.0036631281177829248
20:22.0;0.03749468042484648;-0.1201936632515083;-0.8335561076151781;0.82;0.003756523120289844
20:22.1;0.03701373964569378;-0.13409473454871798;-0.8353396670118709;0.867;0.0041460811251368985
20:22.1;0.03930481056185215;-0.14831506047574375;-0.8365865061747075;0.867;0.004876877152193289
20:22.1;0.04368098304530858;-0.1629301961928179;-0.8369970910506122;0.867;0.005956867399209458
20:22.1;0.04944574287330445;-0.17797372191118144;-0.8364645226451234;0.885;0.0073609236767672335
20:22.1;0.055972492564415735;-0.1933943864743924;-0.835108655633591;0.893;0.009039855664005832
20:22.1;0.06277341759302638;-0.2090267810685445;-0.8332883412403995;0.888;0.010933847490892332
20:22.1;0.06954828448776457;-0.2245827096522567;-0.8315861399585098;0.875;0.012988828473760783
20:22.1;0.07620281310766677;-0.2396654958646808;-0.830764071748712;0.866;0.015172397925170179
20:22.1;0.08283158832870867;-0.2538048239098398;-0.8316959752260191;0.8640000000000001;0.01748479163597174
20:22.1;0.08966910823557622;-0.266506319146038;-0.8352874287932086;0.871;0.019961184417008213
20:22.2;0.09701929061006742;-0.277307980223506;-0.8423944163186425;0.9079999999999999;0.022663967670148923
20:22.2;0.10517662961127043;-0.28583449397523425;-0.8537470697964891;0.9079999999999999;0.025666290964123827
20:22.2;0.11435250382279206;-0.291840661709259;-0.8698786314638417;0.9079999999999999;0.029030207636859245
20:22.2;0.12461905421200585;-0.2952379351248012;-0.8910583573283037;0.914;0.032784061667007924
20:22.2;0.1358802070967172;-0.2961026449599324;-0.9172325669649121;0.929;0.03690438336828708
20:22.2;0.14787422079695897;-0.29466734698158376;-0.9479850895224133;0.9570000000000001;0.04130722199934821
20:22.2;0.16020515877267608;-0.29129686372518393;-0.9825306103967729;1.004;0.045852011751126034
20:22.2;0.17239398362921593;-0.2864510934162343;-1.0197502339970757;1.056;0.05035775995521919
20:22.2;0.18393587292559732;-0.28063912001236163;-1.058269955515935;1.109;0.05462747340066459
20:22.2;0.19434995752016623;-0.2743714569147235;-1.0965737404167357;1.156;0.05847378695220316
20:22.3;0.20321114949589186;-0.2681168294054089;-1.1331365533830475;1.261;0.06173818489278385
20:22.3;0.21016113889124308;-0.26226739535274446;-1.1665572105269126;1.261;0.06429878386938745
20:22.3;0.21490484582456507;-0.2571142346288546;-1.1956666623247652;1.261;0.06606667495795293
20:22.3;0.2172042763088844;-0.25283364765844;-1.2195927646398355;1.2790000000000001;0.06697582638794719
20:22.3;0.21688079371661423;-0.24948355971608976;-1.2377791475386073;1.29;0.06697399232619998
20:22.3;0.21383179209350323;-0.2470092987532642;-1.2499691276633222;1.297;0.06602142064151867
20:22.3;0.20806113653774255;-0.2452594238662656;-1.2561669044562347;1.308;0.06410088378201527
20:22.3;0.19971402097354596;-0.24401201737718453;-1.2565846144704926;1.294;0.061236661967780937
20:22.3;0.18909812796396308;-0.243008057410945;-1.2515829589546115;1.264;0.057513201634288365
20:22.3;0.17667132448439654;-0.24198446332155688;-1.2416154468515976;1.254;0.0530811905176155
20:22.4;0.1629872807102502;-0.2406996016460803;-1.2271879252986335;1.239;0.04814377702640941
20:22.4;0.14861105535558358;-0.23894854403821686;-1.2088413725297062;1.239;0.04292643499980986
20:22.4;0.13403374573156018;-0.2365706199638554;-1.1871568189850887;1.239;0.03764289827271347
20:22.4;0.11961503346276528;-0.2334541425050241;-1.1627719249781747;1.2229999999999999;0.03246997004433266
20:22.4;0.10556598349799463;-0.22954159520491788;-1.1363938059981604;1.196;0.027536849531694878
20:22.4;0.0919677095522863;-0.22483543014745117;-1.1087936761309458;1.1540000000000001;0.02292719160404313
20:22.4;0.07881525898986093;-0.21940239117092486;-1.0807753413402033;1.105;0.018689044186943417
20:22.4;0.06607676039026475;-0.21337321704530415;-1.0531192229177073;1.057;0.014847939441252477
20:22.4;0.05375803335072392;-0.2069346621477634;-1.0265127958385476;1.018;0.01141933942762534
20:22.4;0.041959739211739296;-0.20031220019933169;-1.0014837564651375;0.988;0.008417518725130578
20:22.5;0.03091131320449999;-0.19374429335445437;-0.9783522459338398;0.9540000000000001;0.005859244504066481
20:22.5;0.020970546118365265;-0.18745260651246526;-0.9572137628980654;0.9540000000000001;0.0037627915365242943
20:22.5;0.01259023495107745;-0.18161579562716326;-0.937956890653773;0.9540000000000001;0.0021447186612233073
20:22.5;0.006262647912920282;-0.17635424191738494;-0.920311171884073;0.955;0.0010164326351559882
20:22.5;0.002451999542011774;-0.17172880596664938;-0.9039124761036029;0.948;0.00038061851956602144
20:22.5;0.0015228840250097588;-0.16775257887351558;-0.8883692109198892;0.9279999999999999;0.00022694965907118565
20:22.5;0.00367509294837409;-0.1644132991688675;-0.873314758790786;0.904;0.0005276866065447509
20:22.5;0.008897554495191296;-0.1617034498179894;-0.8584385036736757;0.883;0.0012350914941987917
20:22.5;0.01695172742492695;-0.15965286202452106;-0.843496079110818;0.858;0.0022828308715417303
20:22.5;0.02738885439807951;-0.15835600079963597;-0.8283053532301565;0.8370000000000001;0.0035925172385497307
20:22.6;0.03959790150256339;-0.15798585487443254;-0.8127370879802139;0.813;0.005084408710762314
20:22.6;0.05287266786522143;-0.15878965500422093;-0.7967090629231433;0.813;0.006688876652675564
20:22.6;0.06648058119653144;-0.16106644044438645;-0.7801900336907536;0.799;0.008354111487121691
20:22.6;0.07971735039678238;-0.16513030823886912;-0.7632151784394603;0.787;0.01004677429593485
20:22.6;0.09194049887557708;-0.17126587070829588;-0.7459097154644774;0.779;0.011745295471951038
20:22.6;0.1025835072363081;-0.17968435510070194;-0.7285146734889429;0.773;0.013428456973751743
20:22.6;0.11115677700583627;-0.19048852624473714;-0.7114079780139954;0.764;0.015063417004188168
20:22.6;0.11724376797343075;-0.2036514584866087;-0.6951137068159957;0.7509999999999999;0.0165971356828678
20:22.6;0.12050139585265135;-0.2190101903011505;-0.6802932153416613;0.735;0.017953641129270278
20:22.6;0.12067141052037417;-0.23627292128962415;-0.6677149782140372;0.7170000000000001;0.01903747993574683
20:22.7;0.11760357944780517;-0.2550375997554095;-0.6582051446097714;0.7090000000000001;0.019741767154185838
20:22.7;0.11128476228625439;-0.2748184779879427;-0.6525863499451661;0.7090000000000001;0.019958119468864582
20:22.7;0.10186396306974828;-0.29507537579246046;-0.6516153909414638;0.7190000000000001;0.019585960358076193
20:22.7;0.08966365661343201;-0.3152410106768725;-0.6559284640771715;0.73;0.018540252085866
20:22.7;0.07517113587589336;-0.33474539029695216;-0.6659972678219758;0.742;0.016758616600764137
20:22.7;0.05900838758755565;-0.3530393273523005;-0.6820950351935707;0.76;0.014209595757022424
20:22.7;0.04188343570634798;-0.3696197215139213;-0.7042709538460918;0.782;0.010902779085920978
20:22.7;0.02452946329966277;-0.38405814317555265;-0.732333229613308;0.813;0.006899121043257623
20:22.7;0.007640187580742747;-0.39603177194454303;-0.7658432627278575;0.853;0.0023172556326997683
20:22.7;-0.008189428108705737;-0.4053523794367536;-0.8041245830934706;0.897;0.0026693753193090513
20:22.8;-0.02250926482534751;-0.4119866931338441;-0.8462892131374149;0.948;0.007848077896021731
20:22.8;-0.0350413986043386;-0.41606189814013333;-0.8912808502775192;0.997;0.01299433184373123
20:22.8;-0.045685361510212866;-0.41785277207532295;-0.9379302735913814;1.04;0.01790485908333266
20:22.8;-0.05449987963620073;-0.417749972354506;-0.9850162891443822;1.075;0.022426184223391547
20:22.8;-0.06166225647857221;-0.4162114747539747;-1.0313268004163447;1.109;0.026468526587412392
20:22.8;-0.0674104934980234;-0.41370172212222395;-1.0757180412451823;1.149;0.029999449660318245
20:22.8;-0.07197766617636038;-0.4106255503692418;-1.1171725875105059;1.2;0.033019006409967994
20:22.8;-0.07553072730341527;-0.4072653853711293;-1.1548556845130944;1.249;0.03552457433476957
20:22.8;-0.07812465124160535;-0.4037302678534566;-1.1881645997099686;1.2830000000000001;0.0374762398962055
20:22.8;-0.07967791423509538;-0.3999244584561038;-1.216760970389619;1.3019999999999998;0.038772266821981614
20:22.8;-0.0799696381796525;-0.395541966043216;-1.240576172075325;1.319;0.039241096506957285
20:22.9;-0.07865571517822899;-0.3900913419484216;-1.2597848232561688;1.3330000000000002;0.03865386874267798
20:22.9;-0.07530230267657642;-0.38295228782070473;-1.2747473666149958;1.345;0.036760130850713356
20:22.9;-0.06943856073203883;-0.37346099257833254;-1.2859263026749208;1.335;0.03334740448226222
20:22.9;-0.06063180001115088;-0.36101384908906886;-1.2937841529500527;1.306;0.02831953717329571
20:22.9;-0.0485819098138486;-0.34517209847720587;-1.298677937761491;1.286;0.02177768586601371
20:22.9;-0.03321812869734001;-0.32574855061556207;-1.3007727966734852;1.298;0.014075346705744136
20:22.9;-0.014770202005624148;-0.30286260504312323;-1.2999983521994576;1.32;0.005815337042192304
20:22.9;0.00621075938550828;-0.2769558812435229;-1.2960604238467535;1.3259999999999998;0.0022293617505330003
20:22.9;0.02889060688915265;-0.24876577163062122;-1.288503054022285;1.327;0.009260463867264238
20:23.0;0.05224151768541306;-0.2192619875012791;-1.2768025503449583;1.305;0.014625235677502096
20:23.0;0.07516139507682341;-0.18956093086547646;-1.260472567691478;1.305;0.017958789645740166
20:23.0;0.09659474200445682;-0.16083589415196436;-1.2391643244636041;1.288;0.019251535135837654
20:23.0;0.11562954445797902;-0.13423340050407498;-1.2127516765651254;1.263;0.01882353953777644
20:23.0;0.13155853608903884;-0.11079616530495943;-1.1813932531612197;1.23;0.017220202258614724
20:23.0;0.14390663882173418;-0.09139213755962791;-1.1455651180862834;1.1909999999999998;0.01506639835045101
20:23.0;0.15243188235334168;-0.07665517223667145;-1.1060597987210417;1.149;0.012923968298597018
20:23.0;0.15710750096397388;-0.06694614182953545;-1.0639507651564861;1.091;0.011190358629372909
20:23.0;0.15809227122772904;-0.062339871873482944;-1.0205251477430584;1.025;0.010057736539514217
20:23.0;0.155695310053812;-0.06263745838957707;-0.9771922606693153;0.973;0.009529929254307712
20:23.1;0.15034010745909887;-0.06739945806394937;-0.9353806823121629;0.909;0.00947806444673096
20:23.1;0.14253094236602978;-0.0759932269571595;-0.8964391604902725;0.909;0.009709678798365613
20:23.1;0.13282372605902942;-0.08764693322405123;-0.8615531520453138;0.87;0.01002985049649168
20:23.1;0.12180200140643208;-0.10150470360956808;-0.8316800561053933;0.835;0.010282456456428758
20:23.1;0.11005667090587053;-0.116681113784959;-0.8074991765605344;0.8029999999999999;0.010369528890438377
20:23.1;0.09816639897104834;-0.1323152973517429;-0.789373282528772;0.7859999999999999;0.01025310347238663
20:23.1;0.08667585856218743;-0.14762410593459072;-0.7773238390434101;0.775;0.009946205305212145
20:23.1;0.07607068260138238;-0.16195186726708102;-0.7710244787339222;0.7709999999999999;0.009498858962443728
20:23.1;0.06675006524393312;-0.17481280405361055;-0.7698162963424203;0.767;0.008982806283553506
20:23.1;0.05899957966235769;-0.1859212798327056;-0.7727474027555391;0.7709999999999999;0.008476480590367534
20:23.2;0.052967813272411436;-0.19520493106481557;-0.7786385174869754;0.823;0.008050793948926266
20:23.2;0.04865183900461096;-0.2027969842854758;-0.7861729542421665;0.823;0.007756733180571582
20:23.2;0.045898404317286846;-0.20900691180891065;-0.7940026022516239;0.823;0.007616933455808188
20:23.2;0.04442729205704768;-0.21427223905453535;-0.8008581283630095;0.838;0.007623797258636229
20:23.2;0.04387831659130911;-0.21909737866985446;-0.8056553775342465;0.8590000000000001;0.007745267990497175
20:23.2;0.04387562320548636;-0.22398722207007013;-0.807593700669957;0.8740000000000001;0.007936690859632377
20:23.2;0.04409627225281608;-0.22938395613119383;-0.806239688364678;0.882;0.008155096210658214
20:23.2;0.04432763186233083;-0.23561508165472306;-0.8015856484088466;0.8809999999999999;0.008371967802674811
20:23.2;0.044500887213793514;-0.2428589410615952;-0.794071681111621;0.873;0.008581880735158786
20:23.2;0.04469419898223351;-0.25113190234978805;-0.7845634314601364;0.862;0.008806049177242427
20:23.3;0.045105835232367456;-0.26029874951501863;-0.7742830238593549;0.802;0.009090851181287302
20:23.3;0.04600389941843115;-0.27010328819364904;-0.7646992544892542;0.802;0.009502003439604261
20:23.3;0.04766446719294236;-0.2802105052861138;-0.7573932036098112;0.802;0.010115807578913432
20:23.3;0.050311289500977734;-0.29025036694123374;-0.7539187946460844;0.79;0.011009378328918913
20:23.3;0.054066723276860316;-0.2998581706747649;-0.7556714794097822;0.792;0.01225120955417499
20:23.3;0.058918963913585455;-0.3087103242314601;-0.7637716232959476;0.7979999999999999;0.01389215991489371
20:23.3;0.06470796129618867;-0.3165533485954902;-0.7789687821821542;0.809;0.0159560240540124
20:23.3;0.07113058158492723;-0.3232225329339912;-0.8015743506173725;0.833;0.018429001304827695
20:23.3;0.07776335596415787;-0.3286489248077386;-0.8314287313445519;0.8640000000000001;0.02124869382459058
20:23.3;0.08409912579682031;-0.3328565520849772;-0.8679064229255387;0.8959999999999999;0.02429525680210347
20:23.4;0.08959302446773788;-0.3359523784552724;-0.9099589490112601;1.0270000000000001;0.027388844999987803
20:23.4;0.0937130395765543;-0.3381099763789376;-0.95618832288007;1.0270000000000001;0.030297126868844247
20:23.4;0.09598980299600764;-0.339546731611011;-1.00493493137736;1.0270000000000001;0.03275386821148438
20:23.4;0.09606039409429384;-0.34049456652577903;-1.0543663300739419;1.084;0.034486258468328417
20:23.4;0.09370321475895992;-0.3411652110303078;-1.1025696188643268;1.149;0.03524725102894017
20:23.4;0.08886388430366055;-0.3417125100682313;-1.1476593314513543;1.215;0.03484970959446132
20:23.4;0.0816738779995446;-0.34219609905088266;-1.1879029712170854;1.275;0.0332000853383766
20:23.4;0.07246381549572993;-0.342552854423395;-1.2218503017144928;1.329;0.030329607405395732
20:23.4;0.06177025861384735;-0.34258383174422113;-1.2484438983236887;1.3730000000000002;0.02641893542171056
20:23.4;0.05032760108723406;-0.34196300208015595;-1.2670879652149938;1.385;0.021806808859512392
20:23.5;0.03902988292760233;-0.34026930832990604;-1.277658300448576;1.315;0.016968159881053917
20:23.5;0.02885071183116648;-0.3370384061595679;-1.2804502126557689;1.315;0.012450839130037226
20:23.5;0.020725121756068058;-0.33182838557667815;-1.2760800593710446;1.29;0.008775836975519325
20:23.5;0.01541359512371938;-0.32429278136466433;-1.2653682777461106;1.281;0.006324965649185188
20:23.5;0.013376266002652749;-0.3142499464296187;-1.2492304897243054;1.2690000000000001;0.005251128964030527
20:23.5;0.014686855639367166;-0.3017327295579383;-1.2285940369513333;1.258;0.005444520667711085
20:23.5;0.019011789775470227;-0.28700386465048083;-1.2043467713526506;1.237;0.006571466538959811
20:23.5;0.025666272779033696;-0.27053241477304796;-1.1773151979419298;1.208;0.008174757247869415
20:23.5;0.03373866038956087;-0.25293853632616803;-1.148262649936406;1.181;0.009799052272234033
20:23.5;0.04225601671364445;-0.23492063221269627;-1.1178969797076281;1.157;0.011097151097291327
20:23.6;0.05035377512711629;-0.21717923939101205;-1.0868799783402472;1.081;0.011885896179040529
20:23.6;0.057413462320773004;-0.20034951586826086;-1.055835820020023;1.081;0.012145025382778873
20:23.6;0.06314337356669553;-0.1849518568803734;-1.025360527663481;1.081;0.011974656712241035
20:23.6;0.06759232543702884;-0.1713659199405214;-0.996032617429587;1.046;0.011537066753690641
20:23.6;0.07110005342665146;-0.15982639432084558;-0.9684167749431305;1.004;0.011004763980501896
20:23.6;0.07419828006327438;-0.1504342118318666;-0.9430486665386982;0.963;0.01052627128705226
20:23.6;0.07748461523135435;-0.14317723007217673;-0.9203958644592913;0.924;0.010210901708680461
20:23.6;0.08149532837134861;-0.13795645045120403;-0.9008003927516286;0.885;0.01012752426803473
20:23.6;0.0866010579892304;-0.1346151920009548;-0.8844153050149685;0.852;0.010310352705355382
20:23.6;0.09294285212046276;-0.1329694079343928;-0.8711507153294078;0.836;0.010766164915686308
20:23.7;0.10041609681642652;-0.13283697769217076;-0.8606447938612953;0.845;0.011480115785451168
20:23.7;0.1086976968968784;-0.13406246480283948;-0.8522712778944334;0.845;0.012419536689809494
20:23.7;0.11730107274454984;-0.13653339752102586;-0.845187362606865;0.845;0.013536110033952189
20:23.7;0.12564137828400626;-0.14018564523127677;-0.8384180744956902;0.865;0.014767156213219546
20:23.7;0.1331004493080574;-0.14499776585874316;-0.8309678395909428;0.884;0.01603707085654248
20:23.7;0.13908790374469268;-0.15097599753949256;-0.8219454834305177;0.8909999999999999;0.0172599797912235
20:23.7;0.14309580238987268;-0.1581331391921402;-0.8106847370397336;0.89;0.018344326992839242
20:23.7;0.14474296611045154;-0.16646643511356324;-0.7968412240600663;0.883;0.019199766242453706
20:23.7;0.14380461375946937;-0.1759406511530497;-0.7804502650473247;0.872;0.01974623255005552
20:23.7;0.14022302004064036;-0.1864813897061273;-0.761935308463564;0.85;0.019923833920299894
20:23.8;0.13409645844411924;-0.19798051515043774;-0.7420634018873844;0.732;0.01970065977869576
20:23.8;0.12564938196469927;-0.21031070363694274;-0.7218558455692771;0.732;0.019075336631370517
20:23.8;0.11519454692045981;-0.2233409965975426;-0.7024776887499239;0.732;0.018073110584186338
20:23.8;0.1030996019153399;-0.23694500728776352;-0.6851341667904381;0.732;0.016737098662056245
20:23.8;0.08976333563329404;-0.2510004850075107;-0.6709877721382218;0.711;0.015117784461717297
20:23.8;0.07559822495846057;-0.2653864231518677;-0.6610924806694226;0.7020000000000001;0.013263328220491937
20:23.8;0.061014261085603046;-0.2799843532642928;-0.6563381404453308;0.703;0.011212249676270342
20:23.8;0.0464029814707874;-0.2946850526044373;-0.6574041633826161;0.701;0.008989518765680792
20:23.8;0.032124405840421706;-0.30939662540763946;-0.6647268272769915;0.7070000000000001;0.006606841421948443
20:23.8;0.01850008504650295;-0.32404859239739187;-0.678486201861044;0.726;0.004067474924007936
20:23.9;0.005813353220803431;-0.33858866525149994;-0.6986173244555842;0.8270000000000001;0.0013751132859974827
20:23.9;-0.005684549004421231;-0.35297140279543515;-0.7248426009895004;0.8270000000000001;0.0014543845278777328
20:23.9;-0.015765120998710896;-0.36713968157967275;-0.7567108911094753;0.8270000000000001;0.004379843775480479
20:23.9;-0.024213787810095908;-0.3810023300925724;-0.7936269153935824;0.866;0.007321612707745682
20:23.9;-0.03082691016156238;-0.3944142014474553;-0.8348674977125046;0.907;0.010150795875487692
20:23.9;-0.03541966757807278;-0.4071648436621225;-0.879593975507816;0.953;0.012685190662108698
20:23.9;-0.03784631489415285;-0.4189776635749583;-0.9268714189715992;1.01;0.014697178187673608
20:23.9;-0.03802892256543568;-0.42951692041877754;-0.9756999218585776;1.0759999999999998;0.015937146634099213
20:23.9;-0.03598581229130758;-0.4383983159177313;-1.0250572534410711;1.136;0.016171425730205295
20:23.9;-0.03184816242414515;-0.4451999136363523;-1.0739465455823258;1.179;0.015227272379145727
20:24.0;-0.025854549904933546;-0.44947219092987456;-1.1214387779385964;1.264;0.013032129230490028
20:24.0;-0.018320578845771297;-0.4507488696496449;-1.1666981983057958;1.264;0.009634570628053504
20:24.0;-0.00959173011652079;-0.44856305400142893;-1.2089802374361895;1.264;0.005201632338509986
20:24.0;6.8498459066459875e-06;-0.442474015103486;-1.247600471690819;1.295;3.7813258469092294e-06
20:24.0;0.010213189279376492;-0.4321077419105718;-1.2818878386759396;1.329;0.005657225047403072
20:24.0;0.020856944195989373;-0.41721079185002824;-1.3111423382398852;1.364;0.01140922261956333
20:24.0;0.03186437259543111;-0.39771325770918203;-1.3346110157346511;1.383;0.01691336982651631
20:24.0;0.04323005944019579;-0.373791981191166;-1.351486387299238;1.3780000000000001;0.021838735519011
20:24.0;0.054954545003070614;-0.3459198211752935;-1.3609286668003786;1.38;0.025871072108902212
20:24.0;0.06696459749893528;-0.3148835522912349;-1.3621159226083184;1.395;0.028721644910606553
20:24.1;0.07904748917696132;-0.28175525390548284;-1.3543266051615266;1.395;0.030163623614436252
20:24.1;0.09082709243433512;-0.24781453115442795;-1.3370511277146504;1.395;0.0300947122357572
20:24.1;0.10178809700645727;-0.21443888889874324;-1.3101165669245358;1.395;0.028596341961300894
20:24.1;0.11133612235541365;-0.1829882728502638;-1.273799801618487;1.367;0.025951384150620083
20:24.1;0.11887897892098409;-0.15469786764513807;-1.2289039172415175;1.315;0.02259994187503753
20:24.1;0.12391633784090288;-0.13058090335754247;-1.176778559718585;1.247;0.019041580185537588
20:24.1;0.1261218763571688;-0.11134666863500484;-1.11927466461156;1.163;0.015718254800535347
20:24.1;0.1254004346625273;-0.09734714988980213;-1.0586358964230445;1.0759999999999998;0.012923165280120679
20:24.1;0.12190795628529742;-0.08856511380306462;-0.9973403193671095;0.993;0.010768076003268384
20:24.1;0.11602988380492876;-0.08464737074042497;-0.9379131620153471;0.9229999999999999;0.009211830976651639
20:24.2;0.1083213258822485;-0.08497557221110112;-0.8827342893536348;0.7909999999999999;0.008125274873591628
20:24.2;0.09942136050012332;-0.08875826420691967;-0.8338649455650908;0.7909999999999999;0.0073584140140340515
20:24.2;0.08996283999030266;-0.09512507422228145;-0.7929171442361302;0.7909999999999999;0.006785564355661224
20:24.2;0.0804999131305051;-0.10320791091879088;-0.7609782233763174;0.7659999999999999;0.0063223804788528105
20:24.2;0.07146548152231567;-0.11220225078263403;-0.7385836481958721;0.741;0.0059223978898402425
20:24.2;0.06315942287458191;-0.12140845719963488;-0.7257197053677517;0.7190000000000001;0.005564882628554099
20:24.2;0.055762782307464134;-0.13025630785137726;-0.7218428541822167;0.703;0.005243072466838268
20:24.2;0.04937018627122675;-0.13831734556655556;-0.7259143978234566;0.6990000000000001;0.00495709020547823
20:24.2;0.044029373240977186;-0.14531015122250804;-0.736457468657725;0.7070000000000001;0.004711792200068849
20:24.2;0.03977476426490914;-0.15110224469869335;-0.7516462367544914;0.7240000000000001;0.0045174360974436
20:24.3;0.036644000311855045;-0.15570920462509893;-0.7694345364254892;0.838;0.004390245843319512
20:24.3;0.034673468865725844;-0.159288483791277;-0.787720242982689;0.838;0.004350645293738066
20:24.3;0.03387846272847557;-0.16212423201042878;-0.8045261377969839;0.838;0.0044188757024865915
20:24.3;0.0342290552587216;-0.16460084090613047;-0.8181718885537258;0.88;0.00460968782890558
20:24.3;0.03563124801058155;-0.1671656273120094;-0.8274202445011986;0.9129999999999999;0.004928379689166196
20:24.3;0.03791950730597951;-0.1702832677826877;-0.8315882696980086;0.9229999999999999;0.005369613370871518
20:24.3;0.04086477582499979;-0.17438566918431345;-0.8306121103428342;0.915;0.005919134000867803
20:24.3;0.04419873102287543;-0.17982161423330373;-0.8250518287036267;0.892;0.0065574188353556264
20:24.3;0.04764951886716271;-0.18681171756857906;-0.8160296851626755;0.86;0.007263878826220136
20:24.3;0.050979870687205726;-0.1954159817827138;-0.805106662191991;0.828;0.00802069919138441
20:24.4;0.05401817523162365;-0.205521453520979;-0.794112314577908;0.769;0.008816150653308718
20:24.4;0.056676346639912854;-0.2168529332538935;-0.7849515065315035;0.769;0.009647393126081222
20:24.4;0.05895302208481256;-0.2290018351595537;-0.7794168209401452;0.769;0.010522400070022591
20:24.4;0.06092425594839226;-0.24146489170661994;-0.7790320338135761;0.773;0.011460393897382886
20:24.4;0.06272518267628831;-0.2536881890979247;-0.7849401808434012;0.79;0.012490468952542856
20:24.4;0.06452583932961381;-0.26511528489441427;-0.7978385773704743;0.82;0.013648454026560014
20:24.4;0.06650375819233213;-0.27523613412613473;-0.8179577364618162;0.858;0.014972092517515844
20:24.4;0.06881565148420414;-0.28363098560434097;-0.8450778127689844;0.892;0.016494440911032214
20:24.4;0.07157076804576079;-0.29000415541990304;-0.8785730176221452;0.924;0.018235503533503377
20:24.4;0.074809123299336;-0.2942048043779031;-0.9174740853165934;0.961;0.020192873836831216
20:24.5;0.07848797988071028;-0.2962332879719424;-0.9605416456328649;1.042;0.022333315920954153
20:24.5;0.08247918504751868;-0.2962322693545762;-1.006345151785959;1.042;0.02458802723037069
20:24.5;0.08657877255591627;-0.2944624019518167;-1.0533420299990353;1.0859999999999999;0.02685410534999076
20:24.5;0.09052907228451576;-0.29126366117663516;-1.0999549449184292;1.135;0.029003423935475454
20:24.5;0.09405155814537483;-0.28700559273579146;-1.1446506113724118;1.192;0.030897923896113046
20:24.5;0.09688523109234348;-0.2820321835135274;-1.1860232313478298;1.245;0.03240779217521868
20:24.5;0.09882250055819604;-0.2766083698144179;-1.2228785090378211;1.2919999999999998;0.033427543973073515
20:24.5;0.09973519748594524;-0.2708750082459381;-1.2543074942801902;1.328;0.033886085837035916
20:24.5;0.09958799901032026;-0.2648185113597828;-1.2797373002212364;1.345;0.03375018631398513
20:24.5;0.09844269033791866;-0.25826088280425225;-1.2989478612925216;1.3519999999999999;0.03302431548079081
20:24.6;0.09646004830136767;-0.25087473465819066;-1.3120496034219427;1.351;0.031750798770315544
20:24.6;0.09390252860559137;-0.24222481854810465;-1.3194244840436529;1.351;0.030010999886166064
20:24.6;0.0911314335370966;-0.23183274113496963;-1.321639132849315;1.351;0.02792260042297003
20:24.6;0.08858546811188385;-0.21925702085325238;-1.3193412669143296;1.3219999999999998;0.02562554673102709
20:24.6;0.0867308087784801;-0.2041787047248994;-1.313150587685339;1.285;0.023254037744227362
20:24.6;0.08598388615338128;-0.18648308516812528;-1.3035572075490311;1.265;0.020901940662045905
20:24.6;0.08662035557275435;-0.16632820008351562;-1.2908443626227608;1.255;0.01859772118124842
20:24.6;0.08869171224821006;-0.14418888112667153;-1.2750521988926775;1.245;0.016305824949870738
20:24.6;0.09197161132172314;-0.1208625307068592;-1.2559928641708213;1.236;0.013961518330780642
20:24.6;0.09594854050727603;-0.09742396624126821;-1.2333175449982283;1.228;0.011528666840157764
20:24.7;0.09987336386435522;-0.0751255084779178;-1.2066275567210702;1.227;0.009053371497364734
20:24.7;0.10285872042722308;-0.05525534561821711;-1.175614707435047;1.227;0.00668159930889743
20:24.7;0.10401297201720801;-0.038983872802997824;-1.1402100713963876;1.227;0.004623356260396906
20:24.7;0.10258365048876372;-0.027229451615673625;-1.1007152480608067;1.204;0.0030746241022361503
20:24.7;0.09808877687108303;-0.020560526433096242;-1.0578882824157991;1.156;0.002133503482039933
20:24.7;0.09041903991255047;-0.01913789475608726;-1.012961018734834;1.09;0.0017528582063467495
20:24.7;0.07989338401820584;-0.022699267565688803;-0.967576630907589;1.0170000000000001;0.0017547208300726525
20:24.7;0.06725221624748211;-0.030589588311965548;-0.9236512830882826;0.9359999999999999;0.001900151683292829
20:24.7;0.05358118162678263;-0.04183671154349433;-0.8831769678352211;0.848;0.0019797828702087534
20:24.7;0.040170779149905425;-0.055265138302485375;-0.8479920429665645;0.768;0.0018825793633298507
20:24.8;0.02832991581453057;-0.06963514261238067;-0.8195532916111897;0.708;0.0016167800894859295
20:24.8;0.019184541396031034;-0.08378998817993843;-0.7987480738902621;0.708;0.0012839655606593408
20:24.8;0.0135011320891297;-0.09678867154014617;-0.7857827815487728;0.708;0.001026826866753896
20:24.8;0.01157016522011464;-0.10800197628961929;-0.7801701569994837;0.7559999999999999;0.0009749011819277704
20:24.8;0.013167661807812099;-0.11715900243573324;-0.7808161748630428;0.8059999999999999;0.0012045730162375946
20:24.8;0.017596166332930412;-0.12434153882889011;-0.7861855039694366;0.841;0.0017201223083859228
20:24.8;0.023796988890679632;-0.12993034494016972;-0.79450968738908;0.868;0.0024565850026517567
20:24.8;0.030517530427844178;-0.13451490282228037;-0.8039976297446298;0.8859999999999999;0.003300460632414698
20:24.8;0.036506516666021706;-0.1387848547501479;-0.8130141713523106;0.885;0.004119178261198107
20:24.8;0.04070061219514011;-0.14342187561912154;-0.8202057362568472;0.8740000000000001;0.0047878346309098326
20:24.9;0.04236652118286668;-0.14900683848915453;-0.8245673276338135;0.841;0.005205412219898017
20:24.9;0.0411768520437379;-0.1559522641972487;-0.825458856735121;0.841;0.0053007858348128505
20:24.9;0.037218785220133714;-0.164464504275312;-0.8225872581763244;0.841;0.005035195674687682
20:24.9;0.030948046987165617;-0.174535906358227;-0.8159708915138137;0.835;0.004407503840821748
20:24.9;0.023101946990027607;-0.18596608306779389;-0.805896246559024;0.8220000000000001;0.003462274202625979
20:24.9;0.01458425880778719;-0.19840964286147536;-0.792870971311389;0.8109999999999999;0.0022942970972487154
20:24.9;0.006338940433779671;-0.21144262422853102;-0.7775759494514772;0.805;0.0010422023073499759
20:24.9;-0.0007663297510413808;-0.2246349370509604;-0.7608201689940629;0.7929999999999999;0.00013097095842135227
20:24.9;-0.006028745385617749;-0.23761528075203334;-0.7435019738641611;0.777;0.0010650829549654454
20:24.9;-0.008961828139350423;-0.2501186608479767;-0.7265788372114159;0.768;0.0016286413243002205
20:25.0;-0.00931045171392371;-0.2620126055531895;-0.7110463887578651;0.7559999999999999;0.0017345661748668494
20:25.0;-0.00703833140538759;-0.27330243505666457;-0.6979265910822072;0.7559999999999999;0.0013425267831674876
20:25.0;-0.0023016552814799423;-0.28411651361621026;-0.6882641581921004;0.7559999999999999;0.0004500822757470847
20:25.0;0.004578541505447974;-0.2946726256797806;-0.6831282948746978;0.765;0.0009216567803384321
20:25.0;0.013139706421403673;-0.3052291275303323;-0.6836134659633157;0.773;0.002741714609300834
20:25.0;0.022799676663650188;-0.3160271569273559;-0.6908303383530202;0.778;0.004977651577511197
20:25.0;0.03288499992036773;-0.32723130926367844;-0.705878272157208;0.795;0.00759595720132049
20:25.0;0.04267325113189138;-0.3388769493437316;-0.7297934100669474;0.8170000000000001;0.010553528755242469
20:25.0;0.051451940849403514;-0.3508324362368816;-0.7634701078773724;0.836;0.013781406366710616
20:25.0;0.05858930282413798;-0.362782549069336;-0.8075582613575099;0.85;0.017164793481533724
20:25.1;0.06360636972863615;-0.37423552596234916;-0.8623450425068298;0.98;0.02052705721435529
20:25.1;0.06623821902721559;-0.3845509235893842;-0.9276320496237109;0.98;0.023628614165633575
20:25.1;0.06647522557829294;-0.39298028635920684;-1.0026164424184596;0.98;0.026191803694576514
20:25.1;0.06457989875243532;-0.3987119070078899;-1.0857883187674688;1.063;0.027957718668011965
20:25.1;0.06107845441900724;-0.40091703906871856;-1.1748696954810938;1.161;0.028769496070483718
20:25.1;0.056728063737592774;-0.3988025350564487;-1.2668242156571516;1.264;0.02865973873875555
20:25.1;0.0524614925911341;-0.39167762477298196;-1.3579510921648341;1.37;0.027903169278325847
20:25.1;0.04931007232961569;-0.3790381939982492;-1.4440578344979285;1.462;0.02699001964989752
20:25.1;0.048303919249672214;-0.36066102599276495;-1.5206990118959516;1.53;0.026492616160264437
20:25.1;0.050350322302081855;-0.33668764044982136;-1.583470850731752;1.6030000000000002;0.026843522325797307
20:25.2;0.056101717226137875;-0.30767198815863644;-1.6283529992341634;1.806;0.028106882051482276
20:25.2;0.06583721982806383;-0.27457588708322056;-1.652076065169501;1.806;0.029865096191638057
20:25.2;0.0793850898184597;-0.23871482415260153;-1.652468306703447;1.806;0.03131493169179592
20:25.2;0.09610673518922139;-0.20166584437202786;-1.6287234724231543;1.804;0.03156701586971758
20:25.2;0.11495224415899614;-0.16514344536450937;-1.581547850061301;1.75;0.030023487032787094
20:25.2;0.134584336000442;-0.13084726766088983;-1.5131668251992814;1.6480000000000001;0.0266468566482132
20:25.2;0.15355212300546098;-0.10029669354702926;-1.4271843561634605;1.5130000000000001;0.021979738337380695
20:25.2;0.17048388453448185;-0.07467889393073983;-1.328302783003653;1.364;0.016911350547431227
20:25.2;0.18426382518815168;-0.054737462369765476;-1.2219305057839422;1.214;0.012324555061167098
20:25.2;0.1941608057915167;-0.04072110732923535;-1.1137220043518186;1.077;0.008805579558358763
20:25.3;0.19988698763947657;-0.032400541129952255;-1.0091033153557718;0.785;0.006535403699815249
20:25.3;0.20158196232879486;-0.02914748608833116;-0.9128424320637993;0.785;0.0053635037877889594
20:25.3;0.19973743367746738;-0.03005506871120674;-0.8287261772098728;0.785;0.004974944589513173
20:25.3;0.19508698802878272;-0.034072493156711514;-0.7593832892884753;0.731;0.005047696711265962
20:25.3;0.18848241855700845;-0.04013272801074744;-0.7062478647375136;0.6940000000000001;0.0053422803555764715
20:25.3;0.18077353725659978;-0.04726086427820816;-0.6696242631669186;0.665;0.00572094400553479
20:25.3;0.17270792108392294;-0.0546551756032179;-0.6488148412164217;0.65;0.006124410974492151
20:25.3;0.16486372485123515;-0.06173597166819653;-0.6422871113707884;0.6559999999999999;0.006537212508190864
20:25.3;0.15761923450117254;-0.06816243900862572;-0.6478674536709306;0.6709999999999999;0.006960500985446171
20:25.3;0.15115333854201252;-0.07382283049393892;-0.6629520026266197;0.696;0.007397594531203514
20:25.4;0.1454672743074746;-0.0788060970482284;-0.6847243443583354;0.782;0.007849480037622833
20:25.4;0.14041941172305605;-0.08336246943879994;-0.71036488120021;0.782;0.00831532452516749
20:25.4;0.13576781234580612;-0.08785761650912431;-0.7372318109164288;0.782;0.008793875315842014
20:25.4;0.1312171033766439;-0.09272273818072937;-0.7629976225653305;0.8;0.009283246433701809
20:25.4;0.12646623920968364;-0.09840304896648158;-0.7857393539755256;0.8170000000000001;0.009778261882157116
20:25.4;0.12125280442193384;-0.10530824763519889;-0.8039930747591926;0.8320000000000001;0.010266123537191682
20:25.4;0.11538889869921072;-0.11376885874041995;-0.8167844087974286;0.845;0.01072247072071468
20:25.4;0.10878457469411891;-0.12400169297554534;-0.8236421458865331;0.86;0.011110497196876692
20:25.4;0.10145721232799366;-0.1360870845162271;-0.8245971310303597;0.871;0.011385225970407963
20:25.4;0.09352699537332562;-0.14996034612412507;-0.8201644109453222;0.875;0.011503085209975554
20:25.5;0.08519906025499821;-0.16541884154988604;-0.8113037465565068;0.8370000000000001;0.011434133568310835
20:25.5;0.07673471033609339;-0.18214226694658642;-0.799354945354954;0.8370000000000001;0.011172291582540054
20:25.5;0.06841805707321029;-0.19971866496267515;-0.7859497911351678;0.8370000000000001;0.010739503259993526
20:25.5;0.06052563635785537;-0.21766872479411264;-0.7729053255122592;0.813;0.010182670645798085
20:25.5;0.05330249758016199;-0.23546760755962534;-0.7621011226193152;0.789;0.009565140016767181
20:25.5;0.046944129555961465;-0.2525689878278201;-0.7553428746658034;0.767;0.008955821959727349
20:25.5;0.04158321978721911;-0.2684351615897895;-0.7542205246805753;0.757;0.008418909919871079
20:25.5;0.03728094622614726;-0.2825732880245246;-0.7599762197695779;0.764;0.00800604514719398
20:25.5;0.03402223842700118;-0.29457410441302734;-0.7733999424925386;0.779;0.007751068682431833
20:25.5;0.03171535193532575;-0.3041462983360139;-0.7947683942358061;0.804;0.00766642088482673
20:25.6;0.030198659436349033;-0.31113898508710824;-0.8238360112008468;0.922;0.007740746888848155
20:25.6;0.02925780204936021;-0.31554755974547516;-0.8598743920393598;0.922;0.007938556473228634
20:25.6;0.0286521558212007;-0.31750255211027884;-0.9017424606289374;0.922;0.008203270732409304
20:25.6;0.02814516649479332;-0.31724428147924477;-0.947968881419045;0.976;0.008464312824939743
20:25.6;0.027532531623136042;-0.3150875437527507;-0.9968432649839377;1.032;0.008647772588150348
20:25.6;0.026663971220239977;-0.3113814177186125;-1.0465237574428923;1.091;0.00868893634062636
20:25.6;0.025456329616879426;-0.30646951207601525;-1.0951636450701456;1.153;0.008544016555605282
20:25.6;0.02389817799009096;-0.30065390909591677;-1.1410493030425986;1.214;0.008198531248579078
20:25.6;0.022048277246340602;-0.29416217138731593;-1.1827363472029087;1.2670000000000001;0.007670954866120285
20:25.6;0.02003126602435892;-0.287115244966579;-1.21916874446749;1.315;0.00701178307406277
20:25.7;0.018033968627718278;-0.27949814256194355;-1.249763797583009;1.3719999999999999;0.006299385349076296
20:25.7;0.016303499676493215;-0.27114249981736976;-1.2744443968681094;1.3719999999999999;0.0056337727805635006
20:25.7;0.015142774598947802;-0.261733887137079;-1.2936016016146676;1.3719999999999999;0.005127031168523281
20:25.7;0.014894332714817755;-0.25085289925894433;-1.3079797200591852;1.334;0.004886987027933525
20:25.7;0.015904668068667572;-0.23805000107652874;-1.3184927432842466;1.285;0.004991953617072779
20:25.7;0.018467295638716123;-0.222945314852046;-1.3259998789173704;1.249;0.005459402777366776
20:25.7;0.022749826325977676;-0.20533789771003028;-1.331082703249026;1.228;0.0062180217512827745
20:25.7;0.028717504188005342;-0.18530360340730123;-1.333871991777643;1.2229999999999999;0.007098142456955003
20:25.7;0.036072420060577474;-0.16325757777759442;-1.3339660666758204;1.2429999999999999;0.007855854125569054
20:25.7;0.044231286801455695;-0.13996003705813678;-1.330466307665408;1.276;0.008236401408095792
20:25.8;0.05236093077096287;-0.11645444916413102;-1.3221323467522998;1.386;0.00806191795550524
20:25.8;0.059475385246596346;-0.09394651314222828;-1.307631211101007;1.386;0.007306396010874833
20:25.8;0.06457642104529072;-0.07365345084502195;-1.285828752679675;1.386;0.0061157567620608085
20:25.8;0.06680726227990887;-0.056658636135867815;-1.2560628262186897;1.3940000000000001;0.004754459516455569
20:25.8;0.06559412259338045;-0.04379230764963274;-1.2183490215034927;1.367;0.0034997294904295464
20:25.8;0.06075748711411768;-0.035545197674107236;-1.1734864668627087;1.3;0.002534304663345663
20:25.8;0.05257488427514669;-0.032021046713705606;-1.1230446496965498;1.202;0.0018906488407495138
20:25.8;0.04177812184074624;-0.032935810725593546;-1.0692284206548155;1.095;0.0014712543650223532
20:25.8;0.029477973948951745;-0.03766627872855173;-1.014639107062382;0.997;0.0011265797581995135
20:25.8;0.017024047167246443;-0.04534215569962786;-0.9619668237700915;0.907;0.0007425489224338728
20:25.9;0.0058215261638099045;-0.05496888278288175;-0.9136581979581031;0.732;0.0002923731718279737
20:25.9;-0.0028629120220285483;-0.06556318967406295;-0.8716102361233418;0.732;0.0001636026741782104
20:25.9;-0.008070415791615585;-0.07627880696170786;-0.8369454866550993;0.732;0.0005152250545743035
20:25.9;-0.009266775291844212;-0.08650117558239044;-0.80991218842065;0.728;0.0006492150462312769
20:25.9;-0.0063940478381500805;-0.09589943282808885;-0.7899223125166738;0.753;0.00048436895646880763
20:25.9;0.00014322448565113572;-0.10443333733289958;-0.7757102557685376;0.7959999999999999;1.1602617131322895e-05
20:25.9;0.009550580773383287;-0.11231753940542111;-0.7655783644612141;0.8340000000000001;0.0008212341755007594
20:25.9;0.020762634921832907;-0.11995038152218342;-0.7576861417434454;0.863;0.0018870067134642426
20:25.9;0.0325894850967879;-0.12782097288056177;-0.7503345232189128;0.873;0.003125608264568714
20:25.9;0.04386699667366072;-0.13641274906300388;-0.7421994659619856;0.862;0.004441334673997642
20:26.0;0.05358827775426142;-0.1461212420800741;-0.7324822860023688;0.7709999999999999;0.005735618822492925
20:26.0;0.06100004970265374;-0.15719725230958753;-0.7209664159972964;0.7709999999999999;0.006913375948735785
20:26.0;0.06565651815503634;-0.16971635652547729;-0.7079941704188448;0.7709999999999999;0.007889168451806884
20:26.0;0.06743107050877761;-0.1835696690628357;-0.6943878201928164;0.7340000000000001;0.008595340267127669
20:26.0;0.06649126348028696;-0.19847284694687353;-0.6813329806299827;0.706;0.00899135400410793
20:26.0;0.06324633001153124;-0.2139934827082631;-0.6702346818547504;0.6890000000000001;0.009071158881744567
20:26.0;0.05827928183878443;-0.2295954371535647;-0.6625578727165711;0.677;0.008865459763867265
20:26.0;0.05227558452957073;-0.2446953853366353;-0.6596677343769611;0.6659999999999999;0.008438202031056562
20:26.0;0.04595654211204747;-0.2587254232279053;-0.6626852601558477;0.664;0.007879411114380475
20:26.0;0.04002067820405774;-0.2711953933348382;-0.6723724274391383;0.677;0.007297542749820327
20:26.1;0.0350933296393102;-0.2817482182592021;-0.6890593770004879;0.754;0.006813062944064478
20:26.1;0.03168398698062667;-0.2902008235323053;-0.7126192326683302;0.754;0.006552333680021923
20:26.1;0.030152007201535727;-0.29656367893743774;-0.7424858968372552;0.754;0.006639301600561083
20:26.1;0.030682461774360757;-0.30103513530120474;-0.7777070089699619;0.805;0.007183290035234154
20:26.1;0.03327377396545524;-0.3039710840390759;-0.8170310771837987;0.87;0.008263668944177268
20:26.1;0.03773830860859627;-0.3058333710857159;-0.8590305320310765;0.932;0.009914616116513899
20:26.1;0.04371684386496644;-0.3071225952087846;-0.9022526602112357;0.9790000000000001;0.012114032673792364
20:26.1;0.05070713036844656;-0.308304056285075;-0.9453786699270281;1.035;0.014779307034529128
20:26.1;0.05810539845917624;-0.3097377354936112;-0.9873682840881655;1.099;0.017770096058464527
20:26.1;0.06525808272396487;-0.31162211082493657;-1.0275701860246031;1.1540000000000001;0.02089652497099273
20:26.2;0.07151931237618497;-0.3139587573516268;-1.0657803126843768;1.203;0.02393115310920159
20:26.2;0.07630849714018223;-0.3165414871654594;-1.1022310055897937;1.203;0.026624175190276378
20:26.2;0.0791626959155456;-0.3189698955123823;-1.137500553141656;1.203;0.028722476877913537
20:26.2;0.0797805869352903;-0.32068412129599366;-1.1723471421364748;1.198;0.029993760025653404
20:26.2;0.07805704194579118;-0.32101721464689437;-1.207488460771382;1.192;0.0302568282872337
20:26.2;0.07410735123081905;-0.31926186230260273;-1.2433608937940808;1.194;0.02941748476978373
20:26.2;0.06827825461334483;-0.3147475162769014;-1.2798975663821037;1.214;0.02750552481019391
20:26.2;0.06114071668829365;-0.306922799869559;-1.3163630344601813;1.242;0.024702184132719785
20:26.2;0.053457133676054876;-0.29543571554485504;-1.3512758885790714;1.2570000000000001;0.021340898122355175
20:26.2;0.046114730638124865;-0.28019983982565827;-1.3824426212256564;1.27;0.017863011330686223
20:26.3;0.040022686278213766;-0.2614324413990672;-1.4071173771320444;1.4709999999999999;0.014722990762945996
20:26.3;0.03598608173840428;-0.23965626831059667;-1.4222831198543686;1.4709999999999999;0.012266182173842498
20:26.3;0.034586055183154905;-0.21566780402530308;-1.4250184307974494;1.4709999999999999;0.010629352941164703
20:26.3;0.03609767671258916;-0.19047916879431076;-1.4128944321923227;1.544;0.009714857889804326
20:26.3;0.04046345427683278;-0.1652358584037294;-1.3843516040859825;1.588;0.00925579365405612
20:26.3;0.04732356432924833;-0.1411110043749849;-1.3390121987534667;1.574;0.008941757014826105
20:26.3;0.05609248841729203;-0.11918590593835048;-1.2778760621404843;1.484;0.00854315613540718
20:26.3;0.06606486528096385;-0.10033739242970172;-1.203348564203356;1.3419999999999999;0.007976728459289213
20:26.3;0.07652909236500868;-0.08515486781142897;-1.1190763682918057;1.176;0.007292824567389098
20:26.3;0.0868665871630873;-0.07390203255843163;-1.0296078958409105;1.022;0.006609688714685523
20:26.4;0.09661953704106653;-0.06652561182617199;-0.9399321474472039;0.7090000000000001;0.006041577252980374
20:26.4;0.10551947849701984;-0.06270275597918097;-0.8549768859644938;0.7090000000000001;0.005656836674289192
20:26.4;0.11347864706865408;-0.061913234590326;-0.7791588549274613;0.7090000000000001;0.005474237733257877
20:26.4;0.1205517889818335;-0.0635222363735624;-0.7160554747124709;0.6559999999999999;0.005483351782003989
20:26.4;0.12687817354369654;-0.06686290392902224;-0.668213912150361;0.624;0.0056687547212945
20:26.4;0.1326147038992386;-0.0713108678289388;-0.6370725506944461;0.604;0.006024712051629335
20:26.4;0.1378727009852199;-0.0763442423037874;-0.6229650202755272;0.596;0.006557197044025789
20:26.4;0.14267134750813093;-0.08158403962304647;-0.6251881625845789;0.604;0.007277005699562223
20:26.4;0.14691756248101348;-0.08681303151992939;-0.6421229568338667;0.634;0.008189866702360545
20:26.4;0.1504157034024852;-0.09197437062555236;-0.6714003836467322;0.677;0.009288414520303115
20:26.5;0.15290352460263257;-0.09715360125190153;-0.710103142950268;0.818;0.010548673123805322
20:26.5;0.15410474310892247;-0.10254864879046548;-0.75498656391513;0.818;0.011931228715824254
20:26.5;0.15378444512864922;-0.10843197224326874;-0.8026933599848926;0.818;0.013385032732107689
20:26.5;0.15179389301942986;-0.11510834526035531;-0.8499420668080527;0.8740000000000001;0.014850820017356792
20:26.5;0.14809633661243185;-0.12287176795739957;-0.8936887628954959;0.9329999999999999;0.01626232814696458
20:26.5;0.14277140838595712;-0.13196529263165252;-0.9312739548472613;0.983;0.017546012157528414
20:26.5;0.1360001688194115;-0.14254726664981252;-0.9605594036525825;1.028;0.018621839088198887
20:26.5;0.12803645343258935;-0.15466689909955458;-0.9800463480882687;1.061;0.019407859030889374
20:26.5;0.11917226553430776;-0.16825152378462016;-0.9889599740295261;1.08;0.01982955264371098
20:26.5;0.10970402506488475;-0.18310736539940345;-0.98728479072949;1.08;0.019832196774828247
20:26.6;0.09990371378805549;-0.1989341905607539;-0.9757399804026128;0.9790000000000001;0.019392114391728357
20:26.6;0.08999767271796157;-0.21535043843087384;-0.9556957540559124;0.9790000000000001;0.018522375991070022
20:26.6;0.08015656950747276;-0.23192082194730182;-0.9290482570309261;0.9790000000000001;0.017270986180357415
20:26.6;0.07049918039252227;-0.24817899480214822;-0.8980764259710536;0.935;0.015713118500885644
20:26.6;0.06110819100692032;-0.2636450160880516;-0.8652934652418968;0.899;0.013940630531340568
20:26.6;0.05205146568050662;-0.27784319039672817;-0.8332945872200166;0.8640000000000001;0.012051227389327944
20:26.6;0.04340061027481471;-0.2903250934730238;-0.8046034729574316;0.8340000000000001;0.010138234064795387
20:26.6;0.035240521226253506;-0.3006986243367604;-0.7815251193650713;0.812;0.008281646826514732
20:26.6;0.02766774103623948;-0.3086608186471219;-0.7660142991361742;0.794;0.006541721974219111
20:26.6;0.020779678757999794;-0.31403027804424466;-0.7595680606419237;0.784;0.004956522108565
20:26.7;0.014659309184979116;-0.3167740809999594;-0.7631494430850426;0.828;0.0035438288231509803
20:26.7;0.009361031210581378;-0.3170240477093937;-0.7771459154358218;0.828;0.0023063141771263946
20:26.7;0.004903383872973383;-0.31507799031225425;-0.8013600001972752;0.828;0.0012380597991830961
20:26.7;0.0012722481070667415;-0.3113827903159985;-0.8350275780642812;0.863;0.00033080132345669446
20:26.7;-0.0015663681681416892;-0.3064979312250852;-0.8768644341286768;0.902;0.000420972621264579
20:26.7;-0.003649547056903596;-0.3010409618487164;-0.9251456644384255;0.9440000000000001;0.0010164234557499144
20:26.7;-0.005003922931393584;-0.29562044247489394;-0.9778195694668648;1.0070000000000001;0.0014464512450296208
20:26.7;-0.005640382963930789;-0.29076572269787826;-1.0326516163659731;1.08;0.0016935796601291943
20:26.7;-0.00555775640344124;-0.2868637508150821;-1.087388859974835;1.149;0.0017336445545714793
20:26.7;-0.004752197145217212;-0.2841106143881861;-1.139930596634321;1.215;0.001539076896778525
20:26.8;-0.003226383751165628;-0.28248245773475145;-1.1884866569645398;1.3430000000000002;0.00108318294981602
20:26.8;-0.0009929586166487904;-0.2817288757966552;-1.2316996777907223;1.3430000000000002;0.0003445619677393671
20:26.8;0.0019301361898046653;-0.2813910509104402;-1.268704630233347;1.3430000000000002;0.000689062729399105
20:26.8;0.005531244034540119;-0.28084548488248173;-1.2991076098630947;1.359;0.0020180661256782003
20:26.8;0.009819351388277336;-0.27937148366362335;-1.322887217591444;1.3459999999999999;0.003629006081384243
20:26.8;0.014832641184300447;-0.27623636835658416;-1.3402413777261464;1.2990000000000002;0.0054913910119712426
20:26.8;0.020629275883375372;-0.2707886962580137;-1.3514131538099017;1.265;0.007549229997718285
20:26.8;0.027252472249791538;-0.2625487669045235;-1.356536706306278;1.265;0.009706159835580822
20:26.8;0.03467362851586569;-0.25128500226090306;-1.3555473963651197;1.3;0.011810834065281188
20:26.8;0.04273048021390617;-0.23706138144810995;-1.3481885295898801;1.357;0.013656808267403411
20:26.9;0.051085223483019165;-0.22024001890932596;-1.3341194739085762;1.421;0.015010192323783764
20:26.9;0.05922343851966161;-0.20143409045007404;-1.3130955783367646;1.421;0.015664730579311358
20:26.9;0.06649855556754586;-0.18142690148030355;-1.2851649062416781;1.421;0.01550503508533089
20:26.9;0.07221213186787136;-0.16108317484902598;-1.2508226663231155;1.374;0.014549768715722607
20:26.9;0.07571681753469897;-0.14126940160001925;-1.2110804123774628;1.3019999999999998;0.012954284698111043
20:26.9;0.07652779186446466;-0.12278743946700138;-1.1674319212692412;1.2109999999999999;0.010969951043845625
20:26.9;0.07442249406181338;-0.10632241357773768;-1.1217222411197871;1.114;0.00887594041000027
20:26.9;0.0695056196417362;-0.09240654192827051;-1.0759469458337885;1.032;0.006910564021388798
20:26.9;0.062223185695380184;-0.0813991162081067;-1.032021008972798;0.971;0.005227095926206297
20:26.9;0.05332106258756293;-0.07348174675085287;-0.9915577825821494;0.924;0.0038850471559656783
20:27.0;0.04375351674797927;-0.06866826499037382;-0.9556906268775919;0.845;0.002871351541923784
20:27.0;0.03455678730437453;-0.06682832615162027;-0.9249599869315589;0.845;0.002136076928704239
20:27.0;0.026711826823761196;-0.06772174805848306;-0.8992811407181305;0.845;0.0016267740496766706
20:27.0;0.02102160277155306;-0.0710387884690462;-0.8779981130591541;0.857;0.0013111577732137065
20:27.0;0.01801931471294738;-0.07644132822366245;-0.8600144702413945;0.88;0.0011846014328955484
20:27.0;0.01791520516594972;-0.08359992128841039;-0.843977562612506;0.9009999999999999;0.0012640334173339882
20:27.0;0.02058737536907764;-0.0922214786026315;-0.8284846656197147;0.902;0.0015729594924571125
20:27.0;0.025618829235352785;-0.10206400666867672;-0.8122778299479149;0.8859999999999999;0.0021239118693656893
20:27.0;0.03237348266888732;-0.11293861018798655;-0.7943993196550851;0.8640000000000001;0.0029044956137855584
20:27.0;0.040093077311954474;-0.12470273987368982;-0.7742903512689597;0.838;0.0038712323153113053
20:27.1;0.047992734337735134;-0.13725041231665594;-0.7518287448595783;0.7490000000000001;0.004952312915719301
20:27.1;0.0553382260719476;-0.1505030172161172;-0.7273140970548245;0.7490000000000001;0.0060574863629189665
20:27.1;0.061499050407699776;-0.16439914449661164;-0.7014193877945277;0.7490000000000001;0.007091624458038641
20:27.1;0.06598079635684248;-0.17887962925643947;-0.6751273212706154;0.7120000000000001;0.007968271488115405
20:27.1;0.0684436083797669;-0.19386792567679284;-0.6496579618899617;0.6779999999999999;0.008620324737919445
20:27.1;0.06871193977343644;-0.20925039230368064;-0.6263861030425973;0.652;0.009006179610998038
20:27.1;0.06677775209794468;-0.22486144309710326;-0.6067501664140117;0.632;0.009110803777443279
20:27.1;0.06279689593785959;-0.24047723643835361;-0.5921602386223517;0.626;0.008942344402617972
20:27.1;0.05707683773848861;-0.25582112967947634;-0.5839130995520349;0.628;0.008525984414023418
20:27.1;0.050052883998376506;-0.270583542318054;-0.5831183620635866;0.638;0.007897455755194157
20:27.2;0.04225030909238452;-0.284456612515356;-0.5906355273877852;0.685;0.007098482092787472
20:27.2;0.03423352897128047;-0.2971789989044609;-0.6070180678534075;0.685;0.006175489735323077
20:27.2;0.02654996244344914;-0.3085801648665837;-0.6324592757004946;0.685;0.005181607160204161
20:27.2;0.019678952520471575;-0.3186126980116621;-0.666738662673304;0.7120000000000001;0.004180427516774931
20:27.2;0.01399169279891656;-0.3273672570064687;-0.7091764739118424;0.741;0.0032483275885576038
20:27.2;0.009722534267250652;-0.33507002858688;-0.7586110149465249;0.782;0.0024713497364482065
20:27.2;0.006950815786012431;-0.3420627484787747;-0.8134145304861597;0.831;0.001933986712486415
20:27.2;0.005593866211108345;-0.34876474805467994;-0.8715599080893908;0.884;0.0017003639978964947
20:27.2;0.005413727627725644;-0.35561858839564947;-0.9307454760029477;0.9470000000000001;0.0017918918314784433
20:27.2;0.006041952348599386;-0.36302449140779885;-0.9885796256857354;1.023;0.0021683274957802513
20:27.3;0.007026120811680572;-0.37127200397175214;-1.0428174453935275;1.286;0.002720295625614854
20:27.3;0.007895417910979976;-0.3804781307189793;-1.0916199851296062;1.286;0.0032792633844987602
20:27.3;0.008233479726652376;-0.390538836183009;-1.1337795389935832;1.286;0.0036456608403147503
20:27.3;0.00774309151590299;-0.4010983029605129;-1.1688509355243024;1.3430000000000002;0.003630148117534419
20:27.3;0.006292151042398207;-0.411540347584626;-1.1971587783087057;1.355;0.00310001156267755
20:27.3;0.00393756507885633;-0.4210069779095134;-1.219682135457255;1.324;0.0020219187589672776
20:27.3;0.0009281771977345882;-0.42844747741833294;-1.2378321133196704;1.2690000000000001;0.0004922551071950065
20:27.3;-0.002310275218532969;-0.43269804323211675;-1.2531503514558882;1.2209999999999999;0.001252713711751131
20:27.3;-0.005204921645515379;-0.4325880373174098;-1.2669766442406984;1.199;0.0028527079375236576
20:27.3;-0.007079203112656763;-0.427063972715212;-1.2801485915613033;1.194;0.003870238167131453
20:27.4;-0.007212610167386257;-0.4153166692464932;-1.292793694154288;1.276;0.003872585787345135
20:27.4;-0.00491837955868256;-0.3968942913398477;-1.3042532741145338;1.276;0.0025460025179220476
20:27.4;0.0003683283272758531;-0.3717871861660732;-1.3131470327058559;1.276;0.00017982202950140273
20:27.4;0.009008463276125396;-0.34047483718908006;-1.317565007739687;1.347;0.004041176189936669
20:27.4;0.02109995269386661;-0.30392577811783583;-1.3153658472453134;1.416;0.00843520380842748
20:27.4;0.03645131597991282;-0.26354286075190697;-1.3045494336618007;1.479;0.012532133381070808
20:27.4;0.054590178334378396;-0.2210545056885224;-1.2836488184206065;1.508;0.01549031002479867
20:27.4;0.07480096565070316;-0.17836402653810227;-1.252067254482125;1.4869999999999999;0.016704832676787188
20:27.4;0.09618116046765574;-0.13737812847341116;-1.2102871157037027;1.4180000000000001;0.015991750975250272
20:27.4;0.11770747144605748;-0.09983969793867332;-1.1598988957458403;1.307;0.013630990772487264
20:27.5;0.1383087111647167;-0.0671876367854102;-1.1034359727392862;0.951;0.010253828237074816
20:27.5;0.15694322090981944;-0.04045946213851589;-1.0440536178865074;0.951;0.006629571654596208
20:27.5;0.17267445207705925;-0.020244714177839237;-0.9851410289610291;0.951;0.003443801755468572
20:27.5;0.18473697497578287;-0.0066891956695405395;-0.929961172685972;0.883;0.0011491918683673057
20:27.5;0.19258937015162098;0.0004586116924910546;-0.8813673245878603;0.841;7.784565577819177e-05
20:27.5;0.1959518346480514;0.0017726280942168297;-0.8415992396707629;0.8109999999999999;0.0002923292663201757
20:27.5;0.19482244857995287;-0.0019416216649002058;-0.8121506818667361;0.7879999999999999;0.0003072134460748451
20:27.5;0.18946539783633368;-0.009744465569396484;-0.7937044747934017;0.773;0.0014653681921962369
20:27.5;0.18037052089349417;-0.020659025552640917;-0.786130918278507;0.768;0.002929343289322444
20:27.5;0.16819033507278489;-0.03376080332134565;-0.7885427675021464;0.772;0.004477535733067544
20:27.6;0.15366391784474592;-0.04825273699612964;-0.7993987375570496;0.83;0.005927305507436215
20:27.6;0.13753896729105541;-0.06351835723256391;-0.8166447189302265;0.83;0.007134411819633278
20:27.6;0.12050531818618662;-0.07914674237175562;-0.8378776764182962;0.83;0.007991344952691921
20:27.6;0.10315044952972144;-0.09492717607673395;-0.8605187838930946;0.862;0.008426011379223627
20:27.6;0.08593898178739247;-0.1108179625439361;-0.8819913506590059;0.899;0.008399717714019627
20:27.6;0.06921167734875347;-0.12689814063886515;-0.8999046327768639;0.94;0.007903712255038175
20:27.6;0.05319947000344048;-0.1433105800225124;-0.9122395283882451;0.9790000000000001;0.006954956951278575
20:27.6;0.03804971332246392;-0.1602030125227476;-0.9175223395080967;1.013;0.005592921381608749
20:27.6;0.023860730596445476;-0.17767308094257384;-0.9149654878998057;1.032;0.003878913398603182
20:27.6;0.010717794628717036;-0.19572461695288276;-0.9045509590418797;1.0290000000000001;0.0018975093352033882
20:27.7;-0.0012779940878185573;-0.21424249311262555;-0.8870355303856394;0.9;0.00024287089552976412
20:27.7;-0.011993924183864038;-0.23298857430517098;-0.86387222015271;0.9;0.002414045389628561
20:27.7;-0.021263128962464406;-0.2516126075480382;-0.8370660613018309;0.9;0.00447836312992359
20:27.7;-0.028892002327204187;-0.269668702193726;-0.8089935952851302;0.853;0.006303086535171455
20:27.7;-0.03467541076309735;-0.2866345926781985;-0.782205165359269;0.813;0.0077744718655466324
20:27.7;-0.03841779309246015;-0.30193759514810975;-0.7592173518023825;0.7809999999999999;0.0088067512596747
20:27.7;-0.03995535928807005;-0.3149902705214645;-0.7423055779184924;0.754;0.009342323543749356
20:27.7;-0.03917361081432826;-0.32523427464143373;-0.7333148335125181;0.738;0.009342871626574479
20:27.7;-0.036017922849672535;-0.3321880183023075;-0.7335090653945604;0.7340000000000001;0.008776232356183916
20:27.7;-0.030499367464770603;-0.33549289832832224;-0.7434779006818815;0.742;0.007607504675909708
20:27.8;-0.022699762485535534;-0.33495322258518484;-0.7631137604657872;0.86;0.005802227570705617
20:27.8;-0.012779397381046345;-0.330566392324847;-0.7916589290603742;0.86;0.0033443150828863003
20:27.8;-0.0009894699710772151;-0.3225414866710867;-0.8278040520662815;0.86;0.0002641896197978315
20:27.8;0.012311639530941583;-0.3113045215715278;-0.8698139181201869;0.9179999999999999;0.0033337088866663054
20:27.8;0.02664420308039284;-0.29748723133982546;-0.915669072135101;0.976;0.007257877111455297
20:27.8;0.04140563614715282;-0.2818952797040433;-0.9632227974451704;1.03;0.011242787911527177
20:27.8;0.05589208419403745;-0.26545327628989634;-1.0103685664754178;1.082;0.014990572560471883
20:27.8;0.0693475815997733;-0.249128109379838;-1.055203984224378;1.131;0.018230159767746345
20:27.8;0.08103671861723125;-0.23383773948018732;-1.096174527209305;1.177;0.020771896827016013
20:27.8;0.09032925630645677;-0.2203572465466647;-1.1321823450838695;1.2209999999999999;0.02253575694632405
20:27.9;0.09678001695769459;-0.2092354249389257;-1.1626479560969813;1.26;0.023543397852024774
20:27.9;0.10018687147906205;-0.20073461232594794;-1.1875146882633383;1.26;0.02388207560298224
20:27.9;0.10061607402428359;-0.19480559023515515;-1.207188805615859;1.26;0.023661593139131912
20:27.9;0.09839354598640974;-0.19110640441091745;-1.2224155146651408;1.244;0.022985857345083613
20:27.9;0.09406588410136063;-0.18906638069931841;-1.2341022880234103;1.219;0.02194813433926486
20:27.9;0.08833511258290364;-0.18798608402709668;-1.2431123132170439;1.185;0.02064283951507829
20:27.9;0.0819709397869461;-0.18715432513991798;-1.250060138085596;1.148;0.01917744248749439
20:27.9;0.07570698666361482;-0.18595895026585876;-1.2551481883058258;1.13;0.017670467921560077
20:27.9;0.070133536068073;-0.18397152373635353;-1.25808419405592;1.148;0.016232523777285457
20:27.9;0.06560544061567776;-0.1809935491648141;-1.2581116097979128;1.197;0.014939020492043667
20:28.0;0.06218521147902669;-0.17705893263492875;-1.2541640771756795;1.3630000000000002;0.013808907314447495
20:28.0;0.05963588496925195;-0.17239559742594865;-1.245119832265156;1.3630000000000002;0.01280103219274386
20:28.0;0.05746804156693108;-0.16735926733455375;-1.230094910650451;1.3630000000000002;0.011830818310645313
20:28.0;0.05503596200265285;-0.16235696245039422;-1.2087005760721632;1.358;0.01080030969008139
20:28.0;0.05167211470172811;-0.15777287914582375;-1.1812089599222242;1.315;0.009629756798855003
20:28.0;0.04684241822693455;-0.15390324228051827;-1.1486001652857465;1.2429999999999999;0.008280488359113136
20:28.0;0.04029487626283185;-0.15090599444454067;-1.1124869424584272;1.156;0.0067647420409827665
20:28.0;0.032168289526399906;-0.14877242979064473;-1.0749322594037267;1.07;0.005144361999810436
20:28.0;0.02303215727646828;-0.1473267489197311;-1.0381924490149446;1.002;0.003522849488700554
20:28.0;0.013841446883993995;-0.1462561830270143;-1.0044281094990812;0.9490000000000001;0.0020333614412458676
20:28.1;0.005806431818086108;-0.1451699251564087;-0.9754244391565524;0.8590000000000001;0.0008222040585909602
20:28.1;0.00019853966211601346;-0.14367900965163394;-0.9523579457108042;0.8590000000000001;2.7166945644901594e-05
20:28.1;-0.0018661524083729223;-0.1414823587783824;-0.9356416707750289;0.8590000000000001;0.00024703526650240824
20:28.1;0.0003814610881504581;-0.13844140801605903;-0.9248714625899253;0.868;4.8842471323940574e-05
20:28.1;0.0072297435999679055;-0.1346291026945827;-0.9188788526573552;0.8909999999999999;0.0008943759313812464
20:28.1;0.01842598099273858;-0.13034394178307135;-0.9158796025380826;0.9229999999999999;0.002199681773943659
20:28.1;0.03319585792100516;-0.1260840179702792;-0.9136962682886577;0.9540000000000001;0.0038242457129396587
20:28.1;0.05034062117450577;-0.12248307514666494;-0.9100253804506833;0.976;0.005611101911147737
20:28.1;0.06839593144154503;-0.12022035818777087;-0.9027144738783195;1.001;0.007422645026627669
20:28.1;0.08582249841611715;-0.11992325712167194;-0.890013716852777;1.014;0.00916012222990472
20:28.2;0.10119258945529115;-0.12208262031255436;-0.8707719206757335;0.9209999999999999;0.010757391332155192
20:28.2;0.11334153196651113;-0.12699461736162623;-0.8445587511535156;0.9209999999999999;0.01215637975638632
20:28.2;0.12146609605500064;-0.13473304856580684;-0.8117119952672844;0.9209999999999999;0.013284070563418536
20:28.2;0.12516538401239474;-0.14514873975180917;-0.7733180356759092;0.851;0.014049331004941665
20:28.2;0.12442986976370866;-0.15789158498722264;-0.73112980068213;0.779;0.014364089979712995
20:28.2;0.1195902006777303;-0.17245096480791164;-0.6874246518506123;0.716;0.014177064834855318
20:28.2;0.11124069062786303;-0.1882079615365389;-0.6448145419246789;0.66;0.013500084615415627
20:28.2;0.10015330455444221;-0.20449159942015924;-0.6060309857745295;0.613;0.012411823322392256
20:28.2;0.08719559644078198;-0.2206335964720302;-0.5737085975389599;0.5760000000000001;0.011037165512964686
20:28.2;0.07326052073333134;-0.23601905323074213;-0.550187139520444;0.551;0.009513219115225567
20:28.3;0.05920960440112795;-0.2501316842416569;-0.5373478524337052;0.574;0.00795822812818027
20:28.3;0.04582759926715042;-0.26259113141082197;-0.5364944025210221;0.574;0.006456131332741984
20:28.3;0.03378730377993991;-0.27317764440340464;-0.5482815159430738;0.574;0.005060603333579432
20:28.3;0.02362357527087667;-0.28183966445231995;-0.5726891851557685;0.61;0.0038129992582163446
20:28.3;0.01571363643946738;-0.2886839318773949;-0.6090400082261179;0.6509999999999999;0.002762772568315332
20:28.3;0.010260658629356791;-0.29395108425526056;-0.6560580607130736;0.6970000000000001;0.0019787575331617017
20:28.3;0.007281212795237347;-0.29797963730066507;-0.711966131507151;0.748;0.0015447195583755337
20:28.3;0.006600524734463372;-0.30116081352248847;-0.7746164347799178;0.8059999999999999;0.0015397975756122311
20:28.3;0.007859856065485752;-0.3038879253615243;-0.8416503686718612;0.879;0.002010294827751232
20:28.3;0.010539089527723774;-0.30650509605548804;-0.9106835784033223;0.963;0.002941767182531429
20:28.4;0.013995631344485416;-0.3092594678163032;-0.9795082195230213;1.196;0.004239587306980525
20:28.4;0.017517516830449397;-0.3122598253665392;-1.0462887599102;1.196;0.005723217038207253
20:28.4;0.020385229754180778;-0.3154444111064909;-1.1097086736613435;1.196;0.007135878195668978
20:28.4;0.02193618590558245;-0.3185613593707835;-1.1690290255881943;1.2570000000000001;0.008169199615970499
20:28.4;0.02162851265459397;-0.3211655672904169;-1.2240513130603683;1.308;0.008502668686137504
20:28.4;0.019102900978525943;-0.32263589653979813;-1.275003160885752;1.3430000000000002;0.007858203500669018
20:28.4;0.014239956679600693;-0.3222165629891329;-1.3223668642726396;1.361;0.006067481867352835
20:28.4;0.007206779666700051;-0.31908578236201374;-1.366664834387512;1.367;0.00314275638848064
20:28.4;-0.001517549994905108;-0.31245141374676355;-1.4082198560331392;1.354;0.0006677224300836843
20:28.4;-0.011151895942247044;-0.30166553199727775;-1.4469202063977358;1.331;0.0048676459372596
20:28.5;-0.020673431786864004;-0.2863399165072607;-1.4820321435140635;1.3980000000000001;0.008773080058151328
20:28.5;-0.028932168860368247;-0.26644050836151223;-1.5121050224726258;1.3980000000000001;0.011656366677007918
20:28.5;-0.03480022626852882;-0.2423445633255648;-1.5350022770001834;1.3980000000000001;0.012945665258782577
20:28.5;-0.03732144430789707;-0.21485125320866172;-1.548074366985656;1.4969999999999999;0.012413325773624837
20:28.5;-0.03583345016457383;-0.1851384802919392;-1.5484742473876068;1.611;0.010272811213516315
20:28.5;-0.030048206938560928;-0.15466258497504334;-1.5335900692831594;1.709;0.007127104287984472
20:28.5;-0.02008393472332932;-0.12500984642066532;-1.5015298861644968;1.764;0.003769875462204273
20:28.5;-0.006445030600968236;-0.09772332162667786;-1.4515607906380528;1.749;0.0009142362400054621
20:28.5;0.010047436460193964;-0.07413651049249634;-1.3844008942430006;1.6540000000000001;0.0010312151387753701
20:28.5;0.028365189301718628;-0.055243261528292;-1.3022878465942787;1.5;0.002040666264764313
20:28.6;0.04740582270291938;-0.041622610979763504;-1.2087967297823445;0.997;0.0023851422434292215
20:28.6;0.06612700055320407;-0.03342182704195024;-1.1084514349324914;0.997;0.0024497720838755933
20:28.6;0.08365779108232808;-0.0303873731239666;-1.0062412047545697;0.997;0.0025580065317979844
20:28.6;0.09937073661406876;-0.031928125658565946;-0.9071599806607135;0.858;0.0028781658524765067
20:28.6;0.11291150397363602;-0.03719800802244497;-0.8158229835544116;0.737;0.0034265242692310544
20:28.6;0.1241918966461254;-0.045189917106873936;-0.7361586284568462;0.644;0.004131485292919292
20:28.6;0.13335332523268653;-0.0548344405104872;-0.6711717732636947;0.584;0.004907846258222203
20:28.6;0.14070738127160695;-0.06509572559030823;-0.6227916119803418;0.552;0.005704428057252654
20:28.6;0.14666189729169488;-0.075055633186701;-0.5918182289716378;0.539;0.006514617627419328
20:28.6;0.1516432657171046;-0.08397827555661778;-0.5779699106739499;0.5539999999999999;0.007360296514071871
20:28.7;0.156026166581385;-0.09135099865101037;-0.5800198113592672;0.6709999999999999;0.00826710713127981
20:28.7;0.16007886106063815;-0.09690284437296807;-0.5959956069116552;0.6709999999999999;0.009245141642601193
20:28.7;0.16392728917202581;-0.10060440251748605;-0.623402121591224;0.6709999999999999;0.010281027462363684
20:28.7;0.16753811294706097;-0.10265309127745169;-0.6594283016244599;0.705;0.01134104918938705
20:28.7;0.17072097682739842;-0.10344648258580684;-0.7011202576417058;0.7390000000000001;0.012382123482265726
20:28.7;0.17315080185302503;-0.10354405204575107;-0.745523172718207;0.774;0.013366287876288883
20:28.7;0.17440918577101974;-0.10361629166696845;-0.7898023464925267;0.812;0.014273018197515763
20:28.7;0.17404064037532024;-0.1043816435473276;-0.8313526404783658;0.853;0.015102890855274304
20:28.7;0.17161676902317105;-0.10653549584078882;-0.8679034289721246;0.9;0.015868119306681534
20:28.7;0.1668003087106369;-0.11067880672622767;-0.8976226245341622;0.951;0.016571243872170394
20:28.8;0.15940041133429214;-0.11725526784938531;-0.919216659876378;1.022;0.017180653843910498
20:28.8;0.1494113553696006;-0.12650455214611867;-0.9320136946172002;1.022;0.01761619271293465
20:28.8;0.13703017386283517;-0.1384355596124346;-0.9360092868294843;1.022;0.017755954648882553
20:28.8;0.12265170445469846;-0.15282109879166023;-0.9318550066765179;0.998;0.017466474281631075
20:28.8;0.10684038417886867;-0.16921579285049512;-0.9207821251685039;0.955;0.016646893995636004
20:28.8;0.09028067105549337;-0.18699801367737737;-0.9044670095337791;0.9129999999999999;0.015269488967326801
20:28.8;0.07371389529732864;-0.20543145223256448;-0.8848561365929635;0.8809999999999999;0.013399511470654095
20:28.8;0.057873382607411004;-0.22373642964700843;-0.8639751409172718;0.848;0.011187081887748328
20:28.8;0.04342836302507273;-0.24115974983365854;-0.8437473291523897;0.8190000000000001;0.00883671188387298
20:28.8;0.030942289255906946;-0.25703433460918995;-0.8258439659489172;0.804;0.006568127608316283
20:28.9;0.020845514443712902;-0.2708232436667605;-0.8115835881736994;0.825;0.004581754436012349
20:28.9;0.013418639111906733;-0.28214559464253164;-0.8018896839674259;0.825;0.0030359622914482858
20:28.9;0.008783075561897953;-0.2907845965706698;-0.7973050627684664;0.825;0.0020363036430314113
20:28.9;0.0068974430864928975;-0.29668063779202464;-0.798052352635779;0.851;0.001633084706778112
20:28.9;0.0075600539129991005;-0.2999138980903125;-0.8041271176046001;0.879;0.0018232498740495787
20:28.9;0.010420416153552917;-0.30067946593232814;-0.8154094092611861;0.91;0.0025548449717432333
20:28.9;0.015005670119283172;-0.299254706599329;-0.8317769708843874;0.946;0.0037351089680554964
20:28.9;0.020766060884035584;-0.29595771146136746;-0.8532000199986463;0.975;0.005243661402656782
20:28.9;0.027136051635047155;-0.29109865663266166;-0.8797965714235036;0.987;0.00694974905912289
20:28.9;0.033600939833344966;-0.2849302987276109;-0.9118310267280255;0.99;0.008729802614137873
20:29.0;0.03975770975450766;-0.27760651574941325;-0.9496484166917382;1.013;0.010481268890449227
20:29.0;0.045360897502763634;-0.26915809111630623;-0.9935493496927753;1.013;0.012130494964239697
20:29.0;0.050345795672934304;-0.2594936706388801;-1.043621835452746;1.013;0.013634309095797801
20:29.0;0.054823512366018484;-0.24843043524092734;-1.0995554431771075;1.04;0.014975757154453262
20:29.0;0.059046849585362306;-0.23575271004706533;-1.1604712083496111;1.089;0.01615428701354571
20:29.0;0.06335033125944932;-0.22128891812638066;-1.2248030079298389;1.1440000000000001;0.017170178099597005
20:29.0;0.0680700480153837;-0.2049906903608236;-1.2902599266072072;1.202;0.018003933659574926
20:29.0;0.07345169161150228;-0.18699601405455457;-1.353888352257029;1.2770000000000001;0.018595891494936356
20:29.0;0.07956072551201142;-0.16766285590971328;-1.4122413309499375;1.3719999999999999;0.018838421586995526
20:29.0;0.0862146894005621;-0.14756612299227512;-1.4616504693132908;1.4709999999999999;0.018595654368428097
20:29.1;0.09295829810888159;-0.12745470159435923;-1.4985791520397906;1.663;0.01775512405222396
20:29.1;0.09909244731335257;-0.10817264305117136;-1.5200130108147438;1.663;0.016293159201206674
20:29.1;0.10375135368733297;-0.09056280568607983;-1.5238230960280015;1.663;0.014317862661746615
20:29.1;0.1060110637599751;-0.07537793048847502;-1.5090383706870292;1.663;0.012058566560134614
20:29.1;0.10501550784249818;-0.06321255848366142;-1.4759892895620852;1.62;0.009798058123340971
20:29.1;0.10011236896169401;-0.05445396307614716;-1.4263103705603195;1.5430000000000001;0.0077755527262240685
20:29.1;0.09098710321639278;-0.04924804212166708;-1.3628037737772554;1.4340000000000002;0.006106637433545771
20:29.1;0.07777300404861766;-0.047482815458674596;-1.289177175265434;1.307;0.004760778152598096
20:29.1;0.061109943543322935;-0.04879622533991649;-1.2096839548427467;1.177;0.0036071984105540884
20:29.1;0.04212866509975703;-0.05261337884894858;-1.1287069513007022;1.053;0.0025018144184761294
20:29.2;0.022349921530084874;-0.05821359686590914;-1.050335260483879;0.8240000000000001;0.00136655898516435
20:29.2;0.003509108527426726;-0.0648200278744373;-0.9779900504303055;0.8240000000000001;0.00022245411815163455
20:29.2;-0.012658811944669841;-0.0716958631383665;-0.9141570020676774;0.8240000000000001;0.0008296746787279768
20:29.2;-0.024631461307208207;-0.07822879812893536;-0.8602638344608657;0.802;0.0016576334481136713
20:29.2;-0.03127926878335571;-0.08399252333705264;-0.8167019634754608;0.792;0.002145659581804119
20:29.2;-0.03199847100005551;-0.08878239346591159;-0.7829604918500409;0.79;0.0022243131210462957
20:29.2;-0.026782720509083233;-0.09262484992490755;-0.7578346786712324;0.7929999999999999;0.0018799949444057503
20:29.2;-0.016219590223767393;-0.09575968367624985;-0.7396760529244923;0.802;0.001148852144562663
20:29.2;-0.0014076748670067704;-0.09859587420530666;-0.726653777955607;0.807;0.00010085295661656239
20:29.2;0.01619536417969399;-0.1016460546270829;-0.7169973036683999;0.8079999999999999;0.0011803172846189696
20:29.3;0.034969312270894726;-0.10544941373906756;-0.7091936098272501;0.769;0.0026151468107526066
20:29.3;0.05333749613927639;-0.11049522520501723;-0.7021217694773062;0.769;0.004137981783862944
20:29.3;0.06994492452004626;-0.11715778871401858;-0.6951211380868838;0.769;0.005696234595814684
20:29.3;0.08378099055168313;-0.12565018880172837;-0.687998829042708;0.738;0.007242630602419263
20:29.3;0.0942380534028121;-0.13600126536268237;-0.6809839705605167;0.705;0.00872782731879196
20:29.3;0.1011124515571581;-0.1480570170195104;-0.6746382182270622;0.6829999999999999;0.010099609352996978
20:29.3;0.10456059821162611;-0.16150337345003332;-0.6697383742005286;0.674;0.011309797812633403
20:29.3;0.10502468143811314;-0.17590366456972747;-0.6671510922830816;0.674;0.012325100278635124
20:29.3;0.10314368565510316;-0.19074347657598742;-0.6677164601010265;0.677;0.013136643746288925
20:29.3;0.09966439738863413;-0.20547767185751722;-0.6721502713875545;0.6809999999999999;0.01376483658510439
20:29.4;0.09536292963255995;-0.21957675476203553;-0.6809690701744763;0.722;0.01425914000512568
20:29.4;0.09098199830642173;-0.23256991750243436;-0.6944383085439819;0.722;0.014694089499898505
20:29.4;0.08718465845481445;-0.2440803474302627;-0.712541675206967;0.722;0.01516293083092264
20:29.4;0.08452219224266472;-0.2538488517110869;-0.7349708178523321;0.75;0.015769432033887542
20:29.4;0.08341250307168181;-0.2617459376729253;-0.7611391394616291;0.7829999999999999;0.016617862410440852
20:29.4;0.0841254034655548;-0.26777533830964706;-0.7902254460820344;0.8190000000000001;0.01780117817314927
20:29.4;0.08677202598099794;-0.27207070382490606;-0.821249732431299;0.862;0.019388167309320324
20:29.4;0.09129710692549235;-0.27488493121004615;-0.8531776365146203;0.91;0.021411515711540253
20:29.4;0.09747518268794918;-0.27657126627112144;-0.8850450028929467;0.963;0.023859781940375517
20:29.4;0.10491441929854989;-0.27755644356326103;-0.9160891109358409;1.012;0.02667621544001464
20:29.5;0.11307337673264839;-0.2783072493910384;-0.9458678877639886;1.105;0.029765649414586492
20:29.5;0.1212939566331446;-0.27929233921009206;-0.974343052703891;1.105;0.03300730600085515
20:29.5;0.1288483157426571;-0.2809413774254737;-1.001900997390779;1.105;0.036267637172344026
20:29.5;0.13499411164450173;-0.2836039000083905;-1.0292936458896953;1.103;0.039406359570985386
20:29.5;0.13903402124931968;-0.2875104127404904;-1.0575009878849275;1.09;0.042272257731782045
20:29.5;0.14037703084896416;-0.29273842217468005;-1.087536425257985;1.0859999999999999;0.044690950541282
20:29.5;0.13859677122177236;-0.2991867469374232;-1.1202271651630475;1.091;0.04645169487470609
20:29.5;0.13347961847197493;-0.3065617312186713;-1.156005341155439;1.113;0.047303441375587355
20:29.5;0.12505635757656594;-0.31437808470844686;-1.194743084248279;1.1520000000000001;0.04697129828259301
20:29.6;0.11361523311218572;-0.32197587405882705;-1.2356566911014275;1.2009999999999998;0.045202007181010126
20:29.6;0.09969784166195429;-0.32855465897462593;-1.2772923213452796;1.32;0.041839230433250836
20:29.6;0.08408046587988416;-0.3332249462583913;-1.317589741981939;1.32;0.03691584560885025
20:29.6;0.06774213744320574;-0.33507521670415513;-1.3540079134008154;1.32;0.03073423483764583
20:29.6;0.05181730034331586;-0.33325160674565324;-1.3836983244668073;1.344;0.02389397746471991
20:29.6;0.03752780050522135;-0.3270480048007973;-1.4037274839565708;1.411;0.01722849806452863
20:29.6;0.026090444332380176;-0.31600347628488734;-1.4113571514540164;1.506;0.011636175528038303
20:29.6;0.0186026259424736;-0.2999973018108308;-1.4043745209498764;1.58;0.007837445678573862
20:29.6;0.015916039636705428;-0.279321011357467;-1.3814341603614868;1.639;0.006141420141805249
20:29.6;0.018516997663034957;-0.25470083365333773;-1.3423471437263013;1.671;0.0063309047752667345
20:29.7;0.026440525143282382;-0.22725185185283953;-1.2882394546148868;1.62;0.007740590694930839
20:29.7;0.039246037790652076;-0.19836495517796565;-1.2215112055800268;1.058;0.009509511796914755
20:29.7;0.05606601359669649;-0.1695496579092736;-1.1455824657427973;1.058;0.010889876476249161
20:29.7;0.07571216483699764;-0.1422693333808972;-1.0644985547122625;1.058;0.011466266641941503
20:29.7;0.09680946654901335;-0.11780079433133499;-0.9825104824098654;0.91;0.011204777541081543
20:29.7;0.11793657280875121;-0.09713145454285955;-0.9037059257274459;0.8109999999999999;0.010352268454114117
20:29.7;0.13776201296545337;-0.08089405775412499;-0.8317111419380071;0.75;0.009268695618698353
20:29.7;0.15516392767750525;-0.06933937838890246;-0.7694722076480538;0.7170000000000001;0.008278728623789155
20:29.7;0.16931685844112176;-0.062350007271128945;-0.7191278168282648;0.713;0.007591765738608093
20:29.7;0.1797329618475574;-0.05949479623994487;-0.6819740676128054;0.72;0.007292468693357664
20:29.8;0.18625397974200775;-0.06011680283902062;-0.658502135473866;0.7170000000000001;0.0073732443137883175
20:29.8;0.18899973164173658;-0.06344237500094445;-0.648477459339292;0.682;0.007775628538792981
20:29.8;0.18828830667252958;-0.06869549531806206;-0.6510302364050902;0.682;0.008420788671194201
20:29.8;0.18454955295184416;-0.07519889978919805;-0.6647400914986682;0.682;0.00922521202989055
20:29.8;0.17825156513444723;-0.08244539222837523;-0.6877134321218126;0.684;0.010106650492220594
20:29.8;0.1698505610068947;-0.0901315487204248;-0.7176618579634426;0.706;0.010986609393638262
20:29.8;0.1597650246443524;-0.09815626338054546;-0.7519936932243166;0.74;0.011792718351704552
20:29.8;0.1483695304604203;-0.10659237895466779;-0.7879301271020851;0.784;0.012461163194178764
20:29.8;0.1360013076597615;-0.11564113803109605;-0.8226525720663199;0.836;0.012938141631677853
20:29.8;0.12297211893853673;-0.1255786035566881;-0.8534798605563697;0.89;0.01318000525448562
20:29.9;0.10957912338603762;-0.13670130924691448;-0.8780653152151191;0.9390000000000001;0.013153075654200042
20:29.9;0.09611075377168211;-0.1492757766494495;-0.8945958367926686;1.01;0.01283477310266861
20:29.9;0.08284725248893647;-0.1634939609640162;-0.9019681256053013;1.01;0.012217181229402903
20:29.9;0.07005893975195693;-0.17943516411559216;-0.8999132825671416;1.01;0.011312843488853551
20:29.9;0.05800490491169267;-0.1970361598321809;-0.8890449971650288;0.995;0.01016095191830624
20:29.9;0.046930622696382915;-0.2160744309987195;-0.8708182591273841;0.953;0.008830539171013136
20:29.9;0.037060768096178;-0.23616982351895066;-0.8473991218672785;0.893;0.007416975264505249
20:29.9;0.02858634961830235;-0.2568056081119511;-0.8214586788872631;0.8370000000000001;0.006030438974375191
20:29.9;0.02164969509839823;-0.2773648054092691;-0.7959165111139302;0.794;0.004779369981275281
20:29.9;0.01633274137434548;-0.29717536095565067;-0.7736672823424857;0.763;0.0037551398467009886
20:30.0;0.012652642742143012;-0.3155586230603984;-0.7573248602798162;0.745;0.0030237334985575605
20:30.0;0.010565076030544795;-0.33187793641917435;-0.7490117025726268;0.7829999999999999;0.0026262714406288636
20:30.0;0.009971983643356856;-0.345584934352773;-0.750210051728506;0.7829999999999999;0.002585349357968069
20:30.0;0.010729088739150398;-0.3562592440586513;-0.7616793461225684;0.7829999999999999;0.00291139518006581
20:30.0;0.01264983235409104;-0.3636370677326063;-0.7834368021298337;0.821;0.003603768507642516
20:30.0;0.0155053403986015;-0.3676276673253415;-0.814797456237528;0.8690000000000001;0.004644502040926782
20:30.0;0.019023554111982997;-0.36831907411541637;-0.8544699943106596;0.927;0.0059870472396408555
20:30.0;0.022893253336779443;-0.3659722636769512;-0.9007000762088678;0.986;0.007546331617455028
20:30.0;0.02677814646494259;-0.36100052142491457;-0.9514463295021965;1.047;0.009197560153391902
20:30.0;0.030342169927947457;-0.3539313865575084;-1.0045702730271786;1.1059999999999999;0.010788126647284575
20:30.1;0.0332821267687071;-0.34535191927745523;-1.058020816499802;1.159;0.012160940311740382
20:30.1;0.035360416680104874;-0.3358425240527839;-1.1099947134470447;1.265;0.013181777283612467
20:30.1;0.03643029484719408;-0.3259092421205183;-1.1590536355698526;1.265;0.013761408793012539
20:30.1;0.036449003494120655;-0.3159272364222727;-1.204178604190104;1.265;0.013866397133722798
20:30.1;0.03547819400406588;-0.3061057302701407;-1.2447525270732909;1.286;0.013518110137522195
20:30.1;0.033674108991566976;-0.2964777757666501;-1.2804813646099333;1.306;0.01278384568019415
20:30.1;0.031272434497072406;-0.28691325868656165;-1.3112780695095225;1.327;0.01176541112420217
20:30.1;0.028574202929558774;-0.2771531375762239;-1.3371322727006631;1.341;0.010589325428599942
20:30.1;0.02593583586839629;-0.2668625961017239;-1.3579821001544106;1.3230000000000002;0.009399007609729983
20:30.1;0.023757243023703776;-0.25569739516426954;-1.3736036536680691;1.2819999999999998;0.008344182255077352
20:30.2;0.022453837176741015;-0.24337396997462044;-1.3835410359273606;1.263;0.007560608329339549
20:30.2;0.022401004273308833;-0.2297331960180099;-1.3871071160259878;1.4240000000000002;0.007138405968344056
20:30.2;0.023855146439173112;-0.21478973468338566;-1.3834747037532218;1.4240000000000002;0.007088703820889697
20:30.2;0.026874166873146654;-0.19876047438878797;-1.3718449684731977;1.4240000000000002;0.007327740294396457
20:30.2;0.03126734289361522;-0.18206527962954067;-1.3516511668471995;1.453;0.0076945412551464075
20:30.2;0.03659549211118016;-0.16529387608493415;-1.3227526192372303;1.455;0.008001344797870668
20:30.2;0.04222634230469598;-0.1491391067389967;-1.285582465478281;1.412;0.008096082813245394
20:30.2;0.0474352818914064;-0.13430794119151182;-1.2412176844052256;1.338;0.007907717251093418
20:30.2;0.05153035087151453;-0.1214296998771281;-1.1913492624030002;1.255;0.007454647658588829
20:30.2;0.053975078924270094;-0.11098060933512054;-1.138149992221944;1.16;0.006817731455820783
20:30.3;0.05448513801138677;-0.10323676678974149;-1.0840580600786627;1.068;0.006097685103609889
20:30.3;0.053082225819013715;-0.09825903577243546;-1.0315095584716112;0.884;0.005380156143044151
20:30.3;0.05009836761632439;-0.09590698908593487;-0.9826650747965681;0.884;0.0047214930319431385
20:30.3;0.046133284485327164;-0.09587537118043106;-0.9391820366325407;0.884;0.004154045137959407
20:30.3;0.04197241546508708;-0.09774566228366748;-0.9020720565666295;0.85;0.0037008602564696028
20:30.3;0.0384737052085531;-0.10104694178048786;-0.8716522715883123;0.8290000000000001;0.0033886791718046824
20:30.3;0.03643413778262469;-0.10532173513365158;-0.8475762966131428;0.82;0.003252410124934354
20:30.3;0.0364549331534929;-0.11019112786271612;-0.8289270254630551;0.82;0.0033298083166253267
20:30.3;0.038831070556997485;-0.1154100237155076;-0.8143578391280137;0.83;0.0036495404001217297
20:30.3;0.04349017592571875;-0.12090141862833874;-0.8022691156484918;0.841;0.004218350237113314
20:30.4;0.049997392564464734;-0.12676041263994098;-0.7910037173732448;0.8440000000000001;0.005013136438462257
20:30.4;0.057628660763058365;-0.1332245240364471;-0.7790422615293227;0.84;0.0059811366169342465
20:30.4;0.06549662297190331;-0.14061517831061626;-0.7651792008335107;0.84;0.0070471621855203595
20:30.4;0.07269720639139343;-0.14926296430817876;-0.748663994044405;0.84;0.008123753390854384
20:30.4;0.07844243030687308;-0.1594325265547812;-0.7292948367377471;0.8190000000000001;0.009120761677059228
20:30.4;0.0821582173225655;-0.17126090633479019;-0.7074543890674287;0.785;0.009954230445565239
20:30.4;0.08354113371454584;-0.18471876262888398;-0.6840810244570299;0.743;0.010556474894495876
20:30.4;0.08257524003015247;-0.19959930297734235;-0.6605775787775463;0.701;0.010887613463627785
20:30.4;0.07951340025068795;-0.21553475811931327;-0.6386694264916968;0.6679999999999999;0.010945453716065878
20:30.4;0.07483066670759926;-0.23203576828750452;-0.6202304443808144;0.642;0.01076930386534103
20:30.5;0.06915958766478947;-0.24854692734862274;-0.6070973300095188;0.625;0.01043564067230281
20:30.5;0.06321746298494393;-0.2645113185154524;-0.6008911174642168;0.631;0.01004794172204327
20:30.5;0.057734606004164836;-0.27943528303699317;-0.6028618807590053;0.631;0.00972602255020221
20:30.5;0.05339107257086537;-0.29294220975440255;-0.6137697027501687;0.631;0.009599664287106081
20:30.5;0.05076635635787956;-0.3048061053079779;-0.6338120030024592;0.6579999999999999;0.009807540613717117
20:30.5;0.05030252618827127;-0.3149633104636356;-0.6626041507258101;0.695;0.01049793584640869
20:30.5;0.05227844353372235;-0.3235070627294546;-0.6992162886907902;0.747;0.011825457523192891
20:30.5;0.056792280651108945;-0.3306702279236549;-0.7422636321390085;0.8059999999999999;0.013939352043381831
20:30.5;0.06375065795920298;-0.3367994578823079;-0.7900410257902348;0.866;0.01696311863425261
20:30.5;0.07286471702400653;-0.34232275814042296;-0.8406873037232669;0.9309999999999999;0.020969474347550515
20:30.6;0.08365652884324042;-0.34771237088412554;-0.8923622632313633;0.99;0.0259573993671413
20:30.6;0.09548160809901497;-0.3534450154483792;-0.9434174438528456;1.143;0.03183797872374236
20:30.6;0.10757079530367457;-0.3599607284581513;-0.9925373806251677;1.143;0.03843229979952068
20:30.6;0.11908756408935185;-0.3676200561433222;-1.0388231018661653;1.143;0.0454786126800306
20:30.6;0.12919296422771556;-0.3766593067373771;-1.0817974974704447;1.181;0.05264214026945779
20:30.6;0.137114259063608;-0.38714586427350217;-1.1213346508298583;1.203;0.05952405209032445
20:30.6;0.14221751984614045;-0.3989381260912534;-1.1575333967501367;1.212;0.06567380422367605
20:30.6;0.1440821014518767;-0.4116558144828107;-1.1905592711204387;1.207;0.07061473106245165
20:30.6;0.1425687499915126;-0.42466675579971913;-1.2204796404739282;1.208;0.07389297386840304
20:30.6;0.13786855906028042;-0.43709581473078274;-1.2471216217057157;1.226;0.07515375651409563
20:30.7;0.1305196756887617;-0.44786014653367384;-1.269985141109276;1.258;0.07423642400102502
20:30.7;0.12138330269109425;-0.45573313701739726;-1.2882355473117582;1.382;0.0712631206910613
20:30.7;0.1115790247346448;-0.45943705001650753;-1.3007791563037596;1.382;0.06668254166690601
20:30.7;0.1023869603310881;-0.45776016979156076;-1.3064004344799847;1.382;0.06122925391579278
20:30.7;0.09512518289317361;-0.4496902759526327;-1.3039296286161077;1.391;0.055778027880317216
20:30.7;0.0910076282634584;-0.43455433958233164;-1.2924195699846797;1.4;0.05111229871067224
20:30.7;0.09099002307460277;-0.41215038706017665;-1.2713226186347366;1.422;0.04767659828017553
20:30.7;0.09562242500287137;-0.38284979067594377;-1.240657605536841;1.445;0.04541926578918048
20:30.7;0.10493792037579407;-0.34764205732597975;-1.2011446570561006;1.425;0.04381875948179937
20:30.7;0.11840824580457168;-0.3080952707548128;-1.1542738555820151;1.358;0.04210908824669471
20:30.8;0.13498702232607096;-0.2662174710383706;-1.1022712987043484;1.262;0.03961111524883985
20:30.8;0.15324210734473181;-0.2242290478931493;-1.0479406973753627;0.95;0.03600863803758397
20:30.8;0.17155260282669524;-0.18428879718749744;-0.994394897912323;0.95;0.031438016277833165
20:30.8;0.18832419725162466;-0.14823980305178097;-0.9447348405845106;0.95;0.02637429661235887
20:30.8;0.2021765416151091;-0.11743412837239967;-0.9017448054946636;0.88;0.021409609262964972
20:30.8;0.21207763168376603;-0.09265944365605623;-0.8676419475738368;0.826;0.017050027889135313
20:30.8;0.21741991972159086;-0.07415658932495131;-0.8438876570368398;0.792;0.01360610170594982
20:30.8;0.21803895964218709;-0.06170332562856171;-0.8310668829949517;0.78;0.011180948563617584
20:30.8;0.2141768703656187;-0.054737480494205515;-0.8288492666882843;0.7929999999999999;0.00971701625449177
20:30.8;0.20639828283397818;-0.05249323672437734;-0.8360413878156133;0.8240000000000001;0.009058102054242722
20:30.9;0.19547456070001026;-0.05412860985690956;-0.8507251076917351;0.871;0.009001323493099454
20:30.9;0.18225854617923273;-0.05883019243242394;-0.870461478261043;0.9490000000000001;0.00933335376025954
20:30.9;0.16757309530742187;-0.06588866400599556;-0.8925277550378364;0.9490000000000001;0.009854548328559387
20:30.9;0.15213101197983978;-0.07474297562805385;-0.9141517031372619;0.9490000000000001;0.010394567186484552
20:30.9;0.13649365372670966;-0.08499419361251602;-0.9327175474750222;0.965;0.010820612994398671
20:30.9;0.12106476541520891;-0.09639367500606946;-0.9459364103249056;0.9840000000000001;0.011038962175176933
20:30.9;0.10610965195352337;-0.1088138055324295;-0.9519860103559029;1.001;0.010991816144051631
20:30.9;0.09178885769657603;-0.1222108948326708;-0.9496231912493069;1.011;0.010652491623776896
20:30.9;0.07819749151193794;-0.1365879800412162;-0.9382658209163407;1.011;0.010021464680479184
20:30.9;0.06540369432795831;-0.15196153709007704;-0.9180354812049458;1.001;0.009124213198116583
20:31.0;0.05348134743693452;-0.16833355461260485;-0.889750629335277;0.971;0.008010162723772675
20:31.0;0.04253274054296214;-0.18567032158825042;-0.8548629359064157;0.8240000000000001;0.0067509104061038204
20:31.0;0.03269827931978673;-0.20388833520426777;-0.8153419581444215;0.8240000000000001;0.005435719919445236
20:31.0;0.024153548145753455;-0.2228442351537495;-0.7735308659985014;0.8240000000000001;0.004163513613305426
20:31.0;0.01709600114693283;-0.24232506127190148;-0.7319990474889844;0.782;0.0030325179865657585
20:31.0;0.011722289709817788;-0.26204038085799886;-0.6933997289777838;0.7440000000000001;0.0021299251420427985
20:31.0;0.008197100126934611;-0.28162207708260717;-0.6603247126386861;0.7120000000000001;0.001524349274158078
20:31.0;0.006618148599846066;-0.30063593181522785;-0.6351500993166522;0.6809999999999999;0.0012637284728124264
20:31.0;0.006985440957484236;-0.31860557512530546;-0.6198769465038154;0.6559999999999999;0.0013795984010186559
20:31.0;0.009182038439906849;-0.33504747024801496;-0.6159785960584863;0.64;0.0018950081031356464
20:31.1;0.01296982964460194;-0.3495141783603019;-0.6242721952100667;0.64;0.002829912854282727
20:31.1;0.018000353514594725;-0.3616409520378643;-0.6448351019797927;0.741;0.0041976604825455675
20:31.1;0.023838183587693573;-0.37118816460903215;-0.6769813571601987;0.741;0.005990236782093301
20:31.1;0.029992468688672877;-0.37807074878870883;-0.719300073349022;0.741;0.008156341407665024
20:31.1;0.03595237456032617;-0.38236795061939355;-0.7697507456129015;0.8240000000000001;0.010581791042032308
20:31.1;0.04122453973580251;-0.384311836744777;-0.8258151961765453;0.917;0.013083455049567106
20:31.1;0.0453723057575644;-0.3842571305804666;-0.8847046893779001;1.006;0.01542450070409845
20:31.1;0.04805604645606532;-0.38263627342574086;-0.9436043223561301;1.0859999999999999;0.017350983570571517
20:31.1;0.049072259006055316;-0.37990412905740495;-0.9999204855641335;1.153;0.018641271450521957
20:31.1;0.04838596453238453;-0.37647816632428915;-1.0514944811557707;1.2009999999999998;0.019154296019240926
20:31.2;0.046147552332248626;-0.372682129437147;-1.0967532309853685;1.2309999999999999;0.018862365750087304
20:31.2;0.04268588344634992;-0.36870248630931657;-1.1347800790283837;1.23;0.017859612987852165
20:31.2;0.03847661504316153;-0.3645649601718359;-1.1653032267763674;1.23;0.016345971290241585
20:31.2;0.03409383054957905;-0.3601333501720489;-1.1886145636408194;1.23;0.014594196406600276
20:31.2;0.030156305464778297;-0.35512817076014136;-1.2054426618518836;1.234;0.012909511706187423
20:31.2;0.027275615614024005;-0.34916139824397424;-1.2168059986247908;1.249;0.011588363978405672
20:31.2;0.02600838602537564;-0.3417853729807586;-1.2238662196151657;1.268;0.010879296751921076
20:31.2;0.02681326106764311;-0.33255533041807495;-1.2277908385091676;1.2690000000000001;0.010948079403142316
20:31.2;0.03001196182988012;-0.3211024572168869;-1.229626688777234;1.237;0.011849807499646507
20:31.2;0.03575232239421006;-0.3072081184453302;-1.23018587002995;1.203;0.013511628027687949
20:31.3;0.04397320256510204;-0.29086503967496663;-1.229955208721588;1.188;0.01573145589731852
20:31.3;0.05437690318415668;-0.27231190332304167;-1.229049414303156;1.229;0.0181991221667594
20:31.3;0.06641865241544313;-0.25203439474647726;-1.2272251946775978;1.229;0.02054348573539623
20:31.3;0.07932184108756964;-0.2307347741873141;-1.2239577977168234;1.229;0.02240125148080331
20:31.3;0.09212522487494819;-0.20927598202123668;-1.2185664541885028;1.258;0.023493470038261105
20:31.3;0.10376602350783355;-0.1886035021022387;-1.2103698821347602;1.286;0.02368770770210126
20:31.3;0.11319668579160462;-0.16964888729256533;-1.198849800356344;1.31;0.023022342068248783
20:31.3;0.11952177265075208;-0.15322727415799373;-1.1837931075515569;1.314;0.0216799815568001
20:31.3;0.12213122137616955;-0.13994764806220408;-1.1653788692881488;1.2890000000000001;0.019918629047571326
20:31.3;0.12080345705745013;-0.13015235468409064;-1.1441818951632245;1.2329999999999999;0.01798980533333199
20:31.4;0.11575676745856771;-0.12389495914365717;-1.1210802772185988;1.1520000000000001;0.016078174562020098
20:31.4;0.10763743285512603;-0.12095762520242347;-1.0970772765625765;0.971;0.01428347248984381
20:31.4;0.09744682658195462;-0.12090171390142967;-1.0730759727956143;0.971;0.012642432070025005
20:31.4;0.08642330672409554;-0.1231392516175714;-1.0496671371815833;0.971;0.011170664018100305
20:31.4;0.07589937403413165;-0.12701167254122844;-1.0269878015407206;0.941;0.009900271720365976
20:31.4;0.06714900673725165;-0.1318664923222837;-1.0046797840846047;0.938;0.008896142084132657
20:31.4;0.06123648508770217;-0.13712691668128954;-0.9819492600998735;0.9590000000000001;0.008245595249896934
20:31.4;0.058882741540284556;-0.14234959147392456;-0.957714212363009;0.995;0.008027497513423654
20:31.4;0.060370350129737016;-0.1472640015219662;-0.9308159073529008;1.032;0.008275306505918305
20:31.4;0.0655069047900014;-0.15178745402265995;-0.9002561287201651;1.046;0.008951360389294588
20:31.5;0.07365921812554704;-0.15601319090947507;-0.8654103018221365;1.022;0.009945130466052053
20:31.5;0.08385792043101431;-0.16017439925458532;-0.8261689316341942;0.821;0.01109701188641399
20:31.5;0.09495331960569728;-0.16459165840453155;-0.782984825197401;0.821;0.012236897402298347
20:31.5;0.10578605687546368;-0.1696141798498397;-0.736841619401921;0.821;0.013221013064951248
20:31.5;0.11533450656318263;-0.17556513253420566;-0.68917715868595;0.746;0.013954953890397548
20:31.5;0.12281712250143008;-0.18269858070662176;-0.641780769084861;0.679;0.014400606751172364
20:31.5;0.12774587109108623;-0.1911716405004916;-0.5966669800004145;0.629;0.01457143567242116
20:31.5;0.1299353642178111;-0.20103204028638874;-0.5559315480106946;0.588;0.014521583237834704
20:31.5;0.12947534164392893;-0.21221917359119083;-0.5216040157129951;0.5539999999999999;0.014332191782492997
20:31.5;0.12667659369035897;-0.22457601740882746;-0.49551046939513727;0.528;0.014096541931702327
20:31.6;0.12200187644643727;-0.23786939481333577;-0.4791553943601877;0.513;0.013905335119332993
20:31.6;0.11599319590648162;-0.2518159247551871;-0.4736286468061318;0.532;0.013834187834154655
20:31.6;0.10920570984966509;-0.266109490762185;-0.4795419484222816;0.532;0.013935813113063873
20:31.6;0.10215669381511884;-0.2804442692499305;-0.4969975057082664;0.532;0.014238610435336278
20:31.6;0.09529440936905158;-0.2945291050206467;-0.5255907474257708;0.579;0.014751743474566304
20:31.6;0.08898603887944266;-0.30809450129808297;-0.5644497437306859;0.638;0.015475015852138745
20:31.6;0.0835187232608535;-0.3208970475715517;-0.6123111682121645;0.6990000000000001;0.01641049755912986
20:31.6;0.07910599028007796;-0.33272506682024566;-0.6676250837260979;0.7659999999999999;0.017572256661419608
20:31.6;0.07589351342178402;-0.34340689609280917;-0.7286739274389521;0.836;0.018990959215753795
20:31.6;0.0739613978186489;-0.35282147369346833;-0.7936896271271959;0.903;0.020711465250909666
20:31.7;0.07332391840308146;-0.3609089104929693;-0.8609557784643119;0.9640000000000001;0.022783692743087343
20:31.7;0.07393097643930151;-0.36767692438247385;-0.9288857822179369;1.075;0.02524963658808864
20:31.7;0.07567624788480383;-0.37319904502827994;-0.9960698304714936;1.075;0.028131306401529863
20:31.7;0.07841382155829923;-0.37760259897599957;-1.0612855393301923;1.123;0.03142388245690534
20:31.7;0.08198037424146701;-0.38104725713090426;-1.1234752271571282;1.169;0.03509556487717654
20:31.7;0.08621653596308201;-0.38369667469345264;-1.181705116881707;1.2209999999999999;0.03909198478850894
20:31.7;0.09098041456249024;-0.3856859569789316;-1.2351265512638463;1.274;0.043340427964415465
20:31.7;0.09614928198316836;-0.3870872705028037;-1.2829536159564707;1.325;0.04774917695876897
20:31.7;0.10161176378834252;-0.38787596152517995;-1.3244626752093145;1.3780000000000001;0.0522007303173866
20:31.7;0.10725927601841137;-0.38790032940395747;-1.359011898104048;1.422;0.05654292468180277
20:31.8;0.11298816016346645;-0.3868599507055221;-1.3860729994650876;1.459;0.06058607423259458
20:31.8;0.11872051065864242;-0.3843003041404301;-1.4052635475261757;1.479;0.06411420551599303
20:31.8;0.12444054891962977;-0.3796333113954981;-1.4163681277210447;1.479;0.06691174817200468
20:31.8;0.13022856871269783;-0.3721909426391468;-1.4193415240699618;1.479;0.0687953328634064
20:31.8;0.13626822901530644;-0.3613124644511241;-1.414294974164566;1.432;0.06963339242163065
20:31.8;0.14281192933920486;-0.3464579941615431;-1.4014750857189322;1.399;0.06934265319841859
20:31.8;0.15010497527213526;-0.32733250061146757;-1.3812530541068324;1.409;0.06786681479321595
20:31.8;0.15828376402298194;-0.30399618268100964;-1.3541432938798528;1.4469999999999998;0.06515820666491765
20:31.8;0.16727552689908437;-0.27693270716568996;-1.3208562765009337;1.465;0.061187431356749276
20:31.8;0.17673451812794272;-0.24704953756321155;-1.2823635857270195;1.44;0.055990790955718524
20:31.9;0.18604529424608526;-0.215597088424802;-1.2399321232252094;1.38;0.049734698862342865
20:31.9;0.19440435419449847;-0.18401582229793695;-1.1950866673808231;1.133;0.042752405522565824
20:31.9;0.20096124091145612;-0.153746440146724;-1.1494916580953567;1.133;0.03551593042908974
20:31.9;0.20497465027348005;-0.12605393272018578;-1.1047865769565417;1.133;0.028545321761400098
20:31.9;0.20593652031719303;-0.10190775044185298;-1.0624259096931274;1.054;0.02229663059104325
20:31.9;0.20363773037685004;-0.0819327264237403;-1.0235528277013668;0.995;0.017077563830925176
20:31.9;0.19817381981377985;-0.06642100648977074;-0.9889114693793302;0.953;0.013016947301550666
20:31.9;0.18990383833679256;-0.05538554972106319;-0.9588008954553994;0.9279999999999999;0.010084599245365583
20:31.9;0.17938037123960615;-0.04863403417650278;-0.9330785371180846;0.9179999999999999;0.00814016885851451
20:31.9;0.1672680683098994;-0.045842910084335387;-0.9112162839474883;0.92;0.006987256596339005
20:32.0;0.15426414639803324;-0.04661638858022538;-0.8924018670931443;0.9259999999999999;0.006417473675765873
20:32.0;0.14102949205844767;-0.05052397378737342;-0.8756690352138613;0.9059999999999999;0.006239466188689298
20:32.0;0.1281353125331504;-0.05711879285543153;-0.8600358965508895;0.9059999999999999;0.006294546286180632
20:32.0;0.1160283318231297;-0.0659440181834695;-0.8446324702028765;0.9059999999999999;0.0064625992798034715
20:32.0;0.10501513145180646;-0.07653577563270206;-0.8288025837241878;0.887;0.006661429936248114
20:32.0;0.09526257379889645;-0.08842969272104607;-0.8121686236753558;0.861;0.00684174107723601
20:32.0;0.0868093964619235;-0.1011754853056615;-0.7946519951900808;0.828;0.006979414818555264
20:32.0;0.07958541472288458;-0.11435976836375307;-0.7764495274699472;0.795;0.007066754119691752
20:32.0;0.07343670495930497;-0.12763266865160428;-0.7579742451902287;0.762;0.0071044339564105795
20:32.0;0.06815561549028154;-0.14073093343537604;-0.7397746452286262;0.733;0.0070956249926509805
20:32.1;0.06351342060913837;-0.15349068839517915;-0.7224489422869194;0.71;0.007042951478522283
20:32.1;0.059291890756380194;-0.16584626092423652;-0.706570178385012;0.6920000000000001;0.006947943656861892
20:32.1;0.055309838720357114;-0.17781499634573114;-0.6926351574778651;0.6920000000000001;0.0068120105110016736
20:32.1;0.05144222249680175;-0.18947017120823706;-0.6810450202040182;0.6920000000000001;0.006637986926714176
20:32.1;0.047630673783177965;-0.2009060333513605;-0.6721181908201118;0.703;0.006431693704545724
20:32.1;0.04388465131319729;-0.2122012216677445;-0.6661287277301626;0.727;0.006203241590773076
20:32.1;0.04027346663615502;-0.22338741709526605;-0.6633563115233393;0.748;0.005967941899172993
20:32.1;0.0369114464080631;-0.23442840740053908;-0.6641290443031767;0.7509999999999999;0.0057467694521136405
20:32.1;0.033939505339865776;-0.24521288343858627;-0.6688391633821339;0.737;0.005566349706528
20:32.1;0.03150567378590704;-0.2555630521382843;-0.6779183535933484;0.721;0.005458385820085057
20:32.2;0.02974567492930628;-0.2652592143511282;-0.6917734157443272;0.708;0.005458309717560791
20:32.2;0.028763451607469393;-0.27407721292149967;-0.7106977681027289;0.758;0.005602719511611739
20:32.2;0.028611840356872757;-0.2818315731522603;-0.7347808112916417;0.758;0.0059250667078740386
20:32.2;0.029275936134325324;-0.28841377952592223;-0.7638339221604286;0.758;0.0064494954176128605
20:32.2;0.03066368588588197;-0.29381575761700535;-0.7973468038433688;0.807;0.007183675377857131
20:32.2;0.032607301863493345;-0.2981336887692889;-0.8344863117779143;0.8590000000000001;0.008112321144402102
20:32.2;0.0348762382354155;-0.3015522667702644;-0.8741457102823543;0.9129999999999999;0.009193398036881
20:32.2;0.03720021420383784;-0.30431224050432815;-0.9150414774917911;0.9690000000000001;0.010358709231562227
20:32.2;0.0392997041625468;-0.3066664650813881;-0.9558436556298188;1.032;0.01151973344775783
20:32.2;0.040920510367892675;-0.30883164135348984;-0.9953199214235812;1.093;0.012578403662498025
20:32.3;0.04186785163657072;-0.3109430560010084;-1.0324713265929515;1.147;0.01344124627723625
20:32.3;0.04203467293005101;-0.3130186450808458;-1.066636720584352;1.192;0.014034418105118102
20:32.3;0.041419877544815985;-0.31493745846295085;-1.09754450899257;1.192;0.014317106987945572
20:32.3;0.04013448824905352;-0.31643586764870935;-1.1252976121838536;1.192;0.014291270235430439
20:32.3;0.0383956536642422;-0.3171231585406984;-1.1502910774101136;1.1840000000000002;0.014006117811362934
20:32.3;0.03650976138365985;-0.31651746166530287;-1.1730772001659207;1.181;0.013556053143358632
20:32.3;0.03484805119345189;-0.31410275509897434;-1.1942031847267927;1.193;0.013071591487673707
20:32.3;0.033819561051074656;-0.3094055436514058;-1.214048498675583;1.205;0.01270375453127993
20:32.3;0.03384253924617068;-0.3020831851509009;-1.2326862580752544;1.1909999999999998;0.012602074640600234
20:32.3;0.035307391606395434;-0.29200638503334875;-1.2497910380374395;1.168;0.012885325340479118
20:32.4;0.038520678574305196;-0.27931378866862094;-1.2646177275652826;1.17;0.013606473187992305
20:32.4;0.04362766061825369;-0.26442267697122385;-1.276075533530641;1.3630000000000002;0.014720989592012257
20:32.4;0.05052756080167839;-0.24799390042304448;-1.282901851201434;1.3630000000000002;0.01607543613353791
20:32.4;0.05881069569409191;-0.23086267472756036;-1.28390273372503;1.3630000000000002;0.01743179714838167
20:32.4;0.06774920923048888;-0.21395039077662467;-1.2782014023393382;1.416;0.018527490712023052
20:32.4;0.07636039762836835;-0.19816679377349739;-1.2654428689875508;1.425;0.0191488019248103
20:32.4;0.08353967242060448;-0.1843094720548545;-1.2459190482610274;1.39;0.01918360611136441
20:32.4;0.08823803746800223;-0.1729740436344622;-1.2205870100163942;1.318;0.018629685444108812
20:32.4;0.0896448386264537;-0.16449362189993993;-1.1909663336188763;1.22;0.017561994546051375
20:32.4;0.0873355673980892;-0.1589211682187755;-1.1589281642155094;1.121;0.016085309148584262
20:32.5;0.08135485958008445;-0.15605550988291952;-1.1264167970543035;1.045;0.014300845831893411
20:32.5;0.07222090197211305;-0.1554989958823046;-1.095161327187794;0.973;0.012298965872649512
20:32.5;0.06085597361017263;-0.15672881613732106;-1.0664352756009765;0.973;0.010171536697421948
20:32.5;0.04846427957422321;-0.15916672456715952;-1.040907405095978;0.973;0.008029456296618743
20:32.5;0.036382875910903424;-0.1622393379322243;-1.018602622025767;0.982;0.0060125400237924075
20:32.5;0.025923424131090115;-0.16542791608142215;-0.9989669360793039;1.002;0.004284027780433119
20:32.5;0.018216255300480245;-0.16830980371781157;-0.9810129278923977;1.026;0.0030077604779560683
20:32.5;0.014071817779795852;-0.17059303725472288;-0.9635132148161496;1.042;0.0023129656317135445
20:32.5;0.013879639194155559;-0.1721421939339211;-0.9452061151968596;1.04;0.002258354072263262
20:32.5;0.017563516257827736;-0.17299056949271682;-0.9249793415498662;1.0190000000000001;0.0028103857117184254
20:32.6;0.024603934213416327;-0.17333362915865072;-0.9020050067735522;0.972;0.0038467710186636532
20:32.6;0.03412645789976999;-0.17350132716695926;-0.8758131339723476;0.847;0.005185677074630408
20:32.6;0.04503912241090427;-0.17391174715153;-0.8463110678499528;0.847;0.006629012810834649
20:32.6;0.05618815459745029;-0.1750138182572275;-0.8137747770159814;0.847;0.008002419854177687
20:32.6;0.06650034054653158;-0.1772288331582721;-0.7788387130213972;0.8370000000000001;0.009179219982312792
20:32.6;0.07509354907634612;-0.18089825251107958;-0.7424908089166438;0.82;0.010086211809195465
20:32.6;0.08135061771907982;-0.18624264427804507;-0.7060580634321139;0.7879999999999999;0.010697453351701787
20:32.6;0.08495670418607237;-0.19333595169982873;-0.6711622254511838;0.741;0.011023963890599937
20:32.6;0.08590103139150064;-0.20209894370258893;-0.6396320798342755;0.688;0.011104337651725847
20:32.6;0.08444585748997654;-0.2123139238317574;-0.6133710731955299;0.64;0.010997149203593706
20:32.7;0.08106803670908648;-0.22365972440589793;-0.5941917067379635;0.606;0.010773678880983724
20:32.7;0.0763810061261029;-0.23576238893464732;-0.5836375254384585;0.579;0.010510009430555039
20:32.7;0.0710477092886779;-0.2482531278964299;-0.5828178537685138;0.579;0.010279634101713757
20:32.7;0.06569663142700348;-0.26082252705324444;-0.5922798830026745;0.5920000000000001;0.010148811405616265
