Time;AccX;AccY;AccZ;Acc-old;Acc-trns
51:35.0;0.02852671743046002;-0.2796684504067247;-0.8786950735967403;0.922;0.007010249383216711
51:35.0;0.03620147441516788;-0.28887308799756145;-0.886998935443377;0.922;0.009275908189038878
51:35.0;0.04329961711850158;-0.29757924393763713;-0.8945404167057657;0.971;0.011526213494109405
51:35.0;0.049285256716503176;-0.3053656884343828;-0.9007006942048085;0.9990000000000001;0.01355556917845374
51:35.0;0.05380094537952415;-0.3118708546895746;-0.9050079303455372;0.997;0.015185079933696503
51:35.0;0.056717870898907036;-0.31682787501995485;-0.907185901758757;0.992;0.016301951496780667
51:35.0;0.05814785531189832;-0.3200957815100553;-0.9071730324023537;0.991;0.016885105684493466
51:35.0;0.058410258335051604;-0.3216788974352763;-0.9051119831889097;0.981;0.017006463578667395
51:35.1;0.05795946322546098;-0.32172765840347417;-0.9013160070656326;0.9540000000000001;0.016806985944718626
51:35.1;0.05728922045897052;-0.32051807476627353;-0.896220019877567;0.937;0.016456598714886052
51:35.1;0.05683534166184646;-0.31841416540139156;-0.8903248886282947;0.9329999999999999;0.016112367880995824
51:35.1;0.056896866373554;-0.3158238279330888;-0.8841429607904401;0.9329999999999999;0.015887506261421696
51:35.1;0.05758913705333136;-0.3131583675309414;-0.8781499375238575;0.922;0.015837012740481014
51:35.1;0.05883401933722731;-0.31080053769579913;-0.8727446493374135;0.905;0.015958698697996803
51:35.1;0.06038561560843907;-0.30908124422739536;-0.8682177241186895;0.897;0.016204468742819198
51:35.1;0.06188438165046898;-0.3082635942624597;-0.8647327186329303;0.898;0.016496248310617755
51:35.1;0.06292827260878703;-0.30853303996104653;-0.8623249827449772;0.912;0.016742428661974756
51:35.1;0.06314674049818894;-0.30999240880717455;-0.8609207524064881;0.9309999999999999;0.01685253250574983
51:35.2;0.06226242063037706;-0.3126609445777695;-0.8603723809351617;0.9359999999999999;0.016748892581363882
51:35.2;0.06012713217464202;-0.31647726692548234;-0.8604997282454113;0.9259999999999999;0.016374337858526714
51:35.2;0.05672523265354652;-0.32130677618969006;-0.861127171250573;0.9259999999999999;0.015695077454455534
51:35.2;0.052148483412612814;-0.3269543389900795;-0.8621104687058215;0.9259999999999999;0.01469913257059902
51:35.2;0.046557111940365555;-0.33318309027061377;-0.8633530549341816;0.9309999999999999;0.013392369220525035
51:35.2;0.04014388691525723;-0.33973935097007235;-0.8648136162007453;0.935;0.011794724256760685
51:35.2;0.033110888508378775;-0.34638166234806594;-0.8665067870587823;0.941;0.00993797032961441
51:35.2;0.025659702109272303;-0.3529095611759878;-0.8684985539988929;0.943;0.007864735738163826
51:35.2;0.017990806874292897;-0.35918662354617914;-0.8708979943413037;0.946;0.005627792633939602
51:35.2;0.010306690022209082;-0.36515352701536663;-0.8738469358134234;0.95;0.003288744101794908
51:35.3;0.00281375813052824;-0.3708297638878557;-0.8775088405244472;0.95;0.0009156148928681577
51:35.3;-0.004280302332563712;-0.37630526704856365;-0.8820579747883494;0.96;0.0014207310554618085
51:35.3;-0.010774518886811276;-0.3817241855405703;-0.887669645406559;0.977;0.003650891555060868
51:35.3;-0.01648582924777736;-0.38726302631147735;-0.8945110068689682;0.977;0.005710873248209352
51:35.3;-0.021259683364071386;-0.3931055788472081;-0.902730078607771;0.986;0.007544386207764603
51:35.3;-0.024977382917348495;-0.3994167062116783;-0.9124409048997024;0.991;0.009102860857940646
51:35.3;-0.0275601613402869;-0.4063149550258712;-0.9237062746209267;0.993;0.010343760513261427
51:35.3;-0.028971375841383082;-0.4138417981037769;-0.9365232306752703;1.015;0.011228507339203605
51:35.3;-0.02921771407335822;-0.4219265346739816;-0.9508170890119975;1.038;0.011721415259350169
51:35.3;-0.028350118781800878;-0.4303501642285257;-0.966445842178048;1.0490000000000002;0.011791101500148995
51:35.4;-0.026465987755576844;-0.4387156676497743;-0.9832118651688289;1.055;0.011416115724588177
51:35.4;-0.023714089383636724;-0.4464349339285214;-1.0008764738933995;1.077;0.010596076979156762
51:35.4;-0.020301297279103753;-0.45274374440760334;-1.019174872459891;1.1340000000000001;0.009367527070734415
51:35.4;-0.016497602100982146;-0.456752397412771;-1.0378295120083114;1.1340000000000001;0.007820376763554519
51:35.4;-0.012635215114020642;-0.4575298098774361;-1.0565579931972562;1.16;0.006107948624472417
51:35.4;-0.009099277610543435;-0.4542096361296919;-1.075071958361679;1.186;0.004443250442906477
51:35.4;-0.006310782361378155;-0.44610288798669984;-1.093066836449829;1.199;0.003077265414760792
51:35.4;-0.004704471114620783;-0.43280107280458746;-1.1102047401576125;1.19;0.002260488032843217
51:35.4;-0.004703454783109908;-0.4142560155055098;-1.1260940051366928;1.192;0.0021941203395398237
51:35.4;-0.006690036939181247;-0.39082641157275094;-1.1402720048313877;1.196;0.0029814043640252444
51:35.5;-0.010972900931680088;-0.3632830904400193;-1.1522016255219272;1.193;0.004592986038149517
51:35.5;-0.017754289778991808;-0.3327661442608947;-1.1612915626935016;1.187;0.006860941389150195
51:35.5;-0.02710294976562203;-0.30069384297992496;-1.166945235480294;1.222;0.009510242057478005
51:35.5;-0.03893720245372248;-0.2686361046406065;-1.1686341468514108;1.222;0.012223841179753872
51:35.5;-0.05301950440293014;-0.2381752765552764;-1.1659814976096812;1.228;0.014723938707589597
51:35.5;-0.06896261028711835;-0.2107750504609445;-1.1588363128983024;1.225;0.016844378401779436
51:35.5;-0.08624794030068203;-0.18766832033396336;-1.1473205566766864;1.2;0.01857053751582196
51:35.5;-0.10425564511160869;-0.16976946733627424;-1.1318381923822305;1.173;0.02003288558008418
51:35.5;-0.12230273477945433;-0.1576182785527895;-1.1130424432202863;1.1440000000000001;0.0214562822589728
51:35.5;-0.13968406160183833;-0.15136279892009724;-1.0917649459159344;1.1079999999999999;0.02308315407563901
51:35.6;-0.15571263971080476;-0.15078315558732205;-1.068916469175144;1.073;0.02509692215273883
51:35.6;-0.16975834872000095;-0.15535120387265894;-1.045372706808288;1.025;0.027568740298948565
51:35.6;-0.18128437250926155;-0.16431481509313972;-1.0218622987606563;0.982;0.030438935923064937
51:35.6;-0.1898783267029416;-0.1767919917706914;-0.9988782398794178;0.982;0.03353131124278783
51:35.6;-0.19527288952440675;-0.19186005600501418;-0.976633784527016;0.985;0.03658965068002175
51:35.6;-0.19735233861004076;-0.2086294194867112;-0.955074536341557;0.991;0.03932376508816778
51:35.6;-0.19614615029236707;-0.2262973276812723;-0.9339425618842455;0.992;0.04145523504376016
51:35.6;-0.19181448598745238;-0.24418148821433794;-0.9128756606588824;0.992;0.04275685634128929
51:35.6;-0.18463051195412625;-0.26173671090283257;-0.8915200855543245;0.9890000000000001;0.04308233630918185
51:35.6;-0.17496244574129524;-0.278559472079749;-0.869635694500595;0.98;0.04238382315215093
51:35.7;-0.1632561607911688;-0.2943842309610226;-0.8471757736905526;0.9590000000000001;0.04071530101498484
51:35.7;-0.15001790230806836;-0.30907295230817866;-0.8243286771295195;0.9259999999999999;0.038221215795744376
51:35.7;-0.13579604783930374;-0.32259857395197106;-0.8015156255723336;0.866;0.03511248504109073
51:35.7;-0.12116104240292162;-0.33502346045286285;-0.7793490468194635;0.866;0.0316351741684548
51:35.7;-0.10668355288193411;-0.34647354571688077;-0.7585647732360166;0.835;0.028038851587611036
51:35.7;-0.09291126666210801;-0.35710919577902156;-0.7399428338101449;0.807;0.024550909366470777
51:35.7;-0.080344657711303;-0.3670959314700275;-0.7242268762713863;0.7929999999999999;0.02136049013332211
51:35.7;-0.06941317937324666;-0.3765800334230763;-0.7120489171197809;0.787;0.018612686269561796
51:35.7;-0.06045488818927244;-0.3856736285209969;-0.7038654971235727;0.778;0.016411226637500213
51:35.7;-0.053701915738434094;-0.39445148355930126;-0.6999103057498974;0.7759999999999999;0.014826060257710402
51:35.8;-0.04927207956111091;-0.4029588798192707;-0.7001673625015407;0.7859999999999999;0.013901558309620638
51:35.8;-0.0471660602951413;-0.41122745348259;-0.7043687515771271;0.8;0.01366192141944474
51:35.8;-0.04727054648941325;-0.4192939367763631;-0.7120193736869173;0.8420000000000001;0.014112404505541248
51:35.8;-0.04936838206262595;-0.427215520300452;-0.7224465821088175;0.8420000000000001;0.015237076815166084
51:35.8;-0.0531555884996294;-0.435075729366923;-0.7348674052634552;0.865;0.016995062751210065
51:35.8;-0.05826329587691127;-0.4429773108946202;-0.7484642969559769;0.8809999999999999;0.019317353150140257
51:35.8;-0.06428161383501964;-0.45102337648463603;-0.7624617526553322;0.903;0.022105680383243384
51:35.8;-0.07078264771124791;-0.45929238624202184;-0.7761968554410802;0.929;0.025234106346178408
51:35.8;-0.07734108900676419;-0.46781425638591323;-0.7891757293601278;0.9420000000000001;0.028553375439340032
51:35.8;-0.0835522204379968;-0.47655405401824147;-0.8011075917479361;0.946;0.03189782064363323
51:35.9;-0.08904734926569072;-0.48540784852185603;-0.8119110647654166;0.955;0.0350942730039109
51:35.9;-0.09350565066597989;-0.4942132244588092;-0.8216930897589835;0.97;0.037971858484336665
51:35.9;-0.09666090497874393;-0.5027737216590087;-0.8307060561786828;0.983;0.04037112055176086
51:35.9;-0.09830285051187405;-0.5108906218011012;-0.8392918439848571;0.983;0.04215091870065435
51:35.9;-0.0982751026055722;-0.518389649656383;-0.8478231747463201;0.996;0.043192178689703146
51:35.9;-0.09647317223944862;-0.5251300807344393;-0.8566524778834299;1.01;0.04339884096518608
51:35.9;-0.09284631851282002;-0.5309902442910176;-0.8660746618598467;1.021;0.04269790464215177
51:35.9;-0.08740579603309459;-0.5358312846311144;-0.8763038767538383;1.03;0.04104148173084085
51:35.9;-0.0802392815684177;-0.5394473756033892;-0.8874590737421675;1.03;0.03841355051512185
51:35.9;-0.0715276532678219;-0.5415161032836141;-0.8995512911924946;1.0270000000000001;0.03484265846016204
51:36.0;-0.06155825333990095;-0.5415664347490012;-0.9124677929607559;1.024;0.03041974524445112
51:36.0;-0.05072900137092758;-0.5389802893017857;-0.9259544523886079;1.006;0.025317383519425203
51:36.0;-0.03953827977282563;-0.5330358548692704;-0.9396066475408917;1.042;0.01980251148399543
51:36.0;-0.02855635962525432;-0.5229897934041426;-0.9528852488647036;1.042;0.01423104067159368
51:36.0;-0.018377096225872417;-0.5081865243453964;-0.9651722529690953;1.092;0.00901373658475026
51:36.0;-0.009552524153548026;-0.48817832914925463;-0.975868517775683;1.224;0.004550802088011078
51:36.0;-0.002515843560126854;-0.4628393385300049;-0.9845138240877002;1.224;0.0011463987801926363
51:36.0;0.0024981867102402537;-0.43245572908020113;-0.9908866096309329;1.136;0.0010705094568892526
51:36.0;0.005520656319607553;-0.3977707311170609;-0.9950428625193004;1.112;0.0021850698471788605
51:36.0;0.00688550751429279;-0.35996455033245806;-0.9972873565118399;1.028;0.0024718152245557954
51:36.1;0.007222162539883329;-0.32056861730600844;-0.9981028840580967;0.986;0.0023108064590842852
51:36.1;0.007397576334637583;-0.28134068250508726;-0.9980708875939279;1.003;0.0020772242305581736
51:36.1;0.008408391221025718;-0.24413340949898824;-0.9978093450773737;1.065;0.002048272308199715
51:36.1;0.011234431360705358;-0.21076900794484768;-0.9979382554745648;1.065;0.0023629880098083897
51:36.1;0.016677663377957723;-0.18291210528962276;-0.999060761309429;1.078;0.00304768132845513
51:36.1;0.025215366813557627;-0.1619319959116521;-1.0017329103644337;1.044;0.0040902504514792465
51:36.1;0.03689167699271787;-0.14876122833961525;-1.006399258478228;0.987;0.005523170643019242
51:36.1;0.05126543321144784;-0.14377781233362252;-1.0132905524651616;0.95;0.007468794262698703
51:36.1;0.06742546013481497;-0.14674698539494396;-1.0223028966176064;0.9279999999999999;0.01011515864538919
51:36.1;0.08407510244020637;-0.15684521606847887;-1.032895078796075;0.9009999999999999;0.013620557696702168
51:36.2;0.099678359454039;-0.1727610621657397;-1.0440469606450165;0.899;0.017979051669034685
51:36.2;0.11265184535677257;-0.19284365874833076;-1.054319160507578;0.976;0.022904234005403357
51:36.2;0.12157825058783414;-0.2152639972650756;-1.062039029092421;1.264;0.027795069701336057
51:36.2;0.12540828203364368;-0.23816535274075235;-1.0655970977808427;1.264;0.031827155790841846
51:36.2;0.12361484750100277;-0.25979568094213895;-1.063780824927938;1.354;0.03416289938333869
51:36.2;0.11627267567385045;-0.27862503809199674;-1.0560413526690906;1.2790000000000001;0.034212021176114236
51:36.2;0.10405620102701493;-0.29344947543902816;-1.0426109596707236;1.17;0.03183637338578711
51:36.2;0.08816410859449567;-0.30347520702007263;-1.0244451595375037;1.072;0.02740966653395147
51:36.2;0.07018407647378905;-0.3083737571751443;-1.0030204355222418;1.036;0.021708298422681616
51:36.2;0.05191716579698922;-0.30830021553809356;-0.9800523970509408;0.9490000000000001;0.015686790608275523
51:36.3;0.03519180500482983;-0.30386768664180963;-0.9572028847141023;0.873;0.010235994902022831
51:36.3;0.02169710197630823;-0.29607372936117826;-0.9358336542256951;0.8490000000000001;0.006011741021365036
51:36.3;0.012849307843685992;-0.28617979398897203;-0.9168530490015012;0.912;0.003371463283048559
51:36.3;0.009690359835953217;-0.27555086743023693;-0.9006822164663012;0.912;0.0024049899982366524
51:36.3;0.012813974069564756;-0.2654738251600964;-0.8873319892791475;0.938;0.0030185035220563084
51:36.3;0.02231777070087198;-0.2569878485353897;-0.8765490298419669;0.961;0.005027355691326068
51:36.3;0.03778515309308867;-0.25076753339508384;-0.8679793852801339;0.9640000000000001;0.008224356077173436
51:36.3;0.05830594521468146;-0.2470899240050868;-0.8613052256442564;0.958;0.012408662091956669
51:36.3;0.08254430391440896;-0.24588911714127235;-0.8563260111410164;0.9490000000000001;0.01738063155378611
51:36.3;0.10885305422489736;-0.24686795053646304;-0.8529749206381174;0.919;0.022921423895534178
51:36.4;0.13542111741399854;-0.24961625634554976;-0.8512810145080011;0.879;0.028776118038711825
51:36.4;0.16043423505499366;-0.2536901249931184;-0.85130311092699;0.8220000000000001;0.034648531344659124
51:36.4;0.18223054681254747;-0.2586322555747647;-0.8530693815223601;0.9209999999999999;0.04020575484484187
51:36.4;0.19943512726968388;-0.26394622440757287;-0.8565503191475963;0.9209999999999999;0.04508893630350613
51:36.4;0.21105784832373567;-0.2690597721970202;-0.8616707204934836;0.9209999999999999;0.048931847367421316
51:36.4;0.21654258754549432;-0.2733135925267545;-0.8683455723402967;0.938;0.05139219260683337
51:36.4;0.21576669572923396;-0.2759981881279583;-0.8765223596524273;0.9129999999999999;0.05219797331480688
51:36.4;0.2090016975815004;-0.27644372126056266;-0.8862225990319161;0.9790000000000001;0.05120346657822689
51:36.4;0.1968518748607031;-0.2741495387327182;-0.8975806584641177;1.1340000000000001;0.04843960137912
51:36.4;0.1801855496602937;-0.26891968688412443;-0.9108661894179443;1.167;0.04413642344282994
51:36.5;0.1600675643854746;-0.26095480173056457;-0.9264552760961984;0.983;0.038698407027089286
51:36.5;0.13769291549348137;-0.2508567229258862;-0.9447201106298168;0.785;0.03263176019260309
51:36.5;0.11431343740577256;-0.23954098474089416;-0.965857179778534;0.953;0.026447828939975306
51:36.5;0.09115049475539481;-0.22809871931694858;-0.9897229574937757;0.953;0.020577637930683634
51:36.5;0.06930036159072699;-0.21765826771078747;-1.0157376504838678;0.953;0.015321180175303904
51:36.5;0.04964910321846538;-0.2092669184859046;-1.0428735523789219;0.9890000000000001;0.010835367394055651
51:36.5;0.03280724031066003;-0.203788992011359;-1.0697211305885383;1.067;0.007151892791530629
51:36.5;0.01906467421150389;-0.2018201577212153;-1.0946238697843529;1.123;0.004211713722123374
51:36.5;0.00836759547598388;-0.2036301937063372;-1.115864454260248;1.17;0.0019013159620759365
51:36.5;0.00032408103700860906;-0.2091453546128204;-1.1318720577655594;1.237;7.671833720816816e-05
51:36.6;-0.005756600567365261;-0.21796870184092942;-1.14141610288438;1.258;0.0014322018455501934
51:36.6;-0.010791938143265489;-0.22942773309373457;-1.1437549381285061;1.202;0.0028319028042399943
51:36.6;-0.015826528510168043;-0.24263837904587016;-1.1387178717844506;1.227;0.00437281694460248
51:36.6;-0.021913211561014515;-0.25657559825120246;-1.1267155930325827;1.227;0.0063348405289226405
51:36.6;-0.029989118122625582;-0.27014197919265825;-1.1086851309766044;1.185;0.00898181271916266
51:36.6;-0.04076565732419106;-0.2822324093715091;-1.0859753137803874;1.083;0.012494569174658125
51:36.6;-0.05464935397569105;-0.29180393725021614;-1.0601817175651673;1.045;0.016906608289017366
51:36.6;-0.07170146158726398;-0.2979667877089095;-1.032954986883333;0.973;0.022068726081564814
51:36.6;-0.09163271585843864;-0.30010817847511456;-1.0058203328729798;0.9840000000000001;0.027659785012649905
51:36.6;-0.11382209031669074;-0.29804187083273576;-0.9800451061488181;1.114;0.03324680393493668
51:36.7;-0.13735293449508093;-0.2921441119044917;-0.9565723005404718;1.1159999999999999;0.038384234237209665
51:36.7;-0.161073238970326;-0.2834065360153375;-0.9360089911699833;1.011;0.042728069784259345
51:36.7;-0.1836922276519928;-0.2733410713940482;-0.9186437779408243;0.9329999999999999;0.04612568312366689
51:36.7;-0.20391202762236207;-0.2637321321039282;-0.9044785861091976;0.972;0.048641188518448585
51:36.7;-0.22057092204226084;-0.25631471748428164;-0.8932740217160062;0.972;0.05050175917156371
51:36.7;-0.23276612460498244;-0.2524887120594357;-0.8846026345157034;0.9570000000000001;0.05198882133117221
51:36.7;-0.23993559712898432;-0.2531366181101375;-0.8778964738676863;0.883;0.053320346562201755
51:36.7;-0.24189355583008365;-0.2585539605474928;-0.8724847062296923;0.897;0.05456740692601555
51:36.7;-0.23882282261657437;-0.2684761619287927;-0.8676343214871366;0.966;0.055631181143133694
51:36.7;-0.23123325385079813;-0.28218097027571215;-0.8626077268819249;0.978;0.056284829779562305
51:36.7;-0.2198966590370254;-0.2986412168733212;-0.8567331107247703;0.9540000000000001;0.056261839732263036
51:36.8;-0.2057617008286873;-0.3166971393730581;-0.8494716792700692;0.9470000000000001;0.055355093171142705
51:36.8;-0.1898489388479686;-0.33521604821507706;-0.840473097798512;0.981;0.05348805341064985
51:36.8;-0.17313693728236657;-0.35321464182078544;-0.8296180597160453;0.981;0.05073487870156818
51:36.8;-0.15646491516859834;-0.3699347935941212;-0.8170397268223242;0.9470000000000001;0.047291743212377085
51:36.8;-0.1404767142546199;-0.3848774191030409;-0.8031087377904951;0.892;0.04342113017845189
51:36.8;-0.12561249436448593;-0.39780217337975876;-0.7883785721676495;0.8540000000000001;0.03939442837392837
51:36.8;-0.11213443469018546;-0.40869648496383987;-0.7735116835780725;0.85;0.035449227730651914
51:36.8;-0.10016465885550722;-0.4177171379471969;-0.7592177711585202;0.86;0.03176604707000667
51:36.8;-0.08971848808092704;-0.42511603466960435;-0.7462221118947766;0.8909999999999999;0.028461484363803014
51:36.8;-0.08072624481600738;-0.43117157489790814;-0.735255716611829;0.86;0.025591944345838225
51:36.9;-0.07304450557889712;-0.43614724074850736;-0.7270432020302906;0.8320000000000001;0.023162258337348793
51:36.9;-0.0664620635790585;-0.4402855867178541;-0.722271569903519;0.871;0.02113531916753947
51:36.9;-0.06070893132620441;-0.4438264916982303;-0.7215420805561321;0.871;0.019441397220061052
51:36.9;-0.055476376470813736;-0.4470264876222784;-0.7253162365070256;0.861;0.017987414525531403
51:36.9;-0.050449648518660184;-0.450157688979454;-0.7338630246792395;0.86;0.016666247385005828
51:36.9;-0.04534561963491205;-0.45347615550506437;-0.7472123240972465;0.8170000000000001;0.01536504452779504
51:36.9;-0.03994289136568135;-0.4571650472196862;-0.7651234914756264;0.8009999999999999;0.013971532785548283
51:36.9;-0.03409750116733734;-0.4612748464584382;-0.787082054541733;0.8340000000000001;0.012379478117519707
51:36.9;-0.027747021405592914;-0.4656925741073406;-0.8123351335951112;0.988;0.010496654895782411
51:36.9;-0.020907760911165137;-0.47016109287532337;-0.8399627031121858;1.061;0.008256846575444765
51:37.0;-0.013663993487251863;-0.47433930734942015;-0.868960793875849;1.037;0.0056320557309697886
51:37.0;-0.006146106974506659;-0.4778692430377601;-0.8983042741373185;0.982;0.002638351531747106
51:37.0;0.0014988372322719016;-0.48042186391632596;-0.9269751714332615;0.982;0.0006674908835165244
51:37.0;0.009133584126279999;-0.48172258786003236;-0.9539722900223802;1.015;0.004197338587938641
51:37.0;0.016644533822924287;-0.48157742364412476;-0.9783319638748593;1.083;0.0078419487186089
51:37.0;0.02394027310638083;-0.4799158079440113;-0.9991796012676252;1.139;0.011479889690368578
51:37.0;0.030938565149404275;-0.4768499284093983;-1.015808819167209;1.195;0.014986280916930462
51:37.0;0.03754809863880701;-0.4727373043868085;-1.0277657190153142;1.229;0.01824323919141992
51:37.0;0.04364987051721424;-0.4682222320931496;-1.0349106675885007;1.248;0.02115133843577662
51:37.0;0.049079990688227985;-0.46421922428580115;-1.0374388796370724;1.22;0.023636877966718726
51:37.1;0.05361544140857312;-0.46180111789495987;-1.0358543368480484;1.166;0.025647412355264635
51:37.1;0.05696950808024993;-0.461985212864156;-1.0309000162408242;1.008;0.027132330017466025
51:37.1;0.05880795980356478;-0.46546672306149756;-1.0234548179358114;1.008;0.028015180550335132
51:37.1;0.05879101081450663;-0.4723918874498285;-1.0144197512427362;1.0290000000000001;0.028172867613611936
51:37.1;0.05663430815108141;-0.48225657872614697;-1.0046217589131181;1.089;0.027438498404084858
51:37.1;0.052177975340928606;-0.4939632232602581;-0.994750675471722;1.131;0.025638704787574473
51:37.1;0.04545458909270305;-0.5060091907166783;-0.9853239474107756;1.104;0.022662884176473694
51:37.1;0.036743666906435636;-0.5167487634815545;-0.9766657697314507;1.102;0.018544191705758033
51:37.1;0.02659244347166737;-0.5246696487466673;-0.9688976526493328;1.149;0.013518300312735716
51:37.1;0.015781503811542034;-0.5286322424037333;-0.961951881531275;1.179;0.008025191068256885
51:37.2;0.00522522288040942;-0.5280232218924849;-0.9556203866032144;1.162;0.002636593935347221
51:37.2;-0.0041822442679903225;-0.5227882183091378;-0.9496366414774379;1.126;0.0020763121706680017
51:37.2;-0.011740673730684034;-0.5133467338646938;-0.9437689547604995;1.126;0.00568812995019404
51:37.2;-0.017085891870423454;-0.5004360069275007;-0.9378941205076733;1.082;0.008019365669744125
51:37.2;-0.020255092891137996;-0.484942127178021;-0.9320279500989012;1.052;0.009154889121368711
51:37.2;-0.02165928503986549;-0.46775627401864117;-0.9263074116384633;1.002;0.009384667218736377
51:37.2;-0.02197848680399676;-0.449671430797328;-0.9209356886755591;0.995;0.009101697301791513
51:37.2;-0.022012876544102708;-0.4313232835164549;-0.9161099303474234;0.986;0.00869815798258358
51:37.2;-0.02252583672590086;-0.4131722960844462;-0.9119511539145942;0.956;0.00848757652027129
51:37.2;-0.0241084440870489;-0.3955186564001109;-0.9084505994719471;0.965;0.008662384806096183
51:37.3;-0.027086436595880215;-0.37853787463180905;-0.9054427082471177;0.9570000000000001;0.009283723331875373
51:37.3;-0.03148309273027299;-0.3623234285821225;-0.9026113562337528;0.97;0.010296143793085955
51:37.3;-0.03704099843956202;-0.34692630714058653;-0.8995289183881374;0.97;0.011559393488547275
51:37.3;-0.043291982380400995;-0.33238735039332445;-0.8957192565647926;0.9790000000000001;0.012889137939895875
51:37.3;-0.04965543705763588;-0.3187611410196199;-0.8907308974279716;0.991;0.014098687967190746
51:37.3;-0.05554447856150033;-0.3061297551711738;-0.8842060465534847;0.951;0.015034878356875397
51:37.3;-0.060461734827986495;-0.2946058249171509;-0.8759333990828896;0.9620000000000001;0.015602457915275831
51:37.3;-0.06406976917328248;-0.2843269944598963;-0.8658775831536729;0.953;0.01577348836862845
51:37.3;-0.06622735983321802;-0.27544375811503247;-0.8541833831064065;0.87;0.015581938860304586
51:37.3;-0.0669908768594815;-0.26810154719174994;-0.84115797714712;0.882;0.015107498180167345
51:37.4;-0.06658723118003072;-0.26241965731893885;-0.8272403323594473;0.878;0.01445503078613779
51:37.4;-0.06536920106391914;-0.2584709028295744;-0.8129686172675633;0.8440000000000001;0.013735947362612341
51:37.4;-0.06376330588950493;-0.2562648646987862;-0.7989504160591487;0.8440000000000001;0.0130550854540419
51:37.4;-0.06221643874557536;-0.255738720508024;-0.7858339408042812;0.828;0.01250352362415936
51:37.4;-0.06114493417019146;-0.25676046542653336;-0.7742772332454498;0.83;0.012155844210701231
51:37.4;-0.060889923883464314;-0.25914395332390466;-0.7649136603837761;0.807;0.012069768153583548
51:37.4;-0.06168233430749554;-0.2626691778024908;-0.758313352102463;0.7909999999999999;0.012286229358232828
51:37.4;-0.0636192999127975;-0.2671010160668138;-0.7549432220364266;0.777;0.012828583818942642
51:37.4;-0.06665421007089174;-0.2722020187308918;-0.7551328589522025;0.785;0.013700685470861788
51:37.4;-0.0706040243369541;-0.2777378166131647;-0.7590552013445429;0.8;0.014884622806320509
51:37.5;-0.07517726311539198;-0.2834782118866356;-0.7667258613292272;0.847;0.01633978386489753
51:37.5;-0.08002252822438673;-0.28920046115572245;-0.7780158635446522;0.84;0.018005272629742154
51:37.5;-0.08478938201445078;-0.29470002753874636;-0.7926669211907615;0.84;0.01980671175471792
51:37.5;-0.089187685953627;-0.29980657307973085;-0.8103031858978862;0.846;0.021666741038444376
51:37.5;-0.09303338507197662;-0.3043956975438163;-0.830444985653532;0.897;0.02351734011126976
51:37.5;-0.09627121437790301;-0.3083895081753344;-0.852535092787756;0.889;0.02531094203747531
51:37.5;-0.09896752220985967;-0.3117468705855873;-0.87598222653962;0.961;0.027026517875264194
51:37.5;-0.10127706848676439;-0.3144464482852476;-0.9002169572158111;1.031;0.02866850229659171
51:37.5;-0.10339994741755966;-0.3164637373480465;-0.9247451894391354;1.0270000000000001;0.030259820770022268
51:37.5;-0.10554644918396994;-0.31774417323987325;-0.9491769171909344;1.0070000000000001;0.03183232723441818
51:37.6;-0.10791919023641167;-0.3181798284461008;-0.9732143482795697;0.9540000000000001;0.03341795150964792
51:37.6;-0.1107111347445769;-0.3176026174178031;-0.9966059013314087;1.061;0.03504280237866492
51:37.6;-0.1141110469456214;-0.3158031441785136;-1.0190911090660386;1.061;0.03672460659520345
51:37.6;-0.1183069054663291;-0.3125683735163853;-1.0403585233659332;1.105;0.03847141473254143
51:37.6;-0.12348176680374225;-0.30771701086951936;-1.0600233953062212;1.061;0.04027817555014726
51:37.6;-0.12980175541292255;-0.3011152106388734;-1.0776241330141967;1.114;0.04211924412292807
51:37.6;-0.13739836172190084;-0.29267217818884894;-1.092638304639666;1.162;0.04393791210157922
51:37.6;-0.14634531569481782;-0.2823273795722829;-1.1045173748189103;1.148;0.04563566412521642
51:37.6;-0.1566286232741019;-0.27004228758315724;-1.1127311730509124;1.172;0.04706446907622903
51:37.6;-0.16811472833710217;-0.2558054356885447;-1.1168082353145263;1.19;0.048027959927948546
51:37.7;-0.18053267415950405;-0.239651192561956;-1.1163599628284238;1.232;0.04829916940034987
51:37.7;-0.1934867691319767;-0.2216813240447024;-1.1110797630037423;1.064;0.047656881144682736
51:37.7;-0.2065008816152312;-0.20207948790013888;-1.1007173346985106;1.064;0.04593248573309521
51:37.7;-0.21907649830516274;-0.18112977791088802;-1.0850472827061959;1.131;0.04305606230779217
51:37.7;-0.23074002838620045;-0.15926163870037888;-1.0638609454004084;1.129;0.03909479929347244
51:37.7;-0.24106385982904;-0.1371183990529777;-1.0369939997013873;1.041;0.03427710094325949
51:37.7;-0.2496631310208123;-0.11561206775287608;-1.004380757244636;1.065;0.02899051730632323
51:37.7;-0.256186544138978;-0.0959218631216458;-0.966123388365006;0.975;0.023741410471594795
51:37.7;-0.26032477575035984;-0.07941773139806935;-0.9225710253104208;1.006;0.019073605281151484
51:37.7;-0.2618498176666211;-0.06752142431328244;-0.8744002454033067;1.105;0.015459809619655054
51:37.8;-0.26068045094522396;-0.06153590216630101;-0.8226712063731817;0.9570000000000001;0.013196638888986777
51:37.8;-0.25695577273272013;-0.06246909303818487;-0.7688196806242216;0.7829999999999999;0.012340935193064013
51:37.8;-0.25109596300307724;-0.07086749556507578;-0.7145626643504508;0.7829999999999999;0.012715315374234768
51:37.8;-0.24383186166643833;-0.08667821071274126;-0.6617383067599878;0.7170000000000001;0.013985779215470097
51:37.8;-0.2361872088800327;-0.1091658336598626;-0.6121236665681035;0.633;0.0157827355830524
51:37.8;-0.22940241664333977;-0.13690887925652812;-0.5672623198887045;0.562;0.017816136881192636
51:37.8;-0.22479834548876293;-0.16788995735893578;-0.5283206285153305;0.522;0.019939552053234104
51:37.8;-0.2235910364325523;-0.19967838869903798;-0.49599063393884973;0.499;0.02214414558971427
51:37.8;-0.2266838079951173;-0.2296860005368232;-0.4704541115052811;0.526;0.024494709518876126
51:37.8;-0.23447891861252232;-0.255461438188869;-0.45141063444168916;0.594;0.027039642255138854
51:37.9;-0.24675771370129435;-0.27497735026911596;-0.4381589121164899;0.667;0.02973030126439719
51:37.9;-0.2626668574427069;-0.28685805695672006;-0.4297079316637428;0.7490000000000001;0.03237767807628686
51:37.9;-0.2808205035484784;-0.2904979750084704;-0.4248855707618198;0.581;0.034661224855129104
51:37.9;-0.299498831642028;-0.28604389019829324;-0.4224173020943761;0.581;0.03618841039669048
51:37.9;-0.31690894618279364;-0.2742580646387965;-0.42097074011919955;0.5;0.03658860210021863
51:37.9;-0.33147534039810017;-0.256321541337874;-0.4191890265451798;0.59;0.03561608970214867
51:37.9;-0.3421250190530473;-0.23364848201106275;-0.41574903915570693;0.7659999999999999;0.033233727350814285
51:37.9;-0.34851438067562224;-0.20775258535225713;-0.40946953990548257;0.841;0.0296475452455463
51:37.9;-0.3511313113413275;-0.18015635609963146;-0.39945614001094365;0.746;0.02526901123794837
51:37.9;-0.35122868779489;-0.1523075081512822;-0.3852262334807228;0.49;0.020607587305438983
51:38.0;-0.3506034114330136;-0.12548603244988984;-0.3667567632149668;0.40399999999999997;0.016135768596031056
51:38.0;-0.35128946968188784;-0.10072051359583745;-0.34445009245676117;0.486;0.012187352394089685
51:38.0;-0.35524741061500703;-0.07874165455065646;-0.31905745964087306;0.486;0.00892492058009966
51:38.0;-0.36410707570822787;-0.05997956455662566;-0.2915894163442464;0.359;0.0063680165552377314
51:38.0;-0.3789888951084914;-0.044587225027541456;-0.26321312769530103;0.37200000000000005;0.004447792053478272
51:38.0;-0.40041363393000995;-0.03246855787745978;-0.23513623759942084;0.43799999999999994;0.003056971718359377
51:38.0;-0.4283005377381817;-0.023299618124034478;-0.20849465865212483;0.43200000000000005;0.0020806180229955284
51:38.0;-0.4620390761044444;-0.016539840838179654;-0.18426603304628117;0.401;0.001408170750061672
51:38.0;-0.500613527823595;-0.011434684136916937;-0.1632236967726651;0.517;0.0009343508034618149
51:38.0;-0.5427667676133199;-0.007015971277239255;-0.14593847693041942;0.669;0.0005557389814980155
51:38.1;-0.5871867019410951;-0.002112358245889074;-0.13282376793563697;0.701;0.00016474778413203627
51:38.1;-0.6326803502578731;0.004614840533676536;-0.12420390474723272;0.701;0.0003626404912780467
51:38.1;-0.6782968463741884;0.014601668938597698;-0.1203788133275705;0.701;0.0011922637870999866
51:38.1;-0.7233868901570243;0.029281102042704846;-0.12166357943534596;0.701;0.002577025058164907
51:38.1;-0.7676191507430739;0.04996455587037845;-0.12839297771666935;0.726;0.004924352161971658
51:38.1;-0.8109874748945666;0.07772193364657425;-0.14089532401132576;0.863;0.00888084568826601
51:38.1;-0.8538292324648845;0.11328077804475568;-0.15945584131706905;0.991;0.015422958007920947
51:38.1;-0.8968432716092469;0.15696296610256594;-0.18429288745156716;1.0290000000000001;0.025943127239704933
51:38.1;-0.9410692015380558;0.2086625087532121;-0.21555309935791173;1.092;0.04232726983957244
51:38.1;-0.98779164949232;0.26784912562562596;-0.25331140886825015;1.046;0.06702091208037018
51:38.2;-1.0383652714715221;0.33357692470053896;-0.2975520390050275;1.02;0.103064496451501
51:38.2;-1.093997030902878;0.4044909791097714;-0.3481038022263509;1.236;0.1540400854237734
51:38.2;-1.155538229326959;0.478840509142859;-0.4045174819444378;1.236;0.22382701202279515
51:38.2;-1.2233156225270267;0.5545098888386829;-0.4659112297550253;1.3230000000000002;0.31604650773361825
51:38.2;-1.297001263254032;0.6290753992953119;-0.5308407602525597;1.422;0.4331191274434987
51:38.2;-1.3755215876939817;0.6998961980934665;-0.5972431010040217;1.501;0.5749792695495618
51:38.2;-1.4570291713813226;0.7642438238773211;-0.6624675244521709;1.604;0.7376745115000795
51:38.2;-1.5389768889947713;0.8194613007976744;-0.7233797514168366;1.827;0.9122773550894647
51:38.4;-1.6183224595806354;0.863130775516225;-0.7765210313828028;2.2119999999999997;1.0846631506871183
51:38.4;-1.6918392032047975;0.8932268237813117;-0.8183074786706254;2.2119999999999997;1.236623117688416
51:38.4;-1.7564449740967896;0.9082432347905982;-0.8452524850581058;2.2119999999999997;1.3484137631074462
51:38.4;-1.8094507820898489;0.9072978379254902;-0.8541966858798603;2.2119999999999997;1.402343909518709
51:38.4;-1.8486879017320248;0.8902299285665884;-0.8425445124541648;2.2119999999999997;1.386623780851763
51:38.4;-1.8725360312958454;0.8577014677617476;-0.8085179182662996;2.2119999999999997;1.2985419537680731
51:38.4;-1.8798981339028282;0.8113006664710823;-0.7514322340293562;2.2119999999999997;1.146056346488647
51:38.4;-1.8701603705384093;0.7536312314414011;-0.6719810840690664;2.2119999999999997;0.9470977084379596
51:38.4;-1.8431603804995311;0.6883556286967447;-0.572495521217933;2.2119999999999997;0.7263535909316976
51:38.4;-1.7991708762627918;0.6201474658092743;-0.45712027969640046;2.2119999999999997;0.5100325278015531
51:38.4;-1.7388885883131358;0.5544974941645013;-0.33182867407986966;2.2119999999999997;0.3199523150738611
51:38.4;-1.6634014856691997;0.4973107861769641;-0.20417877488615194;2.2119999999999997;0.16890229761771575
51:38.4;-1.5740998060887876;0.454249123893352;-0.08271800191831974;1.35;0.05914613893698464
51:38.4;-1.472527534856519;0.42986980920084644;0.02396946911380714;1.35;0.015172557228553893
51:38.4;-1.360240931238731;0.42679021588215016;0.10840674175313317;1.35;0.06293418108399952
51:38.4;-1.2387732426077716;0.44520632576165037;0.16528163341738944;1.686;0.09115442138285657
51:38.4;-1.1097377417610494;0.4829601564757783;0.19217807458009742;1.925;0.10299959046840422
51:38.4;-0.9749898950082334;0.5360687684531225;0.18983864981861912;1.239;0.09922137858237974
51:38.4;-0.8367215248212334;0.5994413902791219;0.1619091405162515;1.006;0.08120804130300116
51:38.4;-0.6974184845683938;0.6675633482792188;0.11423301292570372;1.0170000000000001;0.053183580198166255
51:38.4;-0.5597166201119788;0.7350930919944229;0.053865157253081795;1.14;0.02216248611459903
51:38.4;-0.4262335674383072;0.7973852020757494;-0.011984356007067157;1.2590000000000001;0.004073151111165017
52:07.2;-0.2994140069097088;0.8509086869766194;-0.07686939040248293;1.094;0.019584320493192094
52:07.2;-0.18138755119946542;0.8935066413456528;-0.1357356929559891;1.094;0.02199881700288304
52:07.2;-0.07386085828923578;0.9244722024882334;-0.18520672806787106;1.094;0.012646343283045827
52:07.2;0.021907669360338524;0.9444490593158206;-0.22357037374278196;1.094;0.004625822550667125
52:07.2;0.10504428614131477;0.9551796588848277;-0.25054666236767076;1.17;0.02513889135680822
52:07.2;0.17498642440689838;0.9591289524737435;-0.2669254933927744;0.581;0.0447993189829902
52:07.2;0.23152399018768557;0.9590329447577814;-0.2741801731393939;1.06;0.060878728229002
52:07.2;0.2750059377963035;0.9574610283908265;-0.27416278334022887;1.893;0.07218910830554373
52:07.2;0.3065609167112492;0.9564841831522278;-0.26892476419058936;1.188;0.07885429899957809
52:07.2;0.32805100622846134;0.9574834255778546;-0.26059999344384965;0.848;0.08185534429546683
52:07.2;0.3416594700340775;0.9610683019709906;-0.2512495807031327;1.266;0.08249983160837018
52:07.2;0.3493509197218958;0.967046901490882;-0.24266337785022007;0.779;0.08198108604365867
52:07.2;0.3525235086587047;0.9744002646713258;-0.23622228137550366;1.011;0.0811421174632531
52:07.2;0.3519525639875215;0.9812614859409619;-0.23290218171466331;1.011;0.08043451427107758
52:07.2;0.3479214934503747;0.9849444928910169;-0.23339082547580722;1.011;0.07997915201804691
52:07.2;0.34041354722971284;0.9820626367234506;-0.23822898196623082;1.011;0.07964171770465124
52:07.2;0.32930194236821064;0.9687452650525421;-0.24790944113057473;1.011;0.07908551580803264
52:07.2;0.3145194296433131;0.9409458165273471;-0.2629114644453557;1.011;0.07780752830450162
52:07.2;0.29619828005631593;0.894832967373534;-0.2836724522535349;1.011;0.07518681211766133
52:07.2;0.2747694401434544;0.8272483827907989;-0.310506965758243;1.011;0.07057903287197678
52:07.2;0.2510060399500941;0.7362001702228819;-0.34348857672117444;1.011;0.06347349087211358
52:07.2;0.22599307810743144;0.6213431457133216;-0.3823157362253513;1.011;0.05368448896717123
52:07.2;0.2010084180097621;0.4843746969657822;-0.42618998844921596;1.034;0.0414953027247803
52:07.2;0.1773296310802082;0.32924388587931036;-0.4737495770709192;1.06;0.02765972542512718
52:07.2;0.1560340820857809;0.1620355357566688;-0.5231207185733664;1.0390000000000001;0.01322609569920573
52:07.2;0.13787488081777782;-0.009595627156193408;-0.5721287741636111;1.068;0.0007569240514012938
52:07.2;0.12325678668700239;-0.1774150790407574;-0.6186221412944126;1.068;0.013527789302152553
52:07.2;0.11227340457516397;-0.33375577385168104;-0.6607830357885753;1.068;0.02476079387422274
52:07.2;0.10476523812199424;-0.4724571013759228;-0.6973246681075493;1.068;0.034515535390997984
52:07.2;0.10038400803856805;-0.5893849331649819;-0.7275576806402941;1.068;0.04304582057424709
52:07.2;0.09865809192846148;-0.6825439225951465;-0.7513570924018232;1.068;0.05059524533645116
52:07.2;0.0990530006896624;-0.7518963332540601;-0.7690662993797757;1.068;0.05727820300248047
52:07.2;0.10102211910946232;-0.7990039847024915;-0.781368562865244;1.068;0.06306978544741901
52:07.2;0.10404557151843158;-0.8265873402211141;-0.7891502668156083;1.068;0.06786909486381972
52:07.2;0.10765720465794791;-0.8380729050847132;-0.793374328171464;1.068;0.071581870509358
52:07.2;0.11146128839283913;-0.8371785051699305;-0.7949768371078413;1.068;0.07418166946798453
52:07.2;0.11514144944648046;-0.8275669424616368;-0.7947949784003019;1.088;0.0757338335829587
52:07.2;0.11846405230046808;-0.8125830462144801;-0.793528071553384;1.088;0.07638650438554359
52:07.2;0.12127678999272948;-0.7950775993593618;-0.7917261614944846;1.088;0.0763417668342195
52:07.2;0.12350223695076439;-0.7773131405980866;-0.7897960848449332;1.088;0.07582035438644369
52:07.2;0.12512676259945776;-0.7609403034428349;-0.7880163354741512;1.088;0.07503018476636769
52:07.2;0.1261864501412338;-0.7470293789491965;-0.786556094214413;1.088;0.07414469880096397
52:07.2;0.1267520665051841;-0.7361405214754493;-0.7854961664103509;1.088;0.07329255184728958
52:07.2;0.12691474926176527;-0.7284168798577026;-0.7848501613368346;1.088;0.07255692173539618
52:07.2;0.12677353204577468;-0.7236870415163904;-0.7845845034062094;1.088;0.07198120497374473
52:07.2;0.12642534664094784;-0.7215659160654879;-0.7846362183945367;1.088;0.07157782784075943
52:07.2;0.12595773923723266;-0.7215461442455331;-0.7849278199381504;1.088;0.07133763201542294
52:07.2;0.12544423025497517;-0.7230749790133376;-0.7853789830008043;1.088;0.07123825943925824
52:07.2;0.12494203141362172;-0.7256141258733294;-0.7859150000569143;1.088;0.07125082041691265
52:07.2;0.12449170288587322;-0.7286821149690502;-0.7864722553397788;1.088;0.07134473418623996
52:07.2;0.12411827501231106;-0.7318803496944533;-0.7870011174047095;1.088;0.07149096627557097
52:07.2;0.12383335813826547;-0.7349050372964656;-0.7874667439029374;1.088;0.07166400846506053
52:07.2;0.12363780496020094;-0.7375478013661583;-0.7878483241207631;1.088;0.07184293633665371
52:07.2;0.12352455739942145;-0.7396879773996281;-0.7881372670624077;1.088;0.0720118104980127
52:07.2;0.12348139132934201;-0.7412794879961198;-0.7883347893990799;1.088;0.07215961205019052
52:07.2;0.1234933567554162;-0.7423348738297514;-0.7884492818383009;1.088;0.07227984642489503
52:07.2;0.12354479023014875;-0.7429086047322196;-0.7884937462633367;1.088;0.07236991759302719
52:07.2;0.12362084494428943;-0.7430812851735954;-0.7884835090773842;1.088;0.07243036033880305
52:07.2;0.12370853900415359;-0.7429458587081031;-0.7884343358462427;1.088;0.07246401169438543
52:07.2;0.12379736280817555;-0.7425964495049181;-0.788361003419428;1.088;0.07247519545796938
52:07.2;0.12387951264091052;-0.7421200837413854;-0.7882763308626144;1.088;0.0724689818006477
52:07.2;0.1239498311648037;-0.7415912237875273;-0.7881906305338744;1.088;0.07245056708069789
52:07.2;0.12400553862630444;-0.7410688270725644;-0.7881115148235951;1.088;0.07242479941700783
52:07.2;0.12404583381564399;-0.7405955042146487;-0.788043980788636;1.088;0.07239585644796911
52:07.2;0.12407143364303566;-0.740198286607601;-0.7879906918796673;1.088;0.07236706569427172
52:07.2;0.12408410691971024;-0.7398905081065965;-0.7879523806688216;1.088;0.0723408466317725
52:07.2;0.12408624351001693;-0.7396743434413524;-0.7879283064407175;1.088;0.07231874735092389
52:07.2;0.12408048597747375;-0.7395436126217165;-0.7879167144494232;1.088;0.07230154698802481
52:07.2;0.12406943827004857;-0.7394865425579051;-0.7879152576602387;1.088;0.07228939688234862
52:07.2;0.1240554555505294;-0.7394882633387085;-0.7879213554037015;1.088;0.07228197740275842
52:07.2;0.12404051128830912;-0.7395328986386837;-0.7879324755196003;1.088;0.07227865246473393
52:07.2;0.12402613221022468;-0.7396051817233094;-0.7879463366171259;1.088;0.07227860903883528
52:07.2;0.1240133884663967;-0.7396915870665762;-0.7879610347314517;1.088;0.07228097383541227
52:07.2;0.124002925067487;-0.7397810113233297;-0.7879751039069812;1.088;0.07228490349569462
52:07.2;0.12399502088266066;-0.7398650665660119;-0.787987523280255;1.088;0.07228964788172874
52:07.2;0.12398966282283584;-0.7399380647254852;-0.787997684402941;1.088;0.07229458842652384
52:07.2;0.12398662486313244;-0.7399967772248129;-0.7880053322396298;1.088;0.07229925505174889
52:07.2;0.1239855439237608;-0.7400400503736273;-0.7880104919158325;1.088;0.07230332599676084
52:07.2;0.12398598703906376;-0.7400683477557926;-0.7880133912751142;1.088;0.07230661516144467
52:07.2;0.12398750648298196;-0.7400832779682888;-0.7880143869765404;1.088;0.07230905138183984
52:07.2;0.12398968144120537;-0.7400871516931575;-0.7880138995040475;1.088;0.07231065356216024
52:07.2;0.12399214634633439;-0.7400825978271154;-0.7880123602749822;1.088;0.0723115048987718
52:07.2;0.12399460709768302;-0.7400722554314213;-0.7880101721623932;1.088;0.07231172865462072
52:07.2;0.12399684708920909;-0.7400585473494009;-0.7880076832579945;1.088;0.07231146716140914
52:07.2;0.1239987253142196;-0.7400435328475896;-0.7880051726209817;1.088;0.07231086500584875
52:07.2;0.12400016886852322;-0.7400288306392732;-0.7880028460630567;1.088;0.0723100567391508
52:07.2;0.12400116200688671;-0.7400155999866;-0.7880008396657108;1.088;0.07230915895970265
52:07.2;0.12400173359310018;-0.7400045659347037;-0.7879992286498217;1.088;0.07230826626513913
52:07.2;0.12400194438780487;-0.739996074707002;-0.7879980393517763;1.088;0.07230745034622536
52:07.2;0.12400187519694109;-0.7399901664542847;-0.7879972623382653;1.088;0.07230676138658933
52:07.2;0.1240016165021012;-0.739986654485718;-0.7879968650545445;1.088;0.07230623091965702
52:07.2;0.12400125984502505;-0.7399852024482851;-0.7879968027998241;1.088;0.07230587535556521
52:07.2;0.1240008909632624;-0.7399853933585538;-0.7879970272221641;1.088;0.07230569950542376
52:07.2;0.12400058448370098;-0.7399867866967383;-0.7879974918992239;1.088;0.07230569957945912
52:07.2;0.12400039987758202;-0.739988961790875;-0.7879981549063884;1.088;0.0723058653038371
52:07.2;0.1240003783600938;-0.7399915473584088;-0.7879989785643202;1.088;0.07230618097614923
52:07.2;0.12400054046937536;-0.7399942382997516;-0.7879999268035989;1.088;0.0723066254523149
52:07.2;0.12400088416919004;-0.7399968016632141;-0.7880009607872491;1.088;0.07230717122071129
52:07.2;0.12400138346873232;-0.7399990741635186;-0.7880020335951626;1.088;0.07230778286648419
52:07.2;0.1240019877215468;-0.7400009537956376;-0.7880030848980073;1.088;0.07230841535410529
52:07.2;0.12400262193098133;-0.7400023880084754;-0.7880040366287255;1.088;0.07230901265249096
52:07.2;0.12400318852831096;-0.7400033606548265;-0.7880047906889724;1.088;0.07230950728629718
52:07.2;0.12400357117753394;-0.7400038795743619;-0.7880052296930646;1.088;0.07230982140990298
52:07.2;0.12400364117438702;-0.7400039662440777;-0.7880052216368054;1.088;0.07230986995666097
52:07.2;0.12400326692508809;-0.740003648482878;-0.7880046291649715;1.088;0.07230956630477202
52:07.2;0.1240023267956772;-0.7400029567494628;-0.7880033237827265;1.088;0.07230883071366466
52:07.2;0.12400072530539537;-0.7400019241414633;-0.7880012049014363;1.088;0.0723076015155825
52:07.2;0.1239984121968872;-0.7400005897978614;-0.7879982230265353;1.088;0.07230584869671237
52:07.2;0.12399540336465173;-0.7399990050315419;-0.7879944056967545;1.088;0.07230358907969511
52:07.2;0.12399180198959492;-0.7399972411795234;-0.7879898840013568;1.088;0.07230090184492213
52:07.2;0.12398781755873613;-0.7399953978631144;-0.7879849166886034;1.088;0.07229794263495934
52:07.2;0.12398377981195188;-0.7399936101124841;-0.7879799081125978;1.088;0.07229495402242014
52:07.2;0.12398014413857068;-0.7399920526504142;-0.7879754156495838;1.088;0.07229226974846344
52:07.2;0.12397748464912269;-0.7399909395760138;-0.7879721418728892;1.088;0.0722903099309021
52:07.2;0.12397647118655612;-0.7399905177745181;-0.7879709068470815;1.088;0.07228956447993504
52:07.2;0.12397782703437675;-0.739991052640609;-0.7879725965296053;1.088;0.07229056232982642
52:07.2;0.12398226513431525;-0.7399928051750615;-0.7879780845839406;1.088;0.07229382487352089
52:07.2;0.12399040232557586;-0.7399960002253194;-0.7879881270130201;1.088;0.07229980323328458
52:07.2;0.12400265349949786;-0.7400007866021474;-0.7880032319620928;1.088;0.0723088007422441
52:07.2;0.12401911060091746;-0.740007191005814;-0.7880235107839547;1.088;0.07232088423244652
52:07.2;0.12403941498891376;-0.7400150690938807;-0.7880485208695155;1.088;0.07233579034856057
52:07.2;0.1240626355801207;-0.7400240585373681;-0.7880771155592391;1.088;0.0723528359829558
52:07.2;0.12408716910681454;-0.7400335404175709;-0.7881073212598823;1.088;0.07237084482295747
52:07.2;0.12411068227942765;-0.7400426166411002;-0.7881362661427365;1.088;0.07238810458779442
52:07.2;0.12413011808805166;-0.7400501119821694;-0.7881601878043728;1.088;0.07240237139306825
52:07.2;0.12414178926296666;-0.7400546096517834;-0.7881745482328556;1.088;0.07241093831832619
52:07.2;0.12414158035145739;-0.7400545286799981;-0.7881742824940559;1.088;0.07241078412533504
52:07.2;0.12412527529170678;-0.7400482496250926;-0.7881542019152153;1.088;0.07239881464486762
52:07.2;0.12408901921905863;-0.7400342919796078;-0.788109562512938;1.088;0.07237220317016263
52:07.2;0.12402991118636279;-0.7400115419979302;-0.7880367945731119;1.088;0.07232882701186212
52:07.2;0.1239467085162402;-0.7399795235228329;-0.7879343696382966;1.088;0.0722677852450944
52:07.2;0.12384060409003333;-0.7399386969165579;-0.7878037572614847;1.088;0.07218996811356813
52:07.2;0.12371601606062099;-0.7398907628073436;-0.7876503970299019;1.088;0.0720986325702678
52:07.2;0.1235813069807018;-0.7398389387086497;-0.7874845836738547;1.088;0.07199992259439986
52:07.2;0.1234493286304537;-0.7397881686039041;-0.7873221375889246;1.088;0.07190325925974399
52:07.2;0.12333767310982627;-0.739745219545412;-0.7871847137553445;1.088;0.07182151635281553
52:07.2;0.12326850388119916;-0.7397186166727238;-0.7870995935752124;1.088;0.0717708949843157
52:07.2;0.12326784671945179;-0.7397183704714513;-0.7870988118734162;1.088;0.0717704171978225
52:07.2;0.12336424442080511;-0.7397554592881594;-0.7872175007262479;1.088;0.07184097576018109
52:07.2;0.12358672485296154;-0.7398410477111017;-0.7874913880789934;1.088;0.07200390652177215
52:07.2;0.12396210292583607;-0.739985448738779;-0.7879534765100336;1.088;0.07227909245299693
52:07.2;0.12451173536069117;-0.740196875471459;-0.7886300484995102;1.088;0.07268266689340631
52:07.2;0.12524797273974442;-0.740480076376093;-0.7895362991691179;1.088;0.07322446115446114
52:07.2;0.1261707036016548;-0.7408350059817806;-0.7906720824414943;1.088;0.07390544309723523
52:07.2;0.1272645545952417;-0.7412557479622042;-0.7920184648862887;1.088;0.07471552331941933
52:07.2;0.12849748991701185;-0.7417299764920638;-0.7935360020988205;1.088;0.07563226565509303
52:07.2;0.1298217303779048;-0.742239309887334;-0.795165870450487;1.088;0.07662122236960522
52:07.2;0.13117786792281583;-0.7427608934116496;-0.7968349322411833;1.105;0.0776386477508162
52:07.2;0.13250215450969832;-0.743270203155138;-0.7984647083582532;1.105;0.07863671959185743
52:07.2;0.13373518128884548;-0.7437443848151809;-0.7999820626959492;1.105;0.07957004797847224
52:07.2;0.13482916711094634;-0.7441650577628045;-0.8013281755557756;1.105;0.08040138664514719
52:07.2;0.13575207235044606;-0.744519898200652;-0.8024636101898561;1.105;0.08110509264477773
52:07.2;0.13648851704179657;-0.7448029932723642;-0.8033694464103199;1.105;0.08166817283458674
52:07.2;0.13703837928530566;-0.7450143029375572;-0.8040455590287574;1.105;0.08208947567984116
52:07.2;0.13741399443896526;-0.7451585835348578;-0.8045071736230885;1.105;0.08237768698644406
52:07.2;0.13763669852319635;-0.7452440588173063;-0.8047806140752207;1.105;0.08254870708144968
52:07.2;0.1377332800713788;-0.7452810553043033;-0.8048989357057974;1.105;0.08262287922907018
52:07.2;0.13773273541537784;-0.7452807536936633;-0.8048979295072317;1.105;0.08262241578037247
52:07.2;0.13766357209420874;-0.7452541502800958;-0.8048127980298335;1.105;0.0825692446345448
52:07.2;0.13755177942577426;-0.7452112740340342;-0.8046756489553023;1.105;0.08248338746897618
52:07.2;0.13741948690839687;-0.745160667220163;-0.804513831540749;1.105;0.0823818917716549
52:07.2;0.1372842600137147;-0.7451091101785128;-0.804349053936929;1.105;0.08227827460658628
52:07.2;0.13715893705891963;-0.7450615533698206;-0.8041971633718433;1.105;0.08218239645561203
52:07.2;0.13705188677889762;-0.7450212106806304;-0.8040684421188257;1.105;0.08210066473121083
52:07.2;0.13696755975186845;-0.7449897656675281;-0.8039682648340979;1.105;0.08203646367760516
52:07.2;0.13690721350720136;-0.7449676451669649;-0.8038979717205367;1.105;0.08199071532847838
52:07.2;0.13686970666939519;-0.7449543208389062;-0.8038558317051372;1.105;0.08196249057630008
52:07.2;0.13685227804368555;-0.7449486072551178;-0.8038379956163593;1.105;0.08194960678942087
52:07.2;0.13685124895656026;-0.7449489338392739;-0.8038393672111886;1.105;0.08194916631006592
52:07.2;0.13686260899778277;-0.744953576350225;-0.803854346725035;1.105;0.08195800692583485
52:07.2;0.13688246487877795;-0.7449608409895913;-0.8038774252033869;1.105;0.08197305002037472
52:07.2;0.13690734841382657;-0.74496920019198;-0.8039036268703768;1.105;0.08199154404509588
52:07.2;0.13693439220964634;-0.7449773835305356;-0.8039288105778799;1.105;0.08201121003152953
52:07.2;0.1369613905295709;-0.7449844299372;-0.8039498499386891;1.105;0.08203030215490753
52:07.2;0.13698676831160791;-0.7449897087304427;-0.8039647155122019;1.105;0.08204760011632556
52:07.2;0.13700948398619564;-0.7449929169940455;-0.8039724821329641;1.105;0.08206235170627876
52:07.2;0.13702889215888084;-0.7449940599477246;-0.8039732811022883;1.105;0.08207418378480316
52:07.2;0.13704459098251692;-0.7449934194096435;-0.8039682115519416;1.105;0.0820829985166153
52:07.2;0.1370562766512815;-0.7449915135901942;-0.8039592189094311;1.105;0.0820888694591695
52:07.2;0.13706362429305044;-0.7449890495777333;-0.803948942081943;1.105;0.08209194938185861
52:07.2;0.13706621086830167;-0.7449868682527889;-0.8039405256822251;1.105;0.08209239877826398
52:07.2;0.13706349162111794;-0.7449858802305979;-0.8039373901749501;1.105;0.08209034111393346
52:07.2;0.1370548371807915;-0.7449869909675509;-0.8039429518998781;1.105;0.08208584803883691
52:07.2;0.13703963352155976;-0.744991013503524;-0.8039602870073039;1.105;0.08207895512547496
52:07.2;0.1370174415751763;-0.7449985685114429;-0.8039917386629569;1.105;0.08206970615993119
52:07.2;0.13698820731746508;-0.7450099733734329;-0.8040384753980397;1.105;0.08205822157763128
52:07.2;0.13695250667528788;-0.7450251247969298;-0.8041000198103911;1.105;0.08204478426226751
52:07.2;0.13691180283826276;-0.7450433828220364;-0.8041737801893923;1.105;0.08202993360750958
52:07.2;0.13686868692422585;-0.74506346764252;-0.8042546318335232;1.105;0.08201455652694226
52:07.2;0.13682706708343384;-0.7450833840438713;-0.8043346081973718;1.105;0.08199996212776332
52:07.2;0.13679226691655555;-0.7451003909209163;-0.8044027724484678;1.105;0.08198792529738559
52:07.2;0.13677099262531084;-0.7451110346495771;-0.804445345059587;1.105;0.08198068388949471
52:07.2;0.136771130873822;-0.7451112643641198;-0.8044461599756362;1.105;0.0819808750779828
52:07.2;0.13680134724443271;-0.7450966437272663;-0.8043875078683409;1.105;0.0819913994142017
52:07.2;0.13687046969402045;-0.7450626669174079;-0.804251397400982;1.105;0.08201520681882285
52:07.2;0.13698666359998604;-0.745005175763254;-0.8040212221462836;1.105;0.08205500765014562
52:07.2;0.13715643545739775;-0.7449208599190481;-0.8036837605825785;1.105;0.08211292423542842
52:07.2;0.13738354106209932;-0.7448078026965858;-0.8032313594476143;1.105;0.08219011337738633
52:07.2;0.1376679202970463;-0.7446660120641737;-0.8026640582928118;1.105;0.08228640721226631
52:07.2;0.13800483269109073;-0.7444978502741961;-0.8019913088947282;1.105;0.08240003665376727
52:07.2;0.13838442299180564;-0.7443082479819598;-0.8012328328063747;1.105;0.0825275165419003
52:07.2;0.13879200039397416;-0.7441045614314746;-0.800418051213264;1.105;0.0826637830236968
52:07.2;0.13920930125509234;-0.7438959380916331;-0.7995835485241435;1.0979999999999999;0.08280266043576008
52:07.2;0.13961672904290767;-0.7436921940727718;-0.798768582946064;1.0979999999999999;0.08293763690357672
52:07.2;0.13999602270507838;-0.7435024778431393;-0.7980097420821619;1.0979999999999999;0.08306275106389245
52:07.2;0.140332497818924;-0.7433341481067828;-0.7973364549841779;1.0979999999999999;0.08317330530545211
52:07.2;0.14061631156238366;-0.7431921403051587;-0.7967684585149031;1.0979999999999999;0.08326623800039565
52:07.2;0.1408427449567655;-0.743078824959367;-0.7963152309081477;1.0979999999999999;0.08334017129907773
52:07.2;0.1410117717808304;-0.7429942230706351;-0.7959768534252387;1.0979999999999999;0.08339523663901086
52:07.2;0.1411271972434226;-0.7429364369418077;-0.7957457335912493;1.0979999999999999;0.08343277605120225
52:07.2;0.1411955950033602;-0.7429021820318238;-0.7956087324909364;1.0979999999999999;0.0834549926186957
52:07.2;0.14122521599094479;-0.742887333030402;-0.795549348902341;1.0979999999999999;0.08346460175470295
52:07.2;0.14122499042298872;-0.7428874233846527;-0.7955497172192681;1.0979999999999999;0.08346451723637603
52:07.2;0.14120369817850492;-0.7428980606376571;-0.7955922686215107;1.0979999999999999;0.08345759200855746
52:07.2;0.14116934407160747;-0.7429152392708351;-0.7956609822730862;1.0979999999999999;0.08344642308114171
52:07.2;0.14112874432829053;-0.7429355478722949;-0.7957422138449429;1.0979999999999999;0.08343322178131524
52:07.2;0.14108730874223133;-0.7429562783823455;-0.795825132370201;1.0979999999999999;0.08341974473421634
52:07.2;0.1410489889244334;-0.7429754522079249;-0.7959018245990118;1.0979999999999999;0.08340727693529171
52:07.2;0.14101635571713958;-0.7429917816771955;-0.795967140736133;1.0979999999999999;0.08339665593410768
52:07.2;0.140990766917506;-0.7430045862723289;-0.7960183593105868;1.0979999999999999;0.08338832527001924
52:07.2;0.14097258857531134;-0.7430136820207158;-0.7960547446959032;1.0979999999999999;0.08338240564186127
52:07.2;0.14096143796527985;-0.7430192600060908;-0.7960770611255955;1.0979999999999999;0.08337877356377142
52:07.2;0.140956422704366;-0.7430217667739795;-0.7960870943018933;1.0979999999999999;0.08337713913544238
52:07.2;0.14095635740322196;-0.7430217959432858;-0.7960872178473332;1.0979999999999999;0.08337711672171548
52:07.2;0.14095994595092928;-0.7430199969774416;-0.796080028417075;1.0979999999999999;0.08337828451804383
52:07.2;0.14096592350224996;-0.7430170040803045;-0.7960680613382097;1.0979999999999999;0.08338023096369553
52:07.2;0.14097315714619738;-0.7430133857249324;-0.7960535888146143;1.0979999999999999;0.08338258761619395
52:07.2;0.14098070794217304;-0.7430096134686937;-0.7960384953165843;1.0979999999999999;0.08338504935169953
52:07.2;0.14098785951624435;-0.7430060474557614;-0.7960242197627279;1.0979999999999999;0.08338738359895805
52:07.2;0.14099411981984758;-0.7430029353058406;-0.7960117512891354;1.0979999999999999;0.08338943078388611
52:07.2;0.14099920313719302;-0.7430004208506059;-0.7960016644459929;1.0979999999999999;0.0833910983188143
52:07.2;0.14100299919054368;-0.7429985593042978;-0.7959941801548407;1.0979999999999999;0.08339235038767749
52:07.2;0.14100553544596847;-0.7429973358360501;-0.7959892402761545;1.0979999999999999;0.08339319552973408
52:07.2;0.14100693766467914;-0.7429966850488832;-0.7959865857777685;1.0979999999999999;0.08339367367694638
52:07.2;0.14100739254854497;-0.7429965094770457;-0.7959858309133108;1.0979999999999999;0.0833938439104457
52:07.2;0.14100711513045092;-0.7429966958195507;-0.7959865282375339;1.0979999999999999;0.08339377381346812
52:07.2;0.14100632246149347;-0.742997128181621;-0.7959882214966462;1.0979999999999999;0.08339353094298785
52:07.2;0.14100521421255127;-0.7429976980633111;-0.7959904853019525;1.0979999999999999;0.08339317663949565
52:07.2;0.14100396007074203;-0.7429983111976485;-0.7959929519531237;1.0979999999999999;0.08339276215338036
52:07.2;0.14100269327882328;-0.742998891594201;-0.7959953268045845;1.0979999999999999;0.08339232688850588
52:07.2;0.1410015093251987;-0.7429993832931713;-0.7959973941864903;1.0979999999999999;0.0833918984441987
52:07.2;0.14100046861815288;-0.7429997503922376;-0.7959990161502726;1.0979999999999999;0.08339149406747007
52:07.2;0.140999601937303;-0.7429999758901314;-0.7960001262744693;1.0979999999999999;0.08339112309744211
52:07.2;0.14099891751289392;-0.7430000598163048;-0.796000720513868;1.0979999999999999;0.08339078998292801
52:07.2;0.14099840870614683;-0.7430000170043414;-0.7960008466786119;1.0979999999999999;0.08339049747232911
52:07.2;0.14099806142272128;-0.7429998747365373;-0.7960005936597977;1.0979999999999999;0.0833902496049563
52:07.2;0.14099786056417282;-0.7429996703552395;-0.7960000810361293;1.0979999999999999;0.08339005416975508
52:07.2;0.14099779499388684;-0.7429994488179076;-0.795999449254483;1.0979999999999999;0.08338992433933111
52:07.2;0.14099786065611894;-0.7429992600799943;-0.7959988502175012;1.0979999999999999;0.08338987923500903
52:07.2;0.14099806163736106;-0.7429991561327243;-0.7959984378649387;1.0979999999999999;0.08338994323555589
52:07.2;0.14099840910091396;-0.7429991875092394;-0.795998358223773;1.0979999999999999;0.08339014391277709
52:07.2;0.14099891816390084;-0.7429993991071547;-0.7959987384366184;1.0979999999999999;0.08339050856650401
52:07.2;0.1409996029276463;-0.7429998252600064;-0.7959996744604086;1.0979999999999999;0.08339105944382916
52:07.2;0.14100047002298613;-0.743000484122379;-0.7960012174488902;1.0979999999999999;0.08339180786500144
52:07.2;0.1410015111942901;-0.7430013716074478;-0.7960033592732023;1.0979999999999999;0.08339274763996006
52:07.2;0.1410026956176526;-0.7430024553200988;-0.7960060181622479;1.0979999999999999;0.0833938483392006
52:07.2;0.14100396282159028;-0.743003669147043;-0.7960090260129017;1.0979999999999999;0.08339504916904433
52:07.2;0.14100521723747197;-0.7430049093750084;-0.796012119469631;1.0979999999999999;0.0833962543766919
52:07.2;0.14100632552948172;-0.7430060333810778;-0.7960149373308074;1.0979999999999999;0.08339733125068649
52:07.2;0.1410071179114825;-0.7430068620426984;-0.7960170271205729;1.0979999999999999;0.08339811185801366
52:07.2;0.14100739461736542;-0.743007187012784;-0.7960178636792125;1.0979999999999999;0.08339839963650501
52:07.2;0.1410069385171932;-0.7430067838611736;-0.7960168822796514;1.0979999999999999;0.08339798180570264
52:07.2;0.1410055345307204;-0.7430054317642782;-0.796013527989784;1.0979999999999999;0.08339664823864415
52:07.2;0.1410029959570027;-0.7430029399049137;-0.7960073217072662;1.0979999999999999;0.08339421692638864
52:07.2;0.1409991971012964;-0.7429991800126757;-0.795997941467247;1.0979999999999999;0.0833905654550515
52:07.2;0.14099411064547207;-0.7429941235403721;-0.7959853152864755;1.0979999999999999;0.0833856670098371
52:07.2;0.1409878471089876;-0.7429878808687651;-0.7959697190470322;1.0979999999999999;0.0833796283560865
52:07.2;0.14098069254910972;-0.7429807387266996;-0.7959518699065692;1.0979999999999999;0.08337272608885084
52:07.2;0.14097313945228837;-0.7429731908086556;-0.7959330027052367;1.0979999999999999;0.0833654362895031
52:07.2;0.14096590471107476;-0.7429659555056541;-0.7959149141698914;1.0979999999999999;0.08335845171453572
52:07.2;0.14095992783472375;-0.7429599739110709;-0.7958999578261874;1.0979999999999999;0.0833526799328557
52:07.2;0.14095634230526652;-0.7429563810194746;-0.7958909719170068;1.0979999999999999;0.08334921561075027
52:07.2;0.1409564134760822;-0.7429564435161187;-0.7958911238216122;1.0979999999999999;0.08334928061430201
52:07.2;0.14096143782149576;-0.7429614589619747;-0.7959036579859206;1.0979999999999999;0.08335412694433225
52:07.2;0.14097260085457497;-0.7429726136850388;-0.7959315406375033;1.0979999999999999;0.08336489989483654
52:07.2;0.14099079474051407;-0.7429908003973511;-0.7959770038299496;1.0979999999999999;0.0833824623319458
52:07.2;0.14101640154560138;-0.743016401469356;-0.7960410036414638;1.0979999999999999;0.08340718564176977
52:07.2;0.14104905403505685;-0.7430490497669079;-0.7961226222869805;1.0979999999999999;0.08343871859096759
52:07.2;0.14108739264570724;-0.7430873856698855;-0.7962184606876878;1.0979999999999999;0.08347575183033479
52:07.2;0.14112884418043412;-0.7431288358136379;-0.7963220853481708;1.0979999999999999;0.08351580260297839
52:07.2;0.1411694541419579;-0.7431694454665587;-0.7964236093222735;1.0979999999999999;0.08355505071206602
52:07.2;0.14120380945889713;-0.7432038012938731;-0.7965094991414592;1.0979999999999999;0.08358826200018536
52:07.2;0.1412250904725642;-0.743225083374522;-0.796562704872095;1.0979999999999999;0.08360883823973657
52:07.2;0.14122528912195326;-0.7432252834080951;-0.7965632056437774;1.0979999999999999;0.08360903091005387
52:07.2;0.14119562291078983;-0.7431956186960019;-0.796489044609331;1.0979999999999999;0.08358034915741099
52:07.2;0.14112716016777352;-0.7431271574089117;-0.796317892117004;1.0979999999999999;0.08351417766445324
52:07.2;0.14101165026426765;-0.7430116488059628;-0.7960291212592273;1.0979999999999999;0.08340259694630121
52:07.2;0.1408425222062068;-0.7428425218239089;-0.7956063043440511;1.0979999999999999;0.08323936630182752
52:07.2;0.14061597636776735;-0.742615976805129;-0.7950399422122718;1.0979999999999999;0.08302098907500051
52:07.2;0.1403320478917133;-0.7423320488906788;-0.7943301227163139;1.0979999999999999;0.08274773331537917
52:07.2;0.13999546820408937;-0.7419954695271127;-0.7934886744832331;1.0979999999999999;0.08242443205944208
52:07.2;0.1396160959477386;-0.7416160973923821;-0.7925402442255168;1.0979999999999999;0.08206084073561896
52:07.2;0.13920863414091755;-0.7412086355476621;-0.7915215896171166;1.0979999999999999;0.08167128863313504
52:07.2;0.13879136406768694;-0.7407913653221395;-0.7904784140024822;1.088;0.08127338917339347
52:07.2;0.13838390238396356;-0.7403839034148001;-0.7894597591487906;1.088;0.08088584734287622
52:07.2;0.13800453037874638;-0.7400045311527257;-0.788511328390161;1.088;0.08052591339546779
52:07.2;0.13766795107845278;-0.7396679515937125;-0.7876698793833528;1.088;0.08020729853217605
52:07.2;0.13738402313400563;-0.739384023412656;-0.7869600588234824;1.088;0.07993905004203597
52:07.2;0.13715747797481626;-0.7391574780556112;-0.7863936953294368;1.088;0.07972535997239243
52:07.2;0.1369883507367379;-0.7389883506683579;-0.7859708767659558;1.088;0.07956602893577973
52:07.2;0.13687284177080103;-0.7388728416060587;-0.7856821040187418;1.088;0.07945730833544352
52:07.2;0.13680438003788795;-0.7388043798289735;-0.7855109494849092;1.088;0.07939290751450423
52:07.2;0.13677471483782846;-0.7387747146325649;-0.7854367863995078;1.088;0.07936501061265674
52:07.2;0.13677491439874104;-0.7387749142377221;-0.7854372853123479;1.088;0.07936519826631651
52:07.2;0.13679619609513022;-0.738796196009565;-0.7854904896361852;1.088;0.07938521089777326
52:07.2;0.13683055171245734;-0.7388305517225442;-0.7855763788104574;1.088;0.07941752351184758
52:07.2;0.13687116142326144;-0.7388711615369531;-0.7856779032432623;1.088;0.07945572736645078
52:07.2;0.13691261198653745;-0.738912612198625;-0.7857815298109051;1.088;0.07949473237728337
52:07.2;0.13695094875441902;-0.7389509490459513;-0.7858773718752535;1.088;0.07953081640375048
52:07.2;0.13698359842324442;-0.7389835987613923;-0.785958996161734;1.088;0.079561554409322
52:07.2;0.1370092013963748;-0.7390092017349426;-0.7860230036665415;1.088;0.07958566274129562
52:07.2;0.13702739050976803;-0.7390273907906196;-0.7860684764707051;1.088;0.07960279237837897
52:07.2;0.13703854803500168;-0.73903854819071;-0.7860963702478498;1.088;0.07961330096194355
52:07.2;0.13704356650286761;-0.7390435664608852;-0.7861089163235269;1.088;0.07961802776521527
52:07.2;0.13704363196884561;-0.7390436316574288;-0.7861090798393965;1.088;0.07961808938369243
52:07.2;0.1370400416284564;-0.7390400409844481;-0.7861001037922293;1.088;0.0796147076132171
52:07.2;0.13703406171696514;-0.7390340606953403;-0.7860851537838096;1.088;0.07960907528567715
52:07.2;0.13702682671560198;-0.7390268253004147;-0.7860670660370136;1.088;0.07960226111558252
52:07.2;0.1370192771772722;-0.7390192753933229;-0.786048191960305;1.088;0.07959515104294076
52:07.2;0.13701213097795953;-0.7390121289021381;-0.7860303262759402;1.088;0.0795884211525804
52:07.2;0.13700588139136013;-0.7390058791622581;-0.7860147022055024;1.088;0.07958253590796033
52:07.2;0.13700081490284752;-0.739000812726897;-0.786002036002804;1.088;0.07957776498864157
52:07.2;0.13699704191992151;-0.7389970400720682;-0.7859926037268807;1.088;0.07957421226156472
52:07.2;0.13699453428791658;-0.7389945331047333;-0.7859863350269413;1.088;0.07957185113910525
52:07.2;0.1369931645829273;-0.7389931644461747;-0.7859829113692149;1.088;0.07957056158934626
52:07.2;0.1369927433561142;-0.7389927446651351;-0.7859818591413155;1.088;0.07957016520214401
52:07.2;0.13699305170636272;-0.7389930548383978;-0.7859826310769539;1.088;0.07957045584872124
52:07.2;0.13699386766006197;-0.7389938729186444;-0.7859846721985353;1.088;0.07957122450870031
52:07.2;0.13699498577155206;-0.7389949933245793;-0.7859874688123488;1.088;0.07957227771625681
52:07.2;0.13699623009128886;-0.7389962399021547;-0.7859905809250062;1.088;0.07957344976541458
52:07.2;0.13699746117288705;-0.7389974729300999;-0.785993659760224;1.088;0.07957460930641284
52:07.2;0.1369985781167017;-0.7389985911695803;-0.7859964528713562;1.088;0.07957566127176248
52:07.2;0.13699951680184094;-0.7389995301119512;-0.7859987997306153;1.088;0.07957654521574266
52:07.2;0.137000245473613;-0.7390002575933217;-0.7860006207134845;1.088;0.0795772311655736
52:07.2;0.13700075876546317;-0.739000767856006;-0.7860019021765532;1.088;0.07957771400001021
52:07.2;0.1370010710785848;-0.7390010749800024;-0.7860026799367038;1.088;0.07957800722452955
52:07.2;0.13700121005008065;-0.7390012064138877;-0.7860030229779763;1.088;0.07957813683119934
52:07.2;0.1370012106379417;-0.7390011971301015;-0.786003018704855;1.088;0.07957813574032517
52:07.2;0.13700111015820415;-0.7390010847346101;-0.786002760577252;1.088;0.0795780391389701
52:07.2;0.13700094444023933;-0.7390009056893123;-0.7860023385376584;1.088;0.07957788087149012
52:07.2;0.1370007451283186;-0.7390006926655889;-0.78600183229515;1.088;0.0795776909070267
52:07.2;0.13700053805457435;-0.739000472942568;-0.7860013072723366;1.088;0.07957749381153102
52:07.2;0.13700034253959736;-0.739000267693664;-0.7860008128484887;1.088;0.07957730808681159
52:07.2;0.13700017143874274;-0.739000091966701;-0.7860003824366094;1.088;0.07957714620313308
52:07.3;0.13700003173958045;-0.7389999551516716;-0.7860000349014438;1.088;0.07957701514023093
52:07.3;0.136999925522811;-0.7389998617402512;-0.7859997768444761;1.088;0.0795769172586305
52:07.3;0.13699985111925542;-0.7389998122067869;-0.7859996053357914;1.088;0.0795768513431623
52:07.3;0.13699980432357295;-0.7389998038761019;-0.7859995107471948;1.088;0.07957681368824335
52:07.3;0.13699977955635875;-0.7389998316842642;-0.7859994794241831;1.088;0.07957679912532269
52:07.3;0.13699977089648238;-0.7389998887803921;-0.7859994960167004;1.088;0.0795768019232874
52:07.3;0.13699977293235666;-0.7389999669573556;-0.785999545363204;1.088;0.07957681652004417
52:07.3;0.13699978140278812;-0.7390000569343594;-0.785999613885126;1.088;0.07957683806636218
52:07.3;0.13699979361468043;-0.7390001485429295;-0.7859996904972625;1.088;0.07957686278069247
52:07.3;0.13699980863649822;-0.7390002308882876;-0.7859997670738353;1.088;0.07957688812610426
52:07.3;0.1369998272740451;-0.7390002925693473;-0.7859998385311417;1.088;0.07957691282827346
52:07.3;0.13699985184018337;-0.7390003220416723;-0.7859999025980543;1.088;0.07957693675757291
52:07.3;0.136999885734239;-0.7390003081980214;-0.7859999593478441;1.088;0.0795769606998828
52:07.3;0.1369999328515954;-0.7390002412201611;-0.7860000105617105;1.088;0.07957698604093633
52:07.3;0.13699999685075956;-0.7390001137234674;-0.7860000589886825;1.088;0.0795770143889132
52:07.3;0.13700008031495725;-0.7389999221731074;-0.7860001075604366;1.088;0.07957704716045033
52:07.3;0.13700018385847482;-0.7389996684988032;-0.7860001586147086;1.088;0.07957708515681404
52:07.3;0.13700030524419582;-0.7389993617769925;-0.7860002131783;1.088;0.07957712815986918
52:07.3;0.13700043859695687;-0.7389990197886391;-0.7860002703603883;1.088;0.07957717458148723
52:07.3;0.13700057381549133;-0.7389986702035699;-0.7860003269083866;1.088;0.0795772212045493
52:07.3;0.1370006963010367;-0.7389983510951493;-0.7860003769807191;1.088;0.07957726305773558
52:07.3;0.13700078712963026;-0.7389981104608339;-0.7860004121917782;1.088;0.07957729346853401
52:07.3;0.13700082379367806;-0.7389980044241712;-0.7860004219817772;1.088;0.07957730433780713
52:07.3;0.137000781622349;-0.738998093831869;-0.786000394355804;1.088;0.07957728667318963
52:07.3;0.13700063595577414;-0.7389984390446971;-0.786000317019788;1.088;0.07957723140600163
52:07.3;0.1370003650918122;-0.7389990928602103;-0.7860001789143988;1.088;0.07957713049600885
52:07.3;0.13699995394464617;-0.7390000917020215;-0.7859999721099391;1.088;0.07957697829954444
52:07.3;0.13699939825228888;-0.7390014454627396;-0.785999693976077;1.088;0.07957677313936552
52:07.3;0.13699870904870223;-0.7390031266868153;-0.7859993494812868;1.088;0.0795765189703678
52:07.3;0.1369979169827545;-0.7390050601079;-0.7859989534115024;1.088;0.07957622698648138
52:07.3;0.13699707593176416;-0.7390071138856696;-0.7859985322311619;1.088;0.0795759169647764
52:07.3;0.13699626523721775;-0.7390090941820097;-0.7859981252501467;1.088;0.07957561809864906
52:07.3;0.13699558980366486;-0.7390107449290175;-0.7859977847167301;1.088;0.07957536904005294
52:07.3;0.13699517727119356;-0.7390117547168863;-0.7859975744408103;1.088;0.07957521685939709
52:07.3;0.13699517152137466;-0.7390117726096875;-0.7859975665755736;1.088;0.07957521464992297
52:07.3;0.13699572192975487;-0.7390104343238726;-0.7859978362612804;1.088;0.0795754175599115
52:07.3;0.13699696805509565;-0.7390073995287493;-0.7859984539723835;1.088;0.07957587713851827
52:07.3;0.13699901986983662;-0.7390024000180418;-0.7859994756155234;1.088;0.07957663403431778
52:07.3;0.13700193418988119;-0.7389952971516713;-0.7860009307023927;1.088;0.07957770929049891
52:07.3;0.13700568864156387;-0.7389861453092682;-0.7860028092616869;1.088;0.07957909473200984
52:07.3;0.13701015527692392;-0.7389752562112459;-0.786005048542214;1.088;0.07958074322538775
52:07.3;0.1370150767597489;-0.7389632569846081;-0.7860075209672054;1.088;0.07958255989062295
52:07.3;0.13702004881414884;-0.7389511329743413;-0.7860100251879519;1.088;0.07958439562628353
52:07.3;0.13702451325010256;-0.738940244782158;-0.7860122824008082;1.088;0.07958604453571573
52:07.3;0.13702776623062335;-0.7389323081593149;-0.7860139402722522;1.088;0.07958724696773192
52:07.3;0.1370289863825447;-0.7389293255314744;-0.786014586791564;1.088;0.07958769985966546
52:07.3;0.13702728673346173;-0.7389334594421071;-0.7860137760672905;1.088;0.07958707584336826
52:07.3;0.1370217931488494;-0.7389468413892033;-0.7860110674351781;1.088;0.0795850520995464
52:07.3;0.13701174984486963;-0.7389713146443103;-0.7860060782003028;1.088;0.07958134918712279
52:07.3;0.1369966496172826;-0.7390081167969087;-0.7859985488703828;1.088;0.07957577901361046
52:07.3;0.13697638268812487;-0.739057516880861;-0.7859884178660436;1.088;0.07956829975590295
52:07.3;0.13695139366699902;-0.7391184326779567;-0.7859759004847974;1.088;0.07955907392756462
52:07.3;0.1369228313173597;-0.7391880655121218;-0.7859615644799527;1.088;0.07954852400025351
52:07.3;0.13689267101684405;-0.7392616015552955;-0.7859463921962843;1.088;0.0795373781579604
52:07.3;0.13686378555823475;-0.7393320390125786;-0.7859318170578005;1.088;0.0795266970913204
52:07.3;0.13683993694399077;-0.7393902078581835;-0.7859197206748342;1.088;0.07951787149402419
52:07.3;0.13682566087787318;-0.739425051115793;-0.7859123763271156;1.088;0.07951257944243326
52:07.3;0.1368260175986682;-0.7394242319529261;-0.7859123255122461;1.088;0.0795126935128784
52:07.3;0.1368461883508173;-0.7393751170954963;-0.7859221770374512;1.088;0.0795201297180404
52:07.3;0.13689090682638952;-0.739266162603762;-0.785944323122171;1.088;0.07953663445844615
52:07.3;0.13696372975715762;-0.7390886918717594;-0.7859805743831781;1.088;0.07956351185101518
52:07.3;0.13706617048458777;-0.73883900781761;-0.7860317253990293;1.088;0.07960130188314152
52:07.3;0.13719674321898453;-0.7385207230105193;-0.7860970745183241;1.088;0.07964942931174246
52:07.3;0.137349992528432;-0.7381471260709748;-0.7861739350485188;1.088;0.07970585308739334
52:07.3;0.13751561024645362;-0.737743335267318;-0.7862571888802691;1.088;0.07976675494121584
52:07.3;0.1376777674184197;-0.7373479282143462;-0.7863389464508868;1.088;0.0798263120508808
52:07.3;0.13781480818108466;-0.7370136895608755;-0.7864083867585346;1.088;0.07987660101429053
52:07.3;0.13789946085098545;-0.7368070980791963;-0.7864518555321593;1.088;0.07990767795658603
52:07.3;0.13789971368381568;-0.7368061935661897;-0.7864532959780702;1.088;0.07990787272518501
52:07.3;0.13778047326165807;-0.737096535835685;-0.7863950719957161;1.088;0.07986432503189463
52:07.3;0.13750606709235902;-0.7377651054458912;-0.7862592157693192;1.088;0.07976377868535872
52:07.3;0.13704356455870367;-0.7388922089251646;-0.7860290880633576;1.088;0.07959363726828125
52:07.3;0.1363667693440355;-0.7405417462123679;-0.7856913790961347;1.088;0.07934326822927512
52:07.3;0.1354605818976802;-0.7427505747938683;-0.7852383005029737;1.088;0.0790055149069341
52:07.3;0.13432524563770076;-0.7455181556851873;-0.78466972621464;1.088;0.07857832462348872
52:07.3;0.1329797824693463;-0.7487981737963499;-0.783994935558504;1.088;0.07806631002781332
52:07.3;0.13146370290890347;-0.7524943623240439;-0.7832335010596286;1.088;0.07748191866611254
52:07.3;0.12983585848990448;-0.756463291445958;-0.7824147536954372;1.088;0.07684569506748348
52:07.3;0.1281693593972939;-0.7605267471224479;-0.7815752848653541;1.107;0.07618500909041283
52:07.3;0.1265425847156222;-0.764493634018234;-0.7807544952750295;1.107;0.07553097097663798
52:07.3;0.12502848305803727;-0.7681860465490568;-0.7799892847793483;1.107;0.07491417701815
52:07.3;0.12368558886623081;-0.7714611602500188;-0.7793095897132896;1.107;0.07436065175425931
52:07.3;0.12255295310761041;-0.7742235856387616;-0.7787358599230658;1.107;0.07388909580089174
52:07.3;0.12164901751629476;-0.7764281152251785;-0.7782784823361402;1.107;0.07350973926368638
52:07.3;0.12097335757495467;-0.7780754851746388;-0.7779386060333503;1.107;0.07322456343182572
52:07.3;0.12051016420944652;-0.7792039075187461;-0.7777097971954446;1.107;0.07302849825843385
52:07.3;0.12023255126367835;-0.7798785991628926;-0.7775800630073666;1.107;0.07291118931693032
52:07.3;0.12010699495403843;-0.7801809990441728;-0.7775338966423238;1.107;0.0728589656492403
52:07.3;0.12009741779480876;-0.7801988608902427;-0.7775541034538134;1.107;0.0728567172914206
52:07.3;0.12016861188589542;-0.7800179630714069;-0.7776232658973896;1.107;0.07288948715331725
52:07.3;0.12028884802091283;-0.7797158059931791;-0.7777247877873995;1.107;0.07294367585480761
52:07.3;0.12043163475520413;-0.7793573788798219;-0.777843525303934;1.107;0.07300783572447651
52:07.3;0.12057667565368113;-0.7789928711065675;-0.7779660621705262;1.107;0.07307308472309686
52:07.3;0.1207101263038581;-0.7786570716148093;-0.7780807201498666;1.107;0.07313320234510287
52:07.3;0.12082428002451984;-0.7783701321986977;-0.7781774146571098;1.107;0.0731844815552188
52:07.3;0.1209168182586704;-0.7781393528968733;-0.7782474704165862;1.107;0.07322540933244354
52:07.3;0.12098975449784044;-0.7779616658302266;-0.7782835053274931;1.107;0.07325623921474726
52:07.3;0.12104818511339324;-0.7778265335851686;-0.7782794736359775;1.107;0.07327850709162997
52:07.3;0.12109894187777238;-0.7777190272042659;-0.7782309336072556;1.107;0.07329452963693157
52:07.3;0.12114922347162464;-0.777622896860626;-0.7781355715743761;1.107;0.07330691504682871
52:07.3;0.12120526992832094;-0.7775234879576424;-0.7779939750238702;1.107;0.0733181088202607
52:07.3;0.1212711365004572;-0.7774103822766973;-0.7778106040702736;1.107;0.07332999301235708
52:07.3;0.12134762224526265;-0.7772796564456319;-0.7775948656018891;1.107;0.07334355496757751
52:07.3;0.1214314128240416;-0.7771356498259732;-0.7773621506221018;1.107;0.07335863996954711
52:07.3;0.12151450450551532;-0.7769921249071952;-0.7771346568461712;1.107;0.07337380048539989
52:07.3;0.12158398402813023;-0.7768726916401378;-0.7769417904054127;1.107;0.07338625197299309
52:07.3;0.12162224287071731;-0.77681036072467;-0.7768199284368719;1.107;0.07339194136663195
52:07.3;0.12160770013689266;-0.7768460986502111;-0.7768113349527934;1.107;0.07338572990794605
52:07.3;0.12151609104439812;-0.7770262885624403;-0.776962062490955;1.107;0.07336168813868023
52:07.3;0.12132234356458671;-0.7773990645427485;-0.7773187480532907;1.107;0.07331349896109972
52:07.3;0.12100301048811943;-0.7780095898596068;-0.7779243289396989;1.107;0.07323496520563835
52:07.3;0.12053914582425591;-0.7788944968214588;-0.7788128652885058;1.107;0.0731206194746854
52:07.3;0.11991941256333326;-0.7800758980256987;-0.7800038612473381;1.107;0.07296643109310752
52:07.3;0.11914308540412655;-0.781555612457346;-0.7814967213421895;1.107;0.07277058884682118
52:07.3;0.11822247176940477;-0.7833105161446571;-0.783266253485866;1.107;0.07253429729265079
52:07.3;0.11718412488553338;-0.785290211470656;-0.7852604206179504;1.107;0.07226244860547658
52:07.3;0.11606807413760449;-0.7874184921722849;-0.7874018297378941;1.107;0.07196391930487721
52:07.3;0.11492433620409195;-0.7896000076290302;-0.7895943754748881;1.135;0.07165115473132644
52:07.3;0.11380672947201474;-0.7917320810169151;-0.791735006488489;1.135;0.07133883840518762
52:07.3;0.11276550563367545;-0.7937187888717075;-0.7937277349261304;1.135;0.0710418870025548
52:07.3;0.11184115529926826;-0.7954828006991316;-0.7954953984224277;1.135;0.07077340824933767
52:07.3;0.11106090013078414;-0.7969720895777805;-0.7969862941684851;1.135;0.07054319966859596
52:07.3;0.11043789143742301;-0.7981614745724603;-0.7981756520645845;1.135;0.07035700493214862
52:07.3;0.10997237546171028;-0.7990504065420859;-0.7990633624622387;1.135;0.0702164714650501
52:07.3;0.10965404722962183;-0.7996584825105661;-0.7996694455878118;1.135;0.07011964628258202
52:07.3;0.10946496415476999;-0.8000198890024792;-0.8000284633466381;1.135;0.07006181143155209
52:07.3;0.10938254181673712;-0.8001776862523348;-0.8001837844969577;1.135;0.0700364612061857
52:07.3;0.10938229726958176;-0.8001785724648265;-0.8001823406384846;1.135;0.07003625581761508
52:07.3;0.10944013225124774;-0.80006852490162;-0.8000702676099666;1.135;0.07005383674442046
52:07.3;0.10953405490105939;-0.7998895117810849;-0.7998896239573905;1.135;0.07008244274595544
52:07.3;0.10964532180404464;-0.7996773101024996;-0.7996762193516305;1.135;0.0701163114335824
52:07.3;0.10975904234644182;-0.799460349598545;-0.7994584711834282;1.135;0.07015088382083257
52:07.3;0.1098643261867242;-0.7992594288451688;-0.7992571337445662;1.135;0.07018284771963329
52:07.3;0.10995407500273317;-0.7990881106244704;-0.7990857058686592;1.135;0.07021006261969491
52:07.3;0.11002452511828816;-0.7989535931744893;-0.798951312838418;1.135;0.0702314074346851
52:07.3;0.11007464191500711;-0.7988578647724347;-0.7988558695384969;1.135;0.07024658676419313
52:07.3;0.11010545373835226;-0.7987989742370991;-0.7987973572752223;1.135;0.07025592382182397
52:07.3;0.1101193955653887;-0.7987722831911466;-0.7987710801751817;1.135;0.07026016063321754
52:07.3;0.11011971372349405;-0.7987716021250194;-0.7987708034420882;1.135;0.07026027938114653
52:07.3;0.11010996452235738;-0.7987901474642768;-0.798789711012762;1.135;0.07025735316737275
52:07.3;0.11009362324998216;-0.7988212881649158;-0.798821151520795;1.135;0.0702524299719478
52:07.3;0.1100738064748425;-0.7988590761497857;-0.7988591672647808;1.135;0.07024645011008022
52:07.3;0.11005310038508972;-0.798898574398794;-0.798898820344102;1.135;0.07024019489630721
52:07.3;0.11003348098382812;-0.7989360097102172;-0.7989363432748302;1.135;0.07023426243090004
52:07.3;0.11001630806359225;-0.798968784599268;-0.7989691487809258;1.135;0.07022906534610303
52:07.3;0.11000237353627204;-0.798995385383193;-0.7989957359703761;1.135;0.07022484490902134
52:07.3;0.10999198533600843;-0.7990152222891573;-0.7990155288284253;1.135;0.07022169597529639
52:07.3;0.10998507016075791;-0.7990284335209946;-0.7990286790042941;1.135;0.07021959780394044
52:07.3;0.10998128122689695;-0.7990356796762943;-0.7990358592793103;1.135;0.07021844654609755
52:07.3;0.10998010050625633;-0.7990379486213652;-0.7990380677894926;1.135;0.07021808617588653
52:07.3;0.10998092821559165;-0.7990363846353388;-0.799036456761275;1.135;0.07021833562001316
52:07.3;0.10998315535484769;-0.7990321498605817;-0.7990321937386844;1.135;0.07021901076847262
52:07.3;0.10998621766056084;-0.7990263211926215;-0.7990263583800955;1.135;0.07021994084456032
52:07.3;0.10998963135941077;-0.7990198218905203;-0.7990198740620474;1.135;0.07022097924121701
52:07.3;0.10999301255126528;-0.7990133844322502;-0.7990134707882248;1.135;0.07022200938096754
52:07.3;0.10999608295274291;-0.7990075394187649;-0.799007674200642;1.135;0.07022294643687357
52:07.3;0.1099986651604345;-0.7990026245132801;-0.7990028146928232;1.135;0.07022373588392243
52:07.3;0.11000067063812802;-0.7989988073155796;-0.7989990505556093;1.135;0.07022434986332708
52:07.3;0.11000208339344321;-0.7989961165261668;-0.7989963995538812;1.135;0.07022478226781306
52:07.3;0.11000294188257;-0.798994476567503;-0.798994774150435;1.135;0.07022504332428246
52:07.3;0.11000332115375272;-0.7989937418340208;-0.7989940165941304;1.135;0.07022515428776194
52:07.3;0.11000331668262206;-0.7989937278015553;-0.7989939311342559;1.135;0.07022514268885416
52:07.3;0.11000303082053467;-0.7989942372348606;-0.7989943116054837;1.135;0.07022503841231359
52:07.3;0.11000256230888748;-0.7989950806160326;-0.7989949634749345;1.135;0.07022487073805408
52:07.3;0.11000199893045905;-0.7989960906340771;-0.7989957201129644;1.135;0.07022466635452254
52:07.3;0.11000141308239271;-0.7989971311094539;-0.7989964535277505;1.135;0.0702244482608524
52:07.3;0.11000085986314995;-0.7989981010806027;-0.7989970800980474;1.135;0.07022423540858558
52:07.3;0.11000037715873352;-0.7989989349704797;-0.7989975619726658;1.135;0.07022404289407568
52:07.3;0.10999998717804972;-0.7989995998078582;-0.7989979048145657;1.135;0.07022388249583675
52:07.3;0.10999969890747557;-0.7990000904331596;-0.798998152493494;1.135;0.07022376335345923
52:07.3;0.10999951101423608;-0.7990004235054273;-0.7989983792173047;1.135;0.07022369260269251
52:07.3;0.1099994148119425;-0.7990006309771006;-0.7989986794800926;1.135;0.07022367581167237
52:07.3;0.10999939699659626;-0.7990007535436671;-0.7989991561317087;1.135;0.0702237171033664
52:07.3;0.10999944195716084;-0.7990008344276777;-0.79899990686706;1.135;0.07022381889694886
52:07.3;0.10999953355386285;-0.7990009137363963;-0.7990010095139337;1.135;0.0702239812541758
52:07.3;0.10999965633473051;-0.7990010235486006;-0.7990025066721627;1.135;0.07022420087416403
52:07.3;0.10999979622379506;-0.7990011838417133;-0.7990043905186793;1.135;0.07022446983926604
52:07.3;0.1099999407619194;-0.7990013993629262;-0.799006588921898;1.135;0.07022477427333945
52:07.3;0.1100000790136823;-0.7990016575698108;-0.7990089543694828;1.135;0.07022509312806094
52:07.3;0.11000020127219365;-0.7990019278055676;-0.7990112575560491;1.135;0.07022539735830986
52:07.3;0.11000029869952895;-0.7990021619170048;-0.7990131877389125;1.135;0.07022564977813611
52:07.3;0.1100003630350394;-0.7990022965530045;-0.7990143620780735;1.135;0.07022580589747789
52:07.3;0.11000038648830641;-0.7990022573804489;-0.7990143460537131;1.135;0.07022581601903932
52:07.3;0.110000361908894;-0.7990019654069344;-0.7990126866250905;1.135;0.07022562881707416
52:07.3;0.11000028329202828;-0.7990013454911675;-0.7990089589943326;1.135;0.07022519651880314
52:07.3;0.110000146638577;-0.7990003369432256;-0.7990028266244962;1.135;0.07022448166065669
52:07.3;0.10999995114010859;-0.7989989058647605;-0.7989941125248181;1.135;0.07022346519503767
52:07.3;0.10999970060679631;-0.7989970585591809;-0.7989828777955241;1.135;0.07022215548363395
52:07.3;0.10999940499976082;-0.798994854969701;-0.7989695011172598;1.135;0.07022059744194145
52:07.3;0.10999908187351094;-0.7989924207067235;-0.7989547504424158;1.135;0.07021888081590871
52:07.3;0.10999875748318355;-0.7989899558458724;-0.7989398358381183;1.135;0.07021714630330063
52:07.3;0.10999846727143439;-0.798987738367178;-0.7989264305579924;1.135;0.07021558801572483
52:07.3;0.10999825542850354;-0.7989861199282706;-0.7989166463606068;1.135;0.0702144506557398
52:07.3;0.1099981732244886;-0.7989855116911059;-0.7989129492691998;1.135;0.07021401980542541
52:07.3;0.1099982758537856;-0.7989863582256228;-0.7989180038131881;1.135;0.070214603937715
52:07.3;0.10999861761591927;-0.7989890981617975;-0.7989344377053299;1.135;0.0702165072150603
52:07.3;0.10999924539061973;-0.798994111304989;-0.7989645251937296;1.135;0.07021999286640769
52:07.3;0.1100001905507441;-0.7990016533922063;-0.7990097961265756;1.135;0.07022523794951617
52:07.3;0.11000145969232542;-0.7990117815329635;-0.7990705889824593;1.135;0.07023228160119133
52:07.3;0.110003024838023;-0.7990242755792961;-0.7991455793390349;1.135;0.07024097040765713
52:07.3;0.11000481407203733;-0.7990385630732904;-0.7992313296856189;1.135;0.07025090620243965
52:07.3;0.11000670386576338;-0.7990536578238252;-0.79932192091153;1.135;0.0702614032816124
52:07.3;0.11000851461954382;-0.7990681242901867;-0.7994087385603743;1.135;0.07027146352494126
52:07.3;0.11001001113378536;-0.7990800814535628;-0.7994804959604932;1.135;0.07027977898379632
52:07.3;0.11001090978274626;-0.7990872603400124;-0.7995235792351418;1.135;0.0702847718572585
52:07.3;0.11001089404358572;-0.7990871283963321;-0.7995227934195417;1.135;0.07028468111669665
52:07.3;0.11000963968066967;-0.7990770911037219;-0.7994625720087315;1.135;0.0702777030522389
52:07.3;0.11000685025798941;-0.799054776201435;-0.7993286821796277;1.135;0.07026218944802565
52:07.3;0.1100023027248303;-0.7990183984749627;-0.799110413420952;1.135;0.07023690179982732
52:07.3;0.10999590159138703;-0.7989671932393447;-0.7988031783574665;1.135;0.07020131299368691
52:07.3;0.1099877387173436;-0.7989018947016356;-0.798411382872874;1.135;0.07015593942997508
52:07.3;0.10997815405789246;-0.7988252219603182;-0.797951342076229;1.135;0.07010267725390401
52:07.3;0.10996779098106886;-0.7987423215560419;-0.7974539355949367;1.135;0.07004510700022817
52:07.3;0.10995763817730798;-0.7986611027450364;-0.7969666192185291;1.135;0.06998872272072891
52:07.3;0.10994904897303368;-0.7985923919939499;-0.7965543518815918;1.135;0.069941035892784
52:07.3;0.10994372833101768;-0.7985498289620669;-0.7962989715776965;1.135;0.06991150255427131
52:07.3;0.10994367830287265;-0.7985494300973573;-0.7962965769595864;1.135;0.06991122558572876
52:07.3;0.1099510945373687;-0.798608760678751;-0.796652559617165;1.135;0.06995239414003343
52:07.3;0.10996820996642576;-0.7987456842816015;-0.7974741008929146;1.135;0.07004744002192015
52:07.3;0.10999708725236763;-0.7989767023364674;-0.798860209253998;1.135;0.0702079173964763
52:07.3;0.11003936914193435;-0.7993149569459794;-0.8008897372087528;1.135;0.07044314871345277
52:07.3;0.11009600553491138;-0.799768047422936;-0.8036082805459882;1.135;0.07075872757569808
52:07.3;0.11016698763595505;-0.8003359034981186;-0.8070154175879947;1.135;0.07115503001524351
52:07.3;0.11025113257756498;-0.8010090623010087;-0.8110543710765872;1.135;0.07162596040543803
52:07.3;0.1103459756880101;-0.8017678065032534;-0.8156068370317053;1.135;0.07215824646570713
52:07.3;0.11044784120261357;-0.8025827300114381;-0.820496378902474;1.135;0.07273169530942723
52:07.3;0.11055215879173895;-0.8034172701951968;-0.8255036209276071;1.175;0.07332083011112626
52:07.3;0.11065402428454561;-0.80423219368254;-0.8303931628971517;1.175;0.07389795698007555
52:07.3;0.1107488673536919;-0.8049909378432146;-0.8349456290413422;1.175;0.07443693461704896
52:07.3;0.11083301223906866;-0.8056640965842249;-0.8389845827922453;1.175;0.07491643924334872
52:07.3;0.11090399427572158;-0.806231952578308;-0.8423917201440612;1.175;0.07532190292442753
52:07.3;0.11096063060499192;-0.8066850429572016;-0.8451102638042532;1.175;0.07564605724500358
52:07.3;0.11100291244216628;-0.8070232974556737;-0.8471397920526358;1.175;0.07588842299581472
52:07.3;0.11103178969898225;-0.8072543153927932;-0.8485259006286119;1.175;0.07605413283260459
52:07.3;0.11104890513474013;-0.8073912388801907;-0.8493474419863747;1.175;0.07615241783428281
52:07.3;0.1110563214239278;-0.8074505693603846;-0.8497034245376588;1.175;0.07619502180992671
52:07.3;0.11105627150891757;-0.8074501704235546;-0.8497010295731245;1.175;0.07619473515569966
52:07.3;0.1110509510456096;-0.8074076073657914;-0.8494456486408247;1.175;0.07616417025945998
52:07.3;0.11104236208758103;-0.8073388966535068;-0.8490333803693253;1.175;0.07611483906871665
52:07.3;0.1110322095924467;-0.8072576779640669;-0.8485460627543449;1.175;0.07605654441359569
52:07.3;0.11102184687246461;-0.8071747777796026;-0.8480486547678954;1.175;0.07599706147216491
52:07.3;0.11101226259332098;-0.807098105366444;-0.8475886122805258;1.175;0.07594206378697546
52:07.3;0.1110041000867588;-0.8070328072667626;-0.847196815050701;1.175;0.07589523755269542
52:07.3;0.11099769926013024;-0.8069816025686081;-0.8468895783717101;1.175;0.07585852593443312
52:07.3;0.1109931519150386;-0.806945225453418;-0.8466713083628707;1.175;0.07583244931851611
52:07.3;0.11099036249631256;-0.806922911192787;-0.846537417927591;1.175;0.07581645529894873
52:07.3;0.11098910788545548;-0.8069128745093975;-0.8464771968599152;1.175;0.07580926196439743
52:07.3;0.11098909158318547;-0.8069127430604828;-0.8464764126433423;1.175;0.07580916824654303
52:07.3;0.11098998930403836;-0.806919922228458;-0.8465194990458874;1.175;0.07581431472457212
52:07.3;0.11099148449943311;-0.8069318793498623;-0.846591261298403;1.175;0.07582288671315757
52:07.3;0.11099329355373251;-0.8069463453375887;-0.8466780855916264;1.175;0.07583325833624524
52:07.3;0.11099518132520067;-0.8069614390687884;-0.8467686851386683;1.175;0.07584408146856596
52:07.3;0.11099696833052898;-0.8069757249232262;-0.8468544451318066;1.175;0.07585432693831115
52:07.3;0.11099853122385028;-0.8069882166729517;-0.8469294458273452;1.175;0.07586328737529134
52:07.3;0.1109997983415957;-0.8069983418857906;-0.8469902487702405;1.175;0.07587055178746561
52:07.3;0.11100074202434501;-0.8070058805219864;-0.8470355282779705;1.175;0.07587596162891139
52:07.3;0.11100136923894639;-0.8070108898993552;-0.8470656212835802;1.175;0.07587955707237677
52:07.3;0.11100171175837341;-0.8070136260757771;-0.8470820558789521;1.175;0.07588152069594241
52:07.3;0.11100181685616621;-0.8070144692940532;-0.8470871044713996;1.175;0.07588212408061135
52:07.3;0.11100173917146151;-0.8070138587301381;-0.8470833930306144;1.175;0.0758816810936098
52:07.3;0.11100153412494843;-0.8070122395849478;-0.847073584678166;1.175;0.07588051004964391
52:07.3;0.1110012530320884;-0.8070100236944292;-0.8470601446501539;1.175;0.07587890559715225
52:07.3;0.11100093987618136;-0.8070075633709097;-0.8470451848566923;1.175;0.07587712012020449
52:07.3;0.11100062957238693;-0.8070051371469724;-0.8470303799671555;1.175;0.07587535369194669
52:07.3;0.11100034747170417;-0.8070029454473436;-0.8470169430267569;1.175;0.0758737511457745
52:07.3;0.11100010981488274;-0.8070011139133008;-0.8470056467545347;1.175;0.07587240460907696
52:07.3;0.11099992484205314;-0.8069997020808202;-0.8469968764881778;1.175;0.07587135982338943
52:07.3;0.1109997942855783;-0.8069987152949814;-0.8469907017955441;1.175;0.07587062470194816
52:07.3;0.1109997150125426;-0.8069981180575487;-0.8469869556454981;1.175;0.07587017880026074
52:07.3;0.11099968063161855;-0.8069978473878978;-0.846985312344942;1.175;0.07586998265211767
52:07.3;0.11099968293033728;-0.8069978251759404;-0.8469853578917824;1.175;0.07586998621499438
52:07.3;0.11099971305810057;-0.8069979688782629;-0.8469866487255298;1.175;0.07587013594640023
52:07.3;0.11099976241419898;-0.8069982002268499;-0.8469887569126802;1.175;0.07587038027667382
52:07.3;0.11099982323662083;-0.8069984518670553;-0.8469913014853525;1.175;0.07587067344240994
52:07.3;0.1109998889156851;-0.8069986720119579;-0.8469939669190173;1.175;0.07587097779345747
52:07.3;0.11099995407654177;-0.8069988272966816;-0.8469965105940972;1.175;0.07587126478605323
52:07.3;0.11100001448699748;-0.8069989040482215;-0.8469987615746171;1.175;0.07587151492987673
52:07.3;0.11100006685293357;-0.806998908168149;-0.8470006132127876;1.175;0.0758717169748225
52:07.3;0.11100010856390433;-0.806998863774704;-0.8470020120185394;1.175;0.07587186661248604
52:07.3;0.11100013744740579;-0.8069988106860317;-0.8470029449853123;1.175;0.07587196493630521
52:07.3;0.11100015158269703;-0.8069988007665269;-0.8470034271999272;1.175;0.07587201686093281
52:07.3;0.11100014921463426;-0.8069988931209107;-0.8470034911375907;1.175;0.07587202965256191
52:07.3;0.11100012879522769;-0.8069991481207959;-0.8470031785940337;1.175;0.0758720116730007
52:07.3;0.11100008916588039;-0.806999620297371;-0.8470025357650633;1.175;0.07587197139523698
52:07.3;0.11100002987677808;-0.8070003502379123;-0.8470016115688593;1.175;0.07587191670957612
52:07.3;0.11099995162198235;-0.8070013557835417;-0.8470004589299353;1.175;0.07587185450848562
52:07.3;0.1109998567499302;-0.8070026230343738;-0.846999138412604;1.175;0.07587179051536207
52:07.3;0.11099974979006089;-0.8070040979113405;-0.8469977233110012;1.175;0.07587172930716625
52:07.3;0.11099963791838695;-0.8070056792784961;-0.8469963050779804;1.175;0.07587167447242238
52:07.3;0.11099953126967751;-0.8070072148638568;-0.8469949978152912;1.175;0.07587162884340873
52:07.3;0.11099944299368661;-0.8070085013914778;-0.8469939404654765;1.175;0.07587159474342506
52:07.3;0.11099938895008928;-0.8070092904071028;-0.8469932953594839;1.175;0.07587157419587046
52:07.3;0.11099938694428213;-0.8070093011959051;-0.8469932419042351;1.175;0.07587156905076581
52:07.3;0.11099945542673333;-0.8070082419063149;-0.8469939644636948;1.175;0.07587158099577923
52:07.3;0.11099961161452612;-0.8070058394683871;-0.8469956339153226;1.175;0.07587161143241511
52:07.3;0.11099986904669427;-0.8070018781021279;-0.8469983829641025;1.175;0.07587166121354652
52:07.3;0.11100023465512186;-0.8069962451459303;-0.8470022760689816;1.175;0.07587173025563296
52:07.3;0.11100070551851265;-0.8069889816230457;-0.8470072757632674;1.175;0.07587181705732311
52:07.3;0.11100126556415729;-0.8069803334680266;-0.8470132081888828;1.175;0.07587191817497672
52:07.3;0.11100188258404395;-0.8069707977628033;-0.8470197317428733;1.175;0.07587202772383828
52:07.3;0.11100250602829416;-0.8069611568389758;-0.8470263137498057;1.175;0.07587213698962081
52:07.3;0.11100306611692942;-0.8069524918919787;-0.8470322208904865;1.175;0.07587223424718294
52:07.3;0.11100347485488835;-0.8069461670683278;-0.8470365295724721;1.175;0.07587230488857093
52:07.3;0.11100362952749357;-0.8069437751017188;-0.847038162338649;1.175;0.07587233195959951
52:07.3;0.11100341917622528;-0.8069470367669276;-0.8470359555890733;1.175;0.07587229719006584
52:07.3;0.11100273439115582;-0.8069576489492093;-0.8470287621656388;1.175;0.07587218257559014
52:07.3;0.11100148049409178;-0.8069770801876575;-0.8470155895869228;1.175;0.07587197252729969
52:07.3;0.11099959381949244;-0.8070063182349461;-0.8469957708606037;1.175;0.07587165654796565
52:07.3;0.1109970603326504;-0.8070455814201842;-0.8469691598860526;1.175;0.07587123231924726
52:07.3;0.11099393527357289;-0.807094014140574;-0.8469363376700925;1.175;0.07587070899486617
52:07.3;0.1109903619134923;-0.8071493961296086;-0.8468988092608921;1.175;0.07587011039101635
52:07.3;0.110986586909767;-0.8072079044670593;-0.8468591649917714;1.175;0.07586947765335117
52:07.3;0.11098296921331298;-0.807263975536153;-0.8468211740447386;1.175;0.07586887086965734
52:07.3;0.11097997910689565;-0.8073103199589011;-0.8467897743983378;1.175;0.07586836900606418
52:07.3;0.11097818383210473;-0.8073381454091527;-0.8467709219603082;1.175;0.07586806749810503
52:07.3;0.11097821650358804;-0.8073376384722022;-0.8467712642149298;1.175;0.07586807285982619
52:07.3;0.11098072571349527;-0.8072987458029045;-0.8467976111123839;1.175;0.07586849382168297
52:07.3;0.11098630448250996;-0.8072122754070111;-0.8468561890898721;1.175;0.0758694288025556
52:07.3;0.11099539906848671;-0.8070713101243051;-0.8469516835891734;1.175;0.07587094997378055
52:07.3;0.11100820059989987;-0.806872887321799;-0.8470861012262882;1.175;0.07587308475668908
52:07.3;0.11102452548810504;-0.8066198525103808;-0.8472575141309009;1.175;0.07587579623046836
52:07.3;0.1110436939290907;-0.8063227425701114;-0.8474587842189584;1.175;0.07587896447964396
52:07.3;0.11106441926632174;-0.8060015006252012;-0.8476764015016165;1.175;0.0758823712092767
52:07.3;0.11108472417207207;-0.8056867752299214;-0.847889603984705;1.175;0.07588568984236603
52:07.3;0.1111019020228015;-0.8054205190452044;-0.8480699721034447;1.175;0.07588848271813203
52:07.3;0.11111254290231495;-0.8052555857837586;-0.84818170174788;1.175;0.07589020603910297
52:07.3;0.11111264270129187;-0.8052540391612392;-0.8481827498001657;1.175;0.0758902222159941
52:07.3;0.11109781010525001;-0.8054839445769908;-0.848027007501084;1.175;0.07588781879900686
52:07.3;0.1110635792268271;-0.8060145233085587;-0.8476675830829986;1.175;0.07588223388885468
52:07.3;0.1110058247149365;-0.8069097183156301;-0.8470611604112861;1.175;0.07587269014376077
52:07.3;0.11092126104965819;-0.8082204551662525;-0.8461732415772812;1.175;0.0758584428558946
52:07.3;0.11080798840710751;-0.8099761811296989;-0.8449838784771253;1.175;0.07583885050271053
52:07.3;0.11066602435716476;-0.8121766238613759;-0.8434932556365271;1.175;0.0758134758197241
52:07.3;0.1104977346182601;-0.8147851147047939;-0.8417262131351625;1.175;0.07578221814001734
52:07.3;0.11030804852173058;-0.8177252489965894;-0.8397345089818121;1.175;0.0757454604778371
52:07.3;0.11010431758907928;-0.8208830781229244;-0.8375953341749104;1.175;0.07570418739427345
52:07.3;0.10989568247558865;-0.8241169218986238;-0.8354046656095305;1.182;0.07566000376877625
52:07.3;0.10969195152227196;-0.8272747510180706;-0.8332654908715132;1.182;0.07561499518012234
52:07.3;0.10950226538589991;-0.8302148852965855;-0.8312737868509709;1.182;0.07557144136433135
52:07.3;0.1093339755910021;-0.8328233761213396;-0.8295067445362497;1.182;0.07553147544588437
52:07.3;0.10919201147356046;-0.8350238188305181;-0.8280161219206473;1.182;0.07549679633988965
52:07.3;0.1090787387583409;-0.836779544769743;-0.8268267590627205;1.182;0.07546849449675137
52:07.3;0.10899417502326189;-0.8380902815971;-0.8259388404613842;1.182;0.07544700126207478
52:07.3;0.10893642045406704;-0.838985476585071;-0.825332417980686;1.182;0.07543214327007672
52:07.3;0.1089021895417507;-0.839516055305342;-0.8249729936755793;1.182;0.07542326862012066
52:07.3;0.10888735694686787;-0.839745960721481;-0.8248172513726345;1.182;0.0754194073725756
52:07.3;0.10888745679356197;-0.8397444141148678;-0.8248182992658631;1.182;0.07541943344273874
52:07.3;0.10889809777752701;-0.8395794808882391;-0.8249300285621262;1.182;0.07542220454026992
52:07.3;0.10891527579677542;-0.8393132247596947;-0.8251103961191355;1.182;0.07542666762182713
52:07.3;0.10893558093782317;-0.8389984994428467;-0.8253235978178992;1.182;0.07543192667924882
52:07.3;0.10895630657328642;-0.8386772575973459;-0.8255412141064498;1.182;0.07543727622502674
52:07.3;0.10897547536312599;-0.83838014777336;-0.8257424830316606;1.182;0.07544220737386716
52:07.3;0.10899180062836154;-0.8381271130876179;-0.8259138946795054;1.182;0.07544639449870229
52:07.3;0.1090046025312857;-0.8379286904089482;-0.8260483110782505;1.182;0.07544966989942382
52:07.3;0.10901369743806845;-0.8377877252331775;-0.8261438045081992;1.182;0.07545199256849276
52:07.3;0.109019276421504;-0.8377012549087579;-0.8262023817709522;1.182;0.07545341556894519
52:07.3;0.10902178567584353;-0.8376623622542712;-0.8262287285202995;1.182;0.07545405510760395
52:07.3;0.10902181815467335;-0.8376618552531029;-0.8262290714171004;1.182;0.07545406323161008
52:07.3;0.10902002238600927;-0.83768968053873;-0.8262102206253157;1.182;0.07545360520835308
52:07.3;0.10901703143180846;-0.8377360246788835;-0.8261788238048604;1.182;0.07545284201512521
52:07.3;0.10901341250267435;-0.8377920953370841;-0.8261408369667617;1.182;0.07545191790285623
52:07.3;0.10900963588359579;-0.8378506031360837;-0.8261011980821521;1.182;0.07545095266096305
52:07.3;0.10900606057279386;-0.8379059844748776;-0.8260636761753567;1.182;0.07545003797136264
52:07.3;0.10900293333101031;-0.8379544164676989;-0.8260308612350835;1.182;0.07544923708778695
52:07.3;0.10900039759746691;-0.8379936789040372;-0.8260042577495367;1.182;0.07544858700640877
52:07.3;0.10899850884893385;-0.8380229162600155;-0.8259844459363295;1.182;0.07544810229875511
52:07.3;0.10899725335397041;-0.8380423469658317;-0.8259712786839445;1.182;0.07544777984631328
52:07.3;0.1089965678060085;-0.838052958893817;-0.8259640878034852;1.182;0.07544760383155179
52:07.3;0.1089963579203396;-0.8380562207142267;-0.8259618795019126;1.182;0.07544755048302973
52:07.3;0.1089965146820974;-0.8380538294440025;-0.8259635053042492;1.182;0.07544759222393303
52:07.3;0.10899692748424311;-0.8380475059750805;-0.8259678004389476;1.182;0.07544770101772962
52:07.3;0.10899749386338338;-0.8380388431249183;-0.8259736866112805;1.182;0.07544785083011231
52:07.3;0.10899812590983372;-0.8380292050684905;-0.8259802399442145;1.182;0.07544801922631829
52:07.3;0.10899875369256609;-0.8380196729508821;-0.825986727622054;1.182;0.07544818819501242
52:07.3;0.10899932620530385;-0.83801102895156;-0.8259926184906927;1.182;0.07544834433535448
52:07.3;0.10899981041952747;-0.8380037698789521;-0.8259975736822008;1.182;0.07544847856603115
52:07.3;0.10900018903982714;-0.8379981412600441;-0.8260014234141696;1.182;0.07544858551845063
52:07.3;0.1090004575145754;-0.8379941835746438;-0.8260041356543436;1.182;0.07544866276576301
52:07.3;0.1090006207774623;-0.8379917834950795;-0.8260057815223173;1.182;0.0754487100193341
52:07.3;0.109000690098357;-0.8379907244849691;-0.8260065012869574;1.182;0.07544872839853393
52:07.3;0.1090006803178853;-0.8379907326822147;-0.8260064737472488;1.182;0.07544871985115172
52:07.3;0.10900060763868771;-0.8379915154859708;-0.8260058907599157;1.182;0.07544868677255734
52:07.3;0.1090004880542217;-0.8379927915774321;-0.8260049377716775;1.182;0.07544863184333253
52:07.3;0.10900033641720669;-0.8379943121666906;-0.8260037804700013;1.182;0.07544855807840159
52:07.3;0.10900016608622433;-0.837995874047411;-0.8260025571013402;1.182;0.07544846905626654
52:07.3;0.10899998904084236;-0.8379973255625436;-0.8260013756181165;1.182;0.0754483692752212
52:07.3;0.10899981632220346;-0.8379985668645192;-0.8260003145894174;1.182;0.07544826456485992
52:07.3;0.10899965863614962;-0.837999545933071;-0.8259994267213703;1.182;0.07544816246648106
52:07.3;0.10899952694848955;-0.8380002517407705;-0.8259987438537161;1.182;0.07544807248610087
52:07.3;0.10899943290613145;-0.8380007057796889;-0.8259982824014795;1.182;0.07544800612006727
52:07.3;0.10899938893315586;-0.8380009529283996;-0.8259980483698575;1.182;0.07544797655733401
52:07.3;0.10899940787762458;-0.838001052386976;-0.8259980412657921;1.182;0.0754479979761387
52:07.3;0.10899950212345963;-0.8380010691709999;-0.8259982564453058;1.182;0.07544808437788676
52:07.3;0.10899968213253247;-0.8380010664575288;-0.8259986856602161;1.182;0.0754482479388833
52:07.3;0.10899995444521106;-0.838001098931324;-0.8259993157936419;1.182;0.07544849691183024
52:07.3;0.10900031924213273;-0.8380012071949088;-0.8260001259952118;1.182;0.07544883317318304
52:07.3;0.10900076765356477;-0.8380014132800914;-0.8260010836391383;1.182;0.07544924958737177
52:07.3;0.10900127909110488;-0.8380017173236792;-0.8260021397252361;1.182;0.07544972744032481
52:07.3;0.10900181896305913;-0.8380020955328322;-0.8260032245158583;1.182;0.07545023427613261
52:07.3;0.10900233721050591;-0.8380024996479839;-0.8260042443383279;1.182;0.07545072254301878
52:07.3;0.10900276815427591;-0.8380028581923851;-0.8260050805664071;1.182;0.07545112950666544
52:07.3;0.1090030321603347;-0.8380030798540525;-0.8260055918056269;1.182;0.07545137890708653
52:07.3;0.10900303959771432;-0.838003059354891;-0.8260056202233533;1.182;0.07545138480533357
52:07.3;0.10900269746479554;-0.8380026861011555;-0.8260050027625151;1.182;0.0754510579742853
52:07.3;0.10900191888401126;-0.8380018557610702;-0.8260035876380368;1.182;0.07545031502154784
52:07.3;0.10900063540381186;-0.8380004846672838;-0.8260012560242596;1.182;0.07544909018418539
52:07.3;0.10899881169872638;-0.8379985265907248;-0.8259979481986043;1.182;0.07544734940336315
52:07.3;0.10899646183181382;-0.8379959909867212;-0.8259936926266537;1.182;0.07544510588001563
52:07.3;0.10899366575908322;-0.8379929612965571;-0.8259886355932151;1.182;0.07544243585004687
52:07.3;0.108990584247127;-0.8379896113368018;-0.825983068064563;1.182;0.0754394928326694
52:07.3;0.1089874698932458;-0.8379862172809538;-0.8259774455982761;1.182;0.07543651814633283
52:07.3;0.1089846715470254;-0.8379831623064006;-0.8259723964156632;1.182;0.07543384511570227
52:07.3;0.10898262921227307;-0.8379809307322896;-0.8259687123584797;1.182;0.07543189418506312
52:07.3;0.10898185654617114;-0.8379800885084446;-0.8259673175237229;1.182;0.07543115619123779
52:07.3;0.10898290845849888;-0.8379812473320988;-0.8259692100692556;1.182;0.07543216141717977
52:07.3;0.10898633213058045;-0.8379850105598728;-0.8259753741573611;1.182;0.07543543282334343
52:07.3;0.10899260108451471;-0.8379919005173425;-0.825986661366658;1.182;0.07544142309719831
52:07.3;0.10900203376759672;-0.8380022688204056;-0.8260036442077442;1.182;0.07545043690064883
52:07.3;0.10901470045434512;-0.8380161938893389;-0.8260264485878447;1.182;0.07546254191478265
52:07.3;0.1090303250234934;-0.8380333728636782;-0.8260545770303144;1.182;0.07547747490633099
52:07.3;0.10904819117468217;-0.8380530184322411;-0.8260867398691325;1.182;0.07549455192233528
52:07.3;0.10906706565535128;-0.838073774398131;-0.826120717049331;1.182;0.07551259462530494
52:07.3;0.10908515372643708;-0.8380936667225249;-0.8261532779488594;1.182;0.075529887383804
52:07.3;0.10910010397460071;-0.8381101088587664;-0.8261801900194423;1.182;0.07554418161239142
52:07.3;0.10910908018133957;-0.8381199808522658;-0.8261963481281387;1.182;0.07555276450805394
52:07.3;0.10910891675568923;-0.8381198003589991;-0.8261960543140635;1.182;0.07555260820483135
52:07.3;0.1090963707154674;-0.8381059998628052;-0.8261734713348667;1.182;0.07554061191630834
52:07.3;0.10906847693498611;-0.8380753174792072;-0.8261232620962576;1.182;0.07551394339889736
52:07.3;0.10902300410406156;-0.8380252985341661;-0.8260414103657153;1.182;0.07547047679184041
52:07.3;0.10895899656228522;-0.8379548915980921;-0.8259261960655094;1.182;0.07540931165009473
52:07.3;0.10887737223859811;-0.8378651062287714;-0.8257792715587615;1.182;0.07533134331979625
52:07.3;0.10878153014286811;-0.8377596812156055;-0.8256067551320493;1.182;0.07523983879404564
52:07.3;0.1086779035515666;-0.8376456930827206;-0.8254202267296633;1.182;0.0751409564633706
52:07.3;0.10857637910067136;-0.8375340170866957;-0.8252374823224639;1.182;0.0750441348229221
52:07.3;0.10849048990812402;-0.8374395396447119;-0.8250828815309043;1.182;0.07496226652503686
52:07.3;0.10843728555724437;-0.837381015308764;-0.8249871135982223;1.182;0.07491157240061322
52:07.3;0.1084367865982432;-0.8373804667096879;-0.8249862154962595;1.182;0.07491109707817827
52:07.3;0.10851094960757408;-0.8374620461153989;-0.8251197090351917;1.182;0.07498176496968201
52:07.3;0.10868210402575759;-0.8376503159465127;-0.8254277871741938;1.182;0.07514496370642408
52:07.3;0.10897087661093617;-0.8379679656706168;-0.8259475780401082;1.182;0.07542066286708776
52:07.3;0.109393694963885;-0.8384330656766101;-0.8267086512745203;1.182;0.07582513138678998
52:07.3;0.10996005820329477;-0.8390560650158072;-0.8277281052512709;1.182;0.0763683915697745
52:07.3;0.11066987847693864;-0.8398368670638781;-0.8290057817986911;1.182;0.0770516472784849
52:07.3;0.11151132718777584;-0.8407624603704152;-0.8305203894090265;1.182;0.07786505524714098
52:07.3;0.11245975767243435;-0.8418057336070964;-0.8322275640625666;1.182;0.07878637497226526
52:07.3;0.1134784123154421;-0.842926253395899;-0.8340611420365734;1.182;0.079781228543531
52:07.3;0.11452158783195787;-0.8440737461231177;-0.8359388574178757;1.203;0.08080575015889083
52:07.3;0.11554024250907842;-0.845194265907968;-0.8377724351410316;1.203;0.08181178786988037
52:07.3;0.11648867305701104;-0.8462375391418722;-0.839479609323996;1.203;0.08275345534408421
52:07.3;0.11733012185055446;-0.8471631324565748;-0.8409942163055484;1.203;0.08359293585640162
52:07.3;0.11803994221220825;-0.8479439345371838;-0.8422718921561861;1.203;0.08430404907951396
52:07.3;0.11860630552704367;-0.8485669339489251;-0.8432913454839582;1.203;0.08487338553025686
52:07.3;0.1190291239221601;-0.8490320340833807;-0.8440524182535367;1.203;0.08529954844833047
52:07.3;0.11931789649417207;-0.8493496840057074;-0.8445722089880049;1.203;0.08559115848162331
52:07.3;0.11948905082223048;-0.8495379541138951;-0.8448802874803227;1.203;0.08576420671369063
52:07.3;0.11956321364565603;-0.8496195338769895;-0.8450137819965771;1.203;0.08583923938014774
52:07.3;0.11956271439176848;-0.8496189857065645;-0.8450128856052849;1.203;0.0858387345049777
52:07.3;0.11950950963262266;-0.8495604618484125;-0.8449171201752345;1.203;0.0857849034634188
52:07.3;0.11942361992617914;-0.8494659848962309;-0.8447625226633367;1.203;0.08569803476996096
52:07.3;0.11932209487886758;-0.8493543093489861;-0.8445797822013227;1.203;0.08559540378350897
52:07.3;0.11921846764976973;-0.8492403215555806;-0.844393258180825;1.203;0.08549070502866583
52:07.3;0.11912262493566188;-0.8491348966916731;-0.8442207462113501;1.203;0.08539392281799325
52:07.3;0.1190410000934868;-0.8490451111928099;-0.8440738257374122;1.203;0.08531153686611352
52:07.3;0.11897699223105956;-0.8489747037597873;-0.8439586144149813;1.203;0.08524695718907985
52:07.3;0.11893151938777118;-0.8489246838721356;-0.8438767638709386;1.203;0.0852010913083809
52:07.3;0.11890362601796647;-0.8488940000452764;-0.8438265532320877;1.203;0.08517296193282797
52:07.3;0.11889108091885048;-0.8488801975883519;-0.8438039654812922;1.203;0.08516031127354103
52:07.3;0.11889091904969555;-0.8488800146541314;-0.8438036628448482;1.203;0.08516014643313617
52:07.3;0.1188998974728848;-0.8488898838331841;-0.8438198076228337;1.203;0.08516919726676646
52:07.3;0.11891485058176697;-0.8489063229706972;-0.8438467017522432;1.203;0.08518427277418253
52:07.3;0.1189329420617548;-0.8489262123919626;-0.8438792404948159;1.203;0.08520251395724511
52:07.3;0.11895182030481675;-0.8489469659215576;-0.8439131923293248;1.203;0.08522155000887562
52:07.3;0.11896969026512781;-0.8489666099736038;-0.8439453284051186;1.203;0.08523957076922924
52:07.3;0.11898531826588031;-0.8489837888632425;-0.843973431249794;1.203;0.08525533184949317
52:07.3;0.11899798747117522;-0.8489977158127049;-0.8439962145884525;1.203;0.0852681100632229
52:07.3;0.11900742113424721;-0.8490080884623459;-0.8440131850470157;1.203;0.08527762627598716
52:07.3;0.11901368885369486;-0.8490149856307581;-0.8440244731317907;1.203;0.08528395097324228
52:07.3;0.1190171084102927;-0.8490187591460626;-0.8440306560980372;1.203;0.08528740522847879
52:07.3;0.11901815274961099;-0.8490199312673808;-0.844032589918581;1.203;0.08528846675542522
52:07.3;0.11901736866606477;-0.8490191049120442;-0.8440312621627118;1.203;0.08528768770252576
52:07.3;0.11901531098623025;-0.8490168908797598;-0.8440276726529198;1.203;0.085285628060865
52:07.3;0.11901249370841538;-0.8490138537010297;-0.8440227445789819;1.203;0.08528280618444178
52:07.3;0.11900935771746517;-0.8490104757275043;-0.8440172654687009;1.203;0.08527966605776234
52:07.3;0.11900625337923625;-0.8490071376483458;-0.8440118550770821;1.203;0.0852765596142354
52:07.3;0.11900343549915003;-0.8490041127258613;-0.8440069558056402;1.203;0.08527374158088093
52:07.3;0.11900106774098178;-0.8490015716249253;-0.8440028405839495;1.203;0.08527137393548753
52:07.3;0.11899923356340354;-0.8489995946716193;-0.8439996330838909;1.203;0.08526953702631418
52:07.3;0.11899795095338829;-0.8489981886165665;-0.8439973355273729;1.203;0.08526824462925774
52:07.3;0.11899718863029699;-0.8489973053996651;-0.8439958600287828;1.203;0.08526746061346253
52:07.3;0.11899688188422855;-0.8489968609275201;-0.8439950602391716;1.203;0.08526711537375863
52:07.3;0.11899694673207527;-0.8489967524101365;-0.8439947609102849;1.203;0.08526712070111485
52:07.3;0.11899729157473583;-0.848996873304101;-0.8439947837824097;1.203;0.08526738225020032
52:07.3;0.11899782598414307;-0.8489971253381307;-0.8439949688600978;1.203;0.0852678091915405
52:07.3;0.11899846661787943;-0.8489974274328972;-0.8439951906423055;1.203;0.0852683209843371
52:07.3;0.11899914054238309;-0.8489977215644942;-0.8439953692118903;1.203;0.08526885146667317
52:07.3;0.11899978644215031;-0.8489979757658563;-0.843995476278461;1.203;0.08526935063402495
52:07.3;0.11900035430714735;-0.8489981845279464;-0.8439955363392398;1.203;0.08526978457312959
52:07.3;0.11900080423279509;-0.8489983668737342;-0.8439956231171333;1.203;0.08527013404906576
52:07.3;0.11900110494697455;-0.848998562357252;-0.8439958514020732;1.203;0.08527039222377736
52:07.3;0.11900123260726567;-0.848998825212303;-0.8439963644106242;1.203;0.085270561929406
52:07.3;0.11900117029906716;-0.8489992168639127;-0.8439973168361208;1.203;0.085270652843843
52:07.3;0.1190009085202559;-0.8489997970397062;-0.8439988539252866;1.203;0.08527067883103409
52:07.3;0.11900044676863897;-0.8490006137916375;-0.8440010872128958;1.203;0.08527065562445509
52:07.3;0.1189997961623473;-0.8490016928671388;-0.8440040679822021;1.203;0.085270598955845
52:07.3;0.1189989828288046;-0.8490030270502497;-0.8440077600835841;1.203;0.08527052316719554
52:07.3;0.11899805160481843;-0.8490045663154091;-0.8440120144014701;1.203;0.08527044029433692
52:07.3;0.11899706941096687;-0.8490062098767921;-0.8440165479488626;1.203;0.08527035957554796
52:07.3;0.11899612751316248;-0.8490078014417414;-0.8440209312027401;1.203;0.08527028731738528
52:07.3;0.11899534178168979;-0.8490091291461855;-0.8440245877617584;1.203;0.08527022704038341
52:07.3;0.11899485002458503;-0.8490099317141341;-0.844026810581081;1.203;0.08527017982696619
52:07.3;0.11899480553102836;-0.8490099122898813;-0.8440267987791689;1.203;0.08527014480026356
52:07.3;0.11899536613410312;-0.849008761088971;-0.844023718182061;1.203;0.08527011967312359
52:07.3;0.11899667841016903;-0.8490061874581296;-0.8440167872555271;1.203;0.08527010131930858
52:07.3;0.11899885708650015;-0.8490019610958788;-0.8440053877973539;1.203;0.08527008633179202
52:07.3;0.11900196033074692;-0.8489959610583052;-0.843989196706122;1.203;0.08527007154455671
52:07.3;0.11900596233030254;-0.8489882297845521;-0.8439683313804927;1.203;0.08527005450271787
52:07.3;0.1190107254016314;-0.8489790277906164;-0.8439434970145405;1.203;0.08527003386961854
52:07.3;0.11901597474000712;-0.8489688830119693;-0.843916119547701;1.203;0.0852700097574853
52:07.3;0.11902127974387625;-0.8489586271906397;-0.8438884437480714;1.203;0.0852699839598225
52:07.3;0.11902604651433654;-0.8489494104166724;-0.8438635724373212;1.203;0.08526996005013292
52:07.3;0.1190295265055708;-0.8489426842074197;-0.8438454209054099;1.203;0.0852699432965372
52:07.3;0.1190308462376385;-0.8489401436312068;-0.8438385608960228;1.203;0.08526994033234624
52:07.3;0.11902906232604385;-0.8489436202523302;-0.8438479319718059;1.203;0.08526995852827965
52:07.3;0.11902324469255825;-0.8489549203658683;-0.843878405329959;1.203;0.08527000504306194
52:07.3;0.11901258859157597;-0.8489756073127113;-0.8439341967976359;1.203;0.08527008559212332
52:07.3;0.11899655296612877;-0.8490067327148019;-0.8440181420549262;1.203;0.08527020306594656
52:07.3;0.11897501867226556;-0.8490485291811002;-0.8441308679306954;1.203;0.08527035623126489
52:07.3;0.11894845542564174;-0.8491000861234973;-0.8442699181306433;1.203;0.0852705388218435
52:07.3;0.11891808121043917;-0.8491590402443578;-0.844428918519087;1.203;0.08527073931791207
52:07.3;0.1188859927800637;-0.8492213221751556;-0.8445968938250827;1.203;0.08527094157136347
52:07.3;0.11885524135970003;-0.8492810095167976;-0.8447578712996324;1.203;0.08527112613218253
52:07.3;0.11882982446598363;-0.8493303427331859;-0.8448909235748039;1.203;0.08527127170901626
52:07.3;0.11881456373448643;-0.849359962338467;-0.8449708083395813;1.203;0.08527135578973845
52:07.3;0.11881484069198445;-0.8493594218468794;-0.8449693517358817;1.203;0.08527135329976153
52:07.3;0.11883616839765218;-0.8493180193329375;-0.8448576910358596;1.203;0.08527123259653524
52:07.3;0.11888358753153626;-0.8492259697691928;-0.8446094363864624;1.203;0.08527094935134628
52:07.3;0.11896089127321662;-0.8490759097082478;-0.8442047288779498;1.203;0.08527044098337111
52:07.3;0.11906970419132482;-0.8488646853494329;-0.8436350628945304;1.203;0.0852696268562252
52:07.3;0.11920846575251813;-0.8485953257491066;-0.8429086077942963;1.203;0.08526842136303081
52:07.3;0.11937139759040717;-0.8482790475488803;-0.8420556145946086;1.203;0.0852667666391203
52:07.3;0.11954756309293225;-0.8479370804911398;-0.8411333393285806;1.203;0.08526468702914555
52:07.3;0.11972015494604846;-0.847602050425788;-0.8402297729707539;1.203;0.08526235722345589
52:07.3;0.11986616682600773;-0.8473186166125619;-0.8394653602220609;1.203;0.08526016050843163
52:07.3;0.11995661442712954;-0.8471430426632168;-0.8389918423549002;1.203;0.08525869612545263
52:07.3;0.11995746280819138;-0.8471413963927472;-0.8389874022681132;1.203;0.08525868221707888
52:07.3;0.11983138579012438;-0.8473861345113113;-0.8396474535066145;1.203;0.0852607032412596
52:07.3;0.11954042333013978;-0.8479509441853537;-0.841170728110175;1.203;0.0852647786279457
52:07.3;0.11904950994909921;-0.848903893731186;-0.843740804243624;1.203;0.08526978937001779
52:07.3;0.11833071873749941;-0.850299194245116;-0.8475038875648965;1.203;0.0852728874436386
52:07.3;0.1173679012061427;-0.8521681928303236;-0.852544520232685;1.203;0.08526910919639764
52:07.3;0.11616120671597475;-0.8545105995830293;-0.8588619203557819;1.203;0.08525147795974042
52:07.3;0.11473074389269841;-0.8572873801387849;-0.8663508134076569;1.203;0.08521185655793738
52:07.3;0.11311841207249557;-0.8604172005123465;-0.8747918440693402;1.203;0.08514263939730396
52:07.3;0.11138669920711189;-0.863778760576104;-0.8838578695522762;1.203;0.08503902818457616
52:07.3;0.10961330088261846;-0.867221239494956;-0.893142130622141;1.288;0.0849011823046513
52:07.3;0.10788158800872841;-0.870582799624656;-0.902208156054642;1.288;0.08473525912121842
52:07.3;0.10626925617150589;-0.87371262012263;-0.9106491866189249;1.288;0.08455267531797375
52:07.3;0.10483879332276694;-0.8764894008464438;-0.9181380795335112;1.288;0.08436779181197097
52:07.3;0.10363209879900095;-0.8788318077889795;-0.9244554794903459;1.288;0.08419495357154785
