Time;AccX;AccY;AccZ;Acc-old;Acc-trns
15:57.4;-0.061238416488078276;-0.13353100225710993;-0.8413489657024342;0.853;0.006879901588384569
15:57.5;-0.05535754326923944;-0.13398716173877823;-0.8457217467270574;0.8540000000000001;0.006272887427336678
15:57.5;-0.04950586103725976;-0.13462393068249495;-0.8490744599827763;0.8540000000000001;0.005658804141835848
15:57.5;-0.04373719678251996;-0.13568437163054203;-0.8505660786547692;0.858;0.005047645320742334
15:57.5;-0.038128148716731806;-0.13746461217444667;-0.8494726575369418;0.877;0.004452316554982237
15:57.5;-0.03277917192493099;-0.14029763408652093;-0.8452564003551667;0.888;0.003887199171061911
15:57.5;-0.027809067347729026;-0.1445111695476181;-0.8376359644396298;0.893;0.003366225112028786
15:57.5;-0.023344559707998373;-0.15036839349199066;-0.8266448061481217;0.889;0.0029017579871636746
15:57.5;-0.019504573557009117;-0.15800813507671982;-0.8126615968540936;0.872;0.002504526573054565
15:57.5;-0.016379851640333763;-0.16740251918054366;-0.796399563615227;0.845;0.002183750243794669
15:57.5;-0.014013515562042667;-0.1783440516318312;-0.778848544393267;0.815;0.00194651942238728
15:57.6;-0.012391256978622754;-0.1904655493440396;-0.7611731142284222;0.728;0.0017964504270654128
15:57.6;-0.011445973687028104;-0.20328730362456665;-0.7445824979970646;0.728;0.0017325102880228003
15:57.6;-0.011073281679560369;-0.21627831398001002;-0.7301994392320172;0.728;0.0017487624442223053
15:57.6;-0.011149159744339788;-0.22891780279185708;-0.7189554655106619;0.7170000000000001;0.001834947725279769
15:57.6;-0.011542807500824932;-0.24074985715501387;-0.711527118621229;0.7240000000000001;0.0019772835270793414
15:57.6;-0.01212303323937523;-0.2514284681501604;-0.7083148296860298;0.742;0.0021589972038186835
15:57.6;-0.012760534063263848;-0.26074779884279703;-0.7094610073851528;0.762;0.0023605762500511123
15:57.6;-0.01332987163954384;-0.2686504509560494;-0.714900614663999;0.7759999999999999;0.0025601134529678366
15:57.6;-0.013713858048519623;-0.27521102522689045;-0.7244325339610129;0.7879999999999999;0.0027341568435542652
15:57.6;-0.01381064901487702;-0.2806004925374225;-0.7377972936449994;0.809;0.002859167345034124
15:57.7;-0.013542453646895413;-0.2850424250565031;-0.7547476332880059;0.863;0.0029134570613115153
15:57.7;-0.012865083854784857;-0.28877179935312697;-0.7750992855542915;0.863;0.0028795507486437917
15:57.7;-0.011777784220402593;-0.2920027043843593;-0.7987496469097092;0.863;0.0027470157298267227
15:57.7;-0.010332092550709658;-0.29490718299771035;-0.8256572522491812;0.872;0.002515784507660268
15:57.7;-0.008638148033748298;-0.2976055021895114;-0.8557868893478282;0.8809999999999999;0.0022000230319148576
15:57.7;-0.006867293998444348;-0.3001665247900448;-0.8890366126765945;0.898;0.0018325994181592475
15:57.7;-0.005249756471126962;-0.30261424646665874;-0.9251678816675217;0.927;0.001469768971640835
15:57.7;-0.004065074527054493;-0.3049344530741454;-0.9637591809639104;0.9690000000000001;0.0011946578368505045
15:57.7;-0.003622324094890884;-0.3070755648465852;-1.0041982929629993;1.023;0.0011169970930257798
15:57.7;-0.004228819550019891;-0.3089404467301234;-1.0457193015947106;1.084;0.0013661835379805143
15:57.8;-0.006149450151244288;-0.3103705096339022;-1.0874779796539165;1.228;0.0020755691472251385
15:57.8;-0.009561938599897596;-0.31112789900062837;-1.1286436678573921;1.228;0.0033576989607086776
15:57.8;-0.014514715034400534;-0.31088370375874996;-1.1684734669641614;1.228;0.005272606081694127
15:57.8;-0.020893783289022014;-0.3092190363911239;-1.2063399103458003;1.258;0.007793867253094904
15:57.8;-0.028403320475308844;-0.30564309959442687;-1.241706769803479;1.272;0.010779602791667783
15:57.8;-0.03656236636428852;-0.29963056772825;-1.2740682237060679;1.28;0.01395767550573583
15:57.8;-0.044718155425726665;-0.29068016718086326;-1.3028720041711728;1.2919999999999998;0.016935617429471743
15:57.8;-0.05207736523524694;-0.27839416561487634;-1.3274459291008944;1.307;0.019245357065603114
15:57.8;-0.05776025744352261;-0.26257109935470263;-1.3469470901513902;1.31;0.02042803433666725
15:57.8;-0.06088545515877978;-0.24329292467054464;-1.3603529965236532;1.305;0.020150909557114148
15:57.9;-0.06068745284439592;-0.22098139905994202;-1.36651158437451;1.3980000000000001;0.018326011143753193
15:57.9;-0.05665219019205441;-0.1964056476817506;-1.364256920945103;1.3980000000000001;0.015179827696871602
15:57.9;-0.048638373642826575;-0.1706391236957485;-1.3525781332480953;1.3980000000000001;0.011225870265223474
15:57.9;-0.03694877538722883;-0.14497312105112317;-1.330813038711684;1.421;0.007128605557904093
15:57.9;-0.02232864830433861;-0.12079199617685678;-1.298834739358689;1.421;0.0035031157506835364
15:57.9;-0.005887193901674847;-0.09941836158361471;-1.2571999069346393;1.391;0.0007358330358048584
15:57.9;0.01104503988369771;-0.08195079377925478;-1.2072250665129713;1.327;0.0010927195103576193
15:57.9;0.027096580799145734;-0.06912685869545676;-1.1509614216202821;1.232;0.0021558675791281115
15:57.9;0.04103932656156267;-0.06123968340155083;-1.0910561326649162;1.121;0.0027420808585150976
15:57.9;0.05194326071327311;-0.05812268402741864;-1.0305119895223767;1.008;0.0031111999198979953
15:58.0;0.05927682451008925;-0.0592025312739684;-0.9723801183850365;0.8059999999999999;0.0034124105552021805
15:58.0;0.06294261897544105;-0.06360606465268681;-0.91943951501507;0.8059999999999999;0.003681005788868102
15:58.0;0.06325302724706965;-0.07029444928136634;-0.873926404333565;0.8059999999999999;0.0038857710584185197
15:58.0;0.06085864488937458;-0.07819584104019536;-0.8373612701291752;0.785;0.003984912621316112
15:58.0;0.05664285364032867;-0.08631861974573805;-0.8104849378690838;0.778;0.003962730707900792
15:58.0;0.0515955280754483;-0.09383958566320641;-0.7932852938862817;0.7859999999999999;0.003840851768761238
15:58.0;0.04668181382706423;-0.10016631661539346;-0.7850884310374442;0.7959999999999999;0.003671030593724117
15:58.0;0.04272399162449241;-0.10497292940388753;-0.7846910216266636;0.807;0.0035192313814329562
15:58.0;0.04031218005406647;-0.1082086667308854;-0.7905137973092626;0.818;0.0034483217820132166
15:58.0;0.03975468943430658;-0.11008013637574394;-0.8007594574172727;0.8270000000000001;0.003504284846393857
15:58.1;0.041072564268272715;-0.1110104542013977;-0.8135628763503995;0.8640000000000001;0.0037094269296217863
15:58.1;0.044033963197137524;-0.1115815662901108;-0.8271248358122224;0.8640000000000001;0.004063977454158825
15:58.1;0.048214417262270985;-0.11246835995366962;-0.8398220643847112;0.8640000000000001;0.004554016132878759
15:58.1;0.053065947814488465;-0.11437287802563609;-0.8502893122865305;0.877;0.005160665324754393
15:58.1;0.057984167024252034;-0.11796359581998579;-0.8574746300308917;0.8809999999999999;0.005865144341589877
15:58.1;0.06237066233534326;-0.12382059307880557;-0.8606728198019481;0.879;0.00664678029912629
15:58.1;0.06569144211837707;-0.13238536302104256;-0.8595420450663278;0.879;0.007475080810311127
15:58.1;0.06753072809003276;-0.14391522766904727;-0.854107232599692;0.887;0.008300812053482666
15:58.1;0.06763505469713248;-0.1584463138168701;-0.8447517558473238;0.898;0.009052803396127285
15:58.1;0.06593913665212553;-0.17577348881057134;-0.8321942853982022;0.893;0.009645424782125694
15:58.2;0.06256688790018038;-0.19545693956586496;-0.8174432495820501;0.8240000000000001;0.00999662175080221
15:58.2;0.057808532181315986;-0.21685932913224606;-0.8017245039402213;0.8240000000000001;0.01005067453795366
15:58.2;0.052082016215960036;-0.23920665227786173;-0.7863891217611322;0.8240000000000001;0.009797122508749857
15:58.2;0.045887733900777876;-0.26166094841571513;-0.7728151608654109;0.8109999999999999;0.009279213254566474
15:58.2;0.039760413123496895;-0.28339768076272687;-0.7623127154296936;0.8029999999999999;0.008589746435643707
15:58.2;0.034217359216763076;-0.3036826027821282;-0.7560360817186608;0.809;0.007856134763659683
15:58.2;0.029702780554555077;-0.321936689209859;-0.7549083908320728;0.8109999999999999;0.007218747193339494
15:58.2;0.026532553547441624;-0.3377750294938433;-0.7595660072152215;0.809;0.006807256425228202
15:58.2;0.02484856581811874;-0.3510142359085357;-0.7703273962968322;0.82;0.006718949881026706
15:58.2;0.024593446178854846;-0.3616549788509725;-0.7871879451671304;0.847;0.007001519005441238
15:58.3;0.025513489546058248;-0.369850457315439;-0.8098406149248247;0.9159999999999999;0.007641798393235599
15:58.3;0.027190763535109172;-0.3758664396929457;-0.8377190109769566;0.9159999999999999;0.008561568279668398
15:58.3;0.029098790680577077;-0.3800322731446487;-0.8700544864324657;0.941;0.009621479761347184
15:58.3;0.030673794550660254;-0.3826826986279554;-0.9059384109055234;0.98;0.010634204457935689
15:58.3;0.03139371018327198;-0.38409634620499084;-0.9443854698003958;1.023;0.011387597725762238
15:58.3;0.030855297602180518;-0.38444112350473225;-0.9843965514535616;1.063;0.01167695646313158
15:58.3;0.02883615575320989;-0.3837349169317318;-1.0250183652871432;1.1;0.011342279048383079
15:58.3;0.02532858885562213;-0.3818251269489016;-1.0653960554450823;1.137;0.01030354290133464
15:58.3;0.020538430835905213;-0.378388026903029;-1.1048160407108798;1.179;0.008586073794310796
15:58.3;0.014850807317745282;-0.37295006818940707;-1.1427365276910737;1.2229999999999999;0.006329171504621197
15:58.4;0.00877222781255012;-0.3649350071520868;-1.1788006817243613;1.311;0.003773686393801025
15:58.4;0.0028621458493519507;-0.35373885638952013;-1.2128221948735765;1.311;0.0012279244988867895
15:58.4;-0.0023338340449354563;-0.3388277068701063;-1.2447294475658566;1.311;0.0009842917647785664
15:58.4;-0.006342108792716622;-0.31984563735815863;-1.2744611046574983;1.294;0.002585239035022035
15:58.4;-0.008809637576370932;-0.2967163267047215;-1.3018242387801375;1.255;0.003402920784862885
15:58.4;-0.009544416912426178;-0.2697227219057349;-1.326346260334873;1.236;0.0034144743339793756
15:58.4;-0.008546923902178889;-0.23955187142164178;-1.3471642053598165;1.255;0.002758226585546328
15:58.4;-0.006027524693514604;-0.20729478644733804;-1.3629942132548993;1.3030000000000002;0.0017030264369838329
15:58.4;-0.0024035850377130755;-0.17439287473750162;-1.372207819964001;1.364;0.0005751857507410495
15:58.4;0.0017280074222110337;-0.14252625514461803;-1.3730137032838763;1.412;0.00033815463886035575
15:58.5;0.005644669906078928;-0.1134503999220583;-1.363714888353989;1.446;0.0008733094568203071
15:58.5;0.008576688940269321;-0.08880530469560095;-1.3429932929383093;1.446;0.0010228981939444154
15:58.5;0.009803050503045944;-0.06993462359382274;-1.3101699048569002;1.446;0.0008982166496947797
15:58.5;0.00875250461642841;-0.05774753719619586;-1.265396243426364;1.396;0.0006395762916881628
15:58.5;0.005097633956323974;-0.05263627524919734;-1.2097452562929663;1.3130000000000002;0.00032459940854443164
15:58.5;-0.001170825802609337;-0.05444610415927682;-1.1451854969552255;1.203;7.300202947993927e-05
15:58.5;-0.009704711821421002;-0.06249224603927135;-1.0744417035803255;1.088;0.0006516158421960896
15:58.5;-0.019807543769440723;-0.07562182949985162;-1.000764040315258;0.988;0.0014990271405120983
15:58.5;-0.03049598884987795;-0.0923194467271628;-0.9276402131883161;0.895;0.002611653041111233
15:58.5;-0.04060574914262541;-0.11085162643463667;-0.8584862474925247;0.8140000000000001;0.0038642297451762933
15:58.6;-0.04892475335748481;-0.1294405817620255;-0.796347836070167;0.674;0.005043150228724657
15:58.6;-0.054332448327686904;-0.1464492449751225;-0.7436440121328636;0.674;0.00591713527397026
15:58.6;-0.05592571803555358;-0.16054951997189887;-0.7019875018918638;0.674;0.006303038505050657
15:58.6;-0.053118361287920024;-0.17084533924935671;-0.6721064642191508;0.6659999999999999;0.00609938259888662
15:58.6;-0.045708128225155;-0.17693592741004652;-0.6538671820621483;0.672;0.005288092024606187
15:58.6;-0.033908720955532615;-0.1789195264029593;-0.6463761131465703;0.68;0.003921520115109158
15:58.6;-0.018343822134219756;-0.17734401922701712;-0.6481347223676778;0.6890000000000001;0.0021084905845139587
15:58.6;3.3838542820788654e-07;-0.17311354378802588;-0.6572236634513479;0.6990000000000001;3.849957112647211e-08
15:58.6;0.019865296356336333;-0.16736417003534806;-0.6714964640981641;0.7120000000000001;0.0022325503732192028
15:58.6;0.03984969192030619;-0.1613245699860074;-0.6887672557658429;0.725;0.0044279017597709065
15:58.7;0.05856584467558927;-0.1561776265778283;-0.7069819856640026;0.789;0.006466534185041345
15:58.7;0.07480187411504836;-0.15293799979217323;-0.7243647377523189;0.789;0.008286768099453225
15:58.7;0.08766010286496638;-0.15235939640837193;-0.7395300459939105;0.789;0.009877045236902906
15:58.7;0.09664574771354245;-0.15488168117629916;-0.751553951502565;0.807;0.011249752478613408
15:58.7;0.1016944546088324;-0.16062179505297453;-0.7600031381327783;0.821;0.012414154102461075
15:58.7;0.10314176397693924;-0.16940619106944263;-0.7649259759566697;0.8270000000000001;0.013365439421014919
15:58.7;0.10164559826366525;-0.18083764337422772;-0.7668077872756374;0.82;0.014094962665215401
15:58.7;0.09807754689696953;-0.19438545538902471;-0.7664908013836788;0.805;0.014613031094707333
15:58.7;0.09340143297176297;-0.20948533637102187;-0.7650625141365086;0.79;0.014969389577784206
15:58.7;0.08855664701349017;-0.2256344598416754;-0.7637229900872614;0.777;0.015260278393191922
15:58.8;0.08435956374315598;-0.24246852408410502;-0.7636476879212933;0.767;0.015620061348547563
15:58.8;0.08143055041105576;-0.25980976712290116;-0.765865377116521;0.767;0.016202994349045263
15:58.8;0.08014781766995648;-0.2776778004279522;-0.771170187767837;0.78;0.017162600528560334
15:58.8;0.08062476013123601;-0.29626052994785096;-0.7800821197930775;0.805;0.01863299015542167
15:58.8;0.08270619948850849;-0.3158496230448113;-0.7928616879232506;0.838;0.020711705404087347
15:58.8;0.08598070923338007;-0.3367502741306284;-0.8095743556026505;0.878;0.023440438077926798
15:58.8;0.08980962437563533;-0.35917717526274706;-0.8301916652498452;0.9279999999999999;0.026779963426234475
15:58.8;0.09337694815380913;-0.3831497012842584;-0.8547090990546173;0.991;0.03057922640725457
15:58.8;0.09576591004643752;-0.40840082804916905;-0.883254759516107;1.058;0.0345448682254005
15:58.8;0.09606498192083027;-0.4343159198956404;-0.9161577168468057;1.107;0.038224437058499636
15:58.9;0.09349800983592035;-0.45991667845342965;-0.9539442308573186;1.121;0.04102083645065084
15:58.9;0.08756177061139539;-0.48389715737513733;-0.997241651397134;1.121;0.04225401820313121
15:58.9;0.07814492991886204;-0.5047042819531213;-1.046595015780003;1.121;0.04127779192755983
15:58.9;0.06560158066116485;-0.5206483301141104;-1.1022282671379482;1.12;0.03764699601810965
15:58.9;0.050761848556085905;-0.5300354583883147;-1.1637980894620128;1.15;0.03131266221355993
15:58.9;0.034876225256058525;-0.5313204754124189;-1.230193076460461;1.212;0.02279603447207233
15:58.9;0.019502917754902503;-0.5232726162054123;-1.2994265190031602;1.308;0.013261093066260408
15:58.9;0.006354188753844803;-0.505136835346473;-1.3686551863605314;1.416;0.004393020178550653
15:58.9;-0.0028827739727583248;-0.47676665694066145;-1.4343315546475688;1.49;0.0019713603631127674
15:58.9;-0.006737433140513074;-0.43870364348984786;-1.492473732297301;1.551;0.0044113590358629
15:59.0;-0.004144307095609179;-0.3921851593826806;-1.539022892617343;1.72;0.002501428910236581
15:59.0;0.0053943882600051;-0.339078619835591;-1.5702461182534941;1.72;0.0028721712901586018
15:59.0;0.021698073899122032;-0.2817581153845234;-1.5831293438963738;1.72;0.009678632869839804
15:59.0;0.04387226955511895;-0.22294014503159734;-1.5757053767468794;1.735;0.015411801179003355
15:59.0;0.07036504892763515;-0.16548157058939017;-1.5472817366610057;1.706;0.018016732375994514
15:59.0;0.09912310004709438;-0.11214283038821275;-1.4985509010208768;1.633;0.016657809389656834
15:59.0;0.12783712222672447;-0.06534064342412926;-1.431571019056087;1.536;0.011957855201341632
15:59.0;0.1542403444923134;-0.026931314539544164;-1.349613684096937;1.4240000000000002;0.00560615384769583
15:59.0;0.1764031649150457;0.0019380763625068812;-1.2568936059502736;1.301;0.00042971031057484945
15:59.0;0.1929648766271868;0.02088971608308309;-1.158212152036988;1.166;0.004668731742588919
15:59.1;0.20326162489062508;0.030283597585013585;-1.0585566031231624;0.924;0.006515938028087201
15:59.1;0.20733931810827647;0.031107772352869448;-0.9627037388656158;0.924;0.0062093084840171555
15:59.1;0.20586778807970077;0.02481443512033635;-0.8748773857878267;0.828;0.0044693048880082974
15:59.1;0.19998633826925402;0.013129035616873733;-0.7984932403878827;0.746;0.002096546016557909
15:59.1;0.19111115203338436;-0.0021430323245872455;-0.7359967940952981;0.685;0.0003014329160260158
15:59.1;0.18073203218811204;-0.019291456887060684;-0.6887845586734137;0.645;0.0024015053643429074
15:59.1;0.1702242056514169;-0.03684209439517046;-0.65719919686371;0.625;0.004121569724638341
15:59.1;0.16069677690464768;-0.05365555940554836;-0.6405915523112214;0.616;0.005523356821048032
15:59.1;0.15289181585981051;-0.06898112324831407;-0.637441521557755;0.624;0.006722872109230393
15:59.1;0.1471412870024288;-0.08246780270741669;-0.6455282304244421;0.645;0.007833109783278933
15:59.2;0.14338450896970112;-0.09413725097974036;-0.662138088426832;0.743;0.008937423055170588
15:59.2;0.141241150175588;-0.10432466542714544;-0.6842943238178316;0.743;0.010083032886385084
15:59.2;0.14012204707479498;-0.11359474459230685;-0.7089858833833533;0.743;0.011285019161795487
15:59.2;0.13935237598916986;-0.12264083906520581;-0.7333764517261113;0.779;0.01253361793843416
15:59.2;0.13828602514409227;-0.13217723986705288;-0.7549868488956331;0.823;0.013799849783005467
15:59.2;0.13639835404904735;-0.14283659051249176;-0.7718519951631807;0.857;0.015037742221217556
15:59.2;0.13334863942602077;-0.15508516241912043;-0.7826488575331636;0.8740000000000001;0.016185487836081494
15:59.2;0.12900637178739086;-0.16916634446095705;-0.7867835899538062;0.88;0.017170400257193734
15:59.2;0.12344165761128342;-0.18507769668372173;-0.7844242737437174;0.877;0.017921190454005913
15:59.2;0.11688780086766584;-0.20258158895540107;-0.7764698320022629;0.863;0.018386274849767004
15:59.3;0.109689387754179;-0.2212443761726975;-0.7644526445617007;0.802;0.0185518592178808
15:59.3;0.10224955247725492;-0.24049385505376888;-0.7503820933716941;0.802;0.018452187614247707
15:59.3;0.09498659776247945;-0.2596819175781921;-0.7365466652449953;0.77;0.01816788237241977
15:59.3;0.08830464493120266;-0.27814245100333196;-0.7252969334885538;0.7440000000000001;0.017814214086400257
15:59.3;0.08257675980071576;-0.2952413832628622;-0.718830031107392;0.7290000000000001;0.01752513135658603
15:59.3;0.07813381941469551;-0.3104200366200389;-0.718994650357817;0.7290000000000001;0.017438714165533893
15:59.3;0.07525036020513398;-0.3232330613077213;-0.7271353408323129;0.746;0.01768640687123929
15:59.3;0.07412128449370799;-0.33338079082329003;-0.7439912765615612;0.773;0.018384480094858303
15:59.3;0.07483030226542708;-0.34073414733138757;-0.7696570989356025;0.807;0.019624131181985877
15:59.3;0.07731871865014601;-0.34534859178930577;-0.8036056935983318;0.846;0.021457807391956057
15:59.4;0.08136625505788468;-0.34746289478171877;-0.844766469889956;0.976;0.023883030263422252
15:59.4;0.08659158134161273;-0.3474794802141187;-0.8916445128381669;0.976;0.0268285113452593
15:59.4;0.09247282248805107;-0.34592584537702087;-0.9424573978296514;0.976;0.03014802399447688
15:59.4;0.09838418772150108;-0.34339933328087746;-0.9952705218810804;1.045;0.033625278745792006
15:59.4;0.103645624901967;-0.3404989626135869;-1.0481295348788073;1.127;0.03698977813587811
15:59.4;0.10758314737664004;-0.33775006821343306;-1.099196765524364;1.204;0.03994065040068823
15:59.4;0.10959548270336963;-0.33553138413220873;-1.1468857831670887;1.261;0.04217411437092223
15:59.4;0.10922038425107111;-0.33401684661281134;-1.1899723479745747;1.298;0.04341191473078811
15:59.4;0.10619309036201956;-0.3331432550717577;-1.2276582512183436;1.3219999999999998;0.043431494255748264
15:59.4;0.10048923211878805;-0.33261168371441563;-1.2595747867081128;1.338;0.04209989250621204
15:59.5;0.09234476697091382;-0.331927033225676;-1.28572527350678;1.351;0.03940969691066683
15:59.5;0.08224746544918525;-0.3304740999561727;-1.3063758414266486;1.351;0.035508153813051134
15:59.5;0.07089780681503284;-0.32761883001185943;-1.3219099895141235;1.351;0.03070460680366655
15:59.5;0.059138978936174584;-0.32281682285505464;-1.3326663135906232;1.307;0.025442008937304153
15:59.5;0.04785649632453374;-0.31571359610129146;-1.3387826892592245;1.2690000000000001;0.020227596095993037
15:59.5;0.03785332291582883;-0.3062264188081447;-1.3400768187096532;1.255;0.015533751730591126
15:59.5;0.029717382172027584;-0.29459725697862627;-1.3359990172299168;1.274;0.011696216184195828
15:59.5;0.023708226172548134;-0.28140333485487884;-1.325688072252291;1.327;0.008844425953580126
15:59.5;0.019692220909033307;-0.2675140967698756;-1.308138669726343;1.392;0.006891204775079632
15:59.5;0.017149374490273588;-0.25399253191639865;-1.282455030060161;1.4380000000000002;0.00558613435285409
15:59.6;0.015260634118219788;-0.24195092012502908;-1.2481352312426113;1.357;0.0046085202519359145
15:59.6;0.01306348155749603;-0.23238417904203482;-1.205320867614518;1.357;0.0036590485295067963
15:59.6;0.009642451745593285;-0.22601497453455077;-1.1549601253371542;1.357;0.002517049050631845
15:59.6;0.0043131386059718745;-0.22318406509900254;-1.0988514750263523;1.248;0.0010577805906748273
15:59.6;-0.003232821603683111;-0.2238040677460825;-1.0395477737193852;1.11;0.0007521321760729314
15:59.6;-0.012841744273584548;-0.22737685330823423;-0.9801189621375281;0.975;0.0028618644552162085
15:59.6;-0.023883068168791745;-0.23306476525496345;-0.9238037733863459;0.8640000000000001;0.005142170492398307
15:59.6;-0.03530961023519916;-0.2398028059944596;-0.873609916211284;0.773;0.007397155344260138
15:59.6;-0.045785980016942826;-0.24643794282108725;-0.8319318489156603;0.7120000000000001;0.009387022091420989
15:59.6;-0.05386909771090006;-0.2518799772868742;-0.8002487938578062;0.6829999999999999;0.010858213457488528
15:59.7;-0.05821728417926251;-0.2552457242231176;-0.7789510920332124;0.775;0.011574989561652548
15:59.7;-0.05779626699338068;-0.255976484089955;-0.7673197537191239;0.775;0.011352100754252888
15:59.7;-0.05204543697230158;-0.2539104381796247;-0.7636535185479818;0.775;0.010091589385352684
15:59.7;-0.040972571498950706;-0.2492975026962013;-0.7655147405708519;0.83;0.007819242956973943
15:59.7;-0.025159616718424694;-0.24275336098433942;-0.7700586876865344;0.883;0.004703196209825734
15:59.7;-0.005679455836645771;-0.2351602390047758;-0.7744070153742053;0.9209999999999999;0.0010342842190647645
15:59.7;0.016059930172920307;-0.22753196481917984;-0.776016020048849;0.9390000000000001;0.0028356769740931534
15:59.7;0.03851392170159676;-0.22086719530436574;-0.7729854154504662;0.9359999999999999;0.006575370959815551
15:59.7;0.060205991841442395;-0.21601665145839075;-0.7642633339766218;0.914;0.00993962431024268
15:59.7;0.07990509501873172;-0.21358753876829425;-0.7497228666083925;0.875;0.012795319673589618
15:59.8;0.09675057016388172;-0.2138995520458131;-0.7301082544885766;0.725;0.015109519957516191
15:59.8;0.11031091428677615;-0.21699242026272175;-0.7068746176921653;0.725;0.016920197786448102
15:59.8;0.12057655489773955;-0.22267103581417858;-0.6819676995479863;0.725;0.018310086915245705
15:59.8;0.12789840281507203;-0.2305697205469159;-0.6575918991022637;0.691;0.019392055648004124
15:59.8;0.13288873996284617;-0.2402227681894786;-0.6359933284360006;0.6629999999999999;0.02030275204447824
15:59.8;0.13630143862588337;-0.2511345970058496;-0.6192644172079772;0.638;0.02119742524957233
15:59.8;0.13890896477655354;-0.2628440348655675;-0.6091742386111378;0.623;0.022241799897917656
15:59.8;0.1413923795070947;-0.27497697121380055;-0.6070348666865474;0.622;0.023601302104140187
15:59.8;0.14425517070991487;-0.2872827797844412;-0.6136170359778554;0.638;0.02542953342892038
15:59.8;0.14776559627009647;-0.29965166867726867;-0.6291260781396857;0.67;0.02785657502865259
15:59.9;0.15192964489250319;-0.31211194251641383;-0.6532407526680205;0.8;0.030976060219767797
15:59.9;0.15649581070442806;-0.32480771767097877;-0.6852019729612614;0.8;0.034829533760589546
15:59.9;0.16098975588739453;-0.3379583171392899;-0.7239230947337765;0.8;0.03938708248247286
15:59.9;0.16477394929893033;-0.3518019480753812;-0.7680946967535259;0.8420000000000001;0.044524756963100126
15:59.9;0.16712784799184238;-0.3665298088693427;-0.8162764598349129;0.893;0.05000292314945554
15:59.9;0.16734404316376628;-0.382220228332421;-0.8669855906768626;0.963;0.055454373709366706
15:59.9;0.1648301213399915;-0.3987831830432933;-0.918790613672436;1.038;0.06039346725967813
15:59.9;0.15919836931009132;-0.4159242333408306;-0.970408487686811;1.11;0.06425507370475594
15:59.9;0.15032408677993755;-0.4331352412408346;-1.0207924477476633;1.176;0.06646446957911348
15:59.9;0.13836147520892983;-0.4497172973836472;-1.0691914226317256;1.23;0.06652888454823579
16:00.0;0.12371949877408862;-0.4648371027412667;-1.1151613903114974;1.272;0.06413227736160183
16:00.0;0.10701176981242135;-0.47760893769109275;-1.1585166524494763;1.272;0.059211528569083065
16:00.0;0.0889988249338074;-0.4871834995752564;-1.1992241479024535;1.272;0.05199687080309656
16:00.0;0.07053546310672741;-0.49282290050214567;-1.23726127850288;1.2819999999999998;0.04300904743639592
16:00.0;0.05252478085452853;-0.4939517147154887;-1.272469142565257;1.298;0.03301383724841142
16:00.0;0.035874478861564564;-0.49018716911896854;-1.30443348185369;1.3319999999999999;0.02293873571384375
16:00.0;0.021452932628671408;-0.4813579908181537;-1.3324165056560848;1.369;0.013759253071541987
16:00.0;0.010044732901586502;-0.46751988532441274;-1.355350241454476;1.382;0.0063648770403561695
16:00.0;0.0023032731270634394;-0.4489682142620304;-1.371893199585563;1.386;0.0014186698501761972
16:00.0;-0.0013029452096933278;-0.426240086093084;-1.3805498677367776;1.4180000000000001;0.0007667124987872751
16:00.1;-0.0005479278255453839;-0.40009541818991545;-1.3798507904818222;1.5019999999999998;0.0003024955990295183
16:00.1;0.004501253479644464;-0.37147316964225036;-1.3685786966042461;1.5019999999999998;0.002288393455346267
16:00.1;0.013456593789944161;-0.3414305961538735;-1.346004495135766;1.5019999999999998;0.006184208015376035
16:00.1;0.025618247081504293;-0.31107743124262827;-1.3120843865005316;1.473;0.010456339643346177
16:00.1;0.04002855936703738;-0.281509226611542;-1.2675766330787488;1.413;0.014283571673915576
16:00.1;0.05556801511481529;-0.2537386636506774;-1.2140534658717272;1.321;0.017117855086535242
16:00.1;0.07107632440709315;-0.22862887989784036;-1.153800496972126;1.198;0.018749373959422094
16:00.1;0.08547295027313173;-0.2068391417378273;-1.0896149371431272;1.074;0.019263467742509508
16:00.1;0.0978544271553651;-0.18879264239915847;-1.0245344880891563;0.977;0.018927450811723083
16:00.1;0.107558222539474;-0.17467092802589518;-0.961542560767759;0.907;0.018064783309376
16:00.2;0.11419448017968525;-0.16443273704820038;-0.9032962694661058;0.7959999999999999;0.01696147491524778
16:00.2;0.11765139105689565;-0.1578498011276617;-0.8519149593092733;0.7959999999999999;0.015821124564161154
16:00.2;0.118079234141626;-0.15455137760712676;-0.8088543441527523;0.7959999999999999;0.014761032298974049
16:00.2;0.11585670459742112;-0.15407186721034355;-0.7748731449030887;0.787;0.013831686178464697
16:00.2;0.11154222970685136;-0.15589822502852724;-0.7500772165466252;0.78;0.013043269456990362
16:00.2;0.10581237171287974;-0.1595150829057411;-0.734012623236899;0.772;0.012389156290175535
16:00.2;0.09939009318752892;-0.16444616602883133;-0.7257802784432337;0.7609999999999999;0.011862384950687293
16:00.2;0.09296835470789801;-0.17029038792864906;-0.7241538482047309;0.754;0.011464526510208854
16:00.2;0.08713782322997514;-0.17675022516896127;-0.7276922053889395;0.7490000000000001;0.011207646011509975
16:00.2;0.08232883182367921;-0.18364955666287822;-0.7348456711378709;0.747;0.011110611897853603
16:00.3;0.07877592066605865;-0.19093815706335934;-0.7440601481005629;0.809;0.011191653567408385
16:00.3;0.07650898602098198;-0.19868035045199392;-0.7538818183962946;0.809;0.011459630986431277
16:00.3;0.075370080177369;-0.20702670365635623;-0.7630576306433424;0.809;0.011906460736987699
16:00.3;0.0750516355534925;-0.21617053071419093;-0.7706215856427252;0.833;0.012502527529758414
16:00.3;0.07515108964382528;-0.2262943896560616;-0.775959124486449;0.8490000000000001;0.013196170351221111
16:00.3;0.07523632247379092;-0.23751401966753372;-0.7788453197811511;0.852;0.013917717705485536
16:00.3;0.0749143304018972;-0.24982763225253754;-0.779452134909965;0.846;0.014587968771037987
16:00.3;0.07389367151721575;-0.26307787927801024;-0.7783204873281634;0.835;0.015130387133649784
16:00.3;0.07203104253608276;-0.2769331204993302;-0.7762976942337018;0.826;0.01548541669218648
16:00.3;0.06935350932745475;-0.2908938519418218;-0.7744468685197808;0.823;0.015624085686020426
16:00.4;0.06605066166157397;-0.30432799189632787;-0.7739381497720439;0.831;0.015556981230146864
16:00.4;0.0624372130806645;-0.31653270681809637;-0.7759318777696096;0.831;0.01533506764032356
16:00.4;0.058894985538456304;-0.3268119617184697;-0.7814626327064319;0.831;0.015041269040630235
16:00.4;0.055807287206454365;-0.33455593430443237;-0.7913317787329287;0.835;0.014774685885492987
16:00.4;0.05349610685188067;-0.33931377841572524;-0.8060155510435003;0.845;0.014630766996048216
16:00.4;0.05216959082778725;-0.3408560660209719;-0.8255965375525243;0.8640000000000001;0.014681023056316871
16:00.4;0.051887099327105196;-0.33922152025094326;-0.8497275638398851;0.889;0.0149562423988945
16:00.4;0.05254725119332742;-0.33473937355217837;-0.8776360528087049;0.915;0.015437296907018805
16:00.4;0.05389917527850543;-0.32801917099785394;-0.9081734461143106;0.94;0.016056472736277107
16:00.4;0.05557288266969364;-0.31990383647404774;-0.9399102698027231;0.9690000000000001;0.016709704446253366
16:00.5;0.05712343303056284;-0.31138770410384364;-0.9712730420661905;1.082;0.017276552901937574
16:00.5;0.05808331132350078;-0.30350851919139316;-1.0007103059624158;1.082;0.017641301636937223
16:00.5;0.058016738077287196;-0.29722894326141447;-1.0268631701981559;1.082;0.017707489073617782
16:00.5;0.05656996878771631;-0.293323576202393;-1.0487143861663402;1.126;0.0174016382448324
16:00.5;0.053513811380585405;-0.29228167115004616;-1.0657028198363097;1.163;0.01666877100393423
16:00.5;0.048776582137551316;-0.2942317954112083;-1.0777992192385033;1.185;0.01546816627112898
16:00.5;0.04246564993977685;-0.29889687739263154;-1.0855346337644023;1.189;0.01377852845360484
16:00.5;0.03487457295182277;-0.30559053133021374;-1.0899674858874242;1.181;0.011616153299376333
16:00.5;0.026473460686808177;-0.3132629234151674;-1.0925799223883579;1.162;0.009060933212424882
16:00.5;0.017883904484742624;-0.3205982815725623;-1.0951052072694667;1.146;0.00627883941598932
16:00.6;0.0098433139043957;-0.3261591262630202;-1.0992996974892015;1.0959999999999999;0.003529287016978676
16:00.6;0.0031614648523049216;-0.3285628189421176;-1.106684733196274;1.0959999999999999;0.0011495574826948555
16:00.6;-0.001335174265859581;-0.32666475296870073;-1.1182942747492222;1.0959999999999999;0.0004877489368093566
16:00.6;-0.0028807217295982895;-0.31971867792922226;-1.1344665596515573;1.082;0.0010448670066371714
16:00.6;-0.0008739432945938447;-0.3074928113666892;-1.1547106223505164;1.09;0.00031030686430100446
16:00.6;0.004998920596321788;-0.2903302469785846;-1.1776699774077257;1.119;0.0017091970146179138
16:00.6;0.014646216570213278;-0.26914499337114645;-1.2012001210294578;1.163;0.004735077858169737
16:00.6;0.02749173939306472;-0.24534646003262026;-1.2225667723071478;1.224;0.008246214028702936
16:00.6;0.04246854636096858;-0.2206935675898517;-1.2387535802055638;1.305;0.011610261295222421
16:00.6;0.058108326260845285;-0.1970931485810072;-1.2468453142090135;1.381;0.014279811389804541
16:00.7;0.07272539107364412;-0.17636895306946004;-1.2444323800382986;1.41;0.0159617132730512
16:00.7;0.08466337426604754;-0.16003540453156007;-1.2299728500673934;1.41;0.016665071081932843
16:00.7;0.09254857820789922;-0.14911392063222098;-1.2030540496925606;1.41;0.016602484359621625
16:00.7;0.09549418214879458;-0.1440231527996716;-1.1645124293585898;1.339;0.01601597402197989
16:00.7;0.09322265736630175;-0.14455674239676286;-1.1163896248168586;1.229;0.015044426021624991
16:00.7;0.0860975263084497;-0.14994390262586207;-1.0617241818099803;1.101;0.013706645887969741
16:00.7;0.07506772685075341;-0.15897705579523697;-1.0042048637858452;0.978;0.011984227238658707
16:00.7;0.06153533855294829;-0.17018451476960714;-0.9477361668130764;0.8640000000000001;0.009925035966139934
16:00.7;0.04716643469887964;-0.18202260134397957;-0.8959804225453011;0.768;0.007692311918009386
16:00.7;0.03367365115330012;-0.1930620347119738;-0.8519424712322486;0.706;0.005538566273397818
16:00.8;0.022604401488501593;-0.20214764812237312;-0.817655200819514;0.7340000000000001;0.0037362154227113136
16:00.8;0.015166675054885533;-0.2085154886920938;-0.7940065560884318;0.7340000000000001;0.0025110351422997076
16:00.8;0.012113550360409425;-0.21185553134478277;-0.7807217057740408;0.7340000000000001;0.0020035837953727006
16:00.8;0.013693372371675326;-0.21231341705079665;-0.7764882756591363;0.789;0.0022574740203627577
16:00.8;0.019661923967378717;-0.21043271004383435;-0.7791967341692118;0.838;0.003223935795232429
16:00.8;0.0293465145852352;-0.20704935687537085;-0.7862574221781425;0.88;0.004777439242236377
16:00.8;0.04174748085041939;-0.20315890318554825;-0.7949461987251457;0.907;0.0067422347655143235
16:00.8;0.0556608379135072;-0.1997802924373907;-0.8027290416890752;0.9209999999999999;0.008926297556216593
16:00.8;0.0698079890443221;-0.19783643132250783;-0.807526011557935;0.92;0.01115238920426178
16:00.8;0.0829627442546618;-0.198064221758457;-0.8078908611254457;0.91;0.013275223346922476
16:00.9;0.09406850630318674;-0.20095900043121803;-0.8030985782186503;0.852;0.015181705652062085
16:00.9;0.10233687791591133;-0.20675154357465342;-0.7931485278915531;0.852;0.01678168042546225
16:00.9;0.10731595102809208;-0.2154112289697537;-0.7787029994518552;0.852;0.018001324660577463
16:00.9;0.10891796553308393;-0.22666896770397058;-0.7609824150616908;0.828;0.01878737951714679
16:00.9;0.10740260905463266;-0.24005688304633516;-0.7416292248415689;0.7929999999999999;0.019121230188176505
16:00.9;0.1033195767302595;-0.25496310696646857;-0.7225453575141274;0.76;0.019033781350624925
16:00.9;0.09742029386141206;-0.2706979323256114;-0.7057108793342519;0.7340000000000001;0.018610634775500817
16:00.9;0.09055423012019456;-0.28656524695023694;-0.6929981402605334;0.713;0.017983090594857497
16:00.9;0.08356739936813144;-0.301932078628863;-0.6859994266339502;0.6990000000000001;0.0173089170504363
16:00.9;0.07721698447938659;-0.3162883333839753;-0.6858871649946549;0.695;0.016751306542022473
16:01.0;0.07210876726177776;-0.3292889892146967;-0.6933244072776513;0.762;0.016462726726541897
16:01.0;0.06865778081587838;-0.3407728964495091;-0.7084362734584067;0.762;0.01657507863330527
16:01.0;0.06706983498753183;-0.35075557151196224;-0.7308409040245435;0.762;0.017193118727311486
16:01.0;0.06734140131505165;-0.3593975662131069;-0.7597313559753883;0.8190000000000001;0.018387273348009697
16:01.0;0.06927566339405836;-0.36695405359327804;-0.7940018249123233;0.889;0.02018430887633337
16:01.0;0.0725121815009484;-0.37371316029098484;-0.8324105317493746;0.9620000000000001;0.02255729031483158
16:01.0;0.0765664820300515;-0.3799300166306553;-0.8737600914874426;1.0270000000000001;0.025417597871569823
16:01.0;0.0808750563210876;-0.38576267564467304;-0.9170640260646016;1.081;0.028611093657609606
16:01.0;0.08484268141913912;-0.39121657960800904;-0.9616656650122715;1.1179999999999999;0.03191947561032474
16:01.0;0.08789264677819239;-0.39610513257697627;-1.0072832829897111;1.138;0.03506829402452633
16:01.1;0.08952278813728956;-0.400033263019806;-1.0539692472409257;1.1640000000000001;0.03774484475739341
16:01.1;0.08936724834786022;-0.40240839507744414;-1.1019871766869607;1.1640000000000001;0.03962980718646197
16:01.1;0.08725700076414691;-0.4024805181570281;-1.1516259705170306;1.1640000000000001;0.04044423216594329
16:01.1;0.08326791889771036;-0.39941140912431733;-1.2029812895645624;1.199;0.04000894038201001
16:01.1;0.07774617081158636;-0.3923718047841153;-1.2557415630311572;1.247;0.03830690540314006
16:01.1;0.07130230139276474;-0.3806618763120085;-1.3090135647984107;1.2830000000000001;0.035529334970774824
16:01.1;0.06476522913700825;-0.36384348503894925;-1.3612141544772638;1.307;0.03207620391270787
16:01.1;0.05909035378477101;-0.34186477806721194;-1.4100482079299095;1.3330000000000002;0.02848425790647302
16:01.1;0.0552264835272876;-0.3151523080221719;-1.4525918569515988;1.3780000000000001;0.025282003565972575
16:01.1;0.053962054947486376;-0.28464438064797637;-1.4854987767793744;1.454;0.022817254837084654
16:01.2;0.055783457725794676;-0.2517442434807885;-1.5053339970053576;1.6640000000000001;0.021139652742546998
16:01.2;0.06077760288030756;-0.21819082466531778;-1.509005907615159;1.6640000000000001;0.020011101319661703
16:01.2;0.0685972559502324;-0.18587463694920234;-1.4942246692955514;1.6640000000000001;0.019052096771535118
16:01.2;0.07849303949151962;-0.15664054889708778;-1.4598983016989193;1.672;0.017949731073988277
16:01.2;0.08940787954076405;-0.13210500144520138;-1.4063983290529694;1.6280000000000001;0.016611291401944634
16:01.2;0.10012149777406269;-0.11349910108132609;-1.335656334535254;1.516;0.01517799788377908
16:01.2;0.10941980681558008;-0.10154996180787165;-1.251072481429505;1.355;0.013901388464136449
16:01.2;0.11625561547084919;-0.0964171461544395;-1.1572394838499873;1.183;0.012971537493800115
16:01.2;0.1198716020986617;-0.09769628750469082;-1.0595163056548957;1.0270000000000001;0.01240800658286007
16:01.2;0.11987029548549417;-0.10449109283067123;-0.9635109437499539;0.89;0.01206833894449923
16:01.3;0.11622946848595837;-0.11554272202072502;-0.8745412144710109;0.68;0.01174462427578726
16:01.3;0.10927027765421361;-0.129393849262524;-0.797142125770161;0.68;0.011270714265336403
16:01.3;0.09958941191403177;-0.1445574189046351;-0.7346822071127269;0.614;0.0105767703575286
16:01.3;0.0879666888787839;-0.1596632649508845;-0.6891315151850256;0.5870000000000001;0.009678885728212835
16:01.3;0.07525964092230097;-0.17356854200701008;-0.6609934608652305;0.598;0.008634363344275134
16:01.3;0.062299055468593885;-0.1854301526535443;-0.6493885594349692;0.64;0.007501816750875404
16:01.3;0.04980067261170805;-0.19474213571290647;-0.6522652708980549;0.693;0.006325857326435784
16:01.3;0.03830476249561326;-0.20134072936525868;-0.6667026396773832;0.745;0.005141816647654316
16:01.3;0.0281492679579936;-0.20537916004045612;-0.6892611545663087;0.7859999999999999;0.003984806909023254
16:01.3;0.019476776293896634;-0.20727480609715576;-0.7163379288729025;0.815;0.0028918884753527632
16:01.4;0.012270640536632887;-0.2076331411695456;-0.744490178770637;0.867;0.0018968058526282212
16:01.4;0.006410420501298857;-0.20715645425131357;-0.7707015473234798;0.867;0.001023460812378505
16:01.4;0.0017331750930841745;-0.2065502485290553;-0.7925751382516649;0.867;0.0002837321874534355
16:01.4;-0.0019127215676522872;-0.20644178747937705;-0.8084473123266956;0.87;0.0003192280810530354
16:01.4;-0.004631220804018431;-0.20732081854586817;-0.8174282269328759;0.867;0.0007848524761019544
16:01.4;-0.006465414413819745;-0.2095063357416593;-0.8193830666993627;0.865;0.0011098914678781236
16:01.4;-0.007408031902047637;-0.2131393206766874;-0.8148684867806392;0.8590000000000001;0.001286630801167958
16:01.4;-0.007428787236792437;-0.21819843864736072;-0.8050355014848792;0.852;0.0013049221158937653
16:01.4;-0.0065049257316588125;-0.22453193052124903;-0.7915068166271182;0.838;0.0011560459920327173
16:01.4;-0.004640388254373931;-0.2318958476721448;-0.7762343335854887;0.8240000000000001;0.0008352954950646937
16:01.5;-0.0018657858722986272;-0.2399891101276324;-0.7613416220432098;0.768;0.00034090463710775815
16:01.5;0.001777562101103031;-0.24848032137093873;-0.7489580542812144;0.768;0.00033080668543095923
16:01.5;0.006257166771219107;-0.25702727372804196;-0.7410552015929022;0.768;0.001191811303355607
16:01.5;0.011558779728379466;-0.2652943111490975;-0.7392965924157863;0.754;0.0022670371100280084
16:01.5;0.01767826641503268;-0.2729732201581207;-0.7449077353046024;0.7490000000000001;0.003594696274919506
16:01.5;0.024596225579072685;-0.2798096245412814;-0.7585717821122928;0.75;0.005220688721993658
16:01.5;0.03224087688448923;-0.2856310100050078;-0.780360856053598;0.7659999999999999;0.007186338619126448
16:01.5;0.04044883484206382;-0.29036865258806266;-0.8097176483009701;0.7979999999999999;0.009510193432689718
16:01.5;0.0489367112406106;-0.29406602354098277;-0.8455007447726404;0.841;0.012167283377129166
16:01.5;0.05729666571673585;-0.2968687669688459;-0.8861010126213595;0.894;0.01507221536876455
16:01.6;0.06502417104118274;-0.29899388505383934;-0.9296259908711103;1.103;0.01807363003374443
16:01.6;0.07157617738965681;-0.30067965034004357;-0.9741301541881747;1.103;0.020964742103813296
16:01.6;0.07644626536740935;-0.30212406233691436;-1.0178459693504978;1.103;0.02350843132431643
16:01.6;0.07923863972413274;-0.3034240940157936;-1.0593677063086868;1.171;0.025470285035624023
16:01.6;0.07972741761499606;-0.3045270259260323;-1.0977642395385387;1.219;0.026652786337018498
16:01.6;0.07789348238996163;-0.30520263745896;-1.1326191930218652;1.2429999999999999;0.02692609163258303
16:01.6;0.07393429821753261;-0.3050446747208601;-1.1639985895430542;1.245;0.026251967427953615
16:01.6;0.0682472772465833;-0.30350891285478754;-1.1923446940947582;1.2409999999999999;0.024697818926734456
16:01.6;0.06139358068747895;-0.2999886052184927;-1.2183044278273327;1.237;0.022437969072630234
16:01.6;0.05404913016354033;-0.29391631116464706;-1.2425155498222853;1.217;0.019738503815209852
16:01.7;0.046943340471946635;-0.2848708983349551;-1.26538473106621;1.207;0.016921726265784524
16:01.7;0.040783491098590245;-0.2726681986715006;-1.2868958084198336;1.207;0.014310746027719904
16:01.7;0.03616846300716084;-0.25742247194457435;-1.3064843177368914;1.207;0.012164120427471057
16:01.7;0.03350174101755335;-0.2395731987899275;-1.3230077531548212;1.237;0.01061861800952827
16:01.7;0.03291393457025373;-0.21987240156962942;-1.3348309896331645;1.29;0.009659992789804693
16:01.7;0.03420632632691603;-0.199328060506321;-1.3400305603697442;1.3630000000000002;0.00913670448545796
16:01.7;0.036833727972258125;-0.1791059309186642;-1.3366982529273903;1.435;0.008818384359650596
16:01.7;0.03994774383495403;-0.160402175220983;-1.3232984489175534;1.507;0.008479306095954379
16:01.7;0.04251013614885159;-0.14430562055335044;-1.2990125961737946;1.5519999999999998;0.007968729868839104
16:01.7;0.04346370692952776;-0.1316697624906716;-1.2639933364386424;1.5430000000000001;0.007233651809424212
16:01.8;0.04192799521837742;-0.12301408497932972;-1.2194581998437248;1.185;0.00628964097843458
16:01.8;0.037379007153932386;-0.11847106070504829;-1.1675934586701548;1.185;0.005170489871311918
16:01.8;0.0297765901027588;-0.11778618208831784;-1.11130312382736;1.185;0.003897641067063793
16:01.8;0.019614257263165364;-0.12036747722354912;-1.0538734861589636;1.031;0.0024881095833688524
16:01.8;0.007878999970022687;-0.1253744015616208;-0.9986059293830403;0.905;0.000986447808469264
16:01.8;-0.0040774812392951765;-0.13183277880541855;-0.9484484784583485;0.815;0.0005098343844823674
16:01.8;-0.014737697155653061;-0.13876056090932734;-0.905664831752446;0.763;0.0018520946553955738
16:01.8;-0.02265248411323263;-0.14528974468435688;-0.8715915576918173;0.746;0.002868559153663026
16:01.8;-0.02666724962041559;-0.1507711001824148;-0.846524810894912;0.762;0.003403580458457013
16:01.8;-0.02609956391314888;-0.15484802362407174;-0.8297552058328458;0.804;0.0033534273609265577
16:01.9;-0.020836512986333808;-0.1574866898900296;-0.8197436643467074;0.9009999999999999;0.002689967077793135
16:01.9;-0.011337563651573406;-0.15895666443849232;-0.8144032668902069;0.9009999999999999;0.0014677023389921546
16:01.9;0.0014471884435131553;-0.15976836917846596;-0.8114290334614046;0.9009999999999999;0.0001876145132688398
16:01.9;0.016218062757406778;-0.16058254241654363;-0.8086144943950988;0.91;0.0021059052534803183
16:01.9;0.03150243476187111;-0.1621067134725646;-0.8041130020686957;0.907;0.004106409031178203
16:01.9;0.04584662455428059;-0.16499101198881433;-0.7966239854438705;0.894;0.006025887662485446
16:01.9;0.05799717437342629;-0.16973639595351223;-0.7854964826221865;0.871;0.007732609102397592
16:01.9;0.06704231970507465;-0.1766290902201696;-0.7707491734546228;0.841;0.00912692186084525
16:01.9;0.07249209865017553;-0.18571136806524613;-0.7530135850535548;0.8;0.010137525821360951
16:01.9;0.0742892826534142;-0.19679216603328878;-0.7334141736327101;0.762;0.010722184336083542
16:02.0;0.07275715112389385;-0.20949374790481176;-0.7134047006291956;0.696;0.010873834495752122
16:02.0;0.06850271278420203;-0.22332249363581813;-0.6945859076367631;0.696;0.010625911798251602
16:02.0;0.062302595361897764;-0.23774499418132924;-0.6785326408621243;0.696;0.010050513802262354
16:02.0;0.054997409751049775;-0.25225189967714123;-0.6666526547400884;0.69;0.009248606334407921
16:02.0;0.04740902884279886;-0.2664021361574821;-0.6600850588541446;0.693;0.008336786209513704
16:02.0;0.040283473374908146;-0.2798492134450105;-0.6596351395103197;0.696;0.007436263722456498
16:02.0;0.03425640906501519;-0.2923534379777062;-0.6657403871320114;0.7;0.006667375971898537
16:02.0;0.029836388702562902;-0.30378306360810103;-0.6784653444718307;0.718;0.006149467110840089
16:02.0;0.02739987630230088;-0.31410717647767056;-0.6975253568278117;0.743;0.006003250435836631
16:02.0;0.027191417029872326;-0.3233825850103425;-0.7223402364679248;0.763;0.006351704364257724
16:02.1;0.02932276766256354;-0.3317361335060134;-0.7521169631912132;0.884;0.007316158769460518
16:02.1;0.03376752707256208;-0.3393431537897567;-0.7859531487244318;0.884;0.009006063539713775
16:02.1;0.040352434268029466;-0.34640169903052936;-0.8229431474075813;0.884;0.011503224229384672
16:02.1;0.04875040196161741;-0.35310178199610276;-0.8622690009346469;0.945;0.014842972523253081
16:02.1;0.05848190116820543;-0.3595903910659388;-0.9032714044608212;1.008;0.018995372837525816
16:02.1;0.06893103900877205;-0.3659348168868162;-0.9455035506099263;1.072;0.023849634140032903
16:02.1;0.0793807600902758;-0.3720872325746323;-0.9887627185128555;1.126;0.02920465662027929
16:02.1;0.08906798722959777;-0.3778540490182562;-1.0330834755792158;1.153;0.034768114045369475
16:02.1;0.09725573349450273;-0.38287529235228573;-1.0786761538349767;1.156;0.040166466968309646
16:02.1;0.10331713423952106;-0.3866207161925654;-1.1258064412423647;1.15;0.04496982541701751
16:02.2;0.10682522060176891;-0.3884090539626169;-1.1746300144029895;1.24;0.048737610977049116
16:02.2;0.10763803130280564;-0.3874545021683982;-1.2250084448353062;1.24;0.05108878098570226
16:02.2;0.10596029998333562;-0.38294118548575573;-1.2763326883978723;1.24;0.05178919359939627
16:02.2;0.10235810868286428;-0.37412327720340494;-1.3273781838423035;1.256;0.05083135164872755
16:02.2;0.09770762734255335;-0.36044505954084394;-1.3762219373414148;1.273;0.04846810286047244
16:02.2;0.09307041211184511;-0.3416692859610187;-1.4202597324803332;1.341;0.04516326708688626
16:02.2;0.08950533446285863;-0.31799378922217536;-1.456355935320575;1.4580000000000002;0.041451007192949786
16:02.2;0.08785229838965214;-0.2901290501154329;-1.4811338318466962;1.581;0.03775188542315241
16:02.2;0.08854365226802599;-0.2593081974237431;-1.491376715134657;1.6740000000000002;0.03424215085586642
16:02.2;0.09149928780883984;-0.22720882198140546;-1.4844731493991656;1.723;0.030861373480050885
16:02.3;0.09613800440511128;-0.19578407757476687;-1.4588216970083336;1.5730000000000002;0.02745836578678634
16:02.3;0.101499416915277;-0.16702835784516692;-1.414123202432124;1.5730000000000002;0.023974027919898364
16:02.3;0.10643392146737894;-0.14272985854530376;-1.3515244004371185;1.5730000000000002;0.020531410672030646
16:02.3;0.10980543639004127;-0.12426566539838148;-1.273604444989656;1.419;0.017378390750366676
16:02.3;0.11066728476104816;-0.11247007215835056;-1.1842020726548406;1.238;0.014739476032462994
16:02.3;0.10839218633474487;-0.10758016095922751;-1.0880912842304473;1.0659999999999998;0.012688068003258376
16:02.3;0.10274634866141867;-0.10925194656039951;-0.9905438658474889;0.9179999999999999;0.011119091231201927
16:02.3;0.09390337831595638;-0.11663703892921236;-0.8968442652975153;0.797;0.009822787255253776
16:02.3;0.08240371645616766;-0.12850574990211;-0.8118245965327094;0.705;0.008596695909923537
16:02.3;0.06907353037250197;-0.14339919603401724;-0.7394715048453139;0.639;0.007324530863362904
16:02.4;0.05491861087213767;-0.15979111374926178;-0.682637309213581;0.584;0.0059904878006576635
16:02.4;0.041007852690309675;-0.17623988295229534;-0.642872370582832;0.584;0.004646179512995574
16:02.4;0.028360758465159387;-0.19151414781141873;-0.620383710908705;0.584;0.0033696057436353112
16:02.4;0.01785116979602478;-0.20468207971860647;-0.6141137188987295;0.601;0.0022438576471536797
16:02.4;0.010134021291839065;-0.21516190953544106;-0.6219229023358422;0.643;0.0013560751336322801
16:02.4;0.005597653710353278;-0.2227358670962937;-0.6408544148556881;0.7040000000000001;0.0007990161647927136
16:02.4;0.004343047776445732;-0.227531016595919;-0.6674533656506243;0.763;0.000659562782487684
16:02.4;0.006191059944908524;-0.22997114008661265;-0.6981082294591554;0.8140000000000001;0.0009939421428131108
16:02.4;0.010717653893864976;-0.23070467738535397;-0.7293783936070082;0.85;0.0018034704132797277
16:02.4;0.017314878652342058;-0.23051482170893092;-0.7582752418534446;0.875;0.0030265313961798553
16:02.5;0.025271825828380227;-0.23021984124671957;-0.7824733502171399;0.889;0.004552489208445753
16:02.5;0.03386458639722479;-0.230574429962781;-0.8004395977881495;0.889;0.006250078678368436
16:02.5;0.04243910777878034;-0.23218440007578578;-0.8114784769793083;0.889;0.007996064478094192
16:02.5;0.05047150411543273;-0.23544525081435985;-0.8157002908368796;0.872;0.009693191644787085
16:02.5;0.05759835700021623;-0.2405108022603522;-0.8139247571579686;0.852;0.011275321678388092
16:02.5;0.06361800098205614;-0.24729360939922873;-0.8075363839646431;0.8340000000000001;0.012704424910994863
16:02.5;0.06846801352374952;-0.2554949160215768;-0.7983103832681394;0.8220000000000001;0.013965026639301577
16:02.5;0.07218644216570556;-0.2646578237879551;-0.7882279204634031;0.813;0.015058863225771818
16:02.5;0.07486637956153902;-0.274233974120351;-0.7792965510244088;0.8029999999999999;0.015999663296281386
16:02.5;0.07661407935235079;-0.2836531463699861;-0.7733874076463823;0.7959999999999999;0.01680711954072973
16:02.6;0.07751916822164459;-0.2923869309549258;-0.7720970646591108;0.815;0.017500036809912668
16:02.6;0.07764140996790887;-0.30000019871375155;-0.7766389347914404;0.815;0.01808981456226313
16:02.6;0.0770126323328057;-0.3061862159418341;-0.7877659686820432;0.815;0.01857568419447806
16:02.6;0.07564827269192896;-0.3107838027537547;-0.8057250318138762;0.8320000000000001;0.018942803261355484
16:02.6;0.07356274095986018;-0.3137780933876958;-0.8302449207036726;0.853;0.019164025932209026
16:02.6;0.0707839693115743;-0.3152882795358941;-0.8605620097045446;0.882;0.019205468647149542
16:02.6;0.06736283189733294;-0.31554523168110776;-0.8954871225023288;0.9259999999999999;0.019034492541822497
16:02.6;0.06337375601002858;-0.31486056266600054;-0.9335142821973851;0.978;0.018627247345437734
16:02.6;0.05890503459763846;-0.3135882916214781;-0.9729668016818311;1.038;0.017972573842876625
16:02.6;0.05404053720896153;-0.31208131743352296;-1.0121690430381798;1.097;0.01707027346949854
16:02.7;0.04883775604670667;-0.31064664284089605;-1.049624196969551;1.213;0.01592414779291801
16:02.7;0.04330957141970096;-0.30950454250426207;-1.0841699772400633;1.213;0.014532766313187501
16:02.7;0.0374175542034746;-0.3087570392479625;-1.1150791887249871;1.213;0.01288243543777201
16:02.7;0.031082071004989817;-0.3083699409360053;-1.142080550986521;1.219;0.01094658671196883
16:02.7;0.02421030454110465;-0.30817090992251867;-1.1652971453860759;1.208;0.00869417896607443
16:02.7;0.016740317359289696;-0.30786527782391043;-1.1851201100876414;1.199;0.006107827527653726
16:02.7;0.008696416719926067;-0.3070715338102258;-1.2020441589608504;1.194;0.0032099651921118615
16:02.7;0.00024390033501014866;-0.30537603719582646;-1.2164940922513565;1.179;9.060608305776258e-05
16:02.7;-0.008278937757131838;-0.30239965761556037;-1.2286731981954928;1.159;0.0030760422581792824
16:02.7;-0.016377217554410326;-0.29786286353082286;-1.2384653031587003;1.162;0.006041437993315551
16:02.8;-0.023478269352331035;-0.2916364890232239;-1.245417960316532;1.297;0.008527526277068148
16:02.8;-0.029060260271094294;-0.2837712124097567;-1.248816985674443;1.297;0.010298325926016028
16:02.8;-0.03278992769604551;-0.27450301246584774;-1.2478343587394871;1.297;0.011231674619972938
16:02.8;-0.03462008840218405;-0.26423215552972557;-1.2417126498102575;1.349;0.01135886519926604
16:02.8;-0.034814283819660584;-0.253473530189414;-1.2299500757984956;1.365;0.010853693731478984
16:02.8;-0.03388992203492482;-0.2427816676093399;-1.2124549272138108;1.35;0.009975899439277961
16:02.8;-0.032489500393415034;-0.23266399976981514;-1.1896365461289655;1.307;0.008992625765700302
16:02.8;-0.03120650427700508;-0.2235028782724366;-1.162404706233454;1.2329999999999999;0.008107474700244291
16:02.8;-0.030409877468551377;-0.21550435239708837;-1.1320683012671933;1.1440000000000001;0.007418965405466599
16:02.8;-0.030119044695626644;-0.20868256583249042;-1.1001501239483424;1.0590000000000002;0.006914795057241575
16:02.9;-0.02997129017309771;-0.20287962039471233;-1.06815694502178;0.956;0.006494996637470955
16:02.9;-0.029293198625729322;-0.19781424507387665;-1.0373570159046006;0.956;0.0060110813835448085
16:02.9;-0.027249935024262307;-0.1931479738583681;-1.00861582529072;0.956;0.005308617150226475
16:02.9;-0.02302539879631167;-0.18855591759013318;-0.9823223666376848;0.9670000000000001;0.004264826423353592
16:02.9;-0.015992408340866814;-0.18379108601309965;-0.9584092863421975;0.98;0.002817016088694098
16:02.9;-0.005845812256854835;-0.17873390170384748;-0.9364466820279402;0.982;0.0009784414773739247
16:02.9;0.007321503671606863;-0.17342065207206644;-0.915779069245084;0.973;0.0011627646300778763
16:02.9;0.023011566865908054;-0.16804759038241138;-0.8956748053455625;0.956;0.003463608832810602
16:02.9;0.040380444779593815;-0.16295133510978657;-0.8754625659140818;0.937;0.005760585171151865
16:02.9;0.05834677539351659;-0.15856932694351028;-0.854637600190388;0.919;0.007907114686205202
16:03.0;0.07572603696058487;-0.1553859287677654;-0.8329290889627818;0.845;0.009800877174126053
16:03.0;0.0913667087711394;-0.15387146491528614;-0.8103289837570735;0.845;0.011392195845306263
16:03.0;0.10426845773431948;-0.15442286749975642;-0.7870909869108386;0.845;0.012673293761219116
16:03.0;0.1136703123828902;-0.15731374606059256;-0.7637091168275373;0.813;0.013656572085243799
16:03.0;0.11910639391432584;-0.16265884576992587;-0.7408776030202843;0.777;0.01435354675800709
16:03.0;0.1204321382270853;-0.17039562518677484;-0.7194292536117604;0.743;0.014763486480643004
16:03.0;0.11782330856943739;-0.180284789558059;-0.7002548233766632;0.713;0.014874638167893426
16:03.0;0.11174839802402914;-0.19193049148582736;-0.6842140663808784;0.6890000000000001;0.014674971949238527
16:03.0;0.10291584186004557;-0.20481899777898788;-0.6720525229889597;0.6779999999999999;0.014166275499724051
16:03.0;0.09220004773741823;-0.21837262369744123;-0.6643365772830001;0.679;0.01337573027843755
16:03.1;0.0805531632864789;-0.23201355638081425;-0.6614147475030155;0.715;0.012361461907214715
16:03.1;0.06891296263265216;-0.24522874133151218;-0.6634062574569017;0.715;0.011211193638378723
16:03.1;0.05812036162439256;-0.2576236208204046;-0.6702110759084966;0.715;0.010035189740545594
16:03.1;0.04885837979072394;-0.26895417952702444;-0.6815334020446198;0.73;0.00895580242901919
16:03.1;0.04161667966564405;-0.27913444351884514;-0.6969140495549273;0.745;0.008095805701413697
16:03.1;0.03667847305429772;-0.28822367356738904;-0.7157714246249991;0.764;0.0075668522306948025
16:03.1;0.03412415187838347;-0.29639962852160096;-0.7374519199908937;0.7879999999999999;0.007458873331252951
16:03.1;0.033846768283007055;-0.3039237722198116;-0.76128959954836;0.82;0.00783126239644259
16:03.1;0.035576585595756174;-0.311103346531266;-0.7866735509170419;0.8590000000000001;0.008706898799950957
16:03.1;0.03891450572204176;-0.31825378914994396;-0.8131188235286384;0.8959999999999999;0.010070223667271814
16:03.2;0.04337488920983914;-0.32566335643380495;-0.8403328086719841;0.9790000000000001;0.011870215210389695
16:03.2;0.04843546420865507;-0.33356031767881245;-0.8682633919587243;0.9790000000000001;0.014027792582701593
16:03.2;0.05358804001208872;-0.34208199577554443;-0.8971118136313277;0.9790000000000001;0.016445408510294256
16:03.2;0.058383221327823205;-0.35124557212334023;-0.9272989233866974;1.0;0.019015978051771118
16:03.2;0.062465934749931215;-0.36092306553704817;-0.9593877472224692;1.028;0.021629777313392513
16:03.2;0.06560169829232688;-0.37082452506243646;-0.9939761883763604;1.053;0.02418017904219813
16:03.2;0.06769319454349661;-0.38049251699917236;-1.0315748232900697;1.0759999999999998;0.02657001893087408
16:03.2;0.06878524104092212;-0.38930926969028984;-1.0724822625201007;1.099;0.028719715034637775
16:03.2;0.06905683303103952;-0.3965177046092821;-1.1166705742166436;1.125;0.030576960559381302
16:03.2;0.0688015516992168;-0.4012589956046997;-1.1636951873936432;1.16;0.03212641410669031
16:03.3;0.06840006735962348;-0.40263023006708853;-1.2126431141672473;1.304;0.03339611236969478
16:03.3;0.06828799186513071;-0.3997633687522704;-1.2621249860549872;1.304;0.03445479754276909
16:03.3;0.06891822064478263;-0.3919204060620283;-1.3103037950482908;1.304;0.03539190433952493
16:03.3;0.07071341937080268;-0.37859396819669194;-1.3549526092344173;1.325;0.03627434959996402
16:03.3;0.07400717127418288;-0.3596018299340964;-1.3935498247937388;1.374;0.037086700656325966
16:03.3;0.07898063506779629;-0.3351648652198712;-1.4234331190486058;1.4509999999999998;0.03768045807592202
16:03.3;0.08560791315498795;-0.30595560194198534;-1.4420240285454333;1.536;0.03776981146664079
16:03.3;0.09362313555914797;-0.27310075292563024;-1.4471090727160059;1.6019999999999999;0.03700047896269532
16:03.3;0.10251872607849329;-0.23812257370655204;-1.4371356388085668;1.636;0.0350833881349571
16:03.3;0.1115812498750816;-0.20281350584485802;-1.4114630049374643;1.631;0.031941668179560935
16:03.4;0.11996659542702309;-0.169054427746933;-1.3705098222495338;1.3719999999999999;0.027795150915942715
16:03.4;0.126806218399398;-0.13860644791959506;-1.3157670946662514;1.3719999999999999;0.023126132329201483
16:03.4;0.13132385822033243;-0.11292082138360393;-1.2496897620744787;1.3719999999999999;0.01853189684227458
16:03.4;0.1329381696712911;-0.0930061815824685;-1.1755027893030283;1.2109999999999999;0.014534000591450755
16:03.4;0.1313351785666795;-0.07936772799659389;-1.0969451716687355;1.071;0.011434309359390285
16:03.4;0.12650546401067908;-0.07201089943022174;-1.0179654140544756;0.955;0.009273433076592336
16:03.4;0.11874604657264105;-0.07049495832221807;-0.9423975912149345;0.866;0.007888807978138254
16:03.4;0.10862870276290996;-0.0740225474063019;-0.8736615431360942;0.804;0.0070250891415527044
16:03.4;0.09693866463341612;-0.08155177004228657;-0.8145233519998414;0.759;0.0064392303942596785
16:03.4;0.08459016281175015;-0.09191759763754975;-0.766933180604302;0.7240000000000001;0.005963154386921438
16:03.5;0.07252778226654391;-0.10395072037094813;-0.7319413518388483;0.6809999999999999;0.005518336569319011
16:03.5;0.061625889493481995;-0.11658331763975655;-0.7096858140910748;0.6809999999999999;0.005098773676676234
16:03.5;0.052600746591180546;-0.12893207995910355;-0.6994435018660595;0.6809999999999999;0.0047435724379175205
16:03.5;0.04594718234621885;-0.14035191299047814;-0.6997385629127405;0.6920000000000001;0.004512456508233503
16:03.5;0.04190438099813665;-0.15045986166131883;-0.7084985520955989;0.7140000000000001;0.004467031911283756
16:03.5;0.04044990041921473;-0.15913300589862897;-0.7232476919331381;0.748;0.004655483368705171
16:03.5;0.0413198292945369;-0.16648369776758645;-0.741325324131382;0.7909999999999999;0.005099634707377215
16:03.5;0.044052248473096786;-0.1728142350447455;-0.7601154457925825;0.833;0.005786649144779336
16:03.5;0.04804919375952926;-0.17855441155014887;-0.7772691284357921;0.866;0.006668499276153638
16:03.5;0.05265076214164935;-0.1841886724657641;-0.7908984461956338;0.885;0.0076698752850097585
16:03.6;0.05721394284156275;-0.19018223453521196;-0.7997216616126823;0.877;0.008701831775936749
16:03.6;0.061186860425224;-0.19691559146605814;-0.8031462499400521;0.877;0.009676825502772813
16:03.6;0.06416729311772436;-0.2046345737064734;-0.801286427085958;0.877;0.010521569215256843
16:03.6;0.06593573017913167;-0.2134207656333137;-0.7949194033315317;0.862;0.011186148783178074
16:03.6;0.06645864851092564;-0.22318552234922542;-0.7853867583677767;0.84;0.01164933405862014
16:03.6;0.06586414360575102;-0.2336881679599539;-0.7744479956364281;0.816;0.011920048796862247
16:03.6;0.0643970862423929;-0.24457435422618287;-0.7640966499632685;0.79;0.012034427322196515
16:03.6;0.06236408306418943;-0.25542649464292494;-0.7563542795659635;0.763;0.012048299456082377
16:03.6;0.06007921327009538;-0.2658171457346945;-0.7530617460290917;0.74;0.012026460086382735
16:03.6;0.05781949503463451;-0.27535796826815495;-0.7556899312014413;0.726;0.012031383737808501
16:03.7;0.055794887484937127;-0.2837392894791985;-0.7651927430038055;0.7829999999999999;0.012113920678009722
16:03.7;0.05413306037687398;-0.2907565223608055;-0.7819204400030716;0.7829999999999999;0.01230706833931894
16:03.7;0.0528764415402798;-0.2963203647040409;-0.8056007251450964;0.7829999999999999;0.012622447367085399
16:03.7;0.05198867715086907;-0.3004495734999577;-0.8353872260717425;0.845;0.013048728319032171
16:03.7;0.051367896245683914;-0.303248046934572;-0.8699738794322843;0.9209999999999999;0.013551769478449365
16:03.7;0.05086407986626502;-0.3048701402213645;-0.9077689249313424;0.997;0.014076717491210169
16:03.7;0.050298427377658064;-0.30547910652060334;-0.9471076037598417;1.061;0.014552420710556024
16:03.7;0.04948414062772901;-0.30520396736126165;-0.9864690160228189;1.109;0.014898400891042824
16:03.7;0.048248458970237725;-0.3040999610109213;-1.0246608850054686;1.147;0.015034187738565272
16:03.7;0.04645425753239737;-0.30211723669742657;-1.0609447582692382;1.176;0.014889969168190352
16:03.8;0.04401869636464173;-0.29908284105773436;-1.095085881376582;1.215;0.014417064910049017
16:03.8;0.040928282043399725;-0.29470243345814223;-1.1273211207998508;1.215;0.013597368934805882
16:03.8;0.037252178872625684;-0.2885886734122854;-1.15824497571307;1.215;0.012451778495352193
16:03.8;0.03315523207126233;-0.28032049522772906;-1.1886219670350444;1.219;0.011047160813713054
16:03.8;0.028907682852975368;-0.2695305668283564;-1.2191447631650396;1.203;0.00949897147562471
16:03.8;0.024881231522168746;-0.2560083756159568;-1.2501684456926103;1.169;0.007963327547633898
16:03.8;0.021515342077052888;-0.23979796827414016;-1.2814616626186;1.128;0.0066114904130739035
16:03.8;0.019240426653707572;-0.22126801491442347;-1.3120258724025462;1.11;0.005585675953792251
16:03.8;0.018359780172496863;-0.20113763033092885;-1.340040318644569;1.1440000000000001;0.0049485580779836955
16:03.8;0.01891646779510482;-0.18044757346412027;-1.3629845647862222;1.236;0.004652453373612485
16:03.9;0.02059292470576121;-0.16047100393131816;-1.3779620660416914;1.604;0.004553568386032382
16:03.9;0.022691093002581694;-0.14256948725154492;-1.3821882619743353;1.604;0.004471458495786287
16:03.9;0.024212957250444304;-0.128019747206869;-1.3735342047254042;1.604;0.004257594336849331
16:03.9;0.024028372117464464;-0.11784660217296938;-1.3509871727373715;1.6269999999999998;0.0038255390527552374
16:03.9;0.021101220316174046;-0.1126882999433032;-1.3149255925709853;1.5659999999999998;0.0031267098165716615
16:03.9;0.014736137769851235;-0.112709664719338;-1.2671617752891442;1.4340000000000002;0.002104635515036892
16:03.9;0.004794475298082634;-0.1175765774776629;-1.210746984288757;1.25;0.0006825198640697649
16:03.9;-0.008177825395569356;-0.12649950093905157;-1.1495714919865097;1.065;0.0011892211683910625
16:03.9;-0.022953577434366476;-0.1383387377183688;-1.0878343070971523;0.919;0.0034542752579941514
16:03.9;-0.037771546863760774;-0.1517522703994537;-1.0294848810977835;0.826;0.005900922913563126
16:04.0;-0.050604077575851614;-0.16536468465800472;-0.9777383888999656;0.838;0.00818183933446741
16:04.0;-0.059489248627947564;-0.17793503224615137;-0.9347399569137381;0.838;0.009894429370039232
16:04.0;-0.06285294197517151;-0.18849846186860078;-0.9014137988141703;0.838;0.010679664837627846
16:04.0;-0.059752986236291314;-0.19645896971381077;-0.8774951496404233;0.885;0.010300924436005283
16:04.0;-0.0500067634248109;-0.20162247654509624;-0.8617154753042908;0.927;0.008688235496002561
16:04.0;-0.034194126308558725;-0.20417232854148482;-0.8520940821237647;0.946;0.005948890054832133
16:04.0;-0.01354714842111087;-0.20459765450349304;-0.8462794030954683;0.9490000000000001;0.0023456451398684935
16:04.0;0.010246886618548143;-0.20359071948032953;-0.8418842527907423;0.946;0.0017563145296117166
16:04.0;0.03528924174525677;-0.20193238320935805;-0.836772812559903;0.938;0.005962877108303947
16:04.0;0.05971402777628716;-0.2003835504965174;-0.829275898874714;0.9329999999999999;0.009922874003936344
16:04.1;0.08189291435872299;-0.19959662763735378;-0.8183267759308606;0.8809999999999999;0.013376000850481915
16:04.1;0.10057555442976031;-0.20005554625282587;-0.8035207862342681;0.8809999999999999;0.016167398659616642
16:04.1;0.11495864534794967;-0.2020462563302137;-0.7851091662267001;0.8809999999999999;0.018235702281406013
16:04.1;0.12469026108298296;-0.20565469713699872;-0.7639375884230112;0.84;0.019589756910847012
16:04.1;0.129823476629553;-0.21078790589660015;-0.7413344459939262;0.789;0.020286779300037323
16:04.1;0.1307357351171861;-0.2172131460335686;-0.7189532827360642;0.742;0.020416490458371104
16:04.1;0.12803063437828166;-0.22460777664910078;-0.6985828640452302;0.7020000000000001;0.020088921171791382
16:04.1;0.1224379740240465;-0.23261157463821722;-0.6819484025124882;0.672;0.01942222461275052
16:04.1;0.11472529448730408;-0.24087509002836083;-0.670530349998255;0.654;0.018529747916369892
16:04.1;0.10562919338212727;-0.24910057015870438;-0.6654238505036548;0.655;0.017508826855775494
16:04.2;0.09580875694215066;-0.25707381029638543;-0.6672548417821736;0.718;0.01643443484525825
16:04.2;0.08581908882590615;-0.2646852408400205;-0.6761571280716828;0.718;0.015358940398926647
16:04.2;0.07610110285657068;-0.27193770006582507;-0.691801219772764;0.718;0.01431665943836231
16:04.2;0.06698281244586503;-0.27893909468645073;-0.7134601159275414;0.752;0.013330378033596721
16:04.2;0.05868625744665824;-0.28588092981382723;-0.7401027427038015;0.7929999999999999;0.012416912309446094
16:04.2;0.05133441497116199;-0.29300577213084006;-0.7705114240799464;0.8340000000000001;0.01158947799227469
16:04.2;0.044954971163602406;-0.30056703861898876;-0.8034172925773214;0.8759999999999999;0.010855760440762962
16:04.2;0.03948163224573662;-0.30878517485219703;-0.8376418366527102;0.9279999999999999;0.010211978704269755
16:04.2;0.03475732913496246;-0.31780575799682675;-0.8722296342577728;0.98;0.00963471773545528
16:04.2;0.030545670779865572;-0.3276648287290422;-0.9065563599141283;1.024;0.009073488700786543
16:04.3;0.026555671080874255;-0.33826360741893435;-0.9403962127485297;1.082;0.008447407178064005
16:04.3;0.022480753322396862;-0.34935098032951856;-0.9739345018912572;1.082;0.007648963307478511
16:04.3;0.018049268786901936;-0.3605112146838416;-1.007715747293871;1.097;0.006557169902964374
16:04.3;0.013081975669154564;-0.3711575201776337;-1.0425269648100477;1.107;0.00506196220536864
16:04.3;0.007550935003768581;-0.3805369278486786;-1.0792276309581852;1.1159999999999999;0.00310106304479045
16:04.3;0.0016320959966192108;-0.3877546817528284;-1.1185468138912793;1.129;0.0007078755544197661
16:04.3;-0.004259521000170341;-0.39182542906770956;-1.1608724404618391;1.15;0.0019374829196999615
16:04.3;-0.009465574654423353;-0.3917547439487471;-1.2060595410698003;1.18;0.004472290421965058
16:04.3;-0.013124501740474718;-0.3866482322745584;-1.2532846681960852;1.193;0.0063598750103685655
16:04.3;-0.014265862313028082;-0.3758371211241473;-1.3009741010861422;1.195;0.00697535558866
16:04.4;-0.011958725185887295;-0.3590021637138406;-1.3468329668192796;1.419;0.0057822343600652405
16:04.4;-0.005493940390908101;-0.33627553594775955;-1.3879899625336325;1.419;0.002564280572195945
16:04.4;0.00544204750381897;-0.30830184390530796;-1.4212443189143296;1.419;0.0023845541675803854
16:04.4;0.02065087149055851;-0.27624046113201817;-1.4433823288959697;1.5130000000000001;0.00823392787379969
16:04.4;0.03939725191397668;-0.24169425339299122;-1.4515347610689153;1.5830000000000002;0.013821643743358102
16:04.4;0.06048431190003045;-0.20656179375028796;-1.4435473155453513;1.626;0.018035316328501517
16:04.4;0.08241469036576139;-0.17283169958636263;-1.418316992982202;1.64;0.02020232429478863
16:04.4;0.10360340540829979;-0.1423572425631666;-1.3760308269731338;1.6019999999999999;0.02029465913460132
16:04.4;0.12259639168655453;-0.11665535867351878;-1.3182498604149688;1.508;0.018852984711585526
16:04.4;0.13824935897158305;-0.09676555904819362;-1.2478058971732169;1.3719999999999999;0.016692868418920207
16:04.5;0.14983594265745442;-0.08318730240163788;-1.1685147921427306;0.972;0.014564891714885024
16:04.5;0.15707718869268175;-0.07589468025520443;-1.0847588246617845;0.972;0.012931760338061775
16:04.5;0.1601064429691631;-0.07440994810494551;-1.0010347951922929;0.972;0.01192584015766029
16:04.5;0.15939374667835363;-0.07791029122607285;-0.9215612893882534;0.878;0.011444328902243905
16:04.5;0.1556500851936466;-0.08534718637146622;-0.849983419122582;0.7979999999999999;0.01129143203999592
16:04.5;0.1497242345725599;-0.09556576049902339;-0.7891648205598137;0.736;0.011291772996570696
16:04.5;0.14250163450546555;-0.10741538707491925;-0.7410515359665413;0.69;0.011343178212095932
16:04.5;0.13481425331057437;-0.1198445085136153;-0.706605550816607;0.6609999999999999;0.011416447769518787
16:04.5;0.1273689776733065;-0.1319751997957479;-0.6858104681564144;0.649;0.011528162801187769
16:04.5;0.12069903932499042;-0.1431552757413267;-0.6777493359090713;0.652;0.01171063033506453
16:04.6;0.11513973139180526;-0.15298678872362861;-0.6807501375375823;0.7490000000000001;0.011991316842915802
16:04.6;0.11082703793952486;-0.16133016541408873;-0.6925853673824679;0.7490000000000001;0.012383249318447873
16:04.6;0.10771558060654839;-0.16828399002537803;-0.7107000414045388;0.7490000000000001;0.012882722977499608
16:04.6;0.10561076670683342;-0.1741423011795577;-0.7324396784326969;0.79;0.013470519281576911
16:04.6;0.1042099008139943;-0.17933403089373492;-0.7552607377618624;0.825;0.014114600853651396
16:04.6;0.10314761894711597;-0.18435179108044905;-0.7769164636917879;0.8540000000000001;0.014773414847650289
16:04.6;0.10204132475434582;-0.18967890579733834;-0.7956111353932093;0.8759999999999999;0.015399122604882272
16:04.6;0.10053278138522273;-0.19572416169948462;-0.8101127065180198;0.892;0.015940340123259067
16:04.6;0.09832331979143598;-0.20277262062455315;-0.8198149172114836;0.905;0.016344877275680895
16:04.6;0.09520173875909511;-0.2109576559264439;-0.8247433701312291;0.909;0.016563762875092827
16:04.7;0.09106479330202583;-0.22025480050112206;-0.8255038666986474;0.862;0.0165575090372522
16:04.7;0.0859299194223122;-0.23049332461770347;-0.8231777955386578;0.862;0.016304083991038405
16:04.7;0.07993922304710774;-0.24137887866144583;-0.8191782953064685;0.862;0.015806569498576745
16:04.7;0.07335310904574209;-0.25252241900518546;-0.8150852333780315;0.835;0.015098072002110347
16:04.7;0.06653131044350982;-0.26347526678422367;-0.8124739813711415;0.815;0.014242144659717947
16:04.7;0.05989959502297037;-0.27377172700981206;-0.8127506451713254;0.8079999999999999;0.013328147939949127
16:04.7;0.053903007401838454;-0.2829773446339126;-0.817009309832834;0.81;0.012462112536175084
16:04.7;0.048950307993421475;-0.29073697568231593;-0.8259287221246777;0.821;0.011754340478094864
16:04.7;0.045357664085284494;-0.2968157226669901;-0.8397222392989183;0.843;0.011305069533315741
16:04.7;0.0433015252312893;-0.30112635033522267;-0.8581485510274258;0.872;0.01118959655142597
16:04.8;0.042790164839783894;-0.30373785654816726;-0.880582909488852;0.996;0.011444929866322234
16:04.8;0.04365949525435138;-0.3048625928351409;-0.9061355921781803;0.996;0.012060797865967749
16:04.8;0.045592299980636415;-0.30482392429697586;-0.9337889565278975;0.996;0.012977447624385975
16:04.8;0.04815546245833277;-0.30400977950531866;-0.9625222672172549;1.033;0.014091067577869253
16:04.8;0.0508496796899087;-0.30281756743123495;-0.9914093152756378;1.062;0.015265895430360402
16:04.8;0.05316732747301268;-0.30159528389528545;-1.0196891129995445;1.088;0.016350730449855414
16:04.8;0.05465373770210932;-0.30058460529431813;-1.046811753568649;1.112;0.01719709904131404
16:04.8;0.054966185695368035;-0.2998734636945066;-1.072458027122823;1.135;0.017677218941352192
16:04.8;0.05392454473800634;-0.29936654591721473;-1.0965309738737543;1.1540000000000001;0.017701523969352807
16:04.8;0.05154815029809948;-0.29878191263098347;-1.119119128387489;1.17;0.017236286650673078
16:04.9;0.04807498720243029;-0.2976795132254255;-1.1404327852969494;1.199;0.016320663783054638
16:04.9;0.04396027129767196;-0.29552108130059784;-1.160716351420091;1.199;0.015079083068650884
16:04.9;0.03985023143012503;-0.29175205229985296;-1.1801423518835648;1.199;0.013720791467209092
16:04.9;0.036525128499547886;-0.285890910261196;-1.1986969493634194;1.178;0.012517035962702974
16:04.9;0.03480682293455413;-0.27761330797594586;-1.2160736003564083;1.157;0.011750721290339305
16:04.9;0.0354326791962495;-0.26682292022831955;-1.2315992593012948;1.161;0.011643848448371543
16:04.9;0.038909164614189695;-0.25370265508711537;-1.2442217495529464;1.194;0.01228215878138839
16:04.9;0.04537161099019918;-0.23873782844927682;-1.2525815173835975;1.253;0.013567862640777521
16:04.9;0.05448516388379278;-0.22270011677249618;-1.2551734205074982;1.32;0.015230088969742057
16:04.9;0.06542178852392963;-0.20658238056753603;-1.250578731708147;1.369;0.01690155757038618
16:05.0;0.07693657377487556;-0.19148375102462878;-1.2377242223297993;1.345;0.01823428164165071
16:05.0;0.08753972598462109;-0.17846109551088887;-1.2161157079961726;1.345;0.01899868908702069
16:05.0;0.09572660623335238;-0.16837861526234185;-1.1860014321141061;1.345;0.019116342777247698
16:05.0;0.100212629846304;-0.1617886100004481;-1.1484360911009532;1.272;0.018619895335560445
16:05.0;0.10013285501402623;-0.15886198371561744;-1.1052297897905508;1.179;0.017581226236863746
16:05.0;0.09518440739133566;-0.15937193932226448;-1.0587821274924558;1.08;0.016061432225831
16:05.0;0.08569632209824517;-0.16272819819633608;-1.0118237004989648;0.988;0.014110092050917908
16:05.0;0.07261517164835828;-0.16805649121577662;-0.9671062372549054;0.914;0.011802033535828003
16:05.0;0.057404252674417254;-0.17431322210273353;-0.9270890520389214;0.853;0.009276749951333513
16:05.0;0.04186487168527812;-0.1804198831364969;-0.8936649294007193;0.805;0.006750079325976713
16:05.1;0.027898087810395863;-0.1853992983191826;-0.8679590933440751;0.7959999999999999;0.004489332584181241
16:05.1;0.017238692124633633;-0.18849625476246748;-0.8502242042234798;0.7959999999999999;0.002762743102806018
16:05.1;0.011208238600565738;-0.1892673732239311;-0.8398427117531612;0.7959999999999999;0.0017816035938203057
16:05.1;0.01053531347471634;-0.18762917540621427;-0.835435727174085;0.838;0.0016514326861490228
16:05.1;0.015272627869874218;-0.1838587517522593;-0.8350657323108075;0.887;0.002344869834012694
16:05.1;0.024817390739393666;-0.1785468458671892;-0.8365077541627449;0.9259999999999999;0.0037066217701810585
16:05.1;0.038025627776958386;-0.17250927375702513;-0.8375504579994367;0.9520000000000001;0.005494141242309004
16:05.1;0.053398118477448984;-0.16667011184755653;-0.836280985990353;0.97;0.007442792375807957
16:05.1;0.06930264019177852;-0.16193624142424656;-0.831310453506439;0.9670000000000001;0.009329472238361513
16:05.1;0.0841903543115456;-0.1590848364784612;-0.8219086664850337;0.9470000000000001;0.011008158724346104
16:05.2;0.09676896968515912;-0.15868254084619396;-0.8080332949398877;0.805;0.012407792417625673
16:05.2;0.10611127101435519;-0.16104608061200668;-0.7902615408195169;0.805;0.01350462482132272
16:05.2;0.11169770332212796;-0.16624074779221798;-0.7696563849411308;0.805;0.014291526001460825
16:05.2;0.11340550007039236;-0.1741047172166001;-0.7476070221854497;0.76;0.014761076401439498
16:05.2;0.11146004401252928;-0.1842888201150704;-0.7256686281376413;0.728;0.014905843184351541
16:05.2;0.10636259044250589;-0.19630633077395943;-0.7054109452265458;0.703;0.014728733544716606
16:05.2;0.09880760154202538;-0.20958863231015873;-0.6882830554172253;0.69;0.014253619428001768
16:05.2;0.08960128783813726;-0.22354194810912625;-0.675504279616279;0.6829999999999999;0.013530111887005203
16:05.2;0.07958876246200829;-0.23760053732736158;-0.6679892036059929;0.682;0.01263189809769395
16:05.2;0.06959219675845865;-0.2512727268232681;-0.6663103736411475;0.691;0.011651517002294599
16:05.3;0.06035888197645559;-0.264177133865447;-0.67069819776027;0.73;0.010694575485399725
16:05.3;0.052517634812190794;-0.2760668471759816;-0.6810733881978873;0.73;0.00987445933503139
16:05.3;0.046543918836174994;-0.2868394667851539;-0.6971032624606268;0.7559999999999999;0.009306769723358919
16:05.3;0.042735289368826854;-0.29653208946922716;-0.7182723947945835;0.787;0.009102224070751966
16:05.3;0.04119767782541025;-0.30530228113857194;-0.7439604966797649;0.818;0.009357345430486755
16:05.3;0.04184150205001847;-0.31339702525672486;-0.7735220817328321;0.847;0.010143196817331165
16:05.3;0.04438681783160496;-0.3211118182049909;-0.8063624530425177;0.879;0.011493190304240177
16:05.3;0.04837908005147001;-0.328742810861662;-0.8420052449370748;0.919;0.01339148276738455
16:05.3;0.05321986981122564;-0.33653552738020764;-0.8801483335992495;0.966;0.0157637884302211
16:05.3;0.058217062196507255;-0.34463338705523294;-0.920705205352947;1.013;0.018472608781007285
16:05.4;0.06265477223119707;-0.35302927417707364;-0.9638257859077021;1.137;0.02131883245292116
16:05.4;0.06587655022502015;-0.3615250502272204;-1.0098830004547066;1.137;0.0240513968963086
16:05.4;0.067369536143184;-0.3697062612295175;-1.0594041583452856;1.137;0.026386515096015986
16:05.4;0.06683692044871732;-0.3769405099950991;-1.112932856662531;1.1640000000000001;0.028038721647379587
16:05.4;0.06425112522075892;-0.38240705202717423;-1.1708295849988024;1.187;0.028767380533161715
16:05.4;0.0598849578134748;-0.385161728972454;-1.2330402844128932;1.215;0.028440559843306602
16:05.4;0.05431764234063398;-0.3842353511822732;-1.2988702168182646;1.242;0.02710840646238264
16:05.4;0.04840757811417301;-0.3787560689298557;-1.366802280481217;1.264;0.025059860557406
16:05.4;0.04321921238640002;-0.36807903421129834;-1.4344016679456488;1.297;0.02281858502704233
16:05.4;0.039895282029089096;-0.35190192187050295;-1.4983505811879108;1.355;0.021035683065239615
16:05.5;0.039482338107275465;-0.3303452472499131;-1.5546473108813192;1.696;0.020276958212396834
16:05.5;0.0427411055767127;-0.3039844111884616;-1.5989676669377864;1.696;0.020774794978329087
16:05.5;0.04998858296103236;-0.2738325383524523;-1.6271315976971574;1.696;0.02227299178767323
16:05.5;0.061014097753732;-0.24127820997608612;-1.6355905412079916;1.791;0.024078137270023687
16:05.5;0.07508989932013979;-0.20797791403501906;-1.6218711114450042;1.841;0.025328827037089524
16:05.5;0.09107091962322399;-0.17570467532386808;-1.5849331196187912;1.83;0.02536144419449782
16:05.5;0.10755874193208394;-0.14617002864949666;-1.5253954546897956;1.758;0.023982060479322952
16:05.5;0.12309567670167959;-0.12085161429403676;-1.4455804707960285;1.6269999999999998;0.021504905008940048
16:05.5;0.13635437234564318;-0.10085777267353473;-1.3493500638537421;1.459;0.01855679950951137
16:05.5;0.14629373288473077;-0.08684723069191502;-1.2417432263783033;1.2830000000000001;0.01577660295457978
16:05.6;0.15226170191797864;-0.07900820301154046;-1.1284615218222998;0.8390000000000001;0.013575305730584207
16:05.6;0.154037664094517;-0.07709077938022846;-1.015287108326013;0.8390000000000001;0.012056416210586446
16:05.6;0.15181860530841282;-0.08047863890045735;-0.9075464819702098;0.8390000000000001;0.011088543327754014
16:05.6;0.14615975362240546;-0.08828400758019574;-0.8097142327000508;0.73;0.01044820330732844
16:05.6;0.13788115241698676;-0.0994536064412869;-0.7251838195014699;0.657;0.00994428463040031
16:05.6;0.12795218723513235;-0.11287629961759817;-0.6561783643098714;0.613;0.00947703281614114
16:05.6;0.11737030748380695;-0.12748216991233358;-0.6037681799304043;0.597;0.00903395473876023
16:05.6;0.10705289048434384;-0.14232266136542696;-0.5679723781318866;0.594;0.008653656847150392
16:05.6;0.09775719954426622;-0.15662543731701814;-0.5479221767295255;0.5920000000000001;0.008389381170320563
16:05.6;0.09003489003936622;-0.16982344727717247;-0.5420594575911937;0.5920000000000001;0.008288108296399083
16:05.7;0.08421938206987652;-0.18156226077077978;-0.548345313445623;0.639;0.008384781861412508
16:05.7;0.08043892327104675;-0.1916910552087135;-0.5644584164204633;0.639;0.008703622570343643
16:05.7;0.07864566368485437;-0.2002408657861973;-0.5879684054243334;0.639;0.009259371008740134
16:05.7;0.0786517178258777;-0.20739219357745187;-0.6164765562948336;0.675;0.010055812877975698
16:05.7;0.08016624964356382;-0.2134350398078644;-0.6477250018724076;0.71;0.011082760474380315
16:05.7;0.08283095444502839;-0.21872552399366874;-0.6796804031170434;0.738;0.012313935646758844
16:05.7;0.08625319350083412;-0.2236425444947305;-0.7105957991859811;0.759;0.013707310299364724
16:05.7;0.09003648342980632;-0.22854713857422818;-0.7390518053329421;0.7809999999999999;0.015207898132586242
16:05.7;0.09380789929711447;-0.23374762488982792;-0.763979665280443;0.802;0.01675206758665204
16:05.7;0.09724167031954754;-0.23947420033597136;-0.7846712054611943;0.823;0.018272537326610338
16:05.8;0.10007810803155345;-0.2458657599825532;-0.8007808059644368;0.877;0.01970383641088811
16:05.8;0.10213717169277865;-0.25296852528262104;-0.8123207839278873;0.877;0.020988329887556594
16:05.8;0.10332609408913368;-0.2607422679805234;-0.8196462208967423;0.877;0.022082482361107835
16:05.8;0.10364040440937744;-0.2690693993878696;-0.823423589320487;0.8859999999999999;0.02296237011205399
16:05.8;0.10315746952100903;-0.2777658161160858;-0.8245811453154148;0.8859999999999999;0.023627233733300997
16:05.8;0.10202117705817212;-0.28659582294579433;-0.824242985581782;0.88;0.024099911411558424
16:05.8;0.10041663389654452;-0.29529341046538327;-0.8236499970471199;0.877;0.02442317470242824
16:05.8;0.09853651698403505;-0.30358975349413464;-0.8240719314259535;0.873;0.024651845572081995
16:05.8;0.09654521360999435;-0.3112438942886236;-0.8267166171709421;0.875;0.024842097128802604
16:05.8;0.09454987763915067;-0.31807130805568656;-0.8326435059321387;0.877;0.025040590452078668
16:05.9;0.09258648773187517;-0.32396456890425684;-0.8426884196763449;0.907;0.025276221384372032
16:05.9;0.09062380486314324;-0.3289017000942288;-0.8574042061247245;0.907;0.02555606712815017
16:05.9;0.08858155207065943;-0.33293988638135696;-0.8770192715126677;0.907;0.025865343422264646
16:05.9;0.08635561882748129;-0.3361945017046644;-0.901416199397483;0.9279999999999999;0.026170171320442512
16:05.9;0.08384443073440412;-0.3388058591559653;-0.9301363046319103;0.9590000000000001;0.026422367486634745
16:05.9;0.08097406314086399;-0.3408982231175988;-0.9624173334408502;1.002;0.026566485538598247
16:05.9;0.07772165614062639;-0.3425368383044276;-0.997266659225415;1.054;0.02654976191443245
16:05.9;0.07413621559491149;-0.34368915726760796;-1.0335639654419164;1.11;0.026335017039290424
16:05.9;0.07035413937357744;-0.34419687417857037;-1.0701796115219149;1.163;0.025915121512177883
16:05.9;0.0666056545863923;-0.34376635771296526;-1.1060895803727224;1.203;0.025325893410339036
16:06.0;0.063208963638797;-0.34198540833757796;-1.1404660145106722;1.28;0.02465293291711508
16:06.0;0.060550614054369824;-0.3383704223628534;-1.1727235815950336;1.28;0.024027390318610498
16:06.0;0.05905155746098978;-0.33243902521986946;-1.2025066100807589;1.28;0.023606458008330302
16:06.0;0.05911807304192424;-0.32379533456749404;-1.2296129985387707;1.262;0.02353744413226655
16:06.0;0.06107727891252103;-0.31221407979161175;-1.253868182847632;1.232;0.023910246139684427
16:06.0;0.06510055899595417;-0.2977125968690726;-1.2749794537074073;1.215;0.024710703794333693
16:06.0;0.07112463042254821;-0.28060065617979496;-1.2924112377478365;1.22;0.025793449739374245
16:06.0;0.07878691661195263;-0.26149712380263834;-1.3053222412917156;1.251;0.026892969466928863
16:06.0;0.08739670616935441;-0.24130316317942888;-1.312593482510815;1.296;0.027681417377966516
16:06.0;0.09596312172183279;-0.22112713420494184;-1.312954009397948;1.335;0.027860949852786292
16:06.1;0.10329140012674445;-0.20216666332397967;-1.3051857561904923;1.4080000000000001;0.02725499039156591
16:06.1;0.10813882712578651;-0.1855662816249385;-1.2883680535969961;1.4080000000000001;0.025853578725235013
16:06.1;0.10939900273022765;-0.172279164958984;-1.2621106693494664;1.4080000000000001;0.023787212877103597
16:06.1;0.10627480680245976;-0.1629599361567058;-1.226725406357882;1.3769999999999998;0.02124508778286448
16:06.1;0.09841114744232542;-0.1579017273946857;-1.1832992709526975;1.3019999999999998;0.018387630736426155
16:06.1;0.08597290530661666;-0.1570177441039809;-1.133651189066739;1.202;0.015303465352240727
16:06.1;0.06966070072306722;-0.15986334307808822;-1.0801753171245998;1.0959999999999999;0.012029040263899731
16:06.1;0.05066209716373106;-0.1656936737592564;-1.0255949295719466;1.0;0.008609242794646348
16:06.1;0.030542392838077907;-0.17354952269097837;-0.9726661830075041;0.92;0.005155731584760166
16:06.1;0.0110844045199329;-0.18236225865394937;-0.923875812009626;0.86;0.001867501357985351
16:06.2;-0.005909333234470033;-0.19106891748987642;-0.8811726570408479;0.77;0.0009949231509193896
16:06.2;-0.01883052285697623;-0.1987271790734355;-0.845767023537837;0.77;0.0031649758081501818
16:06.2;-0.02646249304337643;-0.20461616088236761;-0.8180269435998224;0.77;0.004429332644603437
16:06.2;-0.028126336269479767;-0.20830830271940257;-0.7974893816810886;0.779;0.00467244991039048
16:06.2;-0.02375420369681716;-0.20970317685297962;-0.7829845347494072;0.809;0.0039003059018807417
16:06.2;-0.013883675585299992;-0.2090202680180457;-0.7728520242655684;0.848;0.0022427930734686347
16:06.2;0.0004240434087748515;-0.20675162925452822;-0.7652148031476221;0.8740000000000001;6.708765636345251e-05
16:06.2;0.017731274517767938;-0.20358052667817889;-0.7582676537870093;0.8909999999999999;0.0027371507525632438
16:06.2;0.03641428416895943;-0.20027928535679015;-0.7505336739421011;0.893;0.005473662205971319
16:06.2;0.05486595165274756;-0.1976043071348731;-0.7410480318919455;0.878;0.008034256285658545
16:06.3;0.07167846765275922;-0.19620586000541018;-0.7294434595137016;0.757;0.010258699796333162
16:06.3;0.0857803912819923;-0.1965645884382751;-0.7159356795232255;0.757;0.012071668780357259
16:06.3;0.09651344708758502;-0.19895809535735376;-0.701232811319765;0.757;0.013465164731454152
16:06.3;0.1036464019191373;-0.20345456745833315;-0.6864035102842836;0.715;0.01447441999163955
16:06.3;0.10733349006668205;-0.20992904274211863;-0.6727285605387808;0.684;0.015158200335381376
16:06.3;0.1080321203520084;-0.2180982418996205;-0.6615487480717926;0.664;0.015587157248125408
16:06.3;0.1063988549752576;-0.22756864660812712;-0.6541214787727117;0.6559999999999999;0.015838271772301613
16:06.3;0.10318307230119891;-0.2378910578530769;-0.6515012558710152;0.6629999999999999;0.015991964966828823
16:06.3;0.09913387816481153;-0.24861495024556612;-0.654455910430961;0.68;0.016129827822023192
16:06.3;0.09492933218210804;-0.25933697392310884;-0.6634233881487308;0.698;0.016332611908484226
16:06.4;0.09113063008762282;-0.26973905110793955;-0.6785066715046064;0.767;0.01667870474795036
16:06.4;0.08815914012331771;-0.2796122695273869;-0.6994975558129486;0.767;0.01724287863586703
16:06.4;0.086291250856671;-0.28886343481834875;-0.7259153737100824;0.767;0.01809444761944603
16:06.4;0.0856650639253283;-0.29750315767113367;-0.7570500722925847;0.8;0.019293895777825552
16:06.4;0.08629438794631342;-0.3056179268556295;-0.7920098301556666;0.8390000000000001;0.02088776391099058
16:06.4;0.08808834842597976;-0.31333133419593845;-0.8297803218110559;0.89;0.02290263368123872
16:06.4;0.0908774159676448;-0.3207602550073007;-0.8692987950351689;0.946;0.02533994088581805
16:06.4;0.09444702455246806;-0.32797158423415773;-0.9095371774334916;0.995;0.028173769280319404
16:06.4;0.09857737616241384;-0.3349446075329012;-0.9495825192128814;1.032;0.03135327817765777
16:06.4;0.10308394880871326;-0.3415429729956518;-0.9887031502471545;1.058;0.03480986339560587
16:06.5;0.10785067887808718;-0.3474989818381493;-1.0263934196136537;1.149;0.03846717371001993
16:06.5;0.11284864895332548;-0.3524118325726249;-1.0623930760406044;1.149;0.04225052184955948
16:06.5;0.11813682506168571;-0.3557605199710972;-1.096676690410458;1.149;0.04609158669723935
16:06.5;0.1238459119539084;-0.35693189557510235;-1.12941121898264;1.187;0.049925121604097275
16:06.5;0.13014999138862002;-0.3552647856422188;-1.1608888940462365;1.228;0.05367684262279391
16:06.5;0.13723270593089984;-0.35011039407841477;-1.1914470980163;1.2670000000000001;0.057244978272010874
16:06.5;0.14525475006233907;-0.34090677957996074;-1.221380431663207;1.3;0.06048071812552872
16:06.5;0.154326392380548;-0.3272617090013188;-1.2508421935040295;1.307;0.0631739337261528
16:06.5;0.16448336622679452;-0.30903377010372085;-1.2797333867852323;1.278;0.06505001873045393
16:06.5;0.17565994703146023;-0.2863969378936417;-1.3075894008923354;1.237;0.06578282337672724
16:06.6;0.1876538328699616;-0.2598729929330966;-1.333491858198664;1.291;0.06502928156049669
16:06.6;0.20008581927213803;-0.23032412184715173;-1.3560415036489624;1.291;0.06249261755657531
16:06.6;0.2123689354971102;-0.1989103917248928;-1.3734183010313183;1.291;0.05801646896438055
16:06.6;0.223707928201393;-0.16702024957614384;-1.3835377549074563;1.379;0.0516941643245708
16:06.6;0.2331462122738878;-0.13617484755111617;-1.384298638491137;1.469;0.04394961284921312
16:06.6;0.23966560111587315;-0.10790469451311953;-1.3738980222112624;1.546;0.03553043648085164
16:06.6;0.2423274655992049;-0.08360746747380476;-1.351161153835806;1.577;0.02737504611699659
16:06.6;0.2404268568652648;-0.06440748388289028;-1.315814427181458;1.5530000000000002;0.020375766554960883
16:06.6;0.2336215168405265;-0.05104100546005414;-1.2686342565864488;1.475;0.015127546435203759
16:06.6;0.22200180533036823;-0.04378888356052519;-1.2114294469987974;1.348;0.01177656151282383
16:06.7;0.20608460132643946;-0.042470591723485315;-1.1468520375000542;0.982;0.010037862556102967
16:06.7;0.18673889367306085;-0.04649906059192154;-1.0780799363751097;0.982;0.009361165518234238
16:06.7;0.1650725856189715;-0.05497798498425436;-1.0084575472669841;0.982;0.009152113403850505
16:06.7;0.1423137538312688;-0.0668157863872877;-0.9411799843566848;0.898;0.008949497294999713
16:06.7;0.1197038946610564;-0.08083792133032694;-0.8790583427649611;0.8320000000000001;0.008506308283596732
16:06.7;0.09840508395827052;-0.09588935204141366;-0.8243595630694935;0.784;0.007778656621421381
16:06.7;0.07942033866840713;-0.11092230883414406;-0.7787072070631845;0.747;0.006860011277120007
16:06.7;0.0635296396150795;-0.12506508235004296;-0.7430376801068128;0.725;0.005903686711570627
16:06.7;0.05124495038703416;-0.13766972750816286;-0.7176079484939135;0.71;0.005062636783889057
16:06.7;0.04278689826038864;-0.14833850298036053;-0.7020477156790066;0.7020000000000001;0.004455857842216907
16:06.8;0.03808534760559347;-0.15692922542131957;-0.6954471871847787;0.72;0.004156482054735583
16:06.8;0.03680455054205855;-0.16353962796129137;-0.6964708699075283;0.72;0.004192059909191804
16:06.8;0.038390090442049815;-0.16847163524146092;-0.703487363180289;0.72;0.004549903933868999
16:06.8;0.04213205435335177;-0.1721783818349295;-0.7147062857626426;0.746;0.005184643023166805
16:06.8;0.04723869087000273;-0.17519904024861255;-0.7283164796755656;0.7709999999999999;0.006027673405244338
16:06.8;0.052914780105792536;-0.17808847738690653;-0.7426205935697683;0.7929999999999999;0.006998094535602037
16:06.8;0.0584371765543294;-0.18135001575840157;-0.75615860536654;0.8140000000000001;0.008013453497605672
16:06.8;0.06321863018124406;-0.18537936860481125;-0.7678107028277923;0.828;0.00899830359083114
16:06.8;0.0668519976935708;-0.19042597526021177;-0.7768708966545576;0.841;0.009889843747699651
16:06.8;0.06912969409604272;-0.19657556128121714;-0.7830852972874566;0.85;0.010641509314011317
16:06.9;0.07003691172351999;-0.20375519639773998;-0.7866514451649735;0.8420000000000001;0.011225818749924444
16:06.9;0.0697219927665289;-0.21175805859874805;-0.788178010221998;0.8420000000000001;0.011636812915363656
16:06.9;0.06845234899536246;-0.22028020645170662;-0.788608076625056;0.8420000000000001;0.011891182687744419
16:06.9;0.06656594754822887;-0.2289606773240278;-0.7891121777753498;0.826;0.012026846420803934
16:06.9;0.06442521562212368;-0.2374206188038811;-0.7909584172573322;0.807;0.012098400732210565
16:06.9;0.062375959534306705;-0.24530114644672363;-0.7953695130222671;0.7959999999999999;0.0121698649153889
16:06.9;0.06071205864388317;-0.2522993093303648;-0.8033817368407022;0.7929999999999999;0.01230588849871828
16:06.9;0.05964696290180562;-0.2581996003674268;-0.8157245530554176;0.802;0.01256282862989193
16:06.9;0.059294008554675176;-0.26289743087531464;-0.832738946876149;0.821;0.012980936655860115
16:07.0;0.05965838596501588;-0.26641044631928446;-0.8543478577242364;0.8490000000000001;0.013578677833330405
16:07.0;0.060643114519403386;-0.2688736061516299;-0.8800844946878952;0.968;0.014350070656419956
16:07.0;0.06206868887637133;-0.27051620361902606;-0.9091711549458958;0.968;0.015265516537159633
16:07.0;0.06370229053569186;-0.27162325719406905;-0.9406261681577421;0.968;0.01627567682970569
16:07.0;0.06529086201636156;-0.27248670705860395;-0.9733745468776419;1.0070000000000001;0.017317201431121945
16:07.0;0.06659412007605339;-0.2733516927787423;-1.006352756787833;1.051;0.01831925859352518
16:07.0;0.06741586303206519;-0.27436209902763964;-1.0386108078882348;1.0979999999999999;0.019210517002608476
16:07.0;0.06763252255936443;-0.2755100953817291;-1.0694121255784454;1.146;0.019926829608750987
16:07.0;0.06721790754382306;-0.2765963424528343;-1.0983215120346177;1.197;0.020420243281452827
16:07.0;0.06626314477437975;-0.2772093228857824;-1.125264357235088;1.232;0.020669712597087792
16:07.1;0.06498990393043436;-0.2767327900062351;-1.1505379998052276;1.252;0.02069223889148033
16:07.1;0.06375318124338218;-0.27438878301211356;-1.1747593053911967;1.245;0.02055024992328685
16:07.1;0.06302828344883572;-0.2693182951455824;-1.1987425740188873;1.245;0.02034825942238841
16:07.1;0.063375530091235;-0.2606925561474405;-1.2233165482471657;1.245;0.02021105975058882
16:07.1;0.06537663180873125;-0.24784059634842043;-1.2491022449970886;1.205;0.02023918295898617
16:07.1;0.06954105132864433;-0.23037775182382683;-1.2762820951899074;1.1740000000000002;0.020446946683906758
16:07.1;0.07618962503532889;-0.20832063907139517;-1.3043994114842636;1.169;0.020703259684577584
16:07.1;0.08533385402712132;-0.18217103515915478;-1.3322350480450755;1.193;0.020710068793285435
16:07.1;0.0965784351335107;-0.15294653374443665;-1.357806087326276;1.255;0.02005661114465332
16:07.1;0.10907795564897386;-0.12213756201385494;-1.3785130745298988;1.335;0.018365261902210616
16:07.2;0.1215739214040378;-0.09158237210559733;-1.3914318857905354;1.4140000000000001;0.015492241727261902
16:07.2;0.13252398190114753;-0.06327105229146826;-1.3937134206416562;1.5759999999999998;0.011686191965133317
16:07.2;0.1403100306020861;-0.03911071646672791;-1.3830262792282593;1.5759999999999998;0.007589530725600813
16:07.2;0.14348349185098186;-0.020698144514865548;-1.3579611144077257;1.5759999999999998;0.004032930019600925
16:07.2;0.1409952744550484;-0.009141689851804403;-1.318319620732923;1.545;0.0016992283921546537
16:07.2;0.13237192901369557;-0.004953359183831376;-1.2652357155451741;1.4480000000000002;0.000829596978795409
16:07.2;0.11781832118245553;-0.008013945510325303;-1.2011078494654266;1.298;0.0011340735472393955
16:07.2;0.09823577453511108;-0.01760792362322133;-1.129352021659378;1.129;0.0019534718307539756
16:07.2;0.07515071280226826;-0.032521314343849535;-1.054015830735264;0.988;0.002576014642050358
16:07.2;0.05055920004718767;-0.05118975748969047;-0.9793180825361459;0.8740000000000001;0.0025345860459203115
16:07.3;0.026703908987249805;-0.07187965780288155;-0.9091851731967434;0.784;0.0017451517005585332
16:07.3;0.005809544283022484;-0.09288335825443818;-0.8468454736388683;0.675;0.0004569662715788522
16:07.3;-0.010187292362532838;-0.11270560694612705;-0.7945288526817321;0.675;0.0009122501953952359
16:07.3;-0.019870085939228007;-0.1302139665403936;-0.7533065084024952;0.675;0.0019490771657605553
16:07.3;-0.02249742309145461;-0.1447295540838975;-0.7230883523050486;0.682;0.0023544060535386534
16:07.3;-0.01806136321646381;-0.15604908704481757;-0.7027687132096003;0.711;0.001980724973830304
16:07.3;-0.007249352158122025;-0.16440344842740667;-0.6904883649809856;0.753;0.0008229368030413418
16:07.3;0.008677955869945205;-0.17036501711754745;-0.683968520168802;0.789;0.001011192808209521
16:07.3;0.02807175721159643;-0.1747207562177874;-0.6808658202749013;0.813;0.0033394552857415804
16:07.3;0.04911359190551972;-0.1783332017967999;-0.6790959582859538;0.8290000000000001;0.005947919060072859
16:07.4;0.07003328027420377;-0.1820131523001823;-0.6770809760109702;0.8290000000000001;0.008630736378981674
16:07.4;0.08929431242269179;-0.18642321759848635;-0.6738911158879152;0.735;0.01121795072267692
16:07.4;0.10572387830984446;-0.19202108314719069;-0.6692749867394971;0.735;0.013587094481393041
16:07.4;0.11857862964432486;-0.1990393894695427;-0.6635966520382535;0.735;0.015662087439028125
16:07.4;0.12755034436605725;-0.2074928494179583;-0.6577108191675053;0.7020000000000001;0.017406832735500342
16:07.4;0.1327235999468952;-0.21720508125993057;-0.6528019174048406;0.68;0.01881913055080426
16:07.4;0.13450064832501152;-0.2278507405626725;-0.6502045035250437;0.662;0.019926214242378358
16:07.4;0.13350920539203176;-0.2390078686274581;-0.6512227231680796;0.655;0.02078035469625604
16:07.4;0.1305075883407757;-0.25021382080180604;-0.6569691879937365;0.6659999999999999;0.021453198965826502
16:07.4;0.12629838903014964;-0.261018471797522;-0.6682411771570254;0.685;0.022029380644160042
16:07.5;0.12165732801816907;-0.2710299698065325;-0.6854452149098048;0.711;0.02260103560270004
16:07.5;0.11727950830669251;-0.27995018404085964;-0.7085722681712078;0.794;0.023264142262665856
16:07.5;0.11374196692391945;-0.28759818993114106;-0.7372159648748144;0.794;0.024115796704898072
16:07.5;0.11147938108598641;-0.29392028766088696;-0.7706190388039439;0.794;0.025250143310418742
16:07.5;0.1107689859126114;-0.2989858330664748;-0.8077364797610069;0.835;0.026750905527565042
16:07.5;0.11172112462749063;-0.30297040972885914;-0.8473165668218141;0.889;0.028680136298969355
16:07.5;0.11427349565277412;-0.3061294796598436;-0.8880080663345464;0.9470000000000001;0.031064729538061914
16:07.5;0.11819057676044797;-0.30876520110582667;-0.9284948373653602;1.011;0.03388368949155801
16:07.5;0.12307395577329716;-0.3111877060070059;-0.9676462555352526;1.077;0.037059982608053064
16:07.5;0.1283910374565789;-0.3136709195073712;-1.0046627891107742;1.138;0.040460317112124965
16:07.6;0.13352646648942101;-0.3164027011748684;-1.0391919842895414;1.182;0.04390392290605644
16:07.6;0.13785406572024975;-0.3194312116151751;-1.0713898652201876;1.217;0.047178536189642135
16:07.6;0.14082019075636878;-0.3226147077834538;-1.101906829893594;1.217;0.05006035970948216
16:07.6;0.14202483955062165;-0.32558765723844396;-1.131786568197451;1.217;0.052335547955654066
16:07.6;0.14128730956150518;-0.3277572624687542;-1.162280854263309;1.205;0.05382283415849455
16:07.6;0.13868831071214285;-0.3283398853627846;-1.1945988561689185;1.196;0.054398333480115614
16:07.6;0.1345851547491876;-0.3264397753201673;-1.2296224785668204;1.193;0.054022169636745804
16:07.6;0.1295968772184235;-0.32116511543365733;-1.2676274607959572;1.194;0.05276118514291884
16:07.6;0.12455297177562782;-0.3117677423460198;-1.3080546428163877;1.182;0.050793853115295294
16:07.6;0.1203979146377306;-0.2977838115687863;-1.3493787265074317;1.182;0.04837866816086181
16:07.7;0.11805068070387617;-0.2791474379611546;-1.3891223634828453;1.228;0.045776506410078285
16:07.7;0.11823623492739908;-0.25625195322587;-1.424051724829763;1.567;0.04314629815917796
16:07.7;0.12132540488507386;-0.22994620818306052;-1.4505481092480104;1.567;0.04046785069936335
16:07.7;0.12722625740814716;-0.2014716993281892;-1.4650872950951002;1.567;0.03755383584968264
16:07.7;0.13535948925384333;-0.17235518013837833;-1.4647256752174864;1.652;0.034171916938040434
16:07.7;0.14472941898459465;-0.14426592482524783;-1.4475136498369334;1.675;0.030223395238280982
16:07.7;0.1540784198221448;-0.11884494103249052;-1.4127883055206385;1.633;0.025870189303825626
16:07.7;0.16209146196057195;-0.09752607941171963;-1.3613077895655528;1.5330000000000001;0.021519750642743307
16:07.7;0.16760556426911957;-0.08138110073809462;-1.295202267222381;1.389;0.017666462186321234
16:07.7;0.16978047023962745;-0.07101740052212446;-1.2177481138229307;1.236;0.014682836720571517
16:07.8;0.16819995515983394;-0.06654292735485082;-1.1330073774909475;1.105;0.012681204783825343
16:07.8;0.16289296326430028;-0.06759838110682641;-1.0453969079283139;0.8490000000000001;0.011511179610339964
16:07.8;0.15428515912397972;-0.07344370340378836;-0.9592606326998281;0.8490000000000001;0.01086964455458525
16:07.8;0.14310756677240355;-0.08307454031398244;-0.8785145115396947;0.8490000000000001;0.010444303514896945
16:07.8;0.1302908807384798;-0.09534265223325081;-0.8064058790457536;0.7909999999999999;0.010017398116312809
16:07.8;0.11686224443011628;-0.10906483722297347;-0.7453830295782106;0.737;0.009500325368489161
16:07.8;0.10384962752053734;-0.12311671428737901;-0.6970411756056205;0.6890000000000001;0.00891210702529615
16:07.8;0.09219607379694653;-0.13651173742548933;-0.6621143578787572;0.6459999999999999;0.008333269486879163
16:07.8;0.0826870380067074;-0.14846487527009913;-0.6405006311568441;0.616;0.00786286311038636
16:07.8;0.07589369407941211;-0.1584391524079445;-0.6313210726023233;0.605;0.0075913407952462215
16:07.9;0.072134522597021;-0.16617235541555953;-0.6330195509230662;0.611;0.007587855664707741
16:07.9;0.07145764613704542;-0.17168061288888717;-0.6435098033448762;0.721;0.00789450908009566
16:07.9;0.07364573267288714;-0.1752365258797904;-0.6603656935268567;0.721;0.008522298173460114
16:07.9;0.07824317943151599;-0.1773227080971655;-0.6810335258275255;0.721;0.009448858317114834
16:07.9;0.0846037234824077;-0.17856509378846278;-0.7030385604100094;0.759;0.010620994630993424
16:07.9;0.09195640693934949;-0.17965250060406318;-0.7241684696102916;0.7859999999999999;0.011963406831525882
16:07.9;0.09948610816849844;-0.18125083939748682;-0.7426286390254853;0.813;0.013391035517110848
16:07.9;0.10642024121626938;-0.18392246172944549;-0.757165524503103;0.8390000000000001;0.014820055889089485
16:07.9;0.1121092388430294;-0.18806140489819614;-0.7671507346831433;0.862;0.016174161878244553
16:07.9;0.11608862866163144;-0.1938530513861618;-0.7726167349380787;0.88;0.017387071226952048
16:08.0;0.11811415170326703;-0.20126338717635367;-0.7742344739882132;0.882;0.01840514391419908
16:08.0;0.11816613819875377;-0.2100590060041101;-0.7732251243648995;0.8009999999999999;0.01919288697111183
16:08.0;0.11642494036255341;-0.21985289114723205;-0.7712078937633431;0.8009999999999999;0.019740114683365263
16:08.0;0.11322486378205918;-0.23016412878799725;-0.7700023508864617;0.8009999999999999;0.020066493904555196
16:08.0;0.10899606024784081;-0.24047835648906124;-0.7714136457282522;0.772;0.02021967228440906
16:08.0;0.10420126349901992;-0.2503020078923254;-0.7770253561390543;0.758;0.020266208650346347
16:08.0;0.0992720103866076;-0.25920949929490245;-0.7880188096883292;0.757;0.020277495523339885
16:08.0;0.09455035893848347;-0.2668823791210938;-0.8050383322456885;0.773;0.020314196185075562
16:08.0;0.09024406197715161;-0.27313630040433107;-0.8281223967510829;0.809;0.02041233034458627
16:08.0;0.08640205402095773;-0.2779302929078687;-0.8567144802243213;0.856;0.02057292579188244
16:08.1;0.0829137638115935;-0.28135442502836994;-0.8897562531238036;0.907;0.020756371201543757
16:08.1;0.07953303764346399;-0.2835958260618827;-0.9258521892918642;1.071;0.020882816028362037
16:08.1;0.07592504893899786;-0.28488786363955393;-0.9634778767292393;1.071;0.020840146897750936
16:08.1;0.07173029781733313;-0.2854511038426861;-1.001189266922285;1.071;0.020499843517097164
16:08.1;0.0666356341671498;-0.2854354459775753;-1.0377929781605404;1.13;0.019739000899860644
16:08.1;0.06044145402323241;-0.2848709713093064;-1.072460126408837;1.172;0.018465635310159257
16:08.1;0.05311533397481744;-0.2836339726789849;-1.1047835986868568;1.2;0.016643910916364378
16:08.1;0.044823421174438105;-0.2814352694045582;-1.1347784617278256;1.217;0.014315107300441532
16:08.1;0.03593355475990185;-0.27783697670212315;-1.1628218460224393;1.229;0.011609229831405731
16:08.1;0.026989347381176473;-0.2722998947684929;-1.1895329951756017;1.248;0.008742111667401513
16:08.2;0.018659436467150212;-0.26425864177457975;-1.2156011264472133;1.258;0.005994028669382482
16:08.2;0.011667012639516156;-0.25321650702603465;-1.2415746382466117;1.162;0.0036679593557037717
16:08.2;0.006703048066593461;-0.23884707358417834;-1.267635960834533;1.162;0.002029489502019281
16:08.2;0.004327748457753302;-0.22108738814913173;-1.293404057442308;1.162;0.0012375427162418639
16:08.2;0.004868192425993686;-0.2002082455812365;-1.317817960398997;1.17;0.0012844142596443646
16:08.2;0.008323129229222636;-0.1768480461744215;-1.3391473948184618;1.229;0.001971130076195089
16:08.2;0.014292071584216411;-0.15199770369897697;-1.3551546012854794;1.334;0.002943886443844906
16:08.2;0.021954662806948737;-0.12692917194891307;-1.36340130155412;1.456;0.00379937291528878
16:08.2;0.030126533814971698;-0.10307105732134185;-1.361657179368659;1.5630000000000002;0.0042281820532627185
16:08.2;0.03740215274209857;-0.0818481005239038;-1.3483292290455555;1.641;0.004127633739519637
16:08.3;0.04236886928857324;-0.06451122625921962;-1.322809721774615;1.6469999999999998;0.003615593102998765
16:08.3;0.043851142471193205;-0.05198760921305536;-1.285648735900975;1.256;0.0029309140686159265
16:08.3;0.04113163750381717;-0.04477543004364563;-1.2385086108235945;1.256;0.002280944907767955
16:08.3;0.03410211842146473;-0.042897713502584256;-1.1839365953839083;1.256;0.0017319842857591043
16:08.3;0.023315409130683706;-0.045918261470066155;-1.125036970927578;1.09;0.0012044680155252677
16:08.3;0.009929241223005524;-0.05301404070591033;-1.0651061001798907;0.97;0.0005606603462582469
16:08.3;-0.004449345172209795;-0.06309186598927499;-1.0072655742099477;0.8809999999999999;0.000282757063095955
16:08.3;-0.017992915476628884;-0.07493165387722583;-0.9541307487632759;0.826;0.0012863962052297386
16:08.3;-0.0289162194741825;-0.08733568339403291;-0.9075594919014187;0.799;0.0022919668853778772
16:08.3;-0.03572775414185244;-0.09926410241387752;-0.8685147320300751;0.794;0.003080173119886127
16:08.4;-0.037428794198291065;-0.10993996011961607;-0.8370533233096386;0.8;0.0034444075795841533
16:08.4;-0.03362839481331833;-0.11891153435246211;-0.8124340066079317;0.84;0.0032487643757210948
16:08.4;-0.024561522372995786;-0.12606630033330765;-0.7933196523649223;0.84;0.0024564193083726187
16:08.4;-0.011021226705899986;-0.1315992361161111;-0.7780347507001132;0.84;0.0011284499439995655
16:08.4;0.005770546312725184;-0.13594491131764908;-0.7648349931447285;0.838;0.0005999950071695156
16:08.4;0.024331555011186116;-0.1396854743486697;-0.7521539711941159;0.8440000000000001;0.0025563944440157647
16:08.4;0.043108693673342975;-0.14344771759370897;-0.738803501577918;0.84;0.0045686453905082235
16:08.4;0.060664004774629236;-0.1478040412635148;-0.7241109778163477;0.8240000000000001;0.006492657856836653
16:08.4;0.07582943384347145;-0.15319208080003355;-0.7079817982635794;0.792;0.00822424843960743
16:08.4;0.08780949798517501;-0.15986403714408376;-0.6908822773444016;0.748;0.009698315824330662
16:08.5;0.09622348086033657;-0.16787076470767026;-0.673749021948708;0.701;0.010883141602316527
16:08.5;0.10109040469652178;-0.17707930282451625;-0.6578422173530623;0.644;0.01177604562786384
16:08.5;0.10276930216754203;-0.18721590471973418;-0.6445698777590646;0.644;0.012401555311838302
16:08.5;0.10187270078212188;-0.19792120186971818;-0.6353136372801441;0.644;0.012809681079605104
16:08.5;0.09917017453686502;-0.20880471472759507;-0.6312797523679783;0.644;0.013072036090542104
16:08.5;0.09549277164816598;-0.21949293432725908;-0.6333851205969281;0.647;0.013275744942653411
16:08.5;0.09164397635465613;-0.22967117956207267;-0.6421780968993447;0.653;0.013516551835745138
16:08.5;0.08832137018133367;-0.23911970560248957;-0.6577927321375453;0.6659999999999999;0.013892174695042742
16:08.5;0.08605273834806502;-0.24774231708143896;-0.6799383207263713;0.6859999999999999;0.01449554032233367
16:08.5;0.08514926386863239;-0.25558444248980566;-0.7079287889302404;0.716;0.01540653185687026
16:08.6;0.0856780214072589;-0.2628373278918634;-0.7407567344974881;0.7609999999999999;0.0166813840256291
16:08.6;0.08745672948138945;-0.2698252886390086;-0.7772123745487509;0.924;0.018340686585767513
16:08.6;0.09007344996804091;-0.27697404456927716;-0.8160337853864145;0.924;0.02035841719878265
16:08.6;0.09293124008162884;-0.284760286639626;-0.8560570781270448;0.924;0.02265394680398796
16:08.6;0.0953148773933555;-0.29364552268689664;-0.8963337754190023;0.97;0.025087295113945994
16:08.6;0.09647513695646011;-0.3040002580857777;-0.9362032355201484;1.018;0.02745740526162376
16:08.6;0.0957228154339397;-0.3160269816640528;-0.9753264356410414;1.071;0.02950459262913247
16:08.6;0.09251895308642549;-0.3296916262591678;-1.013686867153279;1.109;0.030920210835468233
16:08.6;0.08654480830063366;-0.3446731272807098;-1.051555865029843;1.133;0.03136756415321322
16:08.6;0.07773966313328194;-0.36034029014162866;-1.0894176778598772;1.15;0.030517566283668914
16:08.7;0.06630497764006758;-0.3757644414416946;-1.1278552918042328;1.172;0.028100574245001893
16:08.7;0.052684282559419274;-0.3897729103367013;-1.1674060775914794;1.24;0.023972574233158496
16:08.7;0.037533426931872865;-0.40104044746240636;-1.2084008906081032;1.24;0.018189360551261365
16:08.7;0.02169207501909941;-0.40820737238105315;-1.250800656107301;1.24;0.011075670882996639
16:08.7;0.0061570589433930295;-0.4100118575275992;-1.2940470968333757;1.271;0.003266779417937886
16:08.7;-0.007952779390115943;-0.405428020485599;-1.3369518509258773;1.291;0.004310706586466926
16:08.7;-0.019457186701880468;-0.39380170681468785;-1.3776539971855684;1.315;0.010555961484753162
16:08.7;-0.02721517519507375;-0.3749695169245881;-1.4136744697826606;1.37;0.014426351598973106
16:08.7;-0.03026646591960716;-0.3493408651430106;-1.442087146392189;1.46;0.0152476393333086
16:08.7;-0.02799253248353257;-0.31792150771969396;-1.459809009208051;1.558;0.012991465363976653
16:08.8;-0.020256300831240245;-0.2822588963922569;-1.4639848679626992;1.6369999999999998;0.008370364398446165
16:08.8;-0.007474050095642218;-0.24429840788817586;-1.4524131140940022;1.639;0.002651958982818998
16:08.8;0.009408131310810532;-0.20616389481791653;-1.423940224417793;1.639;0.002761898657713933
16:08.8;0.029025432030573096;-0.16990970135255667;-1.378750486373607;1.639;0.0067995872039021766
16:08.8;0.04976206816574612;-0.13730268735980874;-1.3184909490330339;1.516;0.009008544168862542
16:08.8;0.06994762900386503;-0.10966838137916371;-1.246194834710559;1.348;0.009559614480180608
16:08.8;0.08806004828165458;-0.08780627767879427;-1.1660007905793082;1.163;0.009015780523367404
16:08.8;0.10290688658573649;-0.07197009022129332;-1.0827084977991341;1.0;0.008018775069839756
16:08.8;0.11375204178233168;-0.06190787311966875;-1.001247555149838;0.861;0.007050932436481893
16:08.8;0.1203652573889833;-0.05695298544456771;-0.9261499444890993;0.76;0.006348906750027205
16:08.9;0.12299022117433298;-0.05615321576289953;-0.861106203013635;0.698;0.0059470546925628484
16:08.9;0.12224233055974076;-0.05842186279824637;-0.8086613392978127;0.6990000000000001;0.005775155765632633
16:08.9;0.11895872640372206;-0.06268908166286644;-0.770075818369387;0.6990000000000001;0.005742773660723123
16:08.9;0.11403393180762786;-0.0680296814548801;-0.7453451227794001;0.6990000000000001;0.005782157937904799
16:08.9;0.108276715418783;-0.07374996777883318;-0.7333480260729452;0.737;0.0058560804612433175
16:08.9;0.10231133890410028;-0.07942750089870898;-0.7320847456272721;0.772;0.00594916513200469
16:08.9;0.0965293681483078;-0.08490700538185976;-0.7389658605951428;0.794;0.006056578663036595
16:08.9;0.09108780045381414;-0.09026126799703163;-0.7511148601240231;0.813;0.0061754413219083665
16:08.9;0.08594424097009729;-0.09572926523461554;-0.7656529304959896;0.831;0.006299316871675597
16:08.9;0.08091654523403866;-0.10164532466523159;-0.7799447285876322;0.8490000000000001;0.006414880442982715
16:09.0;0.07575219000001002;-0.10837193807163514;-0.7917937960292268;0.86;0.006500161208351089
16:09.0;0.07019242112722668;-0.11624473825236177;-0.7995827090050784;0.863;0.0065241948112722045
16:09.0;0.06402042605928397;-0.12553206060551061;-0.8023567785638012;0.863;0.006448233327575598
16:09.0;0.05709137825448974;-0.13640595003398237;-0.7998524808117039;0.863;0.006228934130667438
16:09.0;0.04934858633662697;-0.14892037282060455;-0.7924728903277778;0.85;0.005823891097021691
16:09.0;0.04082963511098137;-0.16299615017898567;-0.7812125731023984;0.8240000000000001;0.0051990269652382
16:09.0;0.03166392174938763;-0.1784155393000912;-0.7675358251469976;0.789;0.004336067519052943
16:09.0;0.022062901134763165;-0.19482909912320542;-0.7532167811591155;0.753;0.0032376986823156127
16:09.0;0.012304790774318891;-0.21177566930699745;-0.7401567013878018;0.723;0.0019287412645585442
16:09.0;0.0027143724289220785;-0.2287150725957441;-0.7301993323756124;0.7090000000000001;0.0004533208067112084
16:09.1;-0.006363141231324902;-0.24507214703304028;-0.724966736514894;0.708;0.0011305339234577764
16:09.1;-0.014595378546756034;-0.26028911146240363;-0.7257339134020468;0.77;0.0027570762825176406
16:09.1;-0.021700987421953866;-0.2738800151654226;-0.7333507231442693;0.77;0.004358645649531539
16:09.1;-0.027484676814684333;-0.2854771325754874;-0.7482079129384265;0.77;0.005870623887874
16:09.1;-0.03185903018515534;-0.2948597225921762;-0.7702387141576786;0.805;0.007235579965507813
16:09.1;-0.03484749695855888;-0.3019620033092731;-0.7989510096305191;0.8440000000000001;0.00840705786650296
16:09.1;-0.03656905131523387;-0.3068628792709841;-0.8334888877867356;0.887;0.009353149231980658
16:09.1;-0.037208889552399094;-0.3097608027724371;-0.8727199226292786;0.935;0.010058843718470085
16:09.1;-0.036982295468186654;-0.3109366586086782;-0.9153393952213691;0.981;0.010525626270237851
16:09.1;-0.03609995584830496;-0.3107086304865071;-0.9599800166060112;1.0270000000000001;0.010767680983465804
16:09.2;-0.0347403596863496;-0.30938432818303313;-1.0053161723734505;1.074;0.010805261716119407
16:09.2;-0.03302993279442793;-0.3072155104997775;-1.050153079204544;1.171;0.010656226390259848
16:09.2;-0.031028948075401408;-0.30436022876756863;-1.093490015110693;1.171;0.0103268953557633
16:09.2;-0.028723114926449658;-0.3008572353375735;-1.134544693129858;1.171;0.009804232574660747
16:09.2;-0.026023615514784975;-0.2966171005240626;-1.1727323979464448;1.193;0.009052379288275871
16:09.2;-0.02277821243061647;-0.29143295871955394;-1.2076096534612213;1.219;0.00801650154038576
16:09.2;-0.018793574478622538;-0.2850128671552994;-1.2388033501866909;1.249;0.006635539329668424
16:09.2;-0.013866992430114756;-0.27703489956130595;-1.265943895263773;1.276;0.004863301788302443
16:09.2;-0.00782577025683626;-0.267220883893267;-1.2886131108706043;1.2919999999999998;0.002694759650909449
16:09.2;-0.0005739244319077134;-0.25541482182750386;-1.3063134012772517;1.296;0.00019149092243191056
16:09.3;0.007855466747481893;-0.24164502572261617;-1.318464953827127;1.2990000000000002;0.002502755615271536
16:09.3;0.017249693147716825;-0.226151679196367;-1.32443853411522;1.341;0.005166697064200873
16:09.3;0.027180613062075382;-0.20937379253535607;-1.323627338592013;1.341;0.007532641463478413
16:09.3;0.036997134367526836;-0.1919047264741;-1.3155511852615838;1.341;0.009340314684721789
16:09.3;0.04585637330388101;-0.17443189649255847;-1.2999773103084142;1.3630000000000002;0.010398276919540322
16:09.3;0.05279957967914072;-0.15767000273000956;-1.277039008318985;1.369;0.010631234647479804
16:09.3;0.056871655733255595;-0.14229014043689517;-1.2473309209743606;1.355;0.010093745927630515
16:09.3;0.05727166176191508;-0.1288487248273321;-1.2119556499534112;1.3130000000000002;0.008943481995286402
16:09.3;0.05350960800599728;-0.11772508014030338;-1.172497967953308;1.247;0.007386060538720741
16:09.3;0.04553713997819453;-0.10907856415028476;-1.130914903264991;1.158;0.005617396643747748
16:09.4;0.033819433926780405;-0.10283503844030291;-1.0893486081095578;1.065;0.0037885614132393977
16:09.4;0.01932444562361116;-0.09870829764880833;-1.049888648637762;0.92;0.0020026448861942743
16:09.4;0.0034256284244381318;-0.09625392116181378;-1.0143272657018851;0.92;0.0003344543000266337
16:09.4;-0.012260483179951296;-0.0949438546537108;-0.9839578562619472;0.92;0.0011453835547574668
16:09.4;-0.02606830538754261;-0.09424627375810893;-0.9594538550130224;0.909;0.0023572252289231575
16:09.4;-0.03648272995080605;-0.09369889849335078;-0.9408376254074171;0.907;0.00321615144546104
16:09.4;-0.04232540931995333;-0.09296932562735791;-0.9275277304095849;0.915;0.003649788934362584
16:09.4;-0.04290448894179279;-0.09189808334607485;-0.9184475082163166;0.9309999999999999;0.0036212918494669282
16:09.4;-0.038100946105806104;-0.09051975960542927;-0.9121785186370894;0.95;0.0031460019866714527
16:09.4;-0.028373456145802344;-0.08905779829269361;-0.9071402532015664;0.966;0.002292232326273756
16:09.5;-0.014680497931388337;-0.08789143252468407;-0.9017734703653444;0.9620000000000001;0.0011635492850947777
16:09.5;0.001664378362969564;-0.08749875085916863;-0.8947037939032505;0.9209999999999999;0.00013029663300830838
16:09.5;0.0191741474826099;-0.08838577796055165;-0.8848691199053258;0.9209999999999999;0.0014996071132848208
16:09.5;0.03636986835357217;-0.09101441112957281;-0.8716064766782249;0.9209999999999999;0.002885176201848952
16:09.5;0.05193179985893901;-0.0957404256332276;-0.8547014096094193;0.9059999999999999;0.0042495520088999435
16:09.5;0.06480711962592269;-0.10276815064030792;-0.8344011120822626;0.885;0.0055572013818432865
16:09.5;0.07427551617065478;-0.11212397479715452;-0.8113886511954745;0.856;0.006757298322513103
16:09.5;0.07997733056056945;-0.12364828607105817;-0.7867168143416334;0.8140000000000001;0.007779889660729931
16:09.5;0.08190748037546262;-0.13700477151021026;-0.7617053933808797;0.767;0.008547641321265165
16:09.5;0.08037811234626815;-0.1517064647720634;-0.7378122228531836;0.725;0.00899679316874104
16:09.6;0.0759542968833154;-0.16715844236812952;-0.7164941659524967;0.7;0.009096897931624883
16:09.6;0.06936992741129445;-0.18271596812067406;-0.6990768589228221;0.6890000000000001;0.008860794604688462
16:09.6;0.06143533646951844;-0.19775208780110912;-0.6866497296182218;0.6890000000000001;0.008342084254479574
16:09.6;0.05295132558325492;-0.21172212048627412;-0.6799968199661083;0.6890000000000001;0.00762342186457635
16:09.6;0.044641866455283;-0.22421202859800887;-0.6795666446656696;0.6990000000000001;0.006801947979034859
16:09.6;0.037109827624583785;-0.23496573729500236;-0.6854781014901304;0.7140000000000001;0.00597705236007524
