Time;AccX;AccY;AccZ;Acc-old;Acc-trns
10:03.3;-0.06344186687494159;-0.29152825164834256;-1.582917768785285;1.611;0.029276216934886648
10:03.3;-0.0872962284930121;-0.28811286227906757;-1.5026507808554617;1.5119999999999998;0.037793419615941175
10:03.3;-0.10851432748339683;-0.28584289093619664;-1.4218701631385358;1.504;0.04410363849971983
10:03.3;-0.12488453954719135;-0.2851804758069547;-1.33986445421395;1.517;0.047718780014715884
10:03.3;-0.13462815045733756;-0.28625655328759797;-1.2562931714808934;1.364;0.04841526534703306
10:03.3;-0.13656674589135648;-0.2888208288336702;-1.1713173235558514;1.364;0.046200644880697896
10:03.3;-0.1302413855799145;-0.2922679236693612;-1.0856356654127906;1.185;0.04132513342817031
10:03.3;-0.11596506737900442;-0.2957196829155734;-1.0004175970311397;1.0490000000000002;0.03430747367346455
10:03.3;-0.09478964293998399;-0.29814566515637503;-0.917148338477883;0.945;0.02591964030099565
10:03.3;-0.06837627350735413;-0.2985132084345534;-0.8374220530226055;0.884;0.017092806414873367
10:03.3;-0.038776233710820646;-0.29595544211182867;-0.7627249234418881;0.765;0.0087530597407089
10:03.4;-0.008153492067552552;-0.289933560498447;-0.694243143310302;0.672;0.0016411706477660075
10:03.4;0.02150127303057293;-0.28036186226242144;-0.6327276414777548;0.617;0.00381416887352703
10:03.4;0.04861724653299842;-0.2676731222687408;-0.5784494914164529;0.52;0.007527669911606632
10:03.4;0.07222221205197706;-0.25282431590313936;-0.5312708164703318;0.7170000000000001;0.0097007561313644
10:03.4;0.0920415250747106;-0.23725051412461268;-0.49083022599120474;0.7170000000000001;0.010718210142183696
10:03.4;0.10850287865834556;-0.22276043425154168;-0.4568046236651965;0.636;0.011041035528936559
10:03.4;0.12263057943282227;-0.2113657107805254;-0.4291760393714369;0.6759999999999999;0.011124199844901298
10:03.4;0.13584047429078835;-0.20506505647568715;-0.408423850221189;0.619;0.011377109717889765
10:03.4;0.1496875948423856;-0.20563058760722264;-0.39557970008078175;0.54;0.012176080863827227
10:03.4;0.1656323188354349;-0.21443226064100135;-0.39211558824483017;0.457;0.01392673506231757
10:03.5;0.18486881256700297;-0.23230246807419286;-0.39968220866503357;0.382;0.01716454486982988
10:03.5;0.20822619309683638;-0.2594284220753837;-0.4197584512449718;0.39899999999999997;0.022675264524472143
10:03.5;0.23612830667164117;-0.29527549852168256;-0.4532890288125491;0.614;0.03160462719879667
10:03.5;0.2685865407869148;-0.3385620599027142;-0.5003675958463746;0.465;0.045500032926697645
10:03.5;0.3052044392986725;-0.3873036603520852;-0.5599942073120037;0.465;0.06619512130271459
10:03.5;0.3451927051368155;-0.43893015671213154;-0.6299435610762125;0.53;0.09544620617071085
10:03.5;0.38741216836836256;-0.4904723235433361;-0.7068151959015144;0.84;0.13430545155586907
10:03.5;0.4304610138922206;-0.5388179615794995;-0.7863249684328923;1.162;0.18238031229053847
10:03.5;0.47279937984505094;-0.5810339736864106;-0.8638100888727637;1.4140000000000001;0.23729943113665228
10:03.5;0.5128759534954712;-0.6147246696362942;-0.9348269845345727;1.5759999999999998;0.2947299156233167
10:03.6;0.5492141582371641;-0.638356170884657;-0.9956948779840978;1.651;0.34908489603630155
10:03.6;0.5804447536501806;-0.6514535346940894;-1.0438738061392885;1.5319999999999998;0.3947229110281073
10:03.6;0.6053170751575524;-0.65459526421941;-1.078125615858763;1.4280000000000002;0.42719400436551996
10:03.6;0.6227440559159425;-0.6491884797439533;-1.098468632206185;1.4409999999999998;0.44408699490490416
10:03.6;0.6319089612138423;-0.637090963811001;-1.1059797120951325;1.4409999999999998;0.4452491714139031
10:03.6;0.63239353170369;-0.6202150390387178;-1.1025042653579258;1.444;0.43242419975475976
10:03.6;0.6242378004621523;-0.6002448324298393;-1.0903206734808628;1.415;0.408538265103623
10:03.6;0.6078676837852393;-0.5785095991897398;-1.0717952451118629;1.278;0.3769046114455994
10:03.6;0.5839129054526203;-0.5559543691010006;-1.0490618667539404;1.018;0.3405558323161188
10:03.6;0.5530143026838534;-0.5331238903358522;-1.0237675666469914;0.9740000000000001;0.3018324125381627
10:03.7;0.5157239495854041;-0.5101316464956899;-0.9969406134920182;1.143;0.2622822223920328
10:03.7;0.4725349980028921;-0.4866506855429258;-0.9690286438802181;1.26;0.2228373237505982
10:03.7;0.42400223316744107;-0.4619801424087668;-0.9400901477050677;1.3430000000000002;0.18414543352435428
10:03.7;0.37088195089120723;-0.43521147581420794;-0.9100451279269488;1.203;0.14689227808480462
10:03.7;0.314230918969819;-0.40546883864518135;-0.8788742320571655;1.203;0.11197810924161872
10:03.7;0.25543026731413965;-0.3721572374984661;-0.8467091059132621;1.003;0.08048835613392988
10:03.7;0.19612240884613075;-0.33514451824856767;-0.8138241719591803;0.887;0.053492134024739506
10:03.7;0.1380703030773154;-0.2948338771616108;-0.7805765643169094;0.8009999999999999;0.03177555683268869
10:03.7;0.08297259109845793;-0.25213142167794195;-0.7473428879504004;0.7340000000000001;0.015634411238420774
10:03.7;0.03228277722011993;-0.20834812283687115;-0.7144832183514914;0.755;0.0048056541618225245
10:03.8;-0.012925739984005109;-0.16508147306626098;-0.6823381794936749;0.7929999999999999;0.0014559733418453994
10:03.8;-0.052027051073668645;-0.12410625220743966;-0.6512409819446576;0.7490000000000001;0.004204986383783319
10:03.8;-0.08483996724652859;-0.08728288280203601;-0.6215099038804881;0.6629999999999999;0.004602328643600507
10:03.8;-0.11156347095443508;-0.05647660267386145;-0.5933943248571051;0.44799999999999995;0.0037388149452616563
10:03.8;-0.13266549336940062;-0.03347610309197668;-0.5669853534618298;0.44799999999999995;0.0025180521093991254
10:03.8;-0.14874991762350398;-0.019906626020459853;-0.5421443295191761;0.405;0.001605348442977688
10:03.8;-0.1604348197643245;-0.01713967075286912;-0.5185114956844654;0.521;0.0014258029046402602
10:03.8;-0.16826903767964488;-0.02620031861842159;-0.4956227530344565;0.638;0.00218505322120496
10:03.8;-0.17269333627466318;-0.047670711943499144;-0.47310795285048063;0.596;0.003894820670865384
10:03.8;-0.1740315777596632;-0.08159552759752645;-0.45090575743913935;0.523;0.006402951218011777
10:03.9;-0.1724935918302421;-0.12740854172202154;-0.4294335968345253;0.498;0.009437729575050334
10:03.9;-0.16818615805251963;-0.1839044288001929;-0.4096872918968843;0.479;0.01267170140707959
10:03.9;-0.16114463247033525;-0.24926985551887937;-0.3932759209955176;0.55;0.01579730353893717
10:03.9;-0.15139934839030364;-0.32116835288650514;-0.38240133893763384;0.6679999999999999;0.018594142489084076
10:03.9;-0.1390761728058319;-0.39685548779768426;-0.3797765581250228;0.6679999999999999;0.020961061652735796
10:03.9;-0.12450883348429415;-0.47329655982426694;-0.38846241255628333;0.677;0.02289193557982799
10:03.9;-0.10832555081802184;-0.547275254727849;-0.41160389715752027;0.687;0.024401481569300665
10:03.9;-0.09147231411369271;-0.6155085929534921;-0.45206712599419835;0.711;0.025452281227565637
10:03.9;-0.0751495983344821;-0.6748002229614493;-0.5119999810935192;0.745;0.025964013485558903
10:03.9;-0.06066477744961159;-0.7222584840703001;-0.5923560812596647;0.872;0.02595446684866866
10:04.0;-0.049232600286253245;-0.755577125421164;-0.6924390127892233;1.09;0.025758057256521735
10:04.0;-0.04178342824540475;-0.7733309467989699;-0.8095440490627268;1.1159999999999999;0.0261583258043459
10:04.0;-0.03885152027085051;-0.7751990971090045;-0.9387890313894869;1.0859999999999999;0.028274132084116853
10:04.0;-0.040591934286168425;-0.7620329258016127;-1.073220343375722;1.246;0.0331972706980728
10:04.0;-0.04691008667441778;-0.7357422396365585;-1.2042392801438675;1.246;0.041562792057396714
10:04.0;-0.057624222731172306;-0.6990394947974079;-1.3223292060894616;1.48;0.0532655461264311
10:04.0;-0.07256991281072307;-0.6551057164920704;-1.4180132296566619;1.7380000000000002;0.06741371693442831
10:04.0;-0.09159929231074981;-0.60722693512036;-1.482941692464902;1.982;0.08248352665966416
10:04.0;-0.11448512986761426;-0.5584354167287849;-1.510967473146041;2.149;0.0966000053488246
10:04.0;-0.14077691353457272;-0.5111946589406814;-1.4990233777753377;2.1319999999999997;0.10787632741296332
10:04.1;-0.1696652371952909;-0.4671735464552214;-1.4476172936221996;1.95;0.11474264960841998
10:04.1;-0.19990126916310527;-0.4271441732081363;-1.3608262407322569;1.675;0.11619641072072384
10:04.1;-0.2298012947770834;-0.3910124789438394;-1.2457754433184782;1.3840000000000001;0.11193936914369655
10:04.1;-0.25734425716720377;-0.35796520466979853;-1.111696530645526;0.799;0.10240980644760496
10:04.1;-0.280345538310489;-0.32670123701155035;-0.9687478641579741;0.799;0.08872687496917323
10:04.1;-0.2966747553115188;-0.2957134688583249;-0.8268249728708325;0.785;0.0725379510238803
10:04.1;-0.30448196580074566;-0.26359069131635704;-0.6945539948878107;0.6609999999999999;0.05574393949066721
10:04.1;-0.3023960928265084;-0.22930173054863562;-0.5785697764366682;0.604;0.040117997863186934
10:04.1;-0.2896672430488931;-0.19240702644100932;-0.483113426712808;0.475;0.026925849952904462
10:04.1;-0.2662520587881708;-0.15314665029053887;-0.4099539271079678;0.413;0.01671612183359066
10:04.2;-0.23286718108559284;-0.11239772812282797;-0.35859989587133756;0.429;0.009385901194631114
10:04.2;-0.19102987655280282;-0.07154248389465036;-0.3267313575109612;0.382;0.004465356390164494
10:04.2;-0.14307792400941713;-0.03229397520379089;-0.31078076858809084;0.348;0.001435979612501723
10:04.2;-0.09214797714679782;0.0034964623200865437;-0.30660885205377736;0.536;9.878689778785849e-05
10:04.2;-0.04209807498682373;0.034034967336584857;-0.3102184926148621;0.536;0.0004444831058661693
10:04.2;0.0026384441193140528;0.05776017585769839;-0.3184301299848247;0.62;4.85277953482036e-05
10:04.2;0.03728966403000323;0.07347310275982057;-0.32943062908549564;0.735;0.0009025698594510356
10:04.2;0.05709014809333672;0.08041610515998639;-0.34311210133658754;0.731;0.0015752164555432903
10:04.2;0.05771824943658413;0.07831997878479326;-0.3611296475816598;0.579;0.0016324837086290566
10:04.2;0.03576426825113477;0.06744733165510952;-0.38664142270940455;0.522;0.0009326581651064653
10:04.3;-0.010855862721410686;0.048642211288520906;-0.42376057308232656;0.485;0.00022376811318031815
10:04.3;-0.08261509473150301;0.02336369584990346;-0.4768088417488104;0.473;0.0009203335397036314
10:04.3;-0.17825873666737377;-0.0063413197877521775;-0.5494773610516881;0.409;0.0006211268209968162
10:04.3;-0.29485955356808136;-0.03796963162304706;-0.6439899032836431;0.42700000000000005;0.007209923317513961
10:04.3;-0.4280083080958024;-0.06881115377468446;-0.7603738721228795;0.42700000000000005;0.02239433777058386
10:04.3;-0.5720805141157159;-0.09628245039424596;-0.8959772251237684;0.733;0.049351602624684895
10:04.3;-0.7205396998504369;-0.11827595622424499;-1.0453678053953377;0.968;0.08908888079061614
10:04.3;-0.8662862133121311;-0.13344964870131645;-1.200677771167043;1.3359999999999999;0.1388050631457783
10:04.3;-1.0020846117464381;-0.14139082905574357;-1.352352062991766;1.923;0.1916087783475868
10:04.3;-1.1210756139070293;-0.14260921281818664;-1.4901756804982578;2.208;0.2382428961498649
10:04.4;-1.217327333872637;-0.1383556392598827;-1.6043963394603684;2.427;0.2702190118697179
10:04.4;-1.2863437778606477;-0.13031248845466414;-1.6867454371316324;2.559;0.28274350170586166
10:04.4;-1.3254414710340658;-0.12023602121184321;-1.7312118364585192;2.562;0.275895974566891
10:04.4;-1.3339249093795744;-0.1096329082783317;-1.73450602646542;2.353;0.2536577469508756
10:04.4;-1.3130356629577487;-0.09952739541416604;-1.6962194322523045;2.353;0.22166707734501856
10:04.4;-1.2657043077781736;-0.09034271492762358;-1.618720974686169;2.162;0.1850961518890048
10:04.4;-1.1961684194806639;-0.08189826139416059;-1.5068425323587444;1.9069999999999998;0.14761649345438954
10:04.4;-1.109524607591349;-0.07351420470434095;-1.3674012267473865;1.675;0.11153320113487968
10:04.4;-1.0112782065546508;-0.06420719787819781;-1.2086103302967148;1.44;0.07847668818509981
10:04.4;-0.906948337465936;-0.05294606902275412;-1.0394396843361309;1.271;0.0499132172529974
10:04.5;-0.801767495610653;-0.0389194798790989;-0.8689831573494785;1.141;0.027116075366149163
10:04.5;-0.7004832340504358;-0.02176142059923818;-0.7058717624665617;0.9490000000000001;0.010759963466734504
10:04.5;-0.6072406264376903;-0.0016909711859234506;-0.5577491446954075;0.755;0.0005727115475934634
10:04.5;-0.5255135085047228;0.020454975563151345;-0.4308185430994128;0.516;0.004631026188406661
10:04.5;-0.4580610546287885;0.04329218100765538;-0.329484454849088;0.516;0.0065338289909799094
10:04.5;-0.40689917096203615;0.06504036692777938;-0.25612917123924017;0.434;0.006778425574019639
10:04.5;-0.3732805257387663;0.08372659382070846;-0.21105789232062547;0.36200000000000004;0.006596299306544433
10:04.5;-0.357679831640958;0.09741058404530525;-0.19262287560411603;0.33299999999999996;0.00671132795789754
10:04.5;-0.3597938140059653;0.10439902611103737;-0.19752087893719872;0.345;0.007419303704365718
10:04.5;-0.3785788054936437;0.1034219815771305;-0.22124488944919898;0.425;0.00866248307191764
10:04.6;-0.412347412183226;0.09376161670197992;-0.25864967850994447;0.483;0.010000006986809355
10:04.6;-0.45893080810308223;0.07533137786714066;-0.3045755345633515;0.74;0.010529751914190493
10:04.6;-0.5158940321393979;0.0487003059792991;-0.3544655105542523;1.034;0.008905661394173531
10:04.6;-0.5807721884606394;0.015062866731318448;-0.4048843511375811;0.93;0.0035419663936674755
10:04.6;-0.651283416436468;-0.02383589337220755;-0.4538267126178439;0.93;0.0070451705196309024
10:04.6;-0.7254834089026609;-0.06581899622339292;-0.5007467116363665;0.973;0.02391095079635944
10:04.6;-0.801849884117108;-0.10845207034214323;-0.5463294338586335;1.2009999999999998;0.047510053219182835
10:04.6;-0.8792917767376267;-0.14926825480148773;-0.5920783991117063;1.228;0.07771049650392634
10:04.6;-0.95706079181766;-0.18599741637271655;-0.6397947071879452;1.084;0.11389038979260596
10:04.6;-1.0345452103461579;-0.2167384107944727;-0.691020405990362;1.056;0.15494452373391532
10:04.7;-1.110973728563327;-0.24004654634348918;-0.7465316552395236;1.005;0.19908909803223582
10:04.7;-1.185115734532616;-0.2549565740266228;-0.8059717434398891;1.128;0.24352681848044377
10:04.7;-1.2550850595291958;-0.2609786236556085;-0.8676890183681606;1.371;0.28421186023195993
10:04.7;-1.3183223631071512;-0.258086760973011;-0.9287972168896762;1.624;0.31601540342162593
10:04.7;-1.3717658816234124;-0.2466967179418343;-0.9854253523266359;1.624;0.3334779322101048
10:04.7;-1.412163027029807;-0.22762100219660342;-1.033097666335782;1.732;0.33207680994034583
10:04.7;-1.4364593426016838;-0.2019930873554488;-1.067196281119505;1.867;0.30965218484361745
10:04.7;-1.442210462043374;-0.17116040205776853;-1.0834851285582792;2.055;0.26745756996164466
10:04.7;-1.4279580112103514;-0.1365573777701476;-1.0786716765374473;2.201;0.21033903701659146
10:04.7;-1.3934914385637913;-0.09958116089760125;-1.0509444076745686;2.191;0.1458348211092911
10:04.8;-1.3399190559998673;-0.0614946801592446;-1.000378748907018;2.0380000000000003;0.08242910190020158
10:04.8;-1.2695130326312178;-0.023371455435404767;-0.9290909208468464;1.7409999999999999;0.027566468845780977
10:04.8;-1.1853583905092355;0.013917481243752812;-0.841059763547485;1.411;0.013875133794863218
10:04.8;-1.0908918203945195;0.04968211680287017;-0.7416241514692227;0.945;0.04019440844230204
10:04.8;-0.9894411782415925;0.08336773017070617;-0.6367655317969808;0.945;0.05252517462392393
10:04.8;-0.8838656616814692;0.11449868596390314;-0.5323496095886494;0.8059999999999999;0.05387455603386206
10:04.8;-0.7763536640737905;0.1426294869186365;-0.4334861030781827;0.732;0.04800031707063226
10:04.8;-0.6683825996174559;0.16731865770253693;-0.3440904723503151;0.652;0.038480628296947164
10:04.8;-0.5608126744364114;0.18812967007447096;-0.26666109327832255;0.595;0.028134212887604693
10:04.8;-0.45407773102301363;0.20465160333235405;-0.20225162288705878;0.529;0.018794785354800683
10:04.8;-0.3484325861312573;0.21653200050819524;-0.15061169202356842;0.496;0.01136317094635838
10:04.9;-0.24421045523670318;0.22352104534947917;-0.11047162671429188;0.455;0.006030223685321534
10:04.9;-0.14204334576715796;0.225526981406381;-0.07993784467896742;0.387;0.0025607774386961777
10:04.9;-0.04301126294773809;0.22267620640414834;-0.05693955206005092;0.348;0.0005453433920788283
10:04.9;0.05128724010059573;0.21536534360217546;-0.03964735873431072;0.348;0.00043792466645199533
10:04.9;0.13872788694341529;0.20429304106045038;-0.026788644883494066;0.293;0.0007592207860471995
10:04.9;0.21670196272377512;0.19046843578491313;-0.017807869307205904;0.287;0.0007350177376540933
10:04.9;0.28220357513120187;0.17520496116706144;-0.012855135469635043;0.33799999999999997;0.0006356024589440373
10:04.9;0.33196221311234486;0.16010992834695711;-0.012629113904520983;0.294;0.0006712430385715806
10:04.9;0.36261737736092353;0.1470696469939438;-0.018134586194826156;0.374;0.0009671176573553214
10:04.9;0.3709381590859914;0.13821848426873515;-0.030420576218679836;0.436;0.0015596784604593147
10:05.0;0.35409130136843364;0.13587620331237132;-0.05034575873612466;0.41200000000000003;0.002422264428219003
10:05.0;0.30994483086945235;0.1424410803559696;-0.07839559662116237;0.414;0.003461077518059028
10:05.0;0.23737728439618572;0.16023622082814354;-0.11456159929935418;0.36700000000000005;0.004357515279149555
10:05.0;0.13656001322325112;0.19131645248389467;-0.15828262448530514;0.36700000000000005;0.0041353199078091735
10:05.0;0.009183915824569797;0.2372467093572787;-0.20843821589576148;0.287;0.0004541564005192105
10:05.0;-0.141401011229334;0.2988707690463077;-0.2633809154541871;0.258;0.011130643145797993
10:05.0;-0.31017315635759724;0.37610703834790077;-0.3210041993553759;0.408;0.03744780650495861
10:05.0;-0.49059572471621965;0.4678154562370984;-0.3788557891458793;0.544;0.08695053401332331
10:05.0;-0.6749733325792708;0.5717686249106885;-0.4343028667320338;0.838;0.16760988613765432
10:05.0;-0.8550134991606297;0.6847474393976178;-0.4847319414057619;1.3869999999999998;0.2837951877267147
10:05.1;-1.0225483984318757;0.8027608616672203;-0.5277370442140182;1.857;0.4331991976780195
10:05.1;-1.170304200367458;0.9213410139730615;-0.561232763630226;2.0869999999999997;0.6051488112995016
10:05.1;-1.2925591710791662;1.0358158678065994;-0.5834448318202761;1.75;0.7811470381487321
10:05.1;-1.3855604204724186;1.1414847433242135;-0.5927898189144511;1.75;0.9375540544062385
10:05.1;-1.4476657944961269;1.2337325012974325;-0.5877194748624742;1.976;1.0496859899433506
10:05.1;-1.4792627683103938;1.3082055474164094;-0.5666308731138459;2.046;1.096532596808844
10:05.1;-1.4825327471323728;1.3611275450463494;-0.5279335173653531;2.293;1.065325575334379
10:05.1;-1.4611034376188357;1.3897072827577808;-0.4703291903049093;2.2680000000000002;0.9550062843352914
10:05.1;-1.4196149227612658;1.3925126410672262;-0.39329162075283974;2.178;0.777471353235342
10:05.1;-1.3632283482949552;1.3697027825854395;-0.2976436390427554;1.999;0.5557654597903683
10:05.2;-1.2971177024067693;1.32308802130348;-0.18606162772792792;2.079;0.3193191318969485
10:05.2;-1.2259944532044016;1.2560390756983908;-0.06333126779624745;1.984;0.09752362547399573
10:05.2;-1.1537149115724548;1.1732428005766176;0.0637663420888735;1.706;0.08631333721313628
10:05.2;-1.0830136270381752;1.0802567941860368;0.18700261591029008;1.669;0.21878049942568314
10:05.2;-1.0154003884266032;0.9828452076395627;0.2977125832564357;1.656;0.29711162230319493
10:05.2;-0.9512527671863362;0.8862132202994946;0.38817126437017907;1.656;0.3272333359657781
10:05.2;-0.8901165277665932;0.7944191795575865;0.4529775466317185;2.016;0.3203120383371857
10:05.2;-0.8311655432398622;0.7102254711568351;0.4899511534098832;2.016;0.2892254855109681
10:05.2;-0.7736799009247106;0.6353700851504156;0.5002441199922752;1.217;0.24590653507756494
10:05.2;-0.7173682696625372;0.5709899890133269;0.48771672915305;0.9570000000000001;0.19977369840153997
10:05.3;-0.662452683580501;0.5179711487694082;0.4578739024573671;0.97;0.15711090288045731
10:05.3;-0.6095654686162536;0.4771766713432839;0.41673430982777004;0.7979999999999999;0.12121568426148056
10:05.3;-0.5595638669125717;0.44956913766952045;0.36991609785023766;0.737;0.09305707204727026
10:05.3;-0.5133468718160419;0.43622345925159445;0.32204377382840754;0.737;0.07211653377292832
10:05.3;-0.4717155732420673;0.438228892833975;0.2764488502519157;0.6679999999999999;0.05714733862865948
10:05.3;-0.4352823550884279;0.4564985022791191;0.2351067402697521;0.5920000000000001;0.0467170595487297
10:05.3;-0.4044186594906177;0.491513754938926;0.19877431108776603;0.546;0.039511827604563274
10:05.3;-0.3792372192198921;0.543041857360947;0.16730083849176097;0.677;0.0344542163978072
10:05.3;-0.3596116453917828;0.6098800086904058;0.14004790941851358;0.682;0.030715300969776246
10:05.3;-0.3452240781566744;0.6896975588060276;0.11629937807253324;0.616;0.027690905637830512
10:05.4;-0.3356120885797755;0.7790592837654475;0.09553609463323388;0.614;0.02497903098976279
10:05.5;-0.3301862310739362;0.8736961925533349;0.07751765586106368;1.335;0.022362483507627727
10:05.5;-0.3282149187748051;0.9690035746446086;0.06220872002108306;1.325;0.019784950245637322
10:05.5;-0.32880138051543595;1.0606159740842485;0.04964092172837374;1.325;0.017311377741225993
10:05.5;-0.33088102568986477;1.1448582029305954;0.03978773144632005;1.325;0.015072064413318683
10:05.5;-0.3332473905404022;1.2189600353351187;0.032482999542168565;1.325;0.01319508981058087
10:05.5;-0.3345994632569875;1.2810480695050517;0.02738068134170285;1.325;0.011736400392093614
10:05.5;-0.3336048272219302;1.3299869869894156;0.02394507061599841;1.325;0.01062419027332127
10:05.5;-0.32897844490616623;1.3651441161076066;0.021463360533149983;1.325;0.009639259356327135
10:05.5;-0.31957745374472923;1.3861391238492373;0.019074973516339078;1.325;0.008449809102157625
10:05.5;-0.30451001331069005;1.392627753728599;0.015813654348515647;1.325;0.006706082101259872
10:05.5;-0.28325268425008127;1.3841548006235602;0.010659175060699059;1.325;0.004179095468029594
10:05.5;-0.25576618735161355;1.3600972457093727;0.002595516171806155;1.325;0.0009028941307470767
10:05.5;-0.2225939450061475;1.3197037514228873;-0.009328532769654715;1.325;0.0027403317288802764
10:05.5;-0.18492191710827618;1.2622214913970249;-0.02594231945501235;1.325;0.0060552595126371605
10:05.5;-0.14457238416364257;1.1870854640744382;-0.0479086787945415;1.325;0.008222076711066032
10:05.5;-0.1039009704202393;1.0941317231778562;-0.07570219103849543;1.1340000000000001;0.00860592710910437
10:05.5;-0.06557473072645363;0.9837939473733828;-0.10961236612890776;1.068;0.007071315505544823
10:05.5;-0.03224162597633246;0.8572579928210142;-0.14974835361246847;0.973;0.0041389533824213965
10:05.5;-0.006151534457490966;0.7165667032707103;-0.19599950404188818;0.8390000000000001;0.0008639628280112522
10:05.6;0.011176708892459378;0.5646698875692074;-0.24792565571388553;0.6729999999999999;0.0015646962385050885
10:05.6;0.019157004041722932;0.405407535697435;-0.3046127145992349;0.5820000000000001;0.0023657422980344184
10:05.6;0.018166346909301457;0.24340793190957488;-0.36457868243851843;0.534;0.001612106024145915
10:05.6;0.00941297240219292;0.08386856658307972;-0.42580930584280446;0.597;0.0003361562221526714
10:26.8;-0.005314556668360694;-0.0678256220657583;-0.48595083461009925;0.925;0.00017516735013970195
10:26.8;-0.02395272360968554;-0.20664704068989603;-0.5426190254949925;0.925;0.0026858336494131312
10:26.8;-0.044451951382422444;-0.32851243252827167;-0.5937274235382887;0.925;0.008670212656323333
10:26.8;-0.06499682562918355;-0.43071751938617264;-0.6377330603282121;0.925;0.01785351017031306
10:26.8;-0.08413988921263556;-0.5121023452283053;-0.6737511455313845;0.925;0.02903074741598604
10:26.8;-0.10085761839864596;-0.5729669053693214;-0.7015510374468779;0.925;0.04054128571993508
10:26.8;-0.11454681496527182;-0.6148224723279708;-0.721471251064274;0.925;0.0508103025641346
10:26.8;-0.12497997873601369;-0.6400610238356536;-0.7342897027978502;0.925;0.05873936757235134
10:26.8;-0.1322360853842096;-0.6516053486387698;-0.7410775108032099;0.925;0.06385549250063524
10:26.8;-0.13662041457172264;-0.6525838641269416;-0.7430570385708855;0.925;0.06624819994514673
10:26.8;-0.1385840139838908;-0.6460577981022966;-0.741477917366411;0.925;0.0663869521594007
10:26.8;-0.13865034636822038;-0.6348147170931933;-0.737518808176064;0.925;0.06491439974291013
10:26.8;-0.13735387706602625;-0.6212316703502655;-0.7322178314206302;0.925;0.06247910669196116
10:26.8;-0.1351929709319433;-0.6072034424043321;-0.7264309489541034;0.925;0.05963245315128257
10:26.8;-0.13259756172420142;-0.5941263426050342;-0.7208150770995868;0.925;0.05678559869054931
10:26.8;-0.1299106556168272;-0.5829252410156951;-0.7158312204049536;0.925;0.05420860999396789
10:26.8;-0.12738180788850426;-0.5741107407366225;-0.7117622778440721;0.925;0.05205207510550279
10:26.8;-0.1251702092518786;-0.5678539861575103;-0.7087402002943135;0.925;0.05037612106275001
10:26.8;-0.12335485685376495;-0.5640681914431454;-0.7067776834758119;0.925;0.04917798065868861
10:26.8;-0.1219493775361234;-0.5624881288539797;-0.7058003913792894;0.925;0.04841443232400785
10:26.8;-0.12091933158798535;-0.5627412048305441;-0.7056766726206174;0.925;0.048018679754925624
10:26.8;-0.12020017649260262;-0.5644061114408224;-0.7062427362401874;0.925;0.047912717873970306
10:26.8;-0.1197144479827213;-0.5670571855905907;-0.7073222045736075;0.925;0.048016523966448246
10:26.8;-0.11938707206878675;-0.5702944208453824;-0.708739797789548;0.925;0.04825510274467505
10:26.8;-0.11915802566082201;-0.5737604971051825;-0.7103295909470634;0.925;0.04856393283568236
10:26.8;-0.11899180055082863;-0.5771472067064685;-0.7119388029350223;0.925;0.048892956383429435
10:26.8;-0.11888329630963335;-0.5801942780772074;-0.7134284245151434;0.925;0.04920901685792424
10:26.8;-0.11885988489658872;-0.5826838650491756;-0.7146721760292506;0.925;0.049496577702162425
10:26.8;-0.11897947556671448;-0.5844339252479563;-0.7155553150698778;0.925;0.049756598169376776
10:26.8;-0.11932449082491925;-0.5852933997725264;-0.7159747032053019;0.925;0.050003556504290426
10:26.8;-0.11999177251340791;-0.5851415706062415;-0.7158413014217478;0.925;0.050260774175252765
10:26.8;-0.12107859940104758;-0.5838932493062318;-0.7150859088619734;0.925;0.05055441192721761
10:26.8;-0.12266523558555024;-0.5815105748308685;-0.7136685021975889;0.925;0.050906781889793876
10:26.8;-0.12479475428766248;-0.5780212047920164;-0.7115909901883032;0.925;0.051329914608680624
10:26.8;-0.12745129208542813;-0.5735416136765461;-0.7089125923233648;0.925;0.05182053200652097
10:26.8;-0.1305383651288267;-0.5683031161279464;-0.705766413860747;0.925;0.052357535260177626
10:26.8;-0.13385938271668613;-0.5626771830713581;-0.7023751663110074;0.925;0.05290263090120639
10:26.8;-0.13710296540585634;-0.5571957049039816;-0.6990634311463112;0.925;0.053403680941362726
10:26.8;-0.13983603485863866;-0.5525611944747607;-0.6962634591476536;0.925;0.053798861603246546
10:26.8;-0.14150779348656684;-0.5496416507920423;-0.6945113261703137;0.925;0.054018102807074045
10:26.8;-0.14146754356024688;-0.5494450767270975;-0.6944304262001272;0.925;0.05397713630159122
10:26.8;-0.13899869309021043;-0.5530696212377431;-0.6966998758954309;0.925;0.05355946798732176
10:26.8;-0.13337015088037565;-0.5616271507829874;-0.7020065267760615;0.925;0.05258330596616469
10:26.8;-0.12390453683049905;-0.5761408689633614;-0.7109810088307267;0.925;0.05075442269282841
10:26.8;-0.11006017208226125;-0.597421469478636;-0.7241206067715865;0.925;0.04761260242299586
10:26.8;-0.09152066459180053;-0.6259312201716759;-0.7417047936349611;0.925;0.0424890347281554
10:26.8;-0.06828213328042666;-0.6616512303101271;-0.7637128497028779;0.925;0.03450375037373266
10:26.8;-0.04072386020829277;-0.7039737266058876;-0.7897570381980675;0.925;0.022641171472628806
10:26.8;-0.009643650251139994;-0.7516481074191664;-0.8190490751701732;0.925;0.0059369848934655665
10:26.8;0.023765286135593918;-0.8028163932776164;-0.8504218287467081;0.925;0.016225335244199512
10:26.8;0.058017976064599734;-0.8551719833799697;-0.8824271528460891;1.4969999999999999;0.04378192997560232
10:26.8;0.09152120766262038;-0.9062410532012289;-0.9135096949955707;1.4969999999999999;0.0757667458866868
10:26.8;0.12279169162082856;-0.9537179609074795;-0.9422150880038153;1.4969999999999999;0.11034152919153817
10:26.8;0.15063842710849495;-0.9957475685457939;-0.9673674254236498;1.4969999999999999;0.14510303157726537
10:26.8;0.17426412618173576;-1.0310857463782748;-0.9881741333271041;1.4969999999999999;0.17755637002675217
10:26.8;0.19328524456646834;-1.0591371984491504;-1.0042574800177493;1.4969999999999999;0.20558716497578777
10:26.8;0.20769295906322674;-1.0799042284950309;-1.0156327263242813;1.4969999999999999;0.22779474553300996
10:26.8;0.21777866323198813;-1.0938816885217002;-1.0226536476885164;1.4969999999999999;0.24362073650812377
10:26.8;0.22404317810499594;-1.1019264330291059;-1.0259416787293028;1.4969999999999999;0.25328355839335415
10:26.8;0.22710443803235913;-1.1051226106152183;-1.0263104276487118;1.4969999999999999;0.25758159451393065
10:26.8;0.22761420352570869;-1.1046575385212938;-1.0246931104955892;1.4969999999999999;0.25764447645275457
10:26.8;0.22619058276695497;-1.1017170859348158;-1.0220768300337704;1.4969999999999999;0.25469953225860764
10:26.8;0.22336993574090075;-1.0974046751000106;-1.019444766461905;1.4969999999999999;0.24989365314496229
10:26.8;0.21957913527888867;-1.0926843136036153;-1.017725382987047;1.4969999999999999;0.2441835398489829
10:26.8;0.21512714786056228;-1.0883455123386834;-1.017746738331226;1.4969999999999999;0.23828775711378147
10:26.8;0.21021340626410495;-1.0849864560280498;-1.0201939418100228;1.4969999999999999;0.2326845066411655
10:26.8;0.20494937982122594;-1.083011252259222;-1.0255686332417198;1.4969999999999999;0.2276377618492809
10:26.8;0.19938899951966738;-1.0826373281735235;-1.0341510207252091;1.4969999999999999;0.22323801704910548
10:26.8;0.19356306369689177;-1.0839098886763228;-1.0459673216858885;1.4969999999999999;0.21944908901838958
10:26.8;0.18751235332107286;-1.0867216080601267;-1.060768243543353;1.4969999999999999;0.21615669754955388
10:26.8;0.1813138686681333;-1.0908372152390826;-1.0780271908074008;1.4969999999999999;0.2132164389019362
10:26.8;0.17509433716691894;-1.095924181628794;-1.096969947689159;1.4969999999999999;0.21049769288825995
10:26.8;0.16902590309035084;-1.1015913906471546;-1.1166474603320309;1.656;0.20791694276100237
10:26.8;0.1633036096142996;-1.1074349663909762;-1.136050965395151;1.656;0.20545268975077768
10:26.8;0.1581129601773638;-1.1130842735339554;-1.1542438620964761;1.656;0.20313889705927976
10:26.8;0.15360082904384564;-1.1182377305009361;-1.1704707437806574;1.656;0.20104267970086706
10:26.8;0.14985851925402105;-1.1226822260090683;-1.1842184599063619;1.656;0.1992370537016905
10:26.8;0.14691760959973363;-1.126296885871704;-1.1952294108122634;1.656;0.19777801243546206
10:26.8;0.14475506326338894;-1.1290454466528592;-1.2034801471353604;1.656;0.19669083207284532
10:26.8;0.14330384206054414;-1.1309616335290664;-1.2091389643200685;1.656;0.19596653920189963
10:26.8;0.1424660395606492;-1.1321311640982972;-1.2125135910761864;1.656;0.19556661200286324
10:26.8;0.14212629989723546;-1.1326731772268026;-1.2139974253419308;1.656;0.19543251979864573
10:26.8;0.1421639844136189;-1.132723084343062;-1.2140202580023405;1.656;0.19549662846097818
10:26.8;0.1424631545841706;-1.1324181118153456;-1.213007182599906;1.656;0.1956918487091311
10:26.8;0.14291993844080103;-1.1318861818918897;-1.2113475080830762;1.656;0.19595860033443316
10:26.8;0.14344723212194915;-1.1312382845024573;-1.2093740138846132;1.656;0.19624875030114222
10:26.8;0.1439769609859089;-1.130564127286737;-1.2073518148596092;1.656;0.1965269177360908
10:26.8;0.14446029621531564;-1.129930609704518;-1.2054754093219773;1.656;0.19676988436590104
10:26.8;0.1448663081095841;-1.1293825343259496;-1.2038721166354394;1.656;0.196964888811715
10:26.8;0.1451795540097017;-1.1289449250102055;-1.2026100093083025;1.656;0.19710744465409033
10:26.8;0.14539706528819488;-1.1286263463007755;-1.201708541787301;1.656;0.1971991201988356
10:26.8;0.14552513133663225;-1.1284226898926113;-1.2011503096958651;1.656;0.19724552897535555
10:26.8;0.14557619417273074;-1.1283209932496971;-1.2008926813449785;1.656;0.1972546400734392
10:26.8;0.14556607760204215;-1.1283029661147457;-1.200878379755088;1.656;0.19723543195626012
10:26.8;0.1455116892257754;-1.1283480099972187;-1.201044420892827;1.656;0.1971968711578306
10:26.8;0.14542925843999988;-1.1284356146054666;-1.2013291061255764;1.656;0.19714718191134145
10:26.8;0.1453331126830536;-1.1285470978552519;-1.201677008043354;1.656;0.19709336996339016
10:26.8;0.14523494904703915;-1.1286667197517486;-1.20204207159652;1.656;0.197040964402232
10:26.8;0.14514352868993172;-1.1287822447090603;-1.2023890767620578;1.656;0.19699394118155114
10:26.8;0.14506470571518063;-1.1288850531214014;-1.2026937796121884;1.656;0.19695479068215352
10:26.8;0.14500169798563808;-1.1289699137928415;-1.2029420739577676;1.656;0.1969246903919337
10:26.8;0.1449555119945903;-1.1290345273690081;-1.2031285056255827;1.656;0.19690374410528816
10:26.8;0.14492544467572518;-1.1290789405904498;-1.2032544362486886;1.656;0.19689125182981543
10:26.8;0.14490959935135897;-1.1291049152513917;-1.2033261029475204;1.656;0.19688597985437292
10:26.8;0.14490536872096726;-1.129115317060593;-1.2033527629229162;1.656;0.19688640749087896
10:26.8;0.14490985316649635;-1.1291135704953972;-1.2033450545668114;1.656;0.19689093481406394
10:26.8;0.14492019646907026;-1.1291032079600811;-1.2033136542015341;1.656;0.1968980432466008
10:26.8;0.14493383252919942;-1.1290875262672049;-1.2032682631897162;1.656;0.1969064072671562
10:26.8;0.14494864550369835;-1.1290693512889485;-1.203216925524918;1.656;0.19691496039483358
10:26.8;0.14496305189531547;-1.1290509027624485;-1.2031656514002194;1.656;0.19692292180012294
10:26.8;0.14497601678423422;-1.129033745521177;-1.2031183069190028;1.656;0.19692979154406073
10:26.8;0.1449870179705793;-1.1290188104624517;-1.2030767226134076;1.656;0.196935322845825
10:26.8;0.14499597179209525;-1.1290064678017497;-1.203040971916909;1.656;0.19693947927979344
10:26.8;0.14500313330602563;-1.1289966359986647;-1.203009773197444;1.656;0.19694238375435097
10:26.8;0.14500898186768352;-1.1289889115663772;-1.202980973469151;1.656;0.19694426482461336
10:26.8;0.1450141013235932;-1.1289827072573215;-1.2029520767833088;1.656;0.19694540456849746
10:26.8;0.1450190623952063;-1.1289773884121523;-1.2029207842462557;1.656;0.19694609106645464
10:26.8;0.14502431358227774;-1.1289723992486498;-1.2028855147781528;1.656;0.1969465775594037
10:26.8;0.14503008617001997;-1.128967372365203;-1.202845875774168;1.656;0.1969470496503541
10:26.8;0.14503631867419325;-1.1289622156846966;-1.2028030509434922;1.656;0.19694760145160634
10:26.8;0.14504260619048973;-1.1289571715361904;-1.202760069468474;1.656;0.1969482213173162
10:26.8;0.14504818042422746;-1.1289528427370181;-1.2027219173834582;1.656;0.19694878767625423
10:26.8;0.14505192638662393;-1.1289501806539364;-1.2026954502226956;1.656;0.19694907541885698
10:26.8;0.14505244153108682;-1.1289504306016052;-1.2026890672735817;1.656;0.19694877322502408
10:26.8;0.14504814212764588;-1.1289550309154468;-1.2027121140221868;1.656;0.19694751208175246
10:26.8;0.14503741961755046;-1.1289654639338216;-1.2027739923019116;1.656;0.19694490497850117
10:26.8;0.1450188462980525;-1.1289830602037132;-1.202882978609333;1.656;0.19694059733038224
10:26.8;0.14499142481365876;-1.1290087616438857;-1.2030447807723275;1.656;0.19693432700003707
10:26.8;0.14495486958603954;-1.129042855169624;-1.2032609014858182;1.656;0.19692599177823816
10:26.8;0.14490990071504162;-1.1290846952203144;-1.2035269228420202;1.656;0.19691572072432376
10:26.8;0.14485852248542172;-1.1291324413215662;-1.2038308761419458;1.656;0.19690394374476777
10:26.8;0.14480425014498247;-1.1291828445885974;-1.2041519116842772;1.656;0.19689145115669252
10:26.8;0.14475224108254772;-1.1292311240079556;-1.2044595279789219;1.656;0.19687943188652576
10:26.8;0.14470928118548218;-1.1292709782514836;-1.2047136515326717;1.656;0.19686947587059966
10:26.8;0.14468357544935173;-1.1292947803257525;-1.2048658684605658;1.656;0.19686352409059335
10:26.8;0.1446842953958772;-1.1292939990970299;-1.204862088583791;1.656;0.1968637498988453
10:26.8;0.1447208460272021;-1.1292598822581361;-1.2046468625812725;1.656;0.1968723595354272
10:26.8;0.14480183315608866;-1.1291844184500135;-1.2041694658150581;1.656;0.19689130942251828
10:26.8;0.14493373877039362;-1.1290615712989573;-1.203391704146634;1.656;0.19692195326072146
10:26.8;0.14511934762998804;-1.1288887450635496;-1.2022971873379056;1.656;0.196964651372055
10:26.8;0.14535601153323233;-1.1286684013517942;-1.2009015605253412;1.656;0.19701839347816802
10:26.8;0.14563388630212298;-1.128409701132028;-1.1992628974923365;1.656;0.19708049662806798
10:26.8;0.14593432667109435;-1.1281299996029412;-1.1974911637439145;1.656;0.19714643329930395
10:26.8;0.14622867042393756;-1.127855978528389;-1.1957553851422322;1.656;0.19720981360708975
10:26.8;0.14647767816450172;-1.1276241680305268;-1.1942869512013838;1.656;0.1972624895883248
10:26.8;0.1466319104393798;-1.1274805955681175;-1.193377391715533;1.656;0.19729468016493523
10:26.8;0.14663330993396745;-1.127479312863174;-1.193369047929664;1.656;0.1972949592946548
10:26.8;0.14641820315833148;-1.1276796011695875;-1.1946373737927158;1.656;0.19724994678912605
10:26.8;0.14592183402388187;-1.1281417502566293;-1.197564204395331;1.656;0.19714363396105186
10:26.8;0.1450843833353391;-1.128921453931844;-1.2025022625967503;1.656;0.19695649034389928
10:26.8;0.1438582089415317;-1.130063069082587;-1.209732467874562;1.656;0.1966648150323894
10:26.8;0.14221576109377626;-1.1315922460825958;-1.2194172636397735;1.656;0.19624112817022515
10:26.8;0.1401572923117299;-1.1335087505343346;-1.2315551560941151;1.656;0.195656573160427
10:26.8;0.13771710350458174;-1.1357806478282355;-1.245943883979169;1.656;0.19488608314304454
10:26.8;0.13496666831293094;-1.1383413942082212;-1.2621619959180874;1.656;0.19391622822068713
10:26.8;0.1320125825281836;-1.1410917458901528;-1.2795809418367252;1.656;0.19275411311415322
10:26.8;0.1289873847758064;-1.1439083052989363;-1.2974191992536281;1.7990000000000002;0.19143386645999783
10:26.8;0.12603329548358702;-1.146658660642744;-1.3148381572032204;1.7990000000000002;0.19001668921827305
10:26.8;0.12328285395828437;-1.1492194134677955;-1.3310562905830723;1.7990000000000002;0.18858278957044583
10:26.8;0.1208426573183265;-1.151491318286905;-1.3454450442282557;1.7990000000000002;0.187217696779966
10:26.8;0.11878418110290542;-1.1534078289282845;-1.357582959513863;1.7990000000000002;0.1859978315244276
10:26.8;0.11714172857321097;-1.1549370078283003;-1.3672677662679023;1.7990000000000002;0.18497945746023886
10:26.8;0.1159155548856442;-1.1560786173397213;-1.3744979608046315;1.7990000000000002;0.18419302781332578
10:26.8;0.11507811298808297;-1.1568583046061658;-1.3794359765816073;1.7990000000000002;0.18364302963682796
10:26.8;0.11458176320177184;-1.1573204236916492;-1.3823627241849872;1.7990000000000002;0.18331210002669
10:26.8;0.11436668823940677;-1.1575206664382804;-1.3836309199745038;1.7990000000000002;0.1831675589018421
10:26.8;0.11436813296999426;-1.1575193220042175;-1.3836223964156689;1.7990000000000002;0.18316853163074553
10:26.8;0.11452242350015855;-1.1573756728965647;-1.3827126102531768;1.7990000000000002;0.18327228859782152
10:26.8;0.11477150034822128;-1.1571437744320663;-1.3812439124261002;1.7990000000000002;0.18343903584772436
10:26.8;0.11506591978086643;-1.1568696603887874;-1.3795078505501837;1.7990000000000002;0.18363494162431623
10:26.8;0.11536643577053321;-1.1565898701470332;-1.3777358408480207;1.7990000000000002;0.1838335678409895
10:26.8;0.11564437705650611;-1.1563310976291072;-1.3760969448139209;1.7990000000000002;0.1840160724617032
10:26.8;0.11588108710251559;-1.1561107127141539;-1.3747011715567998;1.7990000000000002;0.18417059407045283
10:26.8;0.11606670873863519;-1.1559378927744437;-1.3736066442431405;1.7990000000000002;0.1842911809023258
10:26.8;0.11619857993189951;-1.1558151162645627;-1.3728290595357355;1.7990000000000002;0.1843765372126172
10:26.8;0.11627947206704733;-1.1557398029397465;-1.3723520756754544;1.7990000000000002;0.18442876802258337
10:26.8;0.1163158559250454;-1.1557059282874809;-1.372137537237598;1.7990000000000002;0.1844522287738907
10:26.8;0.11631633036392372;-1.15570548647862;-1.3721347405021476;1.7990000000000002;0.18445253466161343
10:26.8;0.11629030003496041;-1.1557297214590374;-1.3722882303713924;1.7990000000000002;0.1844357523319102
10:26.8;0.11624694515906098;-1.1557700861241724;-1.3725438751374983;1.7990000000000002;0.18440777797819521
10:26.8;0.11619449077383807;-1.155818922676943;-1.3728531754043547;1.7990000000000002;0.18437389473259375
10:26.8;0.11613975597008687;-1.1558698823066382;-1.3731759220368631;1.7990000000000002;0.18433849465078234
10:26.8;0.1160879454621505;-1.1559181192471364;-1.3734814251757845;1.7990000000000002;0.18430494466972067
10:26.8;0.11604263562374825;-1.1559603037813198;-1.3737485965770637;1.7990000000000002;0.18427557134340145
10:26.8;0.1160059036304237;-1.1559945020081697;-1.3739651881157429;1.7990000000000002;0.184251736309629
10:26.8;0.11597855009750739;-1.1560199685617734;-1.3741264789887302;1.7990000000000002;0.18423397374001274
10:26.8;0.11596037105199074;-1.156036893397739;-1.3742336720172295;1.7990000000000002;0.18422216258440427
10:26.8;0.11595044278517438;-1.1560461365856411;-1.3742922139961244;1.7990000000000002;0.1842157099380698
10:26.8;0.11594739184948236;-1.1560489769307418;-1.374310203640068;1.7990000000000002;0.1842137267225202
10:26.8;0.1159496311838751;-1.1560468921286926;-1.374296999251969;1.7990000000000002;0.1842151823362397
10:26.8;0.11595555134107367;-1.1560413807192278;-1.374262091133413;1.7990000000000002;0.18421903029990494
10:26.8;0.11596366256779024;-1.1560338297945065;-1.374214263790046;1.7990000000000002;0.18422430165387282
10:26.8;0.11597268880778883;-1.1560254274662296;-1.3741610416236887;1.7990000000000002;0.18423016663691616
10:26.8;0.11598161849802484;-1.1560171155576817;-1.3741083893939825;1.7990000000000002;0.18423596786156882
10:26.8;0.11598971939555082;-1.1560095757831217;-1.3740606247731542;1.7990000000000002;0.18424122984138921
10:26.8;0.11599652579094327;-1.1560032416364658;-1.374020493725311;1.7990000000000002;0.18424565046239105
10:26.8;0.11600180657288113;-1.155998328110342;-1.3739893588002827;1.7990000000000002;0.18424908002010848
10:26.8;0.11600552196949163;-1.1559948719619793;-1.3739674542005331;1.7990000000000002;0.18425149297107374
10:26.8;0.11600777565982975;-1.155992776296913;-1.3739541681564542;1.7990000000000002;0.1842529567623158
10:26.8;0.11600876755159847;-1.1559918545425403;-1.3739483213845467;1.7990000000000002;0.18425360116369702
10:26.8;0.11600875104849172;-1.1559918702545888;-1.373948419086865;1.7990000000000002;0.1842535905589872
10:26.8;0.1160079972275077;-1.155992570505365;-1.37395286222262;1.7990000000000002;0.1842531007415714
10:26.8;0.11600676711359734;-1.1559937117496626;-1.3739601110521378;1.7990000000000002;0.1842523009680227
10:26.8;0.11600529223512887;-1.1559950779974564;-1.3739687998711958;1.7990000000000002;0.1842513413801352
10:26.8;0.11600376289267028;-1.1559964918197572;-1.3739778062797667;1.7990000000000002;0.18425034542544066
10:26.8;0.1160023230714893;-1.155997819179079;-1.3739862812871206;1.7990000000000002;0.1842494065838461
10:26.8;0.11600107065089733;-1.1559989693313428;-1.3739936481870438;1.7990000000000002;0.18424858852850723
10:26.8;0.11600006147444529;-1.1559998911260576;-1.3739995786590578;1.7990000000000002;0.1842479277896331
10:26.8;0.11599931590121981;-1.1560005669763804;-1.374003954216644;1.7990000000000002;0.18424743802400564
10:26.8;0.1159988266164419;-1.1560010056211862;-1.3740068201893663;1.7990000000000002;0.18424711509322936
10:26.8;0.11599856669867646;-1.1560012345957644;-1.3740083381321033;1.7990000000000002;0.18424694229436375
10:26.8;0.1159984971863656;-1.156001293099164;-1.3740087411074706;1.7990000000000002;0.18424689524530077
10:26.8;0.11599857363038178;-1.1560012257208807;-1.3740082948509453;1.7990000000000002;0.18424694608610426
10:26.8;0.11599875134171753;-1.1560010772867335;-1.374007266521559;1.7990000000000002;0.18424706680342365
10:26.8;0.11599898923139415;-1.156000888915855;-1.3740059016407344;1.7990000000000002;0.18424723160960832
10:26.8;0.11599925228668784;-1.1560006952539377;-1.3740044089664707;1.7990000000000002;0.18424741840699874
10:26.8;0.11599951283255348;-1.1560005227634043;-1.374002952447107;1.7990000000000002;0.1842476094401454
10:26.8;0.1159997507923011;-1.1560003889061135;-1.374001649032349;1.7990000000000002;0.18424779128596674
10:26.8;0.1159999531923751;-1.1560003020428375;-1.3740005709572864;1.7990000000000002;0.18424795435724342
10:26.8;0.11600011315916645;-1.1560002618884522;-1.3739997511168898;1.7990000000000002;0.18424809210228318
10:26.8;0.11600022863825375;-1.15600026039402;-1.373999190269867;1.7990000000000002;0.1842482000771104
10:26.8;0.11600030103511279;-1.1560002829679592;-1.3739988650089612;1.7990000000000002;0.18424827504980687
10:26.8;0.11600033393709888;-1.1560003099898584;-1.37399873567147;1.7990000000000002;0.18424831427262112
10:26.8;0.11600033203419653;-1.1560003186046615;-1.3739987536071068;1.7990000000000002;0.1842483150283287
10:26.8;0.1160003003141949;-1.1560002848054998;-1.373998867445906;1.7990000000000002;0.18424827452440248
10:26.8;0.11600024356893202;-1.156000185815548;-1.3739990281998251;1.7990000000000002;0.18424819017252841
10:26.8;0.11600016621337103;-1.1560000027598716;-1.3739991931782038;1.7990000000000002;0.18424806025215973
10:26.8;0.1160000723890581;-1.1559997235763595;-1.3739993287957146;1.7990000000000002;0.1842478849153486
10:26.8;0.11599996629799515;-1.1559993460519828;-1.3739994124034054;1.7990000000000002;0.18424766744651686
10:26.8;0.11599985269197506;-1.155998880790866;-1.3739994332844099;1.7990000000000002;0.18424741564625668
10:26.8;0.11599973742586223;-1.1559983538309937;-1.3739993929343741;1.7990000000000002;0.1842471431647647
10:26.8;0.11599962797133789;-1.155997808536654;-1.3739993047030001;1.7990000000000002;0.18424687057136224
10:26.8;0.1159995337808643;-1.1559973063166478;-1.3739991928188702;1.7990000000000002;0.18424662591625773
10:26.8;0.11599946639114242;-1.1559969256688523;-1.3739990907667157;1.7990000000000002;0.18424644452496972
10:26.8;0.11599943916265983;-1.1559967590465685;-1.373999038946037;1.7990000000000002;0.18424636777124365
10:26.8;0.11599946656885878;-1.155996907098133;-1.3739990815229701;1.7990000000000002;0.18424644060784326
10:26.8;0.11599956297682755;-1.1559974699641782;-1.3739992624023039;1.7990000000000002;0.1842467077028444
10:26.8;0.11599974090274186;-1.1559985355388156;-1.3739996202999991;1.7990000000000002;0.18424720813719145
10:26.8;0.1160000087803015;-1.1560001649179832;-1.3740001829915622;1.7990000000000002;0.1842479687698709
10:26.8;0.11600036834862727;-1.156002375667477;-1.374000960947264;1.7990000000000002;0.18424899656877788
10:26.8;0.11600081184527698;-1.1560051240303721;-1.3740019407356434;1.7990000000000002;0.18425027043160896
10:26.8;0.11600131927581096;-1.1560082877299787;-1.3740030787704764;1.7990000000000002;0.18425173326885771
10:26.8;0.11600185611678915;-1.1560116515654977;-1.3740042961758439;1.7990000000000002;0.18425328536981653
10:26.8;0.11600237188469054;-1.1560148984817393;-1.3740054757252016;1.7990000000000002;0.1842547802943081
10:26.8;0.11600280005699468;-1.1560176091445145;-1.3740064619438925;1.7990000000000002;0.18425602469230828
10:26.8;0.11600305984954146;-1.1560192731799452;-1.37400706551627;1.7990000000000002;0.18425678350945993
10:26.8;0.11600306032119302;-1.1560193150425244;-1.374007073072187;1.7990000000000002;0.18425679194431877
10:26.8;0.11600270717795551;-1.156017136868743;-1.3740062632076568;1.7990000000000002;0.1842557752394391
10:26.8;0.1160019124714148;-1.1560121795695104;-1.374004429190844;1.7990000000000002;0.18425347687583374
10:26.8;0.11600060712234919;-1.1560040017622009;-1.3740014081975527;1.7990000000000002;0.1842496949746465
10:26.8;0.11599875584845891;-1.1559923739329736;-1.3739971161068747;1.7990000000000002;0.1842443256875005
10:26.8;0.11599637364378218;-1.1559773825042468;-1.3739915858872511;1.7990000000000002;0.18423741110309486
10:26.8;0.11599354246735577;-1.1559595353908745;-1.3739850064642862;1.7990000000000002;0.18422918777367162
10:26.8;0.11599042628525112;-1.1559398573825954;-1.3739777577662449;1.7990000000000002;0.18422013047456462
10:26.8;0.11598728212413417;-1.1559199606094528;-1.3739704365097007;1.7990000000000002;0.1842109844018875
10:26.8;0.11598446440227349;-1.1559020728486415;-1.373963866370737;1.7990000000000002;0.18420277788000328
10:26.8;0.11598241958521562;-1.1558890050185107;-1.373959085672236;1.7990000000000002;0.18419680702118177
10:26.8;0.1159816682570431;-1.1558840394394023;-1.3739573058121954;1.7990000000000002;0.1841945839080204
10:26.8;0.11598277209530591;-1.1558907228976378;-1.3739598345739945;1.7990000000000002;0.18419774101199168
10:26.8;0.11598628407190643;-1.1559125537578279;-1.3739679603919435;1.7990000000000002;0.18420788695371962
10:26.8;0.11599268153702574;-1.155952560734938;-1.3739827967429186;1.7990000000000002;0.18422641253269492
10:26.8;0.11600228370766409;-1.1560127826496605;-1.3740050901657865;1.7990000000000002;0.184254251295166
10:26.8;0.11601515745511902;-1.1560936734198388;-1.3740350009257134;1.7990000000000002;0.18429160572591113
10:26.8;0.11603101807897029;-1.1561934741402597;-1.3740718718370588;1.7990000000000002;0.1843376582240531
10:26.8;0.11604913480077719;-1.156307613319637;-1.3741140078461467;1.7990000000000002;0.18439029491633685
10:26.8;0.11606825375054823;-1.1564282155544876;-1.3741584960538247;1.7990000000000002;0.18444587937142326
10:26.8;0.11608655390206515;-1.156543815914154;-1.3742011021109712;1.7990000000000002;0.18449912140575145
10:26.8;0.1161016533024114;-1.1566393893331988;-1.3742362833312338;1.7990000000000002;0.18454309210282446
10:26.8;0.11611068353340019;-1.15669680817693;-1.3742573602625556;1.7990000000000002;0.1845694383039293
10:26.8;0.11611044910323014;-1.1566958334757114;-1.3742568855960966;1.7990000000000002;0.1845688463752899
10:26.8;0.1160976848803634;-1.1566157228401084;-1.3742272409656409;1.7990000000000002;0.1845317942139999
10:26.8;0.11606941832051004;-1.1564374980372851;-1.3741614774019784;1.7990000000000002;0.18444961072065927
10:26.8;0.11602343384434911;-1.1561468559560015;-1.3740543933491223;1.7990000000000002;0.1843158325550708
10:26.8;0.11595882430548757;-1.1557376281930578;-1.373903815230261;1.7990000000000002;0.18412780932017137
10:26.8;0.11587659941581463;-1.1552155990131343;-1.373712010421882;1.7990000000000002;0.1838884624606935
10:26.8;0.11578030409677073;-1.154602384087695;-1.3734871230668193;1.7990000000000002;0.18360805410431977
10:26.8;0.11567658236201818;-1.1539389616769107;-1.3732444825831864;1.7990000000000002;0.18330577560695385
10:26.8;0.11557560645046312;-1.1532883458825811;-1.3730075975027074;1.7990000000000002;0.18301092866934784
10:26.8;0.11549127903564024;-1.152736813982022;-1.3728086192327567;1.7990000000000002;0.182763451607212
10:26.8;0.1154411114648722;-1.1523930655505308;-1.372688048497236;1.7990000000000002;0.18261354537166152
10:26.8;0.11544568652114229;-1.152384721254701;-1.3726934694318782;1.7990000000000002;0.18262018140551134
10:26.8;0.11552763367679139;-1.1528516857923885;-1.3728771407503035;1.7990000000000002;0.1828483268404265
10:26.8;0.11571008155577321;-1.1539361231276908;-1.3732923577652967;1.7990000000000002;0.18336480113148015
10:26.8;0.1160146090809841;-1.155769139703524;-1.3739886296518462;1.7990000000000002;0.18423278356890702
10:26.8;0.11645879523755892;-1.1584547526200082;-1.3750058969906815;1.7990000000000002;0.1855051322138575
10:26.8;0.11705356767129386;-1.1620523347231355;-1.37636824551716;1.7990000000000002;0.18721687295031222
10:26.8;0.11780067061266547;-1.166559464042592;-1.378077848611656;1.7990000000000002;0.1893775073974418
10:26.8;0.11869070870037156;-1.1718979326662482;-1.380110183407348;1.7990000000000002;0.1919642124749948
10:26.8;0.1197023685700942;-1.1779065452996256;-1.3824118976733863;1.7990000000000002;0.19491759396747957
10:26.8;0.12080356575993267;-1.184345200558443;-1.384903035745264;1.7990000000000002;0.1981424028168244
10:26.8;0.12195521079280072;-1.1909145484666943;-1.3874852263738737;1.86;0.20151590508194536
10:26.8;0.12311745632679205;-1.1972912440863073;-1.3900556362703282;1.86;0.20490456011227573
10:26.8;0.12425666796182805;-1.2031704009595514;-1.3925229776337784;1.86;0.2081848936322829
10:26.8;0.1253504646410652;-1.2083020694985944;-1.394819894723804;1.86;0.21126113107866856
10:26.8;0.12638913681911654;-1.2125132774406548;-1.396908102925675;1.86;0.21407408051547328
10:26.8;0.12737344006499904;-1.2157155144911578;-1.398776260393054;1.86;0.21660031819393172
10:26.8;0.1283096719803869;-1.21790173741243;-1.4004324530467862;1.86;0.21884358022469008
10:26.8;0.12920308147152962;-1.2191370826190029;-1.4018933926848502;1.86;0.22082101508403784
10:26.8;0.1300506083663347;-1.2195465144894002;-1.4031722197340066;1.86;0.22254699542116388
10:26.8;0.1308339018788553;-1.2193016652111788;-1.4042665942918142;1.86;0.224017024894968
10:26.8;0.13151351691543667;-1.2186082064598571;-1.4051485591867343;1.86;0.2251939572257753
10:26.8;0.13202512949709042;-1.2176942942329616;-1.405757463396334;1.86;0.22599835141936528
10:26.8;0.13227853207433618;-1.2167999931191342;-1.4059970289746688;1.86;0.2263043845806242
10:26.8;0.13216004643635415;-1.2161671502629485;-1.4057374060480514;1.86;0.22594235573030974
10:26.8;0.13153880321315872;-1.2160289756648717;-1.4048227585066497;1.86;0.22470841890234697
10:26.8;0.1302770590406832;-1.216598606564541;-1.4030845254753535;1.86;0.2223817254159902
10:26.8;0.12824433446836028;-1.2180561910766277;-1.4003599806880234;1.86;0.21874855995086748
10:26.8;0.12533464325432306;-1.220534510534657;-1.3965150414617442;1.86;0.21363224801081324
10:26.8;0.12148544266782979;-1.224103849838925;-1.3914694521032935;1.86;0.20692653271102132
10:26.8;0.11669617436191157;-1.2287576861936562;-1.385221492237089;1.86;0.19862873992179356
10:26.8;0.11104341219780484;-1.2344017506931864;-1.3778682692763813;1.86;0.18886741075686525
10:26.8;0.10468873051674174;-1.2408500619419307;-1.3696164998835698;1.86;0.17791731649002954
10:26.8;0.0978745136465141;-1.2478325614210046;-1.3607775435627965;1.86;0.1661931290602594
10:26.8;0.09090317482946414;-1.2550188399992532;-1.3517407883367394;1.839;0.15421361416645532
10:26.8;0.08409989011076431;-1.2620578295161455;-1.3429255228912347;1.839;0.14253667105357076
10:26.8;0.07776804998258893;-1.2686241691117286;-1.3347232520890453;1.839;0.131681697589333
10:26.8;0.0721517771339931;-1.2744567801108606;-1.3274491008248972;1.839;0.12206468147904032
10:26.8;0.06741472484671009;-1.2793804198240828;-1.321314288573944;1.839;0.11396214042826813
10:26.8;0.06363528589073618;-1.2833102138326418;-1.3164198617076555;1.839;0.10750386455206869
10:26.8;0.0608137184340217;-1.2862438541983843;-1.312765866582785;1.839;0.10268621537973657
10:26.8;0.0588864637465722;-1.2882463722930484;-1.3102698435426925;1.839;0.09939742842617749
10:26.8;0.05774384013803933;-1.2894314519901307;-1.3087897003984732;1.839;0.0974481930158646
10:26.8;0.05724821761385711;-1.2899422928923525;-1.3081472155099916;1.839;0.09660261280602433
10:26.8;0.05725064642484059;-1.2899341293108275;-1.3081495454502667;1.839;0.09660627194116271
10:26.8;0.05760468394846693;-1.2895597075110923;-1.3086071108525237;1.839;0.09720945966911111
10:26.8;0.058176808914430785;-1.2889583522192216;-1.3093470685821975;1.839;0.0981846420359035
10:26.8;0.058853316435008976;-1.288248727811682;-1.3102222314871599;1.839;0.09933804921506915
10:26.8;0.05954395166493818;-1.287525020101858;-1.311115768735476;1.839;0.10051580876911267
10:26.8;0.06018277465306551;-1.2868560203518704;-1.3119423236999483;1.839;0.10160542760814395
10:26.8;0.06072687165317782;-1.286286465752388;-1.3126463452738426;1.839;0.10253363230782957
10:26.8;0.06115356045155521;-1.2858399575692467;-1.3131984703878274;1.839;0.10326164349886148
10:26.8;0.06145670208420077;-1.2855228155006275;-1.3135907500399782;1.839;0.10377891401993804
10:26.8;0.06164265077354838;-1.2853283114223606;-1.3138314069766903;1.839;0.10409623431741047
10:26.8;0.0617262677608197;-1.2852408369928765;-1.3139396758349537;1.839;0.10423893403012308
10:26.8;0.06172730936593226;-1.2852396803919306;-1.3139411273299524;1.839;0.1042407143650444
10:26.8;0.0616673877207226;-1.2853022045687068;-1.313863733319352;1.839;0.10413845475046075
10:26.8;0.061567603050484525;-1.2854063235293232;-1.3137348007618819;1.839;0.10396816587437768
10:26.8;0.06144686448414094;-1.285532258811178;-1.313578796651416;1.839;0.10376211975331923
10:26.8;0.061320854523093556;-1.2856636229111795;-1.313416006012982;1.839;0.10354708055655869
10:26.8;0.061201550485748234;-1.2857879200802522;-1.3132619109821893;1.839;0.10334348773728484
10:26.8;0.06109719273497859;-1.2858965793972368;-1.3131271486061826;1.839;0.10316540260665212
10:26.8;0.06101258144701114;-1.2859846433805435;-1.3130178946178803;1.839;0.10302101582229768
10:26.8;0.06094958768596782;-1.2860502311647652;-1.312936525630013;1.839;0.10291352035044425
10:26.8;0.06090777708274983;-1.2860938821654841;-1.3128824283999867;1.839;0.10284217613023064
10:26.8;0.06088506216913981;-1.2861178676561278;-1.312852847737496;1.839;0.1028034231782669
10:26.8;0.06087831951726569;-1.2861255368003088;-1.3128436905415546;1.839;0.1027919342901383
10:26.8;0.060883927977188904;-1.2861207428385875;-1.3128502293756372;1.839;0.10280153290348693
10:26.8;0.06089820279832807;-1.2861073760919557;-1.312867672726551;1.839;0.10282593322664116
10:26.8;0.060917716160765;-1.2860890143616919;-1.3128915892211073;1.839;0.10285928655850056
10:26.8;0.060939507051429295;-1.2860686887637658;-1.3129181888565729;1.839;0.10289653886586585
10:26.8;0.06096119234974145;-1.2860487541597097;-1.312944475563809;1.839;0.10293361990276491
10:26.8;0.060980996614939685;-1.2860308479048759;-1.312968292423622;1.839;0.1029674937565083
10:26.8;0.060997720790858204;-1.2860159181551518;-1.3129882841489597;1.839;0.10299610536081563
10:26.8;0.06101067038613691;-1.286004302837725;-1.3130038017496217;1.839;0.10301825811174163
10:26.8;0.06101956221646014;-1.2859958419281514;-1.3130147723972707;1.839;0.10303345521872095
10:26.8;0.0610244260617953;-1.2859900082271272;-1.313021554172505;1.839;0.10304173275602711
10:26.8;0.061025514088744605;-1.285986044805215;-1.3130247912891408;1.839;0.10304350638696898
10:26.8;0.06102322702707232;-1.285983100193793;-1.3130252811235485;1.839;0.10303944711381673
10:26.8;0.06101806219157419;-1.285980354880335;-1.3130238603638165;1.839;0.10303039470885259
10:26.8;0.061010584742356745;-1.2859771344824316;-1.313021314131928;1.839;0.10301731111110318
10:26.8;0.06100142024423987;-1.2859730060259937;-1.313018309190628;1.839;0.10300127031532483
10:26.8;0.06099126373394842;-1.2859678540612027;-1.3130153503818107;1.839;0.10298347633507618
10:26.8;0.06098089821616103;-1.2859619330488854;-1.3130127582208926;1.839;0.10296529684095916
10:26.8;0.060971213859441764;-1.2859558917686673;-1.3130106649894897;1.839;0.10294829719234522
10:26.8;0.060963218227613525;-1.2859507647411765;-1.3130090265791672;1.839;0.10293425793842542
10:26.8;0.06095802775047086;-1.2859479251721218;-1.3130076475698085;1.839;0.10292515862599863
10:26.8;0.060956831411326906;-1.2859489940895692;-1.3130062173990849;1.839;0.10292311210123999
10:26.8;0.06096081941228317;-1.2859557015177694;-1.3130043558264695;1.839;0.10293023661887506
10:26.8;0.06097107246057613;-1.2859696980206707;-1.3130016660718282;1.839;0.10294845813509544
10:26.8;0.060988411348203916;-1.2859923189702895;-1.3129977939055928;1.839;0.10297924224763678
10:26.8;0.061013211644423464;-1.2860243095226858;-1.3129924905202495;1.839;0.10302326431633972
10:26.8;0.06104519444689555;-1.2860655254023576;-1.312985676209111;1.839;0.10308003711753685
10:26.8;0.061083210954369006;-1.286114632857567;-1.3129775007637454;1.839;0.10314752746777857
10:26.8;0.06112504566516358;-1.2861688399413453;-1.312968395182955;1.839;0.10322180579487057
10:26.8;0.06116726960675733;-1.286223699698145;-1.3129591079319196;1.839;0.10329678447688792
10:26.8;0.06120518029898906;-1.286273032717851;-1.3129507178250943;1.839;0.10336411037631205
10:26.8;0.061232868107949145;-1.2863090204396943;-1.3129446149028268;1.839;0.10341328247734735
10:26.8;0.061243448099830636;-1.286322519967617;-1.3129424407323846;1.839;0.10343206473149434
10:26.8;0.06122949126285784;-1.2863036443747244;-1.3129459806986272;1.839;0.1034072548668924
10:26.8;0.06118367793569425;-1.2862426380381315;-1.3129570033418607;1.839;0.10332584991543126
10:26.8;0.06109967862606541;-1.2861310533171912;-1.3129770458686845;1.839;0.10317661697366048
10:26.8;0.060973242739049874;-1.285963202335212;-1.3130071507118242;1.839;0.10295203262331622
10:26.8;0.060803444338703924;-1.2857378161021862;-1.313047565390331;1.839;0.10265049732996497
10:26.8;0.06059399709138285;-1.285459794245818;-1.3130974266526887;1.839;0.10227866472887352
10:26.8;0.06035451019665546;-1.285141875136385;-1.313154459446286;1.839;0.10185365484771634
10:26.8;0.06010151680585266;-1.2848060027207058;-1.313214730834139;1.839;0.10140485195364914
10:26.8;0.05985907079420629;-1.2844841190836238;-1.3132725074645115;1.839;0.10097493046034287
10:26.8;0.059658682567492884;-1.284218078312838;-1.3133202712080327;1.839;0.1006197156501273
10:26.8;0.05953835651170169;-1.284058366513787;-1.3133489495146629;1.839;0.10040647911534296
10:26.8;0.05954050883051585;-1.2840613342391503;-1.3133484132105973;1.839;0.1004102998879374
10:26.8;0.059708591716194144;-1.28428471027614;-1.313308283211727;1.839;0.10070819767512174
10:26.8;0.06008233378637156;-1.2847812772799694;-1.3132190676056097;1.839;0.10137086976595171
10:26.8;0.060691630985379275;-1.2855907547975105;-1.3130736209108067;1.839;0.10245204363294483
10:26.8;0.061549286715627954;-1.2867301538221172;-1.3128688780531628;1.839;0.1039757008061387
10:26.8;0.06264300007894574;-1.2881831328447098;-1.3126077678361183;1.839;0.10592174501763138
10:26.8;0.06392722600121892;-1.289889184111676;-1.312301156996286;1.839;0.10821109017069308
10:26.8;0.06531576289005517;-1.2917337868238623;-1.3119696205746345;1.839;0.1106916348616163
10:26.8;0.06667613691777279;-1.2935409475456399;-1.3116447833661975;1.839;0.11312715024988453
10:26.8;0.06782701403504765;-1.2950697633028325;-1.3113699385158804;1.839;0.11519167304435553
10:26.8;0.06853994171972415;-1.296016737011994;-1.3111996323809239;1.839;0.11647243626433643
10:26.8;0.06854665780821208;-1.2960254889596794;-1.3111979201947845;1.839;0.11648448366285483
10:26.8;0.06755295744733973;-1.2947051808016548;-1.3114350558510848;1.839;0.1146996364761834
10:26.8;0.06525963780922389;-1.2916583422802146;-1.311982491653233;1.839;0.11059114430089761
10:26.8;0.06139030838998295;-1.2865178186174608;-1.3129062385871635;1.839;0.10369297450695714
10:26.8;0.05572484147887085;-1.2789912104597039;-1.3142588795865657;1.839;0.0936693101046373
10:26.8;0.04813594269847673;-1.2689094582788503;-1.3160708373862442;1.839;0.08038580807120592
10:26.8;0.038624772455476394;-1.2562741652608946;-1.318341868440262;1.839;0.06397030296149028
10:26.8;0.02734980461961784;-1.2412959352074764;-1.3210341709557747;1.839;0.04484805499798574
10:26.8;0.014641261508546909;-1.2244135480624794;-1.324068936222127;1.839;0.023736529468995023
10:26.8;0.000991638604660347;-1.2062813705038262;-1.3273286084215363;1.839;0.0015877440771317744
10:26.8;-0.012986708597949372;-1.1877130087619328;-1.3306670085747452;1.744;0.020524850310154375
10:26.8;-0.026636698016256434;-1.1695814919340868;-1.3339272705864038;1.744;0.041556888737266234
10:26.8;-0.03934598489636622;-1.152700413540627;-1.336963197904279;1.744;0.060636806775684296
10:26.8;-0.05062209053511841;-1.1377241096588002;-1.3396571955799703;1.744;0.07715618019492917
10:26.8;-0.06013480640837075;-1.1250913020371174;-1.341930386827055;1.744;0.09079118230381662
10:26.8;-0.06772565686821713;-1.115012495756707;-1.3437448631844364;1.744;0.10147283111642012
10:26.8;-0.07339344916869604;-1.1074891405006546;-1.3451002255975228;1.744;0.10933303905881549
10:26.9;-0.07726539895120726;-1.1023519553050318;-1.3460266837032946;1.744;0.11464602396956021
10:26.9;-0.07956149405636007;-1.099308242261113;-1.3465765449239095;1.744;0.11777509404362849
10:26.9;-0.08055791263152026;-1.0979904688116977;-1.3468154840068787;1.744;0.11912828111041747
10:26.9;-0.08055356723385756;-1.098000715817975;-1.3468145670191876;1.744;0.11912288577756486
10:26.9;-0.07984229767043644;-1.0989476461758245;-1.3466436335887226;1.744;0.11815788587483805
10:26.9;-0.0786919405157016;-1.1004743680814855;-1.346366331395913;1.744;0.11659325562333929
10:26.9;-0.07733048960678858;-1.1022769120439293;-1.3460368539691216;1.744;0.11473566090724541
10:26.9;-0.07593882923205467;-1.1041140114203225;-1.345698256695885;1.744;0.11283023903742935
10:26.9;-0.07464904916068554;-1.1058095004841622;-1.345382111630017;1.744;0.11105810175117269
10:26.9;-0.07354710274790578;-1.1072489688203804;-1.3451092007742873;1.744;0.10953890545602496
10:26.9;-0.07267850267780944;-1.1083723939958279;-1.3448909297996439;1.744;0.10833748174357977
10:26.9;-0.07205581745403208;-1.1091643774137607;-1.3447311588063935;1.744;0.10747326198525392
10:26.9;-0.07166689121928682;-1.109643390354519;-1.3446281833875608;1.744;0.10693114233841251
10:26.9;-0.07148292041460465;-1.1098511515236693;-1.3445766487696507;1.744;0.10667252832663929
10:26.9;-0.07146575048161839;-1.1098429482540049;-1.3445692346809794;1.744;0.10664552966411141
10:26.9;-0.07157397922175622;-1.109679415099696;-1.3445980031703653;1.744;0.1067935822667663
10:26.9;-0.07176765318645735;-1.1094200200655637;-1.3446553520177893;1.744;0.1070620927805944
10:26.9;-0.0720115092685157;-1.1091182948950902;-1.3447345604120415;1.744;0.1074029843219023
10:26.9;-0.0722768411805007;-1.1088186883532585;-1.3448299503037557;1.744;0.10777724384969484
10:26.9;-0.07254216012740115;-1.1085548203977573;-1.344936716312822;1.744;0.10815572385497169
10:26.9;-0.07279287442095546;-1.1083488657476115;-1.3450504998818082;1.744;0.10851853955502458
10:26.9;-0.07302023976391295;-1.1082117895072738;-1.3451668003284427;1.744;0.10885344062670353
10:26.9;-0.073219837007459;-1.10814418510071;-1.3452803272514844;1.744;0.10915353897643891
10:26.9;-0.07338982377088189;-1.108137514901441;-1.3453844057155329;1.744;0.10941475495996945
10:26.9;-0.07352918595700751;-1.1081756157514155;-1.3454705475947906;1.744;0.10963331423998941
10:26.9;-0.07363618909458461;-1.1082363948820197;-1.3455282986359798;1.744;0.10980359236809845
10:26.9;-0.07370720018802084;-1.1082936975718505;-1.3455454599328773;1.744;0.10991656640821958
10:26.9;-0.07373601933836314;-1.1083193686486843;-1.3455087629642208;1.744;0.1099590912131163
10:26.9;-0.07371382636417051;-1.1082855498143398;-1.3454050474266301;1.744;0.1099141684831953
10:26.9;-0.07362980945864148;-1.1081672497876336;-1.3452229493700307;1.744;0.10976231430335935
10:26.9;-0.07347249843539973;-1.1079451925789956;-1.3449550529072822;1.744;0.10948405057029542
10:26.9;-0.0732317722007496;-1.107608891331212;-1.3446003925080474;1.744;0.10906344488589627
10:26.9;-0.07290144725667183;-1.1071598141806036;-1.3441671167530114;1.744;0.1084925035476402
10:26.9;-0.07248228112014768;-1.106614410441632;-1.3436750426584323;1.744;0.10777609023690798
10:26.9;-0.07198514333006237;-1.106006659026482;-1.3431577489065127;1.744;0.1069369116393082
10:26.9;-0.07143402148022003;-1.1053896983320441;-1.3426637856442258;1.744;0.10601999714059344
10:26.9;-0.07086844758944011;-1.1048360126143466;-1.3422565293681628;1.744;0.10509601925947414
10:26.9;-0.07034486117317941;-1.1044356011235064;-1.342012197020763;1.744;0.10426276484921773
10:26.9;-0.06993638241686248;-1.1042915612449749;-1.3420155678805874;1.744;0.10364407290581784
10:26.9;-0.06973046676020642;-1.1045125936032893;-1.3423530587272534;1.744;0.10338558774814216
10:26.9;-0.06982396686126097;-1.1052021012835702;-1.3431029683547642;1.744;0.103646711970236
10:26.9;-0.070315254576583;-1.1064438179457743;-1.3443229584727583;1.744;0.10458816314789911
10:26.9;-0.07129326681267005;-1.1082842637772683;-1.3460351689307213;1.744;0.10635455371144219
10:26.9;-0.07282364218000614;-1.1107127860371804;-1.348209765792192;1.744;0.10905149801487034
10:26.9;-0.07493250957620459;-1.113640470201674;-1.3507481685075675;1.744;0.11271706458932493
10:26.9;-0.07758896347662643;-1.1168797690950143;-1.3534676602938842;1.744;0.11728818279947885
10:26.9;-0.08068778859110294;-1.1201272323742593;-1.3560895011609944;1.744;0.12256416828688577
10:26.9;-0.08403453784112892;-1.122952148901005;-1.3582329674960882;1.744;0.12817205105603402
10:26.9;-0.08733556499120597;-1.124794142661413;-1.3594178534392682;1.744;0.13354177655454305
10:26.9;-0.09019599353118586;-1.1249726764093118;-1.3590777949488948;1.744;0.13790294408390572
10:26.9;-0.09212878022661881;-1.1227108942996429;-1.3565862208087887;1.744;0.1403171191385161
10:26.9;-0.09257791095482451;-1.1171751533709404;-1.3512957034558737;1.744;0.1397587606152853
10:26.9;-0.09095825413405387;-1.1075298430842222;-1.3425898987311768;1.744;0.13525113820281293
10:26.9;-0.08671361072479701;-1.0930045864748674;-1.3299450765039786;1.744;0.12605003216889915
10:26.9;-0.07939298218823784;-1.0729676095600014;-1.312995441641443;1.744;0.11184895877796572
10:26.9;-0.06874301300978435;-1.0469949642343614;-1.2915930651352279;1.744;0.09296058771174143
10:26.9;-0.05481199508026656;-1.0149204637868285;-1.265849384154682;1.744;0.07041896765073742
10:26.9;-0.038055923708155776;-0.9768481275231601;-1.236141199987315;1.655;0.04595337334938058
10:26.9;-0.01942426745059024;-0.9331162406936427;-1.2030639615090977;1.4340000000000002;0.021805653913043913
10:26.9;-0.000384144103817507;-0.8842254661175739;-1.1673311806798636;1.276;0.00039650738127111206
10:26.9;0.01716170187920257;-0.8307677383416822;-1.1296543319794436;1.369;0.016105920406418773
10:26.9;0.031076349332169368;-0.7733922858605661;-1.0906597330137673;1.3719999999999999;0.02621314380340228
10:26.9;0.03927267949260505;-0.7128173533212108;-1.0508718045204866;1.3719999999999999;0.02941836533791627
10:26.9;0.040010089169052875;-0.649865254585564;-1.0107393387667762;1.266;0.026280402122260745
10:26.9;0.03213657624821767;-0.5854860087847417;-0.9706588669758387;1.163;0.018263447212638218
10:26.9;0.015235183340597409;-0.5207433217912194;-0.9309691476730318;1.053;0.007385955431562466
10:27.0;-0.01033726665206717;-0.45675742732405533;-0.8919223562641414;0.892;0.004211321398358366
10:27.0;-0.043508289199659204;-0.39462275414479486;-0.8536562989052955;0.892;0.014656733090790613
10:27.0;-0.0826186834226581;-0.3353328958484658;-0.8161935975792091;0.868;0.022612449663385083
10:27.0;-0.12559440483422024;-0.2797398705803883;-0.7794807376795962;0.843;0.02738609115300934
10:27.0;-0.17014138579853516;-0.2285545469719686;-0.7434600088491523;0.8290000000000001;0.028910622577104205
10:27.0;-0.21394729395397838;-0.1823797014177336;-0.7081544590219163;0.8029999999999999;0.027631934598029238
10:27.0;-0.254870397021054;-0.1417640179180586;-0.6737460438919076;0.8029999999999999;0.02434342252846052
10:27.0;-0.2910936585424509;-0.10726600719841839;-0.640633059566378;0.774;0.02000341780209106
10:27.0;-0.32123019819931936;-0.07951412539860643;-0.609456737262584;0.755;0.015566950138874408
10:27.0;-0.3443802292031981;-0.05924456114003872;-0.5810885906360437;0.7509999999999999;0.011855750355556773
10:27.1;-0.3601477195842215;-0.047297096101707244;-0.5565735019341531;0.6809999999999999;0.009480640363300099
10:27.1;-0.3686229932335863;-0.04455717039918757;-0.5370305812851365;0.6809999999999999;0.00882061856103508
10:27.1;-0.37033231865652083;-0.05184758412404281;-0.5235239609840747;0.581;0.010052097740691402
10:27.1;-0.36615560389914464;-0.06978695635552484;-0.5169258340748473;0.581;0.013208946468479742
10:27.1;-0.35721898090099513;-0.0986373178700958;-0.5178004634721073;0.563;0.018244762589274755
10:27.1;-0.34477336671782627;-0.13816491886888754;-0.5263369306108504;0.569;0.025072367197116047
10:27.1;-0.33006980401919567;-0.18754292017496202;-0.5423469308914152;0.644;0.03357249796425247
10:27.1;-0.3142418515320379;-0.2453268307893341;-0.5653228014870605;0.741;0.043581841407349504
10:27.1;-0.29820765540175226;-0.30952096898928966;-0.5945267976287698;0.741;0.05487572856438863
10:27.1;-0.28260676493437076;-0.3777287745012537;-0.6290694258558039;0.775;0.06715234781354089
10:27.2;-0.2677840269775677;-0.4473616690787816;-0.6679464610265341;0.872;0.08001752081514034
10:27.2;-0.25382410008177964;-0.5158747016964191;-0.7100370908851646;0.872;0.09297327339187995
10:27.2;-0.24062985571499657;-0.5809885159596364;-0.7540962685465754;1.075;0.10542505845585935
10:27.2;-0.22802778064092086;-0.6408533118151697;-0.7987796848884983;1.075;0.11672755920243112
10:27.2;-0.21587272540329872;-0.694125492491837;-0.8427180681490836;1.207;0.12627520278065812
10:27.2;-0.20412005516945375;-0.7399512569648334;-0.884628783926761;1.2990000000000002;0.1336133508198463
10:27.2;-0.19284373926157652;-0.7778739134334203;-0.9234280062972677;1.2990000000000002;0.13852169376920873
10:27.2;-0.18219908727923162;-0.8077046374168081;-0.9582882367814;1.24;0.14102461752716453
10:27.2;-0.1723462959773424;-0.829405428689658;-0.9885979315779623;1.24;0.14131508535779133
10:27.2;-0.1633597154548893;-0.8430136546554767;-1.013834113007311;1.173;0.13961962830019015
10:27.2;-0.15514726156314695;-0.8486100024852341;-1.033413544410773;1.208;0.13605872917316436
10:27.3;-0.14739724517370953;-0.8463225034645918;-1.0466004204615065;1.3019999999999998;0.1305588032080499
10:27.3;-0.13956262371184722;-0.8363622227522557;-1.052517963730773;1.379;0.12285506057005716
10:27.3;-0.13088815681357682;-0.8190834907982708;-1.0502598531156102;1.4180000000000001;0.1125966032245175
10:27.3;-0.12048098811039382;-0.7950522973493607;-1.0390547756401993;1.41;0.09952969203968966
10:27.3;-0.10741851508482646;-0.76510076877757;-1.0184253952285216;1.371;0.08370029779219543
10:27.3;-0.09087992765526434;-0.730350158238006;-0.9882978739302803;1.258;0.06559745064390775
10:27.3;-0.07027982345837715;-0.6921943168972969;-0.9490472370900526;1.145;0.046168580333147795
10:27.3;-0.04537648218119878;-0.6522418738033118;-0.9014983583428633;1.0959999999999999;0.02668114366345777
10:27.3;-0.016329378650566936;-0.6122208526908798;-0.84692187012554;1.08;0.008466835565897285
10:27.3;0.016305673330271383;-0.5738586089030139;-0.7870485293349028;1.033;0.007364531944755553
10:27.4;0.051634230654896196;-0.5387575857713562;-0.7240867890558725;0.9740000000000001;0.02014288774527044
10:27.4;0.0885084158630984;-0.5082865298970402;-0.6607024590848563;0.9129999999999999;0.029723441446696718
10:27.4;0.12561294576998744;-0.4834969122754044;-0.599924428693983;0.804;0.03643549314520977
10:27.4;0.16153710663787632;-0.465062443545736;-0.5449656265543976;0.68;0.04094045633763986
10:27.4;0.19483445466557542;-0.4532368621684037;-0.4989767507961694;0.603;0.04406271923274315
10:27.4;0.2240843341513573;-0.44783380471502005;-0.4647718952409779;0.5760000000000001;0.04664104018017565
10:27.4;0.2479703912055527;-0.4482412789354349;-0.4445756974497;0.506;0.04941484008666247
10:27.4;0.26538139955758133;-0.4534830749198406;-0.4398411792096198;0.682;0.052933114720510745
10:27.5;0.27552527421430073;-0.46233138560181075;-0.451170175575112;0.826;0.05747185343227541
10:27.5;0.278033457530135;-0.4734592794500508;-0.47832772101076576;0.8;0.06296587516363863
10:27.5;0.27302536057432913;-0.48560208992658765;-0.5203049129539276;0.8;0.06898290243630711
10:27.5;0.26110879018575556;-0.4976902533570292;-0.5753908426562043;0.802;0.0747727879774915
10:27.5;0.24331150363081194;-0.5089308324731505;-0.641251454548519;0.8270000000000001;0.07940535072210533
10:27.5;0.22096057444267023;-0.5188347227325675;-0.71503775648786;0.8590000000000001;0.08197337161866608
10:27.5;0.1955412562017973;-0.5271975278593506;-0.7935416735386676;1.041;0.08180531193454235
10:27.5;0.16856917409974437;-0.5340471550384117;-0.8733956018216877;1.041;0.07862646771157092
