Time;AccX;AccY;AccZ;Acc-old;Acc-trns
28:34.1;-0.18831635535895674;-0.2585177629664433;-0.9262962738876441;0.971;0.04509499535959372
28:34.1;-0.18133604352824992;-0.2247242376127273;-0.9145110968157023;1.011;0.03726687968211581
28:34.1;-0.17437266198241783;-0.19164375303389905;-0.8996758065826428;1.101;0.03006485452066508
28:34.1;-0.1671490113806967;-0.1604449719360013;-0.8797935356597515;1.0659999999999998;0.023594495221516618
28:34.2;-0.15942816501768325;-0.13227041839462741;-0.8534184372426894;0.972;0.017996572317222535
28:34.2;-0.15103873650574792;-0.10818337855055944;-0.8198068057360143;0.78;0.013395545490657454
28:34.2;-0.14190406970142114;-0.08911923238245834;-0.7789547336791849;0.78;0.009850958938777457
28:34.2;-0.13206054310742035;-0.07584469401164118;-0.7315681762871382;0.78;0.007327453779738652
28:34.2;-0.12164621272051936;-0.06893169876537099;-0.6790167025703623;0.772;0.005693745237654905
28:34.2;-0.11084901110407767;-0.06874567468571535;-0.6232858795304286;0.735;0.004749681518789232
28:34.2;-0.09982162263844886;-0.07543673351057271;-0.5669048692365274;0.653;0.004268916766231801
28:34.2;-0.08858684838775294;-0.08892063114042914;-0.5128163107148915;0.5489999999999999;0.004039555857836698
28:34.2;-0.0769623996972273;-0.10884755699516133;-0.464173190707376;0.442;0.0038884573508705445
28:34.2;-0.06452790716743244;-0.13457202558080578;-0.4240753706588722;0.355;0.0036825225902913108
28:34.3;-0.0506466135237657;-0.16514489480974273;-0.39528177094259137;0.313;0.003306148457348496
28:34.3;-0.034543220373249486;-0.1993441853226884;-0.37994331678706356;0.405;0.002616285926971993
28:34.3;-0.015426642052001222;-0.23574752936474325;-0.37939248035366196;0.405;0.0013797718220129676
28:34.3;0.007366504624728871;-0.272834660103068;-0.39400332561767965;0.405;0.000791882771413691
28:34.3;0.03423766669642501;-0.3091065499895639;-0.4231184033760718;0.45899999999999996;0.004477898887864851
28:34.3;0.06522314200976564;-0.34321787152313094;-0.46503783663232495;0.541;0.010410219809524276
28:34.3;0.09992461455056727;-0.3741209209770559;-0.5170757175406883;0.61;0.01933030113809779
28:34.3;0.1374616720001283;-0.4012021017539791;-0.5756994198979307;0.688;0.03174977218293789
28:34.3;0.17643936554044232;-0.42437135107101365;-0.6367756423541432;0.787;0.04767909324265915
28:34.3;0.21494680735904612;-0.4440580888583391;-0.6959445382985088;0.9309999999999999;0.06642711870686205
28:34.4;0.2506293721460783;-0.46108283954884693;-0.7491120660734198;1.135;0.08656806649160377
28:34.4;0.2808862931431205;-0.4764124973473152;-0.7929895921633913;1.235;0.10611607537366938
28:34.4;0.3032083313004909;-0.4908546514027743;-0.8255580679506712;1.235;0.12286881423821747
28:34.4;0.3155887396609883;-0.5047739807133769;-0.8463396205964115;1.235;0.1348227346867239
28:34.4;0.31688550912214214;-0.5179045114478645;-0.8564165305233581;1.258;0.1405520276819835
28:34.4;0.30703848250483673;-0.5292968639534567;-0.8581960432635551;1.065;0.13946930593874754
28:34.4;0.2871085981544721;-0.5374048691745816;-0.8549594104070407;0.903;0.13191472991599584
28:34.4;0.2591487755648446;-0.5402968230186693;-0.8502755447090904;0.863;0.11905325212304343
28:34.4;0.22593528732040444;-0.5359667903037794;-0.8474011813931845;0.9;0.10261503829868032
28:34.4;0.19060062722030846;-0.5227034286749119;-0.8487945463494566;0.9840000000000001;0.08456336469654833
28:34.5;0.15621696110913372;-0.4994480442736238;-0.8558234634633209;1.097;0.06677327710752007
28:34.5;0.12538547104232822;-0.4660619533072813;-0.8686793388095273;0.96;0.050763359865779754
28:34.5;0.09989388761456386;-0.4234457272080559;-0.8864568738262132;0.96;0.03749680653606719
28:34.5;0.08050682705222514;-0.3735022929060766;-0.9073490226137856;0.96;0.02728351737030422
28:34.5;0.06693836141522339;-0.3189720680463714;-0.9289285515568513;0.925;0.019833987845502565
28:34.5;0.05801979689054618;-0.2631690505516987;-0.9485098457250131;1.0090000000000001;0.014482810930073276
28:34.5;0.05203003793631447;-0.20964398884805802;-0.963580384119117;1.181;0.010510527364258507
28:34.5;0.04711502786870488;-0.1618191675766207;-0.9722574508178977;1.2770000000000001;0.0074126022160783
28:34.5;0.0416979584414263;-0.12265502838336734;-0.9736851685065255;1.276;0.0049798780105550266
28:34.5;0.03478471858734754;-0.09439981565888925;-0.9682743090377475;1.2009999999999998;0.003179494290313835
28:34.6;0.02610029108482653;-0.07844932570026145;-0.9577182172555098;1.083;0.001960976161940375
28:34.6;0.01603905146560192;-0.07531935974717087;-0.9447769119958996;0.868;0.0011413387758313748
28:34.6;0.005463079622237772;-0.08471052176409474;-0.9328819548550044;0.868;0.00043171941447697813
28:34.6;-0.004576109088521563;-0.10562494323049162;-0.9256538078217945;0.868;0.00044741593682597687
28:34.6;-0.01310921722648749;-0.13649115482028196;-0.9264215780274534;0.868;0.0016576389016541382
28:34.6;-0.01946118700714521;-0.17527422477837507;-0.9377991980250608;0.825;0.0031988747645904443
28:34.6;-0.023384734006186566;-0.21957585907974286;-0.9613408546214857;0.8140000000000001;0.004936219053552691
28:34.6;-0.02510769411562658;-0.26674253815113347;-0.9972961801788148;0.843;0.006679181789924158
28:34.6;-0.02528869364424706;-0.3139969128771708;-1.0444962712686396;0.9420000000000001;0.008293897568938318
28:34.6;-0.024891222328180137;-0.35859581468774515;-1.1003993334254483;1.0490000000000002;0.009822041369772152
28:34.7;-0.02501166600799068;-0.39800365958590517;-1.161306032870556;1.1340000000000001;0.011560493350693845
28:34.7;-0.02671171693453743;-0.4300589982244555;-1.2227299115271801;1.514;0.014046249525875914
28:34.7;-0.03089436202860537;-0.45310915308713184;-1.2798764798443405;1.514;0.01791637421470545
28:34.7;-0.038230461102117926;-0.4660943301557398;-1.3281477369334393;1.514;0.023666266063656138
28:34.7;-0.04911686509946304;-0.46857522554599507;-1.3635817260744212;1.514;0.03138275998594516
28:34.7;-0.06364622124556057;-0.4607104048899841;-1.3831796868127573;1.548;0.04055825366786693
28:34.7;-0.08157964363417705;-0.4431973268320434;-1.3851231733746192;1.541;0.0500803472176203
28:34.7;-0.1023192316779313;-0.41719266566498786;-1.3688967274849155;1.5419999999999998;0.05843386601751949
28:34.7;-0.12488591558838047;-0.3842207919902033;-1.3353204382513941;1.516;0.06407370263725734
28:34.7;-0.14792646271794818;-0.3460682105487148;-1.2864859645701632;1.482;0.0658586208841718
28:34.8;-0.16978547067706162;-0.3046600339665963;-1.2255817508271167;1.463;0.06339548003397714
28:34.8;-0.1886659664043669;-0.2619243186857487;-1.1565919718902338;0.981;0.057154385648468045
28:34.8;-0.20286550950586862;-0.21966113888950972;-1.0838831313763704;0.981;0.04829964118274814
28:34.8;-0.21103214592752914;-0.17943941260103022;-1.011752420826727;0.981;0.03831251891637457
28:34.8;-0.21236886876978997;-0.14253895671059866;-0.9440400852935387;0.981;0.028576883536076066
28:34.8;-0.20673875879720574;-0.10993554141226551;-0.8838618566061689;0.8270000000000001;0.02008835692887084
28:34.8;-0.19465821770789132;-0.08231025397113625;-0.8334554358543139;0.746;0.013353929152364994
28:34.8;-0.17718803271856157;-0.06006789568111421;-0.7941234094617452;0.737;0.008452103424070488
28:34.8;-0.15574585969930227;-0.043362995887972045;-0.7662726512298718;0.7509999999999999;0.005175104397736206
28:34.8;-0.13187554175627286;-0.032137732613731824;-0.7495487577859036;0.758;0.003176723228307872
28:34.9;-0.10701412131569624;-0.026171070889782534;-0.7430428781169635;0.7859999999999999;0.002081020984918531
28:34.9;-0.08229468570016908;-0.025132988965765962;-0.7455324819709088;0.862;0.0015419933521398728
28:34.9;-0.05841604921218697;-0.028637535063819625;-0.755713585011967;0.862;0.0012642269519043924
28:34.9;-0.035600231169008546;-0.03629056174977271;-0.7723836345037818;0.862;0.0009978828806979133
28:34.9;-0.013644170548295876;-0.0477294796546754;-0.7945440974939133;0.858;0.0005174302856625488
28:34.9;0.007946019739871297;-0.0626537178939321;-0.8214121446321232;0.8370000000000001;0.00040893812984018273
28:34.9;0.029767642863776745;-0.08084448232964128;-0.8523536181712889;0.816;0.002051231324922384
28:34.9;0.05232291741152267;-0.102169784583257;-0.886766787108289;0.847;0.004740496690602614
28:34.9;0.07585494645032655;-0.12656900676439234;-0.9239545039432924;0.902;0.00887078115045593
28:34.9;0.10025662326899824;-0.15401475533169504;-0.9630169962284476;0.9390000000000001;0.014869944767691507
28:35.0;0.12507598148031593;-0.18445925715837816;-1.0027816585162301;0.9520000000000001;0.023135599451460584
28:35.0;0.14961994656444982;-0.2177824037747157;-1.0417733332131507;1.089;0.033945758618617046
28:35.0;0.17312809326783554;-0.2537567346325035;-1.078225591150872;1.089;0.047369059116322505
28:35.0;0.1949580033818896;-0.2920293477523542;-1.1101350525170381;1.089;0.06320382801593619
28:35.0;0.214719039598818;-0.3321108799027945;-1.1353639786465568;1.169;0.08096340612130133
28:35.0;0.23231827876821243;-0.37336811939441333;-1.1518000541766882;1.218;0.09990741180054893
28:35.0;0.24791519335703133;-0.41502283838622156;-1.157577819392881;1.2790000000000001;0.11910372268790825
28:35.0;0.26180354645015264;-0.45615371600414567;-1.1513492486648202;1.3659999999999999;0.1374971905280781
28:35.0;0.274257339158047;-0.49569402947704927;-1.13256723918343;1.445;0.15396994021178198
28:35.0;0.28539302309216413;-0.5324258970972678;-1.101720940057099;1.479;0.16740719791644948
28:35.1;0.2950984051105667;-0.5649839089624789;-1.060445172920816;1.422;0.17680362330865823
28:35.1;0.30305297807190734;-0.5918838713208938;-1.0114385687029521;1.114;0.1814239307650567
28:35.1;0.3088261414663916;-0.6115843942275309;-0.958183416552169;1.114;0.1809752146870986
28:35.1;0.3120106562181279;-0.6225799997807192;-0.9045387927464933;1.114;0.17570810257898992
28:35.1;0.31234487480732964;-0.6235231103259159;-0.8543101783410487;1.048;0.16638053619993354
28:35.1;0.309793727401914;-0.6133754539058169;-0.8108620536100802;1.0290000000000001;0.15407990052481868
28:35.1;0.3045748438715092;-0.5915852537564077;-0.7767946349735103;1.03;0.1399644002763571
28:35.1;0.2971239552624672;-0.5582691688682346;-0.7536961203421207;1.0090000000000001;0.12501945215876173
28:35.1;0.2880017967839937;-0.5143556244029289;-0.741988268163278;0.937;0.10991468735871668
28:35.1;0.27775987397404084;-0.4616352071105194;-0.7408855966734248;0.8290000000000001;0.09499911985715473
28:35.2;0.2668005868434545;-0.40267565949347817;-0.7484897114782969;0.7879999999999999;0.08041332020384286
28:35.2;0.2552776341281994;-0.3405936499654646;-0.762033839425849;0.919;0.06625574936638001
28:35.2;0.24307265324212896;-0.2787251434785814;-0.7782608390292558;0.919;0.05272752996144891
28:35.2;0.2298538532598548;-0.22027929112354794;-0.7938695907259933;0.919;0.04019523993524787
28:35.2;0.2151943435394571;-0.16806041765683968;-0.8059445338711767;0.919;0.029147508940948905
28:35.2;0.19872073813719365;-0.12429294932007752;-0.8123112548190481;0.986;0.020063752212285672
28:35.2;0.18026686134058093;-0.0905346159859684;-0.8117977345425516;1.021;0.013248856494605034
28:35.2;0.16000588663589158;-0.06765372277122558;-0.8043882408779346;1.014;0.00870749779770183
28:35.2;0.13852882015671666;-0.05585977818339173;-0.7912475444306052;0.9570000000000001;0.0061228231759062795
28:35.2;0.11683985873580674;-0.05478218268138155;-0.7745961935786034;0.87;0.004957990765524684
28:35.3;0.09625418767580735;-0.06358492671527119;-0.7574391723996617;0.767;0.004635766683970341
28:35.3;0.07820776018866461;-0.08109737231216158;-0.7431793773009563;0.627;0.004713573467828755
28:35.3;0.0640166734906123;-0.1059376671759378;-0.7351739258667022;0.627;0.004985785658171182
28:35.3;0.05464552281085689;-0.13660726922205696;-0.7363058830501551;0.627;0.005496505485272503
28:35.3;0.05054291269723654;-0.17154550902604299;-0.7486359136952833;0.627;0.006490980077620346
28:35.3;0.051576678622385526;-0.2091506073969706;-0.7731720463468236;0.6659999999999999;0.008340433914721244
28:35.3;0.057071534176054685;-0.2477875155496603;-0.8097713234351482;0.736;0.011451473210660909
28:35.3;0.06593139272868019;-0.28580490382725365;-0.8571734692910513;0.841;0.016152161433070925
28:35.3;0.07681427329695809;-0.32157568741554177;-0.913155396952898;0.9790000000000001;0.02255640185431677
28:35.3;0.08831746987203187;-0.35356317260527165;-0.974781022719901;1.103;0.030438321981501697
28:35.4;0.09912955338092222;-0.38040202267957773;-1.0387080122409444;1.169;0.03916872624482126
28:35.4;0.10811971734103491;-0.4009758345012642;-1.1015074551237967;1.317;0.04775408657129723
28:35.4;0.11436393565160931;-0.4144761171251073;-1.1599538834820415;1.317;0.054983113211507416
28:35.4;0.11713729528220405;-0.42043671792832815;-1.2112501659444614;1.317;0.059652641367834304
28:35.4;0.11591248952219901;-0.4187455958238501;-1.2531695181155047;1.3419999999999999;0.06082614718789229
28:35.4;0.11039182664570465;-0.40963988960401565;-1.284122807029097;1.3730000000000002;0.05806918349739801
28:35.4;0.10057677269969509;-0.3936903124554042;-1.3031751903887596;1.402;0.05160065655041836
28:35.4;0.08685414555418108;-0.3717761191921012;-1.3100325143495613;1.409;0.04230133919055155
28:35.4;0.07005729657912908;-0.34504512617024696;-1.3050061361550462;1.405;0.031545820331004726
28:35.4;0.051455870234512376;-0.3148514582487277;-1.2889558213459917;1.382;0.020882316262444897
28:35.5;0.03264597286777605;-0.28266950477636554;-1.2632039925834573;1.3880000000000001;0.01165687294997197
28:35.5;0.015346080613421081;-0.2499915544245663;-1.2294117880462732;1.1159999999999999;0.004716503761875985
28:35.5;0.0011401204172406519;-0.21822485019357016;-1.189419404211975;1.1159999999999999;0.0002959306488875948
28:35.5;-0.00876615354390662;-0.18860853554378262;-1.145081943727903;1.1159999999999999;0.001893245716111723
28:35.5;-0.013711933561008634;-0.16216527024354527;-1.0981468275736914;1.1159999999999999;0.002441838639514238
28:35.5;-0.013636304480730525;-0.13968582409683988;-1.0501955206245455;1.038;0.0020004107778560636
28:35.5;-0.009018630228497486;-0.12173255857392816;-1.0026376137033912;1.012;0.0011007566655872737
28:35.5;-0.0007240962011861038;-0.1086505979723707;-0.9567338034658015;0.985;7.526958277360491e-05
28:35.5;0.010209357795444221;-0.10058526054087244;-0.9136301217980503;0.9440000000000001;0.0009382167432597435
28:35.5;0.02279537960305746;-0.0975078454598426;-0.8743901418451798;0.9209999999999999;0.0019435317585805706
28:35.6;0.036286984695001245;-0.09924903433932838;-0.8400136137715767;0.882;0.0030252655089474893
28:35.6;0.05029022859676984;-0.10553636858935085;-0.8114344364886422;0.805;0.004306646159540001
28:35.6;0.06478411795150629;-0.11603031481762624;-0.7894990010127936;0.805;0.005934602094756391
28:35.6;0.08004827244244218;-0.13035157429675318;-0.7749340215934823;0.805;0.008085985761476476
28:35.6;0.09651630768648366;-0.1480940231799144;-0.7683133133768442;0.8079999999999999;0.010981877361449696
28:35.6;0.1145808645806127;-0.16882362384268215;-0.7700240472751608;0.815;0.014895311891226955
28:35.6;0.1343823216165458;-0.1920681546088875;-0.780224667471452;0.815;0.020138039123727983
28:35.6;0.1556215442864858;-0.21730332349379278;-0.7987867418304827;0.821;0.027012634177451977
28:35.6;0.17744077270904204;-0.24394200454767334;-0.8252198042623599;0.815;0.03571985195524182
28:35.6;0.1984098638997707;-0.2713365635924138;-0.8585884520481625;0.789;0.046222839677200735
28:35.7;0.21664005230144764;-0.29880614306100217;-0.8974445794358595;0.782;0.05809461960815159
28:35.7;0.23002617810584847;-0.32569713247246534;-0.9398096511983386;1.141;0.07040947389003525
28:35.7;0.23658482033896558;-0.35146923598103796;-0.9832348296900274;1.141;0.08175822381196818
28:35.7;0.2348154450226175;-0.37577391796567366;-1.024935112118374;1.141;0.09043773222363916
28:35.7;0.2239963675312803;-0.39848113584358585;-1.061970253351655;1.141;0.0947896880940775
28:35.7;0.20435322479466198;-0.41963011235237047;-1.0914578513971969;1.204;0.09359553047208517
28:35.7;0.17707733771777664;-0.4393108354575103;-1.1108260821249731;1.228;0.08641337499748743
28:35.7;0.1442008092562507;-0.45750446015532353;-1.1181068240360437;1.315;0.07376431742323385
28:35.7;0.10835832891723735;-0.47392526594303824;-1.1122366891119158;1.423;0.05711752470580571
28:35.7;0.07248067521328903;-0.48791392484923735;-1.0932990052124274;1.415;0.03866378759512828
28:35.8;0.03946185551707954;-0.4984217416165128;-1.0626249581973928;1.329;0.02090039493502567
28:35.8;0.011830726139331943;-0.5041003278351892;-1.022694213838012;1.0659999999999998;0.006099218332836551
28:35.8;-0.008540027513138062;-0.503482613014054;-0.976839687427454;1.0659999999999998;0.004200171689229265
28:35.8;-0.02064185411242595;-0.49521763604984376;-0.9288342458772708;1.0659999999999998;0.009494738899753594
28:35.8;-0.02441121474896245;-0.4783121973190754;-0.8824589613640919;1.032;0.010303751233749792
28:35.8;-0.02066596863408268;-0.45233934539688425;-0.8411109191880736;0.971;0.00786273071480606
28:35.8;-0.010914405472219389;-0.41758302345324355;-0.8074623160039934;0.85;0.003680147126064809
28:35.8;0.0029220750944547987;-0.37509303770020513;-0.7831790249858055;0.706;0.0008584033887930009
28:35.8;0.018822619878503633;-0.32663576171185854;-0.7687332728789293;0.623;0.004726280385027414
28:35.8;0.034967576274119415;-0.2745475919883055;-0.7633674524760744;0.6409999999999999;0.00732852896875131
28:35.9;0.04998063428510689;-0.22151737066776186;-0.765260725089626;0.758;0.00847264433707161
28:35.9;0.06307419343646511;-0.1703320676251884;-0.7719064025901795;1.026;0.00829302103838764
28:35.9;0.0740772737893992;-0.12362388342116166;-0.7806348437219854;1.026;0.0071488355233107525
28:35.9;0.08335156520541757;-0.08365998821269632;-0.7891524658649547;1.026;0.00550291084307908
28:35.9;0.09162083788112248;-0.05220549000488423;-0.7959614197479803;1.021;0.0038071716124310363
28:35.9;0.09974482134824586;-0.03046308718243059;-0.8005784310575464;0.945;0.00243258573410467
28:35.9;0.10847232268909561;-0.01906977201294148;-0.8035365151653312;0.853;0.0016621494025081472
28:35.9;0.1182160419747891;-0.018125857403944963;-0.8061984792118159;0.759;0.0017274955932022242
28:35.9;0.128893226352639;-0.027237563409313697;-0.8104419760994239;0.687;0.002845248976940494
28:35.9;0.1398655265795622;-0.045562383832031136;-0.8182960517654996;0.645;0.0052146789895297155
28:36.0;0.14999507218249317;-0.07185657356544745;-0.8316123029864596;0.667;0.008963227123464092
28:36.0;0.15781749728981304;-0.10453685342330174;-0.8518352124200498;0.981;0.014053359760304241
28:36.0;0.16180829578154948;-0.1417707584932182;-0.8798921639152895;0.981;0.020184448918835984
28:36.0;0.16068455715858096;-0.1815913663540053;-0.9161678911854599;0.981;0.026732797195216578
28:36.0;0.1536667676766936;-0.2220152981070622;-0.9605027003540866;0.981;0.03276886861839953
28:36.0;0.1406449662628284;-0.2611539516825363;-1.0121797220335762;1.028;0.037177349776746846
28:36.0;0.1222281276669064;-0.2973272285109547;-1.0699087518908093;1.08;0.038882356860441517
28:36.0;0.09967936458935228;-0.329183366164955;-1.1318337978862232;1.146;0.03713862333585117
28:36.0;0.07475467777850765;-0.3558034496281466;-1.1955887002740868;1.2309999999999999;0.031800235047714745
28:36.0;0.04947725330944602;-0.3767545997589608;-1.258414025512008;1.3459999999999999;0.023457822481488158
28:36.1;0.025890489974992006;-0.39206778564159145;-1.317331398468372;1.4080000000000001;0.013372003224569549
28:36.1;0.0058360734781260646;-0.4021462381846046;-1.3693510874845038;1.5019999999999998;0.0032138053746767936
28:36.1;-0.00920683603721704;-0.4076356629318314;-1.4116764129003074;1.5019999999999998;0.005298070579070977
28:36.1;-0.0182101750242911;-0.4092909006392878;-1.441873369350664;1.5019999999999998;0.010746655575401469
28:36.1;-0.020628011856255346;-0.4078603853213347;-1.4579928651863878;1.5019999999999998;0.012266602616189623
28:36.1;-0.016393548714334683;-0.40399664291331805;-1.4586536688247023;1.525;0.009660573754428413
28:36.1;-0.0058999124131314355;-0.39819588972629116;-1.4431021016660268;1.52;0.0033903098888149403
28:36.1;0.010024368439115234;-0.3907692729832778;-1.4112567348672511;1.4780000000000002;0.0055281962864510825
28:36.1;0.030142728272568878;-0.38184828231301216;-1.3637349114076345;1.452;0.0156965193004251
28:36.1;0.05285218731204931;-0.37142507024180826;-1.3018529178407408;1.4340000000000002;0.025556189539960708
28:36.2;0.07626113264482837;-0.3594221326505553;-1.2275895371968177;1.375;0.03364815425003102
28:36.2;0.09832088410044003;-0.3457756499179234;-1.143501811783032;1.088;0.03887559404611151
28:36.2;0.11700897987772559;-0.3305127115111303;-1.0525948079986354;1.088;0.04070695186457646
28:36.2;0.1305386559355214;-0.3138118262531094;-0.9581723039385313;1.088;0.03925112026453385
28:36.2;0.13756020370454788;-0.2960474231509939;-0.8636982334284742;0.986;0.035173543827699945
28:36.2;0.1373294955728154;-0.2778193416578463;-0.7726677478287788;0.872;0.02947943036150603
28:36.2;0.12982854116746098;-0.259962646022457;-0.6884640531752487;0.767;0.023236054970377805
28:36.2;0.11582225820123711;-0.24353103855358052;-0.6141905043460264;0.672;0.017324050729564097
28:36.2;0.09683459888061016;-0.2297485405376372;-0.552493496786063;0.537;0.012291658609965265
28:36.2;0.07503249786496337;-0.21992745440239647;-0.5054067939409909;0.48200000000000004;0.008340074451831483
28:36.3;0.053015689872246564;-0.21535658758871326;-0.47425060990465456;0.511;0.00541465108319192
28:36.3;0.033526372285448885;-0.21716902949634517;-0.4596060137654328;0.53;0.0033463407062817685
28:36.3;0.019117878220288244;-0.22620109594668447;-0.46135647064816165;0.53;0.0019951291395565647
28:36.3;0.011843541249388731;-0.24285781960305627;-0.47876327960246073;0.53;0.0013770651953388003
28:36.3;0.013024721880972902;-0.267006322010949;-0.510540873856643;0.569;0.001775499361035772
28:36.3;0.02313212009942272;-0.2979201976551195;-0.5549153363313865;0.614;0.003824213352816186
28:36.3;0.04179015272425261;-0.334293206181618;-0.6096649153491123;0.653;0.008517118938441995
28:36.3;0.06789776913259615;-0.37432970501770235;-0.6721492513860872;0.7120000000000001;0.017083447466492627
28:36.3;0.099839473079988;-0.4159024906583045;-0.7393427645373679;0.805;0.030700088577569194
28:36.3;0.13573713609788038;-0.45675099989154494;-0.8079002966723174;0.8859999999999999;0.050088261275026615
28:36.4;0.17368011004560302;-0.4946808409076189;-0.8742949249921327;0.929;0.07511611764397337
28:36.4;0.21188026325045625;-0.5277241866830367;-0.9350666783606368;1.357;0.10455386312102255
28:36.4;0.24873160108871115;-0.5542355024974323;-0.9871800153734318;1.357;0.13608857360390256
28:36.4;0.2827956442303575;-0.5729257838432459;-1.028408961236602;1.357;0.16662376206422025
28:36.4;0.3127591271455757;-0.5828623972647518;-1.0576240752571924;1.357;0.1928001462201777
28:36.4;0.3374107118299486;-0.5834659681845474;-1.074895510874488;1.43;0.21161217219729095
28:36.4;0.3556667073959494;-0.5745258700039981;-1.0813945929027124;1.38;0.2209718731874918
28:36.4;0.36664948681239823;-0.5562425599945935;-1.0791098712602123;1.275;0.2200801948587228
28:36.4;0.3697931472673225;-0.5292894059557117;-1.0704141364276356;1.173;0.20950958483775103
28:36.4;0.36493357827559164;-0.4948666963589694;-1.0575603054022602;1.072;0.19098848980443367
28:36.5;0.3523452999396434;-0.45470244564210605;-1.0422273956288335;0.9890000000000001;0.16697761648575662
28:36.5;0.3327107966917409;-0.410956197323154;-1.0252420121191588;1.061;0.14018089312370569
28:36.5;0.30703688254161965;-0.36602062707004585;-1.0065444542070676;1.061;0.11311731003658837
28:36.5;0.27655278212813383;-0.3222744735595452;-0.9853747515084037;1.061;0.08782241380400954
28:36.5;0.2426225973766318;-0.2818639785816619;-0.9605889831316354;1.061;0.0656913863032865
28:36.5;0.2066815814057453;-0.24655507563517298;-0.9310188290087281;1.09;0.047443223319339596
28:36.5;0.1701824654997415;-0.21765112528376832;-0.8958191886363194;1.077;0.03318150566098704
28:36.5;0.13453338041479057;-0.19595686697169465;-0.854761967121906;1.03;0.022533867269648265
28:36.5;0.10102054854177894;-0.18178039984556418;-0.8084337285275088;0.953;0.01484571780886301
28:36.5;0.07072429869821623;-0.17497375770932153;-0.758305685570699;0.8370000000000001;0.009383954226113402
28:36.6;0.044446750287031045;-0.17501057593191804;-0.7066692901615077;0.809;0.005496934039250111
28:36.6;0.022670397238469423;-0.1810932181677396;-0.6564548819299659;0.6779999999999999;0.0026950461040259905
28:36.6;0.005558485028388596;-0.19227415107525336;-0.6109655928952176;0.599;0.0006529713042537141
28:36.6;-0.007006491115965009;-0.207566396101849;-0.5735681958456219;0.599;0.0008341471732785422
28:36.6;-0.01536210139597224;-0.2260149133573237;-0.5473849422370326;0.599;0.0019005555608398452
28:36.6;-0.02000170751131744;-0.24671384257269016;-0.5350158089496062;0.532;0.00264014150559458
28:36.6;-0.021519822123518075;-0.2687749222307493;-0.5383002958085062;0.473;0.0031135227300137574
28:36.6;-0.020571723717859206;-0.2912669120844157;-0.5581283911107283;0.431;0.0033442285453779185
28:36.6;-0.017842401311367086;-0.31315292482564555;-0.594331463345672;0.473;0.003320767711350621
28:36.6;-0.014012914096032218;-0.3332553524805997;-0.6456970696471442;0.601;0.003015326944644338
28:36.7;-0.009712259906622684;-0.3502744239058502;-0.7101365870843095;0.736;0.0024158535962517285
28:36.7;-0.005450323439327633;-0.36287113446013586;-0.7849941081931306;1.182;0.0015525339113290327
28:36.7;-0.0015410650461227032;-0.369800295320255;-0.8674300904810138;1.182;0.0004943365327219311
28:36.7;0.0019588973197928287;-0.3700588705520766;-0.9547666072283808;1.182;0.0006921173117231296
28:36.7;0.005264368220932196;-0.36301293339200896;-1.044686990111028;1.182;0.001996432096639386
28:36.7;0.008806968136580282;-0.34848083843527056;-1.1352516884113444;1.252;0.0034841551384950076
28:36.7;0.01311199253260189;-0.3267650815073465;-1.2247646568980544;1.265;0.005247554765841246
28:36.7;0.018631817811014084;-0.2986338531784035;-1.3115507531114607;1.2309999999999999;0.007297588455728972
28:36.7;0.0255849172150139;-0.2652612880022295;-1.3937044173041566;1.189;0.009458637175313053
28:36.7;0.03385751180999895;-0.228143164294147;-1.4688790856549774;1.181;0.011346150677010627
28:36.8;0.043001253769911006;-0.18899932509030634;-1.5342041035710106;1.255;0.012468795772966975
28:36.8;0.052315252315759043;-0.14965459215830176;-1.5864094632613222;1.8119999999999998;0.012420345126905182
28:36.8;0.060967828633223226;-0.11188757352255091;-1.622173029280803;1.8119999999999998;0.011065722113504645
28:36.8;0.06811523480688199;-0.0772686219627584;-1.6385969390013155;1.8119999999999998;0.008624214789226951
28:36.8;0.0729988604171333;-0.04703391467421244;-1.6336601513300375;1.8119999999999998;0.005609044985373996
28:36.8;0.07502197551066189;-0.022025344703768997;-1.606533990241802;1.786;0.002654612460190756
28:36.8;0.07381151846156536;-0.0026923249675023016;-1.5577224944542138;1.681;0.00030955777034257626
28:36.8;0.0692652547186201;0.010861458992493673;-1.489031045507596;1.546;0.0011202304028451304
28:36.8;0.06157625757967177;0.018800735445304396;-1.4033850553677816;1.3940000000000001;0.001624669307125236
28:36.8;0.05122206481439303;0.021463391852484668;-1.304539324696507;1.256;0.001434209553346603
28:36.9;0.03891144163369904;0.019259501087540595;-1.1967318508483606;1.15;0.0008968487431132845
28:36.9;0.025495793675837923;0.012575112539101319;-1.0843352024694821;0.8740000000000001;0.00034765139271943074
28:36.9;0.011866388296360133;0.0016908946174593634;-0.9715529636420096;0.8740000000000001;1.9494027659701688e-05
28:36.9;-0.001135861841195803;-0.01327309190281531;-0.8622029008627677;0.8740000000000001;1.299891461359889e-05
28:36.9;-0.012778223680921923;-0.032377396627968964;-0.7596058404433456;0.7659999999999999;0.00031426839449626257
28:36.9;-0.022456535223781552;-0.055845386260222375;-0.6665591634848839;0.659;0.0008359277700095013
28:36.9;-0.02968517608717126;-0.08400988728453271;-0.5853527953352277;0.574;0.0014597810718522707
28:36.9;-0.03406733597011562;-0.11722738648681723;-0.5178008093755931;0.512;0.002067902133249047
28:36.9;-0.03525438579224958;-0.15576474460052472;-0.46528519279190866;0.478;0.002555062640484172
28:36.9;-0.03290046238318481;-0.1996686886342193;-0.4288154745449576;0.467;0.002816971261833593
28:37.0;-0.026617700055932916;-0.24863513472248192;-0.40910198530298547;0.478;0.0027074759831870582
28:37.0;-0.01593946286345799;-0.30190033293353374;-0.40663037815302444;0.611;0.001956757894058128
28:37.0;-0.0003025694235690998;-0.35817399242521725;-0.4217125612295692;0.611;4.570204387788239e-05
28:37.0;0.020938114042915824;-0.41562699062039576;-0.4544784954751334;0.611;0.0039550742600438695
28:37.0;0.048453118534956055;-0.47194482563972723;-0.5047774535781041;0.6459999999999999;0.011542846269011371
28:37.0;0.08284031353197532;-0.5244636301104749;-0.571983867043667;0.6890000000000001;0.024850829524933674
28:37.0;0.12449491773753674;-0.5703978002689323;-0.6547421512685806;0.777;0.046494305572514716
28:37.0;0.1734620253728356;-0.607137679465128;-0.750721342700722;0.89;0.07906246711583347
28:37.0;0.22929212263074916;-0.6325622027341957;-0.8564698491763932;1.026;0.12422369746122447
28:37.0;0.29093133000631;-0.6452969678712671;-0.9674494488832517;1.19;0.18162615887537398
28:37.1;0.35669210360001724;-0.6448568235269243;-1.0782824217843072;1.368;0.24802149452507255
28:37.1;0.42435270462334873;-0.6316404687797641;-1.1831792310184719;1.662;0.31713739851470346
28:37.1;0.4913956208984943;-0.6067909194444768;-1.2764512262275673;1.662;0.38060507929594645
28:37.1;0.5553191729193071;-0.5719835388415017;-1.352987106927542;1.662;0.4297539297188095
28:37.1;0.6139158125004378;-0.5292161994855324;-1.4086066533872976;1.662;0.4576481220412954
28:37.1;0.6654534319358788;-0.4806421391847382;-1.440277285392164;1.689;0.46066543225247775
28:37.1;0.7087624671289893;-0.42844387323925465;-1.446231434728985;1.729;0.43916977696967974
28:37.1;0.7432512916588506;-0.37473268788771213;-1.4260269361507976;1.7690000000000001;0.39717781270250246
28:37.1;0.7688587019401342;-0.3214650137949689;-1.3805644204062795;1.767;0.34122192186109107
28:37.1;0.7859489051978894;-0.27037286407152084;-1.3120402564684535;1.705;0.2788075790136614
28:37.2;0.7951701022023616;-0.2229077615391752;-1.2237892874307776;1.599;0.2169161464143811
28:37.2;0.7973133468793109;-0.18020153877432588;-1.1199793613213116;1.053;0.16091537772677833
28:37.2;0.7932061316746769;-0.1430514195472679;-1.0051827707255765;1.053;0.11405734830486078
28:37.2;0.7836555670581632;-0.11193586010061338;-0.8839440226778068;1.053;0.0775388270867424
28:37.2;0.7694358068337708;-0.0870592126268281;-0.7604927481015911;1.053;0.05094272884611532
28:37.2;0.7513061071329715;-0.06841073318508596;-0.6386682383522249;0.982;0.03282588795836224
28:37.2;0.730045060996169;-0.05581649809680175;-0.522016692913249;0.9440000000000001;0.021271427883661244
28:37.2;0.7064844295588129;-0.048967542668852275;-0.4139846234319745;0.9159999999999999;0.014321717920615889
28:37.2;0.6815236495396804;-0.047419509805840705;-0.31814269185249433;0.8759999999999999;0.010281581973981723
28:37.2;0.6561093315747487;-0.05057004624492918;-0.23838022212126342;0.8220000000000001;0.007909331630971423
28:37.3;0.6311736881698169;-0.057626166103437924;-0.17900526158459792;0.754;0.006510800818217524
28:37.3;0.607537782875177;-0.06757532567859438;-0.1446912301053981;0.586;0.005940235300019857
28:37.3;0.5857969036172143;-0.0791721948796756;-0.1402421889667324;0.586;0.006504268165928655
28:37.3;0.5662133365824207;-0.09094928416894879;-0.17019302913307804;0.556;0.008764378963247733
28:37.3;0.5486400874141049;-0.1012570169274218;-0.23829117544865536;0.556;0.013237946612640465
28:37.3;0.5324875830011907;-0.1083401496882605;-0.346912923392706;0.523;0.020013331773267314
28:37.3;0.5167355828360252;-0.11046027207090252;-0.49646923009007937;0.526;0.028337844590560813
28:37.3;0.4999924177676067;-0.1060723729428002;-0.6848670762066621;0.603;0.036322187146938335
28:37.3;0.4806061180767244;-0.09405053160922441;-0.9071074625317798;0.693;0.0410024010780197
28:37.4;0.4568253376873231;-0.07393282260226476;-1.1551135645984403;0.821;0.03901325215708996
28:37.4;0.42699222131130593;-0.046130324985136376;-1.4178917426718343;1.012;0.027928624752155535
28:37.4;0.38973711825578244;-0.012038400027114147;-1.6821109790991948;2.125;0.007892147358428208
28:37.4;0.3441497393211109;0.02598982010099492;-1.9330912972391985;2.125;0.017290322106161243
28:37.4;0.2899205683985826;0.06481047471132761;-2.1560409268965257;2.125;0.04051177113282269
28:37.4;0.22745599665897628;0.10077793495872524;-2.3373241157032676;2.5989999999999998;0.05357741871130069
28:37.4;0.15795421766800422;0.13014094353171174;-2.46562971127857;2.968;0.0506842509638776
28:37.4;0.08340609181808543;0.1495259842236618;-2.53298143029954;3.174;0.031589768806606106
28:37.4;0.006487462340663809;0.1564477773138557;-2.5354866082014995;3.168;0.002573389758775093
28:37.4;-0.06965980569022252;0.1497392919410123;-2.473672759481115;2.9939999999999998;0.025802410508834677
28:37.5;-0.14172649486425593;0.1297844486757089;-2.352305243887487;2.68;0.04326805566095347
28:37.5;-0.2065679315750108;0.09847768677974363;-2.17968072582469;2.266;0.044339789119062126
28:37.5;-0.2615243476100348;0.05890546449317218;-1.9664998461182006;1.3030000000000002;0.030294349332633787
28:37.5;-0.3046859184882262;0.01482246747609219;-1.7245342140709239;1.3030000000000002;0.007788336446125758
28:37.5;-0.33505739844556165;-0.029946791466787866;-1.4653832825052944;1.3030000000000002;0.014703500585603413
28:37.5;-0.3525899981604859;-0.07204912705855965;-1.1995705230371947;1.083;0.030473651544905576
28:37.5;-0.3580785627277219;-0.10900902007320422;-0.9360556568642525;0.871;0.03653780296384263
28:37.5;-0.3529536050832232;-0.13947537337257682;-0.6820946589741739;0.685;0.03357838495495853
28:37.5;-0.33901785471026397;-0.16330348678277726;-0.44335263403201813;0.536;0.024545242212417207
28:37.5;-0.3181846382820532;-0.18147778494161876;-0.22419763640458495;0.42700000000000005;0.012945943518698098
28:37.6;-0.29227039866868915;-0.19589926139372166;-0.02810488425226347;0.35;0.001609160752438309
28:37.6;-0.2628764368869364;-0.20907702117532143;0.14191540948499645;0.292;0.0077998727603105465
28:37.6;-0.23136935582153104;-0.2237699817651708;0.2829606281526695;0.376;0.014649866759907829
28:37.6;-0.1989419585265456;-0.24262484611985943;0.39202032653606095;0.376;0.018922139859689994
28:37.6;-0.1667155158871618;-0.26784934736440424;0.46592718615362966;0.376;0.020805811754416176
28:37.6;-0.1358380814596613;-0.3009482881817871;0.5014692328165645;0.45899999999999996;0.020500181629935332
28:37.6;-0.10754206570898425;-0.34253998482005454;0.4956636185426774;0.552;0.018258987509857924
28:37.6;-0.08314101000003923;-0.39226281479105835;0.44618874976985157;0.625;0.014551610186946612
28:37.6;-0.06396197622682805;-0.4487757183950782;0.3519312341419025;0.652;0.010102038909368663
28:37.6;-0.05122032906258836;-0.5098566561770337;0.21355811460512755;0.632;0.005577075652240292
28:37.7;-0.04584847479256419;-0.5726063641032026;0.03400584433046363;0.623;0.0008927597992803854
28:37.7;-0.048295634793429694;-0.6337598945936384;-0.1812155447887127;0.698;0.005546615750932294
28:37.7;-0.0583285196702056;-0.6900858908498744;-0.423981132234278;1.0859999999999999;0.017065956447005187
28:37.7;-0.0748826211645413;-0.7388123916388395;-0.6838049148956459;1.0859999999999999;0.03783096564039999
28:37.7;-0.09602749831231493;-0.7779795835119843;-0.9483599223812776;1.2919999999999998;0.07084953549652735
28:37.7;-0.11909749914453663;-0.8066255880903868;-1.2042061991052293;1.2919999999999998;0.11568458565427693
28:37.7;-0.14100093173116376;-0.8247682125928101;-1.4376929455381726;1.67;0.1671937499865331
28:37.7;-0.15867495993585826;-0.8332073425954509;-1.6360250504715352;2.1790000000000003;0.2162974677300602
28:37.7;-0.16960843719708493;-0.8332069994959951;-1.7884358371732816;2.654;0.2527398514846376
28:37.7;-0.17231164555471415;-0.8261329588674361;-1.8872922007872348;2.803;0.2686604413980306
28:37.8;-0.1665952077334377;-0.8131296673120494;-1.9288718785962289;2.6489999999999996;0.2612917469909708
28:37.8;-0.1535590115872498;-0.7949118796383868;-1.9135882326722258;2.373;0.2335838364320867
28:37.8;-0.13528236625367251;-0.7717149923310884;-1.84559322442821;1.5959999999999999;0.19267888107769837
28:37.8;-0.11431153248022914;-0.7433973720294599;-1.7318930836257915;1.5959999999999999;0.14717435676111065
28:37.8;-0.09310349061920667;-0.7096431300615271;-1.581264433916703;1.5959999999999999;0.1044745404223647
28:37.8;-0.0735677210509894;-0.6702009510185439;-1.4032582594367493;1.4669999999999999;0.06918786824950961
28:37.8;-0.05677708778930912;-0.6251077861408008;-1.2074323139086993;1.3019999999999998;0.04285394577799089
28:37.8;-0.04285721611457888;-0.5748622766027068;-1.002806226060396;1.115;0.024706133807019783
28:37.8;-0.03103810240429402;-0.5205240149173055;-0.7974881036467595;0.912;0.012884279750513783
28:37.8;-0.019844024812508982;-0.4637257337984263;-0.5984385943881654;0.7240000000000001;0.005506942637367246
28:37.9;-0.007387537030685413;-0.40659675376926246;-0.41135668516375157;0.59;0.00123561205688841
28:37.9;0.008282698584629124;-0.35160404832217856;-0.24067550042163424;0.493;0.0007009024976447246
28:37.9;0.028842371165052737;-0.3013236379656742;-0.08965179774517058;0.185;0.0007791537517607444
28:37.9;0.05541396108821151;-0.25816955120440654;0.03946431115943393;0.185;0.0005645842282513587
28:37.9;0.08837346542323327;-0.22412974580886508;0.14517763390250019;0.185;0.0028755511559647104
28:37.9;0.12723656863205984;-0.20056247073712552;0.22641396780395673;0.185;0.005777831004439129
28:37.9;0.1706206002538465;-0.1880783602971289;0.282139481092228;0.217;0.009053868003690242
28:37.9;0.21629072061095145;-0.18649988168016016;0.31100519374197483;0.256;0.012545387778735097
28:37.9;0.2612929302028971;-0.1948774797038702;0.3110950356484415;0.304;0.015840992720894342
28:37.9;0.3021574044946981;-0.21154571189022628;0.2798453738723329;0.34600000000000003;0.01788774518824193
28:38.0;0.33514669916189305;-0.23420944540133715;0.2141921684269163;0.359;0.01681291199222012
28:38.0;0.35653197493353594;-0.26005683636567994;0.11098197779547311;0.353;0.010290091105384478
28:38.0;0.3628946727043596;-0.28590299013422177;-0.03235846036202924;0.498;0.003357276725335956
28:38.0;0.35145357499201996;-0.3083725466449241;-0.21696238302024176;0.498;0.023514086689782745
28:38.0;0.3204018224412835;-0.32412715102085216;-0.4416078106025926;0.498;0.04586138177767004
28:38.0;0.2692197356695338;-0.330138249307777;-0.7019275467609692;0.575;0.06238713238907272
28:38.0;0.19892072132310343;-0.32399753850951424;-0.9899339240650978;0.742;0.06380106724417081
28:38.0;0.11218236170583956;-0.30423717089352076;-1.2940144065605264;1.044;0.04416476908485221
28:38.0;0.01330777612952325;-0.2706033387600409;-1.5994784491518714;1.516;0.005759927671689531
28:38.0;-0.09203417917726439;-0.2242124666044704;-1.8896299225990865;2.082;0.03899291088972225
28:38.1;-0.19731427551504346;-0.16752754449732643;-2.147227255658542;2.6039999999999996;0.07097783389179863
28:38.1;-0.2958634980728209;-0.10411948970375214;-2.3561045518530346;2.995;0.07258016931191336
28:38.1;-0.38170228253909816;-0.03823325913464954;-2.5026911308865047;3.117;0.0365235793182898
28:38.1;-0.4503053955485512;0.025747084453235248;-2.5772052416102293;3.117;0.02988024913481457
28:38.1;-0.49912133118449503;0.0837988073164772;-2.574396635677243;3.117;0.10767612738939011
28:38.1;-0.5277301101990802;0.13262274462073537;-2.4938170996088624;2.8339999999999996;0.17453980397187654
28:38.1;-0.5376209333050594;0.1698347780798762;-2.339663891205369;2.511;0.21362706364796777
28:38.1;-0.5316569919819384;0.19400414125735918;-2.120277661927985;2.151;0.21869319439359222
28:38.1;-0.5133596005189215;0.20457424160098117;-1.8474031494549272;1.8030000000000002;0.19401455761154643
28:38.1;-0.48618327629468494;0.20170900035319791;-1.5353277178172997;1.493;0.15056581644853495
28:38.2;-0.45294759817008645;0.1861094059184194;-1.1999902009378336;1.213;0.1011565440496666
28:38.2;-0.4155344525999469;0.15883592870293198;-0.8581109152820883;0.971;0.05663686559759621
28:38.2;-0.3748739590033019;0.12115716405458156;-0.5263576302277118;0.43799999999999994;0.023906461272671164
28:38.2;-0.3311613291306805;0.0744337443427218;-0.2205691071349595;0.43799999999999994;0.00543693534646375
28:38.2;-0.28419554207231307;0.020042035029077837;0.04489915625338001;0.43799999999999994;0.0002557391738584161
28:38.2;-0.23372334994117097;-0.040664753953960665;0.2576510102991019;0.435;0.0024487931461192867
28:38.2;-0.17970134520463643;-0.1063729548895495;0.4075837983429887;0.47200000000000003;0.007791112293722814
28:38.2;-0.12243034361838852;-0.1758211335039352;0.4871848776411912;0.578;0.010487064598712115
28:38.2;-0.06255645190661191;-0.2478147414725918;0.491862024608161;0.6970000000000001;0.007625047239460192
28:38.2;-0.0009715144248252166;-0.32123128433535714;0.42029940584665526;0.7609999999999999;0.00013116738592757485
28:38.3;0.06132536061968013;-0.39499984601724036;0.2747708123515045;0.7709999999999999;0.006655912971637254
28:38.3;0.12333729482707867;-0.4680500993184237;0.0613116174348628;0.691;0.0035393990802945374
28:38.3;0.1841031696710899;-0.5392442151402286;-0.2103484770672601;0.703;0.02088267514685854
28:38.3;0.24264917130045568;-0.6073141659303781;-0.5271343390756942;0.703;0.07768077185727397
28:38.3;0.2978975483700175;-0.6708206808974334;-0.8732082671247962;0.703;0.17449830426841828
28:38.3;0.3485988568416654;-0.7281448413342623;-1.2307223365327193;1.127;0.3123948159581364
28:38.3;0.3933455708412134;-0.7775287384564149;-1.5807629492482789;1.694;0.4834565655279051
28:38.3;0.43068046354893974;-0.8171759315847341;-1.9045581423790026;2.3080000000000003;0.6702934475491091
28:38.3;0.4592515406367688;-0.8453899463168847;-2.1849321932223456;2.9139999999999997;0.8482925723441553
28:38.3;0.4779252915942313;-0.8606960656343723;-2.407850225535091;3.502;0.990465381397476
28:38.4;0.4857910547829669;-0.861897751724932;-2.563782522911514;3.8819999999999997;1.0734614286217423
28:38.4;0.48206903363161846;-0.8480706914177801;-2.648552783495333;3.8989999999999996;1.0828041759326203
28:38.4;0.46601288241252276;-0.8185560649632377;-2.6633682994277583;2.428;1.0159622691801746
28:38.4;0.4369060442810638;-0.7730247154844367;-2.6139522699390825;2.428;0.8828340715687276
28:38.4;0.3941867439851268;-0.7116302978720916;-2.509047166075442;2.428;0.7038259429712713
28:38.4;0.33766664496425125;-0.6352022184442612;-2.358754812205486;2.023;0.5059213045643114
28:38.4;0.26778194851773324;-0.5454014650392467;-2.1730817498814576;1.767;0.31737569292313467
28:38.4;0.18581830352719403;-0.44477418416909753;-1.9608707089734714;1.649;0.16206044298083722
28:38.4;0.0940556376371627;-0.3366687326288124;-1.7292005874074365;1.587;0.054756160840172714
28:38.4;-0.004213031114097406;-0.22502232821710796;-1.483266229511936;1.4780000000000002;0.001406175054543459
28:38.5;-0.10481573391375949;-0.11405847062601682;-1.2266494863057438;1.3130000000000002;0.014664744637520112
28:38.5;-0.20298968955410673;-0.007949589223436866;-0.9618225688565802;1.1320000000000001;0.0015520783139909824
28:38.5;-0.2937976845190975;0.08950681848379022;-0.6907287542959942;0.762;0.01816402222919933
28:38.5;-0.3726134005240341;0.17515821245822638;-0.41535586375911293;0.762;0.027108739236970592
28:38.5;-0.4355815707829086;0.24667551665215934;-0.1383027054162025;0.762;0.014860253526746406
28:38.5;-0.47996061749838653;0.30261701147598663;0.13664929547001595;0.6990000000000001;0.019847524118393484
28:38.5;-0.5043077247628687;0.34238778905239486;0.4040221133114476;0.6629999999999999;0.06976201626007922
28:38.5;-0.5085225055976134;0.36613089704782775;0.6563054839510728;0.7140000000000001;0.12219476232427882
28:38.5;-0.4937884532024756;0.3745875909661329;0.8838945340704402;0.8320000000000001;0.16349134426524103
28:38.5;-0.462451653261811;0.36895519747458555;1.0753374070915744;0.963;0.18347830635823775
28:38.6;-0.4178657741822966;0.350766148852062;1.2178950336752943;1.1540000000000001;0.17851073379987578
28:38.6;-0.36420880953967394;0.3218056206213378;1.2984006344343768;1.328;0.15217832183791904
28:38.6;-0.3062502488664023;0.28406857897289517;1.3043872745237222;1.474;0.11347657056200795
28:38.6;-0.24904492231327527;0.2397346276227601;1.2254139977148408;1.474;0.07316296495327161
28:38.6;-0.19755950562282149;0.19112477144052575;1.054474760583684;1.474;0.039815401442190965
28:38.6;-0.15626293927758747;0.14060315568859819;0.7893448515930934;1.3259999999999998;0.01734274497337159
28:38.6;-0.12871084027433455;0.09040039900698775;0.43371235532504504;1.141;0.005046465018848032
28:38.6;-0.11716091693617095;0.04237068081979602;-0.0020622122225001436;0.968;1.0237208789059315e-05
28:38.6;-0.12229061598263988;-0.002256106232728908;-0.5007278664572478;0.643;0.00013815112926884908
28:38.6;-0.14311138292515851;-0.043034977290258306;-1.038642315607838;0.335;0.006396785218727102
28:38.7;-0.17714879517230914;-0.08029703110220043;-1.5871258596117548;1.193;0.022576107207821546
28:38.7;-0.22088249028226162;-0.11493635044825945;-2.114687896927352;2.42;0.05368648526862331
28:38.7;-0.2703399161098347;-0.14802803884378066;-2.589934102689364;4.205;0.10364369182042096
28:38.7;-0.3216713507272263;-0.18038062216300232;-2.984706644731023;4.23;0.1731824645184934
28:38.7;-0.37155680856500206;-0.21215194995845554;-3.2768465642366342;4.23;0.25830235047149414
28:38.7;-0.4173909597984331;-0.2426251153433244;-3.45206815850617;4.23;0.3495893191264252
28:38.7;-0.4572793417507701;-0.2701863133702769;-3.504760165101252;4.146;0.43301528969541164
28:38.7;-0.4899119687602768;-0.29250889529406215;-3.437811462643396;3.873;0.49265078887938557
28:38.7;-0.5143788425395023;-0.30691754010626976;-3.2616545251212;3.4739999999999998;0.5149235612602254
28:38.7;-0.5299804172380196;-0.31086645545385794;-2.9927218355355865;2.989;0.4930603008966377
28:38.8;-0.5360680575631895;-0.3024319008043718;-2.6515213106142657;2.434;0.4298754573509388
28:38.8;-0.5319320189288643;-0.2807125359651464;-2.260557296407999;1.9380000000000002;0.337546383839592
28:38.8;-0.5167476531306777;-0.24605565105500668;-1.8423329157012507;0.927;0.23425019876136052
28:38.8;-0.489590367402188;-0.20008262485658196;-1.4176733947269207;0.927;0.13887319583364321
28:38.8;-0.4495252392119607;-0.1455524765529874;-1.0045887471278183;0.927;0.06572975132490703
28:38.8;-0.3957647653863657;-0.08613041577221822;-0.6177801567179604;0.675;0.021058509300337546
28:38.8;-0.3278729596016728;-0.02610446215124156;-0.26870385523597184;0.48;0.0022998221266888395
28:38.8;-0.2459827018434558;0.029934574913973652;0.034018142188095124;0.34600000000000003;0.00025048876690288
28:38.8;-0.1509900155901846;0.07743212340007516;0.2840406452081008;0.305;0.003320854818034579
28:38.8;-0.04469325220952827;0.11219926785186815;0.47672711859449;0.35600000000000004;0.002390572056369957
28:38.9;0.07014808029611702;0.1307075523980702;0.6086623717001777;0.423;0.005580754608809623
28:38.9;0.18985632161530958;0.13033625928454154;0.6773129628970136;0.49200000000000005;0.01676021950692849
28:38.9;0.3099957311888847;0.10956783270661327;0.6808807194427653;0.684;0.02312649521141584
28:38.9;0.42563818666178044;0.0681302968126394;0.618371907697632;0.684;0.01793207790085949
28:38.9;0.5316823916481663;0.007084254201152309;0.4898791356702594;0.684;0.0018451656318417358
28:38.9;0.6231685811469923;-0.07115701477242278;0.2970436261760645;0.6809999999999999;0.013171750840007873
28:38.9;0.6955756855719368;-0.16290158101315425;0.043633853691656475;0.7340000000000001;0.00494416849440596
28:38.9;0.7451248433072445;-0.26338293795446255;-0.2638512656322121;0.846;0.05178164738728202
28:38.9;0.7690974824869381;-0.3671161003813241;-0.6156701292793402;1.0390000000000001;0.17383327188669762
28:38.9;0.7661328550283424;-0.46838794168491543;-0.9985581390203854;1.222;0.35832998297315916
28:39.0;0.7364372872114284;-0.561811084736199;-1.3958440431394281;1.4869999999999999;0.5775146037331228
28:39.0;0.6818279585236335;-0.6428265691226759;-1.7881282308079112;1.902;0.783731466824422
28:39.0;0.6055545624696343;-0.7080281961888072;-2.15461319372686;3.324;0.9237897702499129
28:39.0;0.5119107770160882;-0.7552280752886371;-2.474961223097649;3.324;0.9568432508276965
28:39.0;0.4057455807298687;-0.7832888390662329;-2.7312783084449253;3.324;0.8680439055966108
28:39.0;0.29202351257554715;-0.7918409707852196;-2.9097478633874054;3.609;0.6728389856101388
28:39.0;0.1755197100904644;-0.7810129207154527;-3.001648151401566;3.6;0.4114754180672763
28:39.0;0.060652015997478624;-0.7512553888853156;-3.003728537115676;3.4;0.1368653529619592
28:39.0;-0.04857763105763595;-0.7032975098056816;-2.918011306642192;3.1630000000000003;0.0996924759410477
28:39.0;-0.14856085642333608;-0.638234940943297;-2.7511141572794693;2.841;0.2608516466703475
28:39.1;-0.23601579240910986;-0.5577059937084672;-2.5132312043897307;2.504;0.33081014441529194
28:39.1;-0.30792512116508475;-0.4640728086160557;-2.2169373390049687;2.124;0.31679962706265047
28:39.1;-0.36153429060346237;-0.3605125535114237;-1.8759815753450275;1.151;0.24451103051291717
28:39.1;-0.3944489156074357;-0.25096108187303995;-1.5042428583130734;1.151;0.14890699607974026
28:39.1;-0.4048344609799098;-0.13992406881881306;-1.1150245953615836;1.151;0.06316177798183602
28:39.1;-0.39169140804067587;-0.03221022664319328;-0.7207819766078362;0.956;0.009093723483223546
28:39.1;-0.35516630921859876;0.06738036279150451;-0.33320722450352314;0.792;0.007974060315477307
28:39.1;-0.29684018583636723;0.15439720647647023;0.03652110072817313;0.6729999999999999;0.0016738093581102245
28:39.1;-0.21991065411641075;0.22506707957924904;0.37750672990268275;0.561;0.018684562974773458
28:39.1;-0.12919242272724343;0.27654504511823863;0.6790307386773728;0.605;0.024260087265460226
28:39.2;-0.030914544342124612;0.30705416254577284;0.9306234532244626;0.826;0.00883388684884228
28:39.2;0.0676469624698341;0.31593293923798266;1.1223277696587948;1.028;0.023986280994595533
28:39.2;0.15863641875126547;0.303641007549315;1.2451408027301856;1.4;0.0599765921788533
28:39.2;0.2341298208272295;0.2717612446251873;1.2915936447586738;1.4;0.08218076034118907
28:39.2;0.2866544658229599;0.2229956722799019;1.2564042880770565;1.4;0.0803127610673066
28:39.2;0.3097043359525478;0.1611161169353401;1.1371322518476203;1.4;0.05674103447793628
28:39.2;0.29826404546091934;0.09081743676651045;0.9347748509140612;1.2819999999999998;0.025320784899629956
28:39.2;0.24935993985184016;0.017427950635983097;0.6542478005257053;1.056;0.0028432515000367687
28:39.2;0.16262316197338153;-0.05354124988078791;0.3046811425778645;0.9009999999999999;0.0026528731355713537
28:39.2;0.040788513302674245;-0.11697316645148034;-0.10054760755639866;0.912;0.0004797288797070024
28:39.3;-0.11000805062734295;-0.1687475574810611;-0.5441350032218344;1.046;0.010101099020997772
28:39.3;-0.28031640157011894;-0.20622043346585736;-1.0056547411499395;1.015;0.05813385329048332
28:39.3;-0.4580229497499278;-0.2284287029621499;-1.4629648451145796;3.014;0.15306355763832474
28:39.3;-0.6296032276095016;-0.23594800082613698;-1.8941552924612246;3.014;0.28138363096998603
28:39.3;-0.7817482381944006;-0.23048252521309204;-2.279634696733321;3.014;0.4107430021956356
28:39.3;-0.9029789005203016;-0.21437153695894373;-2.6038085787558414;3.7880000000000003;0.5040269722590117
28:39.3;-0.9849564129501442;-0.1901708761078611;-2.8560181537543294;3.972;0.5349608288635692
28:39.3;-1.02335458747975;-0.16037684764374138;-3.0306903244367107;3.583;0.49740411745957563
28:39.3;-1.0182160119544583;-0.12729584308271316;-3.1267833892527443;3.03;0.4052769836582152
28:39.3;-0.9737435631175287;-0.09302552702607031;-3.1467339450521945;2.841;0.28504062658189633
28:39.4;-0.8975567440235346;-0.05948636386143852;-3.0952569469887248;2.847;0.1652631569677131
28:39.4;-0.799528069578717;-0.028441221353149276;-2.97835741038873;2.813;0.06772652156224689
28:39.4;-0.6903758896461197;-0.0014691912361989219;-2.8027415537360514;2.5610000000000004;0.0028428045209750907
28:39.4;-0.5802373114352342;0.020101087960074066;-2.5756225623541606;2.5610000000000004;0.030040519374337372
28:39.4;-0.4774668493369162;0.03526570539734824;-2.3048184719221982;2.5610000000000004;0.0388090064843429
28:39.4;-0.3878559125154538;0.04339352471335364;-1.9990066931866513;2.283;0.0336441524640381
28:39.4;-0.31434681752719984;0.04423303585095701;-1.667978367312833;1.953;0.02319242864225457
28:39.4;-0.25719951179085676;0.037878648487642316;-1.3227451879025933;1.577;0.012886672901768639
28:39.4;-0.21450689896232733;0.02470156873697061;-0.9754100540594032;1.169;0.005168363222315561
28:39.4;-0.18292573582892166;0.005255353406952142;-0.6387860553959124;0.775;0.0006140901962009777
28:39.5;-0.15847865243246775;-0.0198239041691728;-0.32580313558875695;0.506;0.0010235645095376244
28:39.5;-0.1372935821505591;-0.04989936071837181;-0.048777221714422454;0.449;0.0003341660137357164
28:39.5;-0.11617830242707952;-0.08438300598658491;0.18136032209220257;0.682;0.001777961272850786
28:39.5;-0.09297885029573145;-0.12274846558995789;0.3557579602243137;0.682;0.004060269586706286
28:39.5;-0.0667322984659315;-0.16450228403661074;0.4681470139857243;0.682;0.005139137924807052
28:39.5;-0.03766131521895874;-0.20911022033057539;0.5150790140873557;0.63;0.00405643571538952
28:39.5;-0.007051930716390129;-0.2558884039893837;0.49590822880781193;0.512;0.0008948700170602759
28:39.5;0.022960761866002374;-0.30388488266785285;0.41259879156124213;0.33;0.002878878536613661
28:39.5;0.04967594416167515;-0.351785512487538;0.26945906032681277;0.214;0.0047088718474223475
28:39.5;0.0701585942923567;-0.3978824411125002;0.07290208143168808;0.24;0.002035052327255231
28:39.6;0.0816116015531515;-0.44014332842439174;-0.16869448116982896;0.36700000000000005;0.006059641047425502
28:39.6;0.08178585918814381;-0.4764050868508496;-0.4450217651302636;0.565;0.01733947174972539
28:39.6;0.06940340148434312;-0.5046802064816832;-0.743854343057594;1.112;0.026054631249545112
28:39.6;0.0445299679457116;-0.5235143119955794;-1.0511828197798518;1.112;0.024505253292947622
28:39.6;0.008810458168332485;-0.5322974018528164;-1.35155691289841;1.112;0.006338509974572125
28:39.6;-0.0345108413169955;-0.5314365700445558;-1.6286868958793759;1.112;0.02987064396244812
28:39.6;-0.08083824833103447;-0.5223398704717019;-1.8663937115362028;1.9580000000000002;0.0788085494284517
28:39.6;-0.12475971651619303;-0.5072074478442069;-2.050001391681482;2.971;0.12972215575057966
28:39.6;-0.16082215396796012;-0.48866251793684795;-2.1680631638586485;3.532;0.17038322476336942
28:39.6;-0.1844005865583619;-0.4692862265098053;-2.2140087082061948;3.5410000000000004;0.19159290870585968
28:39.7;-0.19244185643082973;-0.451148829557527;-2.1871762578921325;3.168;0.18989046398868817
28:39.7;-0.18388337801213325;-0.43545345183886985;-2.0928593208760327;2.667;0.16758079543913598
28:39.7;-0.1596565982149222;-0.42240408082982744;-1.9413209687707524;1.199;0.13092190692142475
28:39.7;-0.12232903459764538;-0.4113371100103319;-1.7460543533236246;1.199;0.08785878632298347
28:39.7;-0.07554862239571626;-0.40104482244678946;-1.5217884331284217;1.199;0.04610773009270369
28:39.7;-0.02346651553711193;-0.39016477432088775;-1.282727060830178;0.94;0.011744402350105322
28:39.7;0.02976078020936769;-0.3775377147178571;-1.0412791083154376;0.777;0.011699621453293226
28:39.7;0.08036703066582822;-0.36248360728145596;-0.8073132157988318;0.667;0.023518431582528383
28:39.7;0.1252765280586324;-0.3449691749576026;-0.587894664063354;0.611;0.025406773574477452
28:39.7;0.1623155028318552;-0.3256547687130887;-0.3874516729119668;0.586;0.02048023728140863
28:39.8;0.19033274605025183;-0.3058245463202381;-0.2082879050766367;0.565;0.01212411104909144
28:39.8;0.20921737079068167;-0.2872162674940938;-0.0513192720242056;0.523;0.003083807506825687
28:39.8;0.2198004117182333;-0.2717739346147773;0.08310581896881039;0.317;0.004964411090302159
28:39.8;0.223643429593401;-0.26135411468431974;0.19443493472028073;0.317;0.01136474731717112
28:39.8;0.22274293032234307;-0.2574254061728721;0.28129261428161184;0.317;0.016129231108207936
28:39.8;0.21919301211390563;-0.26079969890776056;0.34109226291242895;0.231;0.019498700055535854
28:39.8;0.2148445974440796;-0.27142077563688355;0.3699426301202331;0.204;0.021572570867196408
28:39.8;0.21099654489629596;-0.2882252364660923;0.3628870054910925;0.243;0.02206880233594958
28:39.8;0.20816165780043225;-0.3090929625734557;0.3144646386116369;0.301;0.02023306475410446
28:39.8;0.20595534717225836;-0.3309120634024259;0.21953108355172715;0.35;0.014961725844572839
28:39.9;0.20314441003011477;-0.3497866517259916;0.07423599585421334;0.374;0.005275002227415447
28:39.9;0.197872414975162;-0.36141260462180613;-0.12296848079112763;0.396;0.008793916888495549
28:39.9;0.18805195969891508;-0.3616295970752653;-0.37042894414867844;0.8909999999999999;0.02519107754666544
28:39.9;0.1718705009130936;-0.3471048591113117;-0.6626217197704813;0.8909999999999999;0.03953008092501592
28:39.9;0.14829400271179452;-0.31601991192648415;-0.9897829645039744;0.8909999999999999;0.046385047978848605
28:39.9;0.11741852030603858;-0.2685836992760543;-1.3378994838769682;0.8909999999999999;0.04219293538543704
28:39.9;0.08055373631671861;-0.20723132012756762;-1.689197061037461;1.122;0.028198200863073657
28:39.9;0.039999658080491295;-0.1364440012444502;-2.023309285545127;1.9880000000000002;0.01104264219381636
28:39.9;-0.0014323580105969243;-0.062195374070795124;-2.3191799608132597;3.105;0.00020660656402625652
28:39.9;-0.041009568328585135;0.008897187491644983;-2.5574624730011633;3.9330000000000003;0.0009331408680141939
28:40.0;-0.07657959133909656;0.07054963556927626;-2.7229075682193007;4.195;0.014710949959056988
28:40.0;-0.10682741478380232;0.11768881546546651;-2.806150608064538;4.002;0.03528002518944484
28:40.0;-0.13126083513538592;0.1470285895490203;-2.804476690339785;2.627;0.05412386334253133
28:40.0;-0.1500197292238803;0.1572649887176827;-2.721497966312789;2.627;0.06420789608085585
28:40.0;-0.16363252757104593;0.148950214071962;-2.566044616596832;2.627;0.06254246207260118
28:40.0;-0.17279229404696259;0.12416511218356928;-2.350708219228711;2.185;0.050433914934675424
28:40.0;-0.17817115415227572;0.08608524789200349;-2.0903408405584205;1.7919999999999998;0.03206145544344063
28:40.0;-0.18027072385218;0.03850136044088748;-1.8006397607369133;1.435;0.012497642975698997
28:40.0;-0.1793093234213746;-0.01464818590035638;-1.4969022969168932;1.138;0.0039316981631569315
28:40.0;-0.17516228315261162;-0.0696726965144882;-1.1930434061114443;0.9109999999999999;0.014559935843113232
28:40.1;-0.1673818957217292;-0.12340940650291482;-0.9009380546337271;0.777;0.018610227295242757
28:40.1;-0.15531143960927804;-0.17337725757000153;-0.6300885566359611;0.657;0.016966691631572696
28:40.1;-0.1382773998869107;-0.2178212031246983;-0.38756183530902455;0.369;0.011673265437249515
28:40.1;-0.11581411917918735;-0.2556785762747085;-0.17812674604306356;0.369;0.005274544761604808
28:40.1;-0.08786016222555916;-0.28649830879387816;-0.004548798795931411;0.369;0.00011450139843627736
28:40.1;-0.05487038130266387;-0.31033739785474335;0.13198770286163675;0.332;0.002247530338818407
28:40.1;-0.017809864117666416;-0.32765470042931993;0.23139344145302954;0.335;0.0013502931168590212
28:40.1;0.021969703715978433;-0.3392161671666297;0.29421400794257696;0.369;0.002192623623997462
28:40.1;0.0629342032309843;-0.3460156137219156;0.3212656876123529;0.446;0.006995951313665955
28:40.1;0.10359070324880151;-0.34920583775574404;0.31339867879152616;0.506;0.01133703370886088
28:40.2;0.14266721805378554;-0.3500278126103208;0.27139471974422297;0.51;0.01355277226120348
28:40.2;0.1792020669581011;-0.34972137644935025;0.19599083411853485;0.485;0.0122829010966898
28:40.2;0.2125243820260812;-0.3494063769772414;0.08800934076732723;0.325;0.006535342563045368
28:40.2;0.24214083207392031;-0.34994318617328357;-0.051422957888758114;0.325;0.004357351810889749
28:40.2;0.2675743697353558;-0.35180557011368935;-0.22056850454955607;0.325;0.020763029507005582
28:40.2;0.2882151636117625;-0.3550077889687691;-0.41669490021625455;0.384;0.042635650476841806
28:40.2;0.30323725913377825;-0.35911590896946416;-0.635665501849687;0.521;0.06922227207700753
28:40.2;0.31161734739238356;-0.36335414020045187;-0.8715942486267492;0.7290000000000001;0.09868839711196233
28:40.2;0.3122683592747979;-0.3667982500401679;-1.116654436797234;0.9490000000000001;0.12790102715650342
28:40.2;0.304264203764857;-0.36862256942590027;-1.3611188956359561;1.125;0.15266126133043526
28:40.3;0.2870914448152961;-0.36833592861831504;-1.5937100896245138;1.345;0.16852861682572304
28:40.3;0.26084365288461325;-0.36592385913106046;-1.8023382759007232;1.685;0.17203123486833613
28:40.3;0.22629038280143782;-0.3618305678981049;-1.9752533107906278;2.951;0.16173132677279412
28:40.3;0.18480303823485533;-0.3567746966109139;-2.1024779791405;2.951;0.1386227813052962
28:40.3;0.1381794911960355;-0.3514754417205102;-2.177183161868756;2.951;0.10573859647055181
28:40.3;0.08843414309587873;-0.3464073891796382;-2.1966008239758086;2.79;0.06729119819695109
28:40.3;0.037598585632812855;-0.3416681263384174;-2.162238288702672;2.448;0.027776628331329906
28:40.3;-0.012446373237548203;-0.33697673856399285;-2.0794031407937634;2.053;0.008721304271888417
28:40.3;-0.060088062076363025;-0.33177894764485427;-1.956214277600133;1.706;0.038998997855733214
28:40.3;-0.10403337426486643;-0.32541731805306373;-1.8023509903240573;1.469;0.06101726199585698
28:40.4;-0.14330006679234697;-0.31731489686068887;-1.6278021801960083;1.308;0.07401819323559702
28:40.4;-0.17717176526444234;-0.30712028686089254;-1.441824807933325;1.197;0.07845407580842037
28:40.4;-0.20514092001541193;-0.2947804474860449;-1.2522301591527694;0.9159999999999999;0.07572427639082006
28:40.4;-0.22685527863881763;-0.28053903634806676;-1.0650349075762282;0.9159999999999999;0.06778069732132594
28:40.4;-0.24207827473636404;-0.2648849493621134;-0.8844630872337051;0.9159999999999999;0.056714330618428094
28:40.4;-0.25067421982741506;-0.2484820532570249;-0.7132438913748981;0.847;0.04442656748875645
28:40.4;-0.25262859406179744;-0.23209965672212213;-0.5531037891427673;0.7759999999999999;0.03243124618526424
28:40.4;-0.24810548799700285;-0.21655257901584898;-0.40532519012567253;0.69;0.021777264511083787
28:40.4;-0.23753018411848134;-0.2026565373641974;-0.2712568670129306;0.608;0.013057503914390658
28:40.4;-0.22167291357958277;-0.19119926521381722;-0.15269541619450835;0.521;0.006471796435629196
28:40.5;-0.20170437722706777;-0.18291929127276813;-0.052089805058038154;0.429;0.001921885743358222
28:40.5;-0.17919429686630756;-0.17848156899719822;0.027452347930740282;0.363;0.000878005129273703
28:40.5;-0.1560334108047875;-0.17844214056424879;0.08235316592184458;0.266;0.002292953913627842
28:40.5;-0.1342816356250788;-0.1831976452435039;0.10891302050940191;0.266;0.002679268957230828
28:40.5;-0.11597240860364678;-0.19292050994740406;0.10375095786709948;0.266;0.002321267512340694
28:40.5;-0.10291204886857391;-0.20748700061031702;0.06425745498367863;0.266;0.0013720838038694116
28:40.5;-0.09649619215953084;-0.22640932322058224;-0.010999124881896678;0.237;0.0002403048938990852
28:40.5;-0.0975481410238861;-0.24878569032702175;-0.12194847700528982;0.179;0.0029595165657772668
28:40.5;-0.10618795798597608;-0.27328662165756645;-0.26681099476768394;0.218;0.007742787911484752
28:40.5;-0.12175633377996252;-0.2981978839559873;-0.4420408324642594;0.406;0.0160493891663333
28:40.6;-0.14282281702992577;-0.3215340849713174;-0.6424335304674694;0.644;0.029502091992270038
28:40.6;-0.16729863401917391;-0.34122246599836564;-0.8613830366656042;0.912;0.04917295721767958
28:40.6;-0.19265627814311992;-0.35533844230798156;-1.0912472687639223;1.546;0.07470480388785453
28:40.6;-0.2162331466179671;-0.3623545756234816;-1.3237527168860648;1.546;0.10372008939275683
28:40.6;-0.2355699516802551;-0.36134868405440146;-1.5503474223237563;1.546;0.13197005625870786
28:40.6;-0.24872608314125394;-0.3521187040815484;-1.7624481760418913;1.689;0.15435716064347646
28:40.6;-0.25452686263404267;-0.33517639661988347;-1.9516236258848645;1.8530000000000002;0.166495737280145
28:40.6;-0.25270425566488036;-0.31162824574871534;-2.1098204386683816;2.094;0.16614790358357276
28:40.6;-0.24388856505908113;-0.2829853589610758;-2.2297137609727162;2.326;0.15388791635097746
28:40.7;-0.229428804169895;-0.25095671382196916;-2.305182892262238;2.532;0.13272482095277577
28:40.7;-0.21107452946725203;-0.21726283272367303;-2.3318381277529974;2.648;0.1069349489953661
28:40.7;-0.19060434301023854;-0.1834805360085685;-2.30748259450311;2.696;0.08069771284284878
28:40.7;-0.16949924167856956;-0.1509203503402052;-2.232393790754489;2.205;0.05710660869431201
28:40.7;-0.1487308537518121;-0.12054632525894368;-2.1093626281236357;2.205;0.03781867369725696
28:40.7;-0.1286890704425883;-0.09295524208704897;-1.9435101521481284;2.205;0.02324889754830075
28:40.7;-0.10923772267527651;-0.06842516331971456;-1.7419403677771097;1.8630000000000002;0.013020323176107974
28:40.7;-0.08987118540065964;-0.04702410785486179;-1.5132561115882965;1.493;0.006395190289423969
28:40.7;-0.06993723737959956;-0.028751175763058506;-1.266944247770058;1.126;0.00254754337268083
28:40.7;-0.04887906233598552;-0.013674398596563941;-1.0126796953437949;0.7859999999999999;0.0006768667855671187
28:40.7;-0.02643822094494588;-0.00203334697037456;-0.759651390887763;0.515;4.083739755466873e-05
28:40.8;-0.0027667186712904313;0.005712700335603069;-0.5160201916030923;0.332;8.155923432975864e-06
28:40.8;0.02157702215072797;0.00889402257731982;-0.28858054084746393;0.203;5.538048795706104e-05
28:40.8;0.045738466343816314;0.006688272300835788;-0.08264179062521029;0.212;2.528105905320116e-05
28:40.8;0.06874231987614805;-0.0017855795689417277;0.09789537760727368;0.212;1.2016156562227165e-05
28:40.8;0.08967351531843938;-0.017348025725999576;0.25030319578902815;0.212;0.0003893862817626897
28:40.8;0.1078110974430239;-0.040623924873355303;0.3726779700708609;0.293;0.0016322214036175267
28:40.8;0.12269142304160656;-0.07190080828891772;0.46355213857487965;0.344;0.0040892773339392
28:40.8;0.1341064803798586;-0.11099020902833559;0.5215544310072082;0.36;0.007763080208598995
28:40.8;0.14205860088296626;-0.1571039134423599;0.54518474010015;0.382;0.012167412387149162
28:40.8;0.1466992967278035;-0.2087640026921644;0.5327407779495245;0.385;0.01631546994365294
28:40.9;0.1482818702001936;-0.2637761859326201;0.4824132233409512;0.379;0.01886873750921394
28:40.9;0.1471522106234981;-0.31930423375842476;0.3925485987163584;0.395;0.018444415589681247
28:40.9;0.14378777245348512;-0.3720771606076604;0.2620607578206268;0.585;0.014020288831683927
28:40.9;0.13887061135541623;-0.41872536940027316;0.09095867894314429;0.585;0.0052891242079244095
28:40.9;0.13335337841823727;-0.4561888457736163;-0.11905184057301736;0.585;0.007242438216098636
28:40.9;0.12846600713605819;-0.48211672770670105;-0.3639618365260817;0.7;0.022542198719367152
28:40.9;0.1256250339719374;-0.49519801609862246;-0.6369674960236216;0.7929999999999999;0.039625281409594176
28:40.9;0.12623582567247196;-0.495379394828432;-0.9282528418304127;0.8690000000000001;0.05804794515806772
28:40.9;0.1314118321839442;-0.48391331473227617;-1.2251992798848257;1.048;0.07791279334483206
28:40.9;0.14167380958332537;-0.46318033497795885;-1.5131115456250528;1.475;0.09929117034636513
28:41.0;0.15672289334058007;-0.43628333168724953;-1.776440367972537;2.096;0.12146515125773318
28:41.0;0.17538373246318728;-0.40650094448002444;-2.0003463217440323;2.6430000000000002;0.14261199632764335
28:41.0;0.19577452707176268;-0.37675499043212607;-2.1723306087236898;2.9730000000000003;0.16022899869903465
28:41.0;0.21567712888817367;-0.3492353998827132;-2.283615293030473;2.9730000000000003;0.1720066728654849
28:41.0;0.23298507203490493;-0.32524229401287763;-2.330016140449628;2.9730000000000003;0.17656069943595806
28:41.0;0.24607324787920098;-0.3052198746770658;-2.3121819465288453;2.6910000000000003;0.17365976822952747
28:41.0;0.25398885571548957;-0.28892183142038125;-2.2352112341623878;2.3209999999999997;0.16402633914625933
28:41.0;0.2564520893725884;-0.2756455582872716;-2.107766189584518;1.999;0.14899773763772464
28:41.0;0.2537203741300701;-0.2644772690025555;-1.940877057180676;1.7369999999999999;0.1302392003882804
28:41.0;0.2464028927030866;-0.2545048686431614;-1.7466520555952567;1.483;0.1095338356640394
28:41.1;0.2353080541554032;-0.2449764810770855;-1.5370749974065887;1.235;0.08860459458087931
28:41.1;0.2213631913647247;-0.2353960341496707;-1.3230172957032738;1.038;0.06893980820410973
28:41.1;0.20559023531953388;-0.22555498421971376;-1.1135448516790145;0.7929999999999999;0.05163719305004721
28:41.1;0.18909098830256887;-0.21551010575617027;-0.9155656601790274;0.7929999999999999;0.03731023350990118
28:41.1;0.1730014945563343;-0.20552767211156817;-0.7338239621782829;0.7929999999999999;0.02609228101938707
28:41.1;0.15839610494107584;-0.19601395345728986;-0.5711895166133202;0.705;0.017734204572296658
28:41.1;0.1461388585873956;-0.18744159959553844;-0.4291336896795098;0.584;0.011755045202494357
28:41.1;0.13669697427354438;-0.1802735611396557;-0.30826450776882025;0.48;0.007596516132950053
28:41.1;0.12995439389372573;-0.1748869943104274;-0.20881876429497875;0.391;0.004745893664928848
28:41.1;0.12507945774199486;-0.17150246426521493;-0.13105146878592427;0.309;0.0028112420946815797
28:41.2;0.12049512143643262;-0.17012222778435382;-0.0754961868092039;0.24;0.001547588670230294
28:41.2;0.11397547607449669;-0.17047811794181136;-0.043091705899011463;0.201;0.0008372858354565529
28:41.2;0.10286283271330723;-0.17199002329607074;-0.035184862768207856;0.223;0.0006224688124772469
28:41.2;0.08437579328444078;-0.17374140708592872;-0.05342422192182928;0.223;0.0007831760701644539
28:41.2;0.055965035491859785;-0.1744855001273268;-0.09955405357874927;0.223;0.0009721540150507155
28:41.2;0.015672066100654903;-0.17269863009592648;-0.17511376705542459;0.255;0.0004739531761929452
28:41.2;-0.03754652208793176;-0.16669304607593638;-0.2810553724536408;0.27699999999999997;0.001759053664346473
28:41.2;-0.10355851651837043;-0.15479547145403372;-0.41730635383287;0.318;0.006689583345836073
28:41.2;-0.1808831071973257;-0.13559093952384563;-0.582321197004987;0.4;0.014282073994467081
28:41.2;-0.266628332652896;-0.10821401403951456;-0.7726856235243936;0.505;0.022294238128863258
28:41.3;-0.35656839011695424;-0.07263500187226105;-0.9828646675524828;0.609;0.025455551785270127
28:41.3;-0.44540028983348157;-0.029853540383277682;-1.2052071529829274;0.8340000000000001;0.016025368991533524
28:41.3;-0.5272100991401127;0.018090252635585287;-1.4303026102715628;2.041;0.013641316460506923
28:41.3;-0.596118059466256;0.06831889080955858;-1.6476876412250534;2.041;0.06710393220194238
28:41.3;-0.6469756557342491;0.11747118736844539;-1.8467501462929707;2.041;0.14035485505688416
28:41.3;-0.675946670751795;0.16209056877474798;-2.0176260767380985;2.404;0.22106035434767207
28:41.3;-0.6808651292086295;0.19896482320026668;-2.1519741504373986;2.568;0.29152408624701276
28:41.3;-0.6613548034038312;0.22539573402725974;-2.243602528381457;2.685;0.33444609154110044
28:41.3;-0.6187473567365068;0.23940808107896522;-2.288913482758116;2.696;0.33906388954304545
28:41.4;-0.555854231032546;0.23990384967783066;-2.287105348673205;2.617;0.3049890887366213
28:41.4;-0.47664824858059907;0.2267458551469533;-2.2400926558898697;2.4730000000000003;0.24210476705693035
28:41.4;-0.3858975402326691;0.20074210034762677;-2.1521520569160475;2.289;0.16671835889109063
28:41.4;-0.288778180823722;0.1635199571948905;-2.029346413651987;1.6280000000000001;0.09582775840906717
28:41.4;-0.19049164316221984;0.11731754826338546;-1.8788298521373135;1.6280000000000001;0.04198811309694651
28:41.4;-0.09592797013527625;0.0647491336417516;-1.7081817427154489;1.6280000000000001;0.01060994890270577
28:41.4;-0.00941169956211943;0.008597393607091339;-1.5248988145013738;1.4409999999999998;0.00012338884307755259
28:41.4;0.06546908983347893;-0.04834893803302465;-1.3360813916055567;1.276;0.004229179886307668
28:41.4;0.12597952481500205;-0.10342498356948249;-1.1482693377565703;1.141;0.014961295283649156
28:41.4;0.17032142827208893;-0.15420579259637554;-0.9673720582986334;1.0270000000000001;0.025407592609131297
28:41.5;0.1976799879445332;-0.19861741584574286;-0.7986545737735337;0.934;0.031357325645314106
28:41.5;0.20821440568418553;-0.23504111573923286;-0.646746506045931;0.856;0.03165109248058343
28:41.5;0.20297079983735733;-0.2624006525805292;-0.5156366643830926;0.7609999999999999;0.027462638756194698
28:41.5;0.1837075660126292;-0.2802185758802638;-0.40861943665217754;0.39299999999999996;0.021035022719600997
28:41.5;0.15265443394868874;-0.28863086711807967;-0.32818597180689635;0.39299999999999996;0.014460130441104588
28:41.5;0.11226399184350473;-0.28835922779355183;-0.2758975009489391;0.39299999999999996;0.008931452671200739
28:41.5;0.0650228206558121;-0.28064900921382685;-0.252296301047167;0.39299999999999996;0.004604051805105797
28:41.5;0.013354285591246053;-0.26718139205791386;-0.25687918264942017;0.363;0.0009165491915373184
28:41.5;-0.04040022523387907;-0.2499638623626003;-0.2881212710906507;0.353;0.002909620413648633
28:41.5;-0.09395669758281734;-0.2312009403079814;-0.34353421046919885;0.365;0.007462551340700716
28:41.6;-0.14505607586812358;-0.21314972217475361;-0.41975930832402963;0.418;0.01297839628920044
28:41.6;-0.1914534816735256;-0.1979689678797561;-0.5127058059023288;0.51;0.019432497608056803
28:41.6;-0.23095274635684926;-0.1875730640007451;-0.6177418020598738;0.62;0.02676089255349779
28:41.6;-0.2615027863732349;-0.18350192205593652;-0.7299337475095461;1.005;0.0350267934539118
28:41.6;-0.28135427700841686;-0.18681563284033204;-0.8443078797034108;1.005;0.044377985032299866
28:41.6;-0.289245831352849;-0.19802095406019365;-0.9560837234127356;1.005;0.05476135452496327
28:41.6;-0.284572222344538;-0.21703648963499902;-1.0608391388862182;1.1059999999999999;0.06552013691901361
28:41.6;-0.2674980388037145;-0.24320260658951476;-1.1546137761625879;1.169;0.07511480817726701
28:41.6;-0.2389992584818469;-0.27533637925589094;-1.2339960471504638;1.253;0.08120334492842272
28:41.6;-0.20082592296748486;-0.3118194840835337;-1.296236069624181;1.38;0.08117216367344461
28:41.7;-0.15538761387062291;-0.35069852130440854;-1.339398146393515;1.524;0.07298943905935765
28:41.7;-0.10557231828683858;-0.3897892559610837;-1.3625277788042562;1.646;0.056069319850177046
28:41.7;-0.05451356049159618;-0.4268028916656697;-1.3657681029813231;1.7180000000000002;0.031776705372852126
28:41.7;-0.005323650717839319;-0.45952113386720744;-1.3503430907222154;1.389;0.0033033848322669107
28:41.7;0.039178422573117634;-0.48601751752933803;-1.3183629811795787;1.389;0.025103476447563822
28:41.7;0.07669990206212611;-0.5048784460460087;-1.2724917059567888;1.389;0.04927613089238609
28:41.7;0.10562357562653873;-0.5153622980304179;-1.2155727480517078;1.2590000000000001;0.0661689837247219
28:41.7;0.1250572173245133;-0.5174596749268542;-1.1502943026661223;1.145;0.07443792201145501
28:41.7;0.1348013623755495;-0.5118516672917279;-1.0789368793791838;1.084;0.07444481273418312
28:41.7;0.13527041293850972;-0.49978266829075024;-1.003233090202695;1.057;0.06782438359442886
28:41.8;0.12739931409261554;-0.48287404077093743;-0.9243573667752294;1.028;0.056864451572228525
28:41.8;0.11255182943700202;-0.4629110249210547;-0.8430323014300962;0.9890000000000001;0.04392323288656107
28:41.8;0.09242468263906807;-0.44163703008189636;-0.7597069936750095;0.9440000000000001;0.031009843403962515
28:41.8;0.06892840913402516;-0.42058631623187304;-0.6747527777855299;0.682;0.019561316277489436
28:41.8;0.04403429018816413;-0.400976045893248;-0.5886413979020478;0.682;0.010393461958750589
28:41.8;0.01960340402694675;-0.3836616027441703;-0.5021075430283687;0.682;0.003776387689937299
28:41.8;-0.0027697996008878077;-0.36914277899314674;-0.4163116154986101;0.682;0.00042565844486195655
28:41.8;-0.021879806905951864;-0.35760119447657335;-0.3329896158695644;0.602;0.002605392365152042
28:41.8;-0.03700043195523299;-0.3489497562361247;-0.2545434060618517;0.519;0.0032864841688804228
28:41.8;-0.04794992491250484;-0.3428777582322447;-0.1840288139639813;0.447;0.003025610877407183
28:41.9;-0.05512748093196667;-0.3388797293197702;-0.12503251084693207;0.396;0.0023358055812151292
28:41.9;-0.05951015346687046;-0.336263273691302;-0.08145838347034619;0.365;0.0016300701486817435
28:41.9;-0.06259965657196993;-0.33413911194875595;-0.05725501563170108;0.335;0.0011976027986998253
28:41.9;-0.0663129567265196;-0.33140397498968643;-0.056112494951522165;0.276;0.0012331493688554594
28:41.9;-0.07281661092981397;-0.32673443644635336;-0.08114813812552793;0.276;0.0019306516982250587
28:41.9;-0.08431351390646079;-0.318614732118584;-0.13459411635560806;0.276;0.0036156727658805707
28:41.9;-0.10279825259650908;-0.30541846921838156;-0.21750072711037613;0.304;0.006828758304541173
28:41.9;-0.12979893867264422;-0.2855522665764305;-0.32947575341182334;0.373;0.012211814899918207
28:41.9;-0.1661236646179638;-0.25765409559156494;-0.4684847241061549;0.45;0.020052290495429864
28:41.9;-0.21163619950735224;-0.22082368960565438;-0.6307372511990005;0.539;0.02947705535918355
28:42.0;-0.2650980877997902;-0.17484912274598427;-0.8106881025423913;0.647;0.03757715120038974
28:42.0;-0.3241265837303537;-0.12038654077645326;-1.0011886025594068;0.847;0.03906685802923142
28:42.0;-0.38532330812491955;-0.05904683473639968;-1.1938250928206071;1.018;0.02716205379432145
28:42.0;-0.4446144311564907;0.006657672904610434;-1.379466565679968;1.666;0.004083355465235735
28:42.0;-0.49778352871786086;0.07352998687619763;-1.548999492382113;2.077;0.05669650472123607
28:42.0;-0.5410787532586384;0.13802939370154424;-1.6941533636045858;2.077;0.12652745812937
28:42.0;-0.5717176149574708;0.19664428928204733;-1.8082691586261976;2.077;0.20329466750616093
28:42.0;-0.5881580116459405;0.24622008433175874;-1.8868949556253347;2.468;0.27325317469570304
28:42.0;-0.5901003605353758;0.2842193501677577;-1.928159814260549;2.568;0.3233869939766017
28:42.0;-0.5782582752795656;0.30891475824376996;-1.932881889834951;2.3369999999999997;0.3452755537792264
28:42.1;-0.553984535254617;0.3195057263192821;-1.9043394648557221;2.004;0.33707043010440774
28:42.1;-0.5188780550135673;0.31614434949487213;-1.8476836728326593;1.709;0.30309470440906067
28:42.1;-0.47450035997641715;0.29986250807214204;-1.7690974440482459;1.479;0.25171579634740365
28:42.1;-0.4222786030386384;0.27240271354032486;-1.6749013881017156;1.376;0.1926636342300999
28:42.1;-0.3635888545144696;0.23597760943925414;-1.57081103204579;1.376;0.13477374666969033
28:42.1;-0.2999399337366073;0.1930108332752483;-1.4614794080497013;1.376;0.08460746393551728
28:42.1;-0.23314761034597892;0.14591369722082873;-1.3503610515040485;1.3869999999999998;0.0459385130284117
28:42.1;-0.1654077780983918;0.09692004815486568;-1.2398479024559936;1.3219999999999998;0.019876410649029435
28:42.1;-0.09922502301208551;0.04796882312767125;-1.1315776440796788;1.2429999999999999;0.005385978688420145
28:42.1;-0.03720667076597006;0.0006154292169685251;-1.0268049514585273;1.159;2.3511853970809376e-05
28:42.2;0.01822358049770166;-0.04403715444978382;-0.9267457982392346;1.0590000000000002;0.0007437270604562322
28:42.2;0.06511564103721038;-0.0853830856879112;-0.8328378491322277;0.9740000000000001;0.004630390518229915
28:42.2;0.10221202271605444;-0.12332073261255296;-0.7468919806444501;0.8909999999999999;0.009414469988778061
28:42.2;0.12904407413038727;-0.1582076158498919;-0.6711347886042143;0.696;0.013701723622645573
28:42.2;0.14589246370708076;-0.19075465898556368;-0.6081602418951995;0.696;0.016924897113717783
28:42.2;0.1536417659158038;-0.22186175056112817;-0.560818404691393;0.696;0.01911674659130063
28:42.2;0.15358227134824173;-0.25240923439045343;-0.5320608767074607;0.643;0.020625650357428808
28:42.2;0.14720597526337012;-0.2830314183615373;-0.524740639984583;0.605;0.021862749930406298
28:42.2;0.13602688771999097;-0.31390679054749454;-0.5413537999030017;0.573;0.023115679362293372
28:42.2;0.12144567690205554;-0.34460518155287023;-0.5837240312439633;0.5670000000000001;0.024429323254136905
28:42.3;0.10467152675620636;-0.37403283163960477;-0.6526526752655973;0.581;0.025551735699245275
28:42.3;0.0867034006051872;-0.4005083674312683;-0.7475756046211716;0.609;0.02595988988031596
28:42.3;0.0683607593092256;-0.42198381869509055;-0.8662838928865814;0.672;0.024989807767283077
28:42.3;0.05034388694406041;-0.43639402558098966;-1.0047766121031367;1.2009999999999998;0.022074712563300288
28:42.3;0.03329779383798494;-0.4420737744689692;-1.1572998940595678;1.2009999999999998;0.017035548648758107
28:42.3;0.017852362122636644;-0.4381389982571409;-1.3165838859856331;1.2009999999999998;0.010298076979705285
28:42.3;0.004616086095255995;-0.4247214560342284;-1.4742662848670012;1.482;0.002890373955349294
28:42.3;-0.0058863610594795295;-0.40298889847597635;-1.6215050491241094;1.794;0.003846434002673348
28:42.3;-0.01331863774569581;-0.3749471471558889;-1.7497652138536017;2.119;0.00873795167522559
28:42.3;-0.017637001428154036;-0.34307993918243174;-1.851681503204102;2.35;0.011204342158117053
28:42.4;-0.01913872191979872;-0.30992622917855045;-1.921819931952061;2.4130000000000003;0.011399451572182497
28:42.4;-0.018415824152218423;-0.2777085705177772;-1.9571572045124963;2.311;0.010009356396209066
28:42.4;-0.01621837679374383;-0.24809831009088454;-1.9571660423707316;2.119;0.00787515053256804
28:42.4;-0.013277967563506602;-0.22214301307260184;-1.923505473260373;1.5959999999999999;0.005673586597310442
28:42.4;-0.010159682591935367;-0.20032196269714073;-1.8594357357263893;1.5959999999999999;0.003784337661471519
28:42.4;-0.007186360714529281;-0.18267021877597373;-1.7691607986550588;1.5959999999999999;0.0023224376803404633
28:42.4;-0.004439511764100768;-0.16892133988960267;-1.6572886002259732;1.5959999999999999;0.0012428475822178148
28:42.4;-0.0018215061688196834;-0.1586382991882024;-1.5284924979672025;1.556;0.0004416741713379547
28:42.4;0.0008411333290679982;-0.15131639810610073;-1.3873438651497882;1.459;0.00017657733371635614
28:42.4;0.00368493020425597;-0.1464536682922204;-1.2382353466440619;1.284;0.0006682403836050437
28:42.5;0.006730437420266218;-0.14359476853961428;-1.0853227340534706;1.075;0.0010489162379682603
28:42.5;0.009869888644187953;-0.14235920348153436;-0.9324499350897291;0.873;0.0013101569508662376
28:42.5;0.012921009736419888;-0.1424617930290998;-0.783062446107667;0.7190000000000001;0.0014414223658720218
28:42.5;0.015711919312718998;-0.14372521909435126;-0.6401430168665951;0.496;0.001445570349744168
28:42.5;0.018147899585832385;-0.14607657307313268;-0.5062125372250592;0.496;0.0013419608204329444
28:42.5;0.020222873601453785;-0.1495184324788654;-0.3834275350997148;0.496;0.0011593669089193226
28:42.5;0.021963263030091277;-0.1540707571316436;-0.2737682289240727;0.45399999999999996;0.0009264033692234678
28:42.5;0.02331368155394405;-0.15968789742060185;-0.1792608123440375;0.39399999999999996;0.0006673723707494319
28:42.5;0.023992022013035914;-0.16616288972864568;-0.10214964796910063;0.308;0.000407228122383741
28:42.5;0.02335722330516446;-0.17303826694764338;-0.044947859999448475;0.213;0.00018166547096629894
28:42.6;0.020336844035334783;-0.17954525596362614;-0.010334229882804826;0.147;3.773424028038102e-05
28:42.6;0.013448332653033922;-0.1845896855183358;-0.0009086338198924979;0.138;2.255613943006747e-06
28:42.6;0.0009257099375769912;-0.18679696443794266;-0.01885440307959574;0.168;3.2602997282263266e-06
28:42.6;-0.01905783871220738;-0.1846227994412347;-0.065575132796527;0.218;0.00023072686111093367
28:42.6;-0.048098834106748395;-0.17652575632360445;-0.14136720931744548;0.218;0.0012003041706602103
28:42.6;-0.08724593376826927;-0.16117958272543476;-0.24516316451624084;0.218;0.0034475489461909957
28:42.6;-0.1367053139783584;-0.13768959025498845;-0.3743649155288759;0.271;0.007046632869614709
28:42.6;-0.1956161796987111;-0.1057791036074849;-0.5247966543487415;0.41;0.010859147023924244
28:42.6;-0.26193832488450586;-0.06592097325608699;-0.6908150640747173;0.642;0.011928462121804501
28:42.6;-0.33248883691461006;-0.019394954528439114;-0.8655902296346039;0.8540000000000001;0.0055818502385824136
28:42.7;-0.4031518741939827;0.03174361593626784;-1.041531055358105;1.0959999999999999;0.013328991867015232
28:42.7;-0.46925331362349604;0.08478826444560095;-1.2108064008288282;1.413;0.04817456500758365
28:42.7;-0.5260468811295003;0.13658902353911828;-1.3659095004958368;1.672;0.0981436433556199
28:42.7;-0.5692266595782034;0.18382650049804086;-1.500206848514427;1.98;0.15698006164096343
28:42.7;-0.5953826824264071;0.22333186377794678;-1.608397414248445;1.98;0.21386526534449823
28:42.7;-0.6023413073235936;0.2524112885618255;-1.6868083035545849;1.98;0.25645853162310633
28:42.7;-0.5893591270726767;0.2691132944480137;-1.733490448753556;1.98;0.2749391714457563
28:42.7;-0.557159951239974;0.2723950931088125;-1.7481332242777399;1.945;0.26531004825060694
28:42.7;-0.5078197381706145;0.262181716754011;-1.731849573345915;1.827;0.23058027194512312
28:42.7;-0.44451996024819707;0.23932990267899218;-1.6868852430142551;1.656;0.17946252341576685
28:42.8;-0.3712083937415263;0.20550904730819694;-1.6163023766812061;1.5490000000000002;0.12330234760874523
28:42.8;-0.2922177053989099;0.16301215937272737;-1.5236896197303693;1.51;0.07258101470966657
28:42.8;-0.21188593861945948;0.1145138038109241;-1.412939447965788;1.47;0.03428337174360511
28:42.8;-0.13420643808550806;0.06279798383629277;-1.2881012636710796;1.1079999999999999;0.010855980563209298
28:42.8;-0.06252929198963138;0.01048899117241481;-1.1532968544574056;1.1079999999999999;0.0007564118757192002
28:42.8;0.000653648185726159;-0.04017317047921009;-1.012693658102158;1.1079999999999999;2.6592444289929173e-05
28:42.8;0.05381013305785748;-0.08748065626057129;-0.8705348369622213;0.958;0.004097908467934788
28:42.8;0.09635322859207394;-0.1303241308991543;-0.7311968611512287;0.8140000000000001;0.009181749232113819
28:42.8;0.1285356564494997;-0.16819242588623284;-0.5992252800823203;0.685;0.012954485866694685
28:42.8;0.15128091757614356;-0.20111954390244932;-0.47931864623024395;0.58;0.01458353302654165
28:42.9;0.1659743554453487;-0.22958585877594792;-0.37625998117536885;0.504;0.01433752389113129
28:42.9;0.17423718329626545;-0.2543785313096361;-0.2948053903533439;0.441;0.01306642311455255
28:42.9;0.17770822019253948;-0.27641850876259216;-0.23953535526934336;0.406;0.011766417688231025
28:42.9;0.177856140543613;-0.2965665721338406;-0.2146678310438411;0.37799999999999995;0.011322909330281336
28:42.9;0.17583943208352631;-0.31543035232822997;-0.2238263063216793;0.37799999999999995;0.012414547123229855
28:42.9;0.17242503322961247;-0.33320557011804935;-0.26975182870949105;0.37799999999999995;0.015498046824409674
28:42.9;0.16797142917449953;-0.34958935143800207;-0.3539523804715574;0.41100000000000003;0.020784445869346344
28:42.9;0.16247654676307513;-0.36379614308820846;-0.4763005524054918;0.465;0.028153335496124712
28:42.9;0.15568271695146052;-0.37469088279977947;-0.6346164999978886;0.556;0.03701901743829704
28:42.9;0.1472193686021185;-0.38103212173828627;-0.8243010277209114;0.684;0.046239420347490595
28:43.0;0.13675264924897343;-0.38178828043579427;-1.0381109503470198;0.7879999999999999;0.05420035281589062
28:43.0;0.12410670931271447;-0.37645832753773334;-1.266192662561489;0.935;0.05915779273602953
28:43.0;0.10932742568499403;-0.36530606515754027;-1.496502015900011;1.151;0.059767255146222664
28:43.0;0.0926754533830676;-0.3494187672360024;-1.7157054879557123;2.54;0.05555890617999764
28:43.0;0.07456097828356754;-0.3305487987951239;-1.9105119526686312;2.54;0.04708655746134423
28:43.0;0.05545840319424236;-0.3107900986426392;-2.0691541614149918;2.54;0.035663780972172106
28:43.0;0.03584486816056231;-0.2922084985325073;-2.1826374286991737;2.54;0.022861326619562895
28:43.0;0.016185380098794746;-0.27652450239272397;-2.2455214702775024;2.7039999999999997;0.010050177549913558
28:43.0;-0.003040528934175712;-0.26488809880635655;-2.256211820553759;2.63;0.0018171528394952648
28:43.0;-0.02129286769483982;-0.2577596354431142;-2.2168149652843265;2.412;0.012166859950609704
28:43.1;-0.03793533284940952;-0.2549089739906979;-2.132608184357753;2.15;0.02062244222079841
28:43.1;-0.052237259767460804;-0.2555290004141166;-2.011201709307742;1.859;0.026845791471028543
28:43.1;-0.06342936276073133;-0.2584321245312582;-1.8615240148426073;1.6230000000000002;0.030514445988416652
28:43.1;-0.07081182370546313;-0.262282317863;-1.6927929682829037;1.225;0.03143971777055521
28:43.1;-0.07389399674051517;-0.2658163798745064;-1.5136358343061822;1.225;0.02973119031991521
28:43.1;-0.07252664801467144;-0.2680188868727174;-1.3314929745724062;1.225;0.025882241457786545
28:43.1;-0.06698222105851813;-0.26822977842127915;-1.1523690690970072;1.128;0.02070418443877005
28:43.1;-0.05795455540522092;-0.26617932016400936;-0.9808957732643466;1.036;0.015131596545838302
28:43.1;-0.04647650450788538;-0.2619597522263177;-0.8206007970011762;0.9470000000000001;0.009990793043920834
28:43.1;-0.033778255911424415;-0.2559528542870445;-0.6742692489337649;0.857;0.005829489872634132
28:43.2;-0.021125268727488607;-0.24873515454240616;-0.5443031805468238;0.763;0.002860093849621111
28:43.2;-0.00967869640902513;-0.2409783075595732;-0.43300537317228843;0.682;0.0010099226282028824
28:43.2;-0.00041183103460368036;-0.23335504480459585;-0.342731286532575;0.5870000000000001;3.293745325950253e-05
28:43.2;0.005902592644396512;-0.2264550576900602;-0.27587623105284664;0.261;0.0003687560218740281
28:43.2;0.008643594940072007;-0.22071316283922074;-0.23470540214723348;0.261;0.0004477604461393258
28:43.2;0.0072637034078958185;-0.21635383119816068;-0.2210871181546222;0.261;0.00034744505227661895
28:43.2;0.0012207786770769948;-0.2133570790574446;-0.2362134001277088;0.261;6.152456093671615e-05
28:43.2;-0.010053038869597483;-0.21144805553342924;-0.28036605662441216;0.26;0.0005959728708569545
28:43.2;-0.02713649553436942;-0.21010988320630983;-0.35275038766076555;0.307;0.002011257804123861
28:43.2;-0.05055992189391175;-0.20862014924345038;-0.4514079310438113;0.409;0.004761368904102272
28:43.3;-0.08070630151868846;-0.20611376936968898;-0.573220242044671;0.556;0.009535335306198316
28:43.3;-0.11768233434256305;-0.2016733839640546;-0.714006794797321;0.721;0.016945805007758975
28:43.3;-0.16117940025780012;-0.19444088045886507;-0.8687053325519938;0.863;0.027225107410833442
28:43.3;-0.21035520351458872;-0.18373458556612182;-1.031610679205202;1.301;0.03987126391165677
28:43.3;-0.26376649032734534;-0.16915321578348325;-1.1966322812661578;1.301;0.05339008272720576
28:43.3;-0.3193703716163182;-0.1506508731790836;-1.3575159060071968;1.301;0.06531474020718749
28:43.3;-0.3746034068315057;-0.1285714587839636;-1.5079960327609354;1.4169999999999998;0.07263007509915713
28:43.3;-0.42654812925375285;-0.10363431050705331;-1.6419082369714042;1.591;0.07258058854410465
28:43.3;-0.47218318618451904;-0.07687259976953885;-1.7533352286009558;1.745;0.06364247286452855
28:43.3;-0.5086794889867651;-0.04954072638681775;-1.8368452478566548;1.9080000000000001;0.04628914568122554
28:43.4;-0.5336826056859645;-0.023009615916385985;-1.8878341088270452;2.1069999999999998;0.02318228528133678
28:43.4;-0.5455325410810449;0.0013447730716272823;-1.9029339621211954;2.278;0.001396025600661359
28:43.4;-0.5433968678675466;0.022261575227673337;-1.880407406446448;2.345;0.022747044417651782
28:43.4;-0.527308954359182;0.03871300217996428;-1.8204201600923198;1.857;0.037161534140723956
28:43.4;-0.4981161020380906;0.04999504522739955;-1.725115606415783;1.857;0.04296113539659816
28:43.4;-0.4573622243285552;0.05576880285433826;-1.5984948939087358;1.857;0.040772079900238845
28:43.4;-0.4071391435968092;0.056045938478125494;-1.4461583365788628;1.554;0.03299915734231127
28:43.4;-0.34992808602587827;0.05112596599911706;-1.2749456460859248;1.2890000000000001;0.022809302157190788
28:43.4;-0.2884399977776723;0.041502133439291676;-1.0924887261695218;1.058;0.013078046282501714
28:43.4;-0.22546378967870526;0.027758005316996945;-0.9067102659664004;0.84;0.005674578262191154
28:43.5;-0.16373013203037587;0.010475480033159599;-0.7253256530056094;0.629;0.0012440435477759167
28:43.5;-0.10578737383485902;-0.009834565487179715;-0.5554015175035404;0.452;0.0005778246628228741
28:43.5;-0.053878711307658304;-0.032779612072822206;-0.40300575191843896;0.303;0.0007117578306233129
28:43.5;-0.009815915434440181;-0.05811676897446888;-0.27296800280301586;0.184;0.00015571986263609338
28:43.5;0.025138260320967973;-0.0857683953234462;-0.16876127875011082;0.184;0.00036386083476573324
28:43.5;0.05035216482891247;-0.11581214294648243;-0.09251056390051428;0.184;0.0005394653724979727
28:43.5;0.06584761653862797;-0.14843444478387202;-0.04511925553830162;0.188;0.0004409980581753755
28:43.5;0.07225803851591743;-0.18384858352763173;-0.026478873953753965;0.204;0.0003517596080205953
28:43.5;0.07073613068433976;-0.22219097619013017;-0.0357130726689046;0.251;0.000561299860674533
28:43.5;0.06282929681020066;-0.2634133051280585;-0.07140983198132217;0.295;0.0011818379130455552
28:43.6;0.05033694084110399;-0.3071881092841317;-0.1318018764070191;0.33799999999999997;0.0020380405110800638
28:43.6;0.035160875023818344;-0.3528462971759465;-0.21486251791900504;0.389;0.0026656670243218068
28:43.6;0.01916106694995502;-0.399365584635052;-0.3183017687123559;0.43;0.0024357312999718065
28:43.6;0.004029655269562167;-0.44542350195560687;-0.43947501732985045;0.691;0.0007888150981560242
28:43.6;-0.00880673372192195;-0.48951046645431456;-0.5752399116248333;0.691;0.0024798525472056548
28:43.6;-0.018251615939265216;-0.5300746488543087;-0.7218081359771852;0.691;0.006983290822551772
28:43.6;-0.023571184161327575;-0.5656650398889707;-0.8746490790336142;0.892;0.01166204150744314
28:43.6;-0.02440079820592814;-0.5950565170819946;-1.0285136673082276;1.129;0.014933868280601689
28:43.6;-0.02073512862094575;-0.6173517489337231;-1.1776299099907326;1.3659999999999999;0.015074684934674135
28:43.6;-0.012913222688930677;-0.6320454951851843;-1.3160665590093892;1.58;0.010741398642792818
28:43.7;-0.0016067594337234757;-0.6390304770741161;-1.4382017648389402;1.7619999999999998;0.0014766999056000645
28:43.7;0.012190108205126352;-0.6385396824978402;-1.5392000581366627;1.9069999999999998;0.01198092980555994
28:43.7;0.027183934040334312;-0.6310472157933302;-1.6153951219796738;1.9609999999999999;0.02771104667220519
28:43.7;0.04184020683911925;-0.6171666375915235;-1.6644960626921765;1.7530000000000001;0.04298124945822669
28:43.7;0.054491916928720394;-0.597580642689745;-1.685587964757532;1.7530000000000001;0.05488833141778401
28:43.7;0.0634939029119603;-0.573014327563646;-1.6789698822637997;1.7530000000000001;0.06108582032975021
28:43.7;0.06740235893885838;-0.5442420404131463;-1.6459177485655665;1.636;0.060377525604914425
28:43.7;0.0651576367835964;-0.5121061924808742;-1.5884515999317101;1.57;0.05300286412257341
28:43.7;0.05624917350593818;-0.4775254269511456;-1.509158306667293;1.544;0.04053661176853821
28:43.7;0.04083408595430535;-0.4414760292534559;-1.411098045578247;1.53;0.02543824564092342
28:43.8;0.019777500316778766;-0.4049429191380136;-1.297791075730058;1.499;0.01039369558349819
28:43.8;-0.0054065230456359905;-0.3688507398890368;-1.1732381208072917;1.4140000000000001;0.0023396714905604874
28:43.8;-0.03271524937082374;-0.333995018961194;-1.041897468413211;1.273;0.011384532672953907
28:43.8;-0.059900904803918506;-0.3009950500463192;-0.9085495965007009;0.7240000000000001;0.016381036418731267
28:43.8;-0.0847597616202998;-0.2702847047464704;-0.7780388603299775;0.7240000000000001;0.017824300099653582
28:43.8;-0.10541117380760529;-0.2421463020468892;-0.6549632400670211;0.7240000000000001;0.01671788819084991
28:43.8;-0.12051250185798752;-0.21677874628568708;-0.5434091331783323;0.596;0.014196318561828923
28:43.8;-0.12938060005790955;-0.19437970982570982;-0.4467735753633271;0.498;0.01123589233793835
28:43.8;-0.13201612019694645;-0.1752176863973031;-0.3676600797086495;0.415;0.008504550880160062
28:43.8;-0.12903857200695507;-0.15967436890701234;-0.3078319974248416;0.349;0.006342617434673431
28:43.9;-0.12154762375386713;-0.14824760928620867;-0.2682241852723589;0.3;0.004833170389277225
28:43.9;-0.11093763363413654;-0.14151470759708665;-0.24901402974038633;0.29100000000000004;0.003909347646725085
28:43.9;-0.0987024782708286;-0.14006153484708603;-0.2497428254629678;0.301;0.003452549860988355
28:43.9;-0.08626839454570415;-0.1443858807069814;-0.2694684864339583;0.424;0.003356482793297388
28:43.9;-0.07487929826733213;-0.1547866299939588;-0.3069192228260581;0.424;0.0035572902373506242
28:43.9;-0.06553549580889592;-0.17125498936473826;-0.36060861122864324;0.424;0.004047211644213873
28:43.9;-0.058967432198990234;-0.193387209843636;-0.42888067150843295;0.452;0.0048907609741121365
28:43.9;-0.05562245049988954;-0.22033794106976992;-0.5098830565572148;0.498;0.0062489922444169555
28:43.9;-0.05564962698623796;-0.2508297358103708;-0.6014965385020192;0.562;0.008396038295193847
28:43.9;-0.058876571768396745;-0.2832255717955375;-0.7012617672851915;0.682;0.011693785905113606
28:44.0;-0.06478194883170353;-0.3156574196124154;-0.8063409923456576;0.833;0.016488788580711157
28:44.0;-0.0724810194681113;-0.34619168318969956;-0.9135377758250354;0.972;0.022922787802136434
28:44.0;-0.08075772869769884;-0.37300659652795654;-1.019377049452856;1.105;0.030706863592908445
28:44.0;-0.08818308254588815;-0.3945547233614598;-1.1202310958843578;1.3119999999999998;0.038976258478801255
28:44.0;-0.09333192100411444;-0.40968629135366724;-1.2124671798501845;1.3119999999999998;0.04636087546678442
28:44.0;-0.09505133883186573;-0.41772069002502554;-1.2925905030718805;1.3119999999999998;0.05132219068310961
28:44.0;-0.09269475069141035;-0.4184694909452553;-1.357372869100823;1.3530000000000002;0.05265239197288005
28:44.0;-0.08624985153999375;-0.41222470896585905;-1.40398904694626;1.422;0.049917875780612055
28:44.0;-0.07632919227724737;-0.39972608623712536;-1.430197403784036;1.52;0.0436364230326265
28:44.0;-0.06402958217901705;-0.3821115752492226;-1.434579497971497;1.6219999999999999;0.03509905968083106
28:44.1;-0.05070062450503022;-0.36084399987328536;-1.4168097230029209;1.71;0.02592055675314492
28:44.1;-0.03768570352607546;-0.33760557230505833;-1.3778848870663452;1.73;0.01753069646140192
28:44.1;-0.02609800795070123;-0.3141595021836204;-1.32022135559005;1.671;0.010824411965803474
28:44.1;-0.016674462417388743;-0.29218673252043664;-1.2475398422401272;1.089;0.006078084834766435
28:44.1;-0.009723222782507243;-0.27311768402289255;-1.164522021180452;1.089;0.003092486149103108
28:44.1;-0.0051548076342178145;-0.2579922083809313;-1.0763164559452334;1.089;0.0014313934757624177
28:44.1;-0.002573187413542251;-0.24738061333102254;-0.9880139029322536;0.904;0.0006289268504152222
28:44.1;-0.0014029608850057824;-0.24137887079501158;-0.9041718794452048;0.737;0.00030619338936415703
28:44.1;-0.001029794064049628;-0.23966689902593316;-0.8284230130766913;0.632;0.00020446105419298226
28:44.1;-0.0009257194542585213;-0.24160538934903503;-0.7632075491618;0.588;0.00017069809159821634
28:44.2;-0.0007282299533985729;-0.24634694048938316;-0.7096847991741628;0.627;0.00012731548075244008
28:44.2;-0.00025510347808582095;-0.25294598376875893;-0.6678549787262968;0.696;4.30949455060333e-05
28:44.2;0.000537446611294028;-0.2604616693839232;-0.6368712178907352;0.785;8.915193442207807e-05
28:44.2;0.0016251622306507028;-0.26805381332467737;-0.6154706625846424;0.878;0.00026811805909722204
28:44.2;0.002983971547608868;-0.27507050514499426;-0.6024239566057913;0.878;0.0004944711263530756
28:44.2;0.004636096430440024;-0.28111663754382926;-0.5969027317538879;0.878;0.0007779336842596977
28:44.2;0.00666623809352913;-0.28608620473913765;-0.5986915852630824;0.8059999999999999;0.0011417759513536404
28:44.2;0.009208618017687147;-0.29014775316277464;-0.6082122266014879;0.737;0.0016250578148910874
28:44.2;0.012411483043091547;-0.2936856001116541;-0.6263703640571976;0.695;0.0022831662318003212
28:44.2;0.01638873502954805;-0.2972092511198004;-0.6542699100695049;0.653;0.0031868726174146132
28:44.3;0.02116937635888385;-0.3012508642284879;-0.6928559042207993;0.621;0.004418545054848301
28:44.3;0.02665842401623952;-0.30627923418777936;-0.7425482230643603;0.644;0.006062848094111874
28:44.3;0.0326275644417727;-0.3126618223415876;-0.8029222689184178;0.6890000000000001;0.008190926221446215
28:44.3;0.038751387443237216;-0.3206911033490816;-0.8724849884930228;0.882;0.010842567431678125
28:44.3;0.04468816950119067;-0.33065672349996994;-0.9485814760744602;0.882;0.014016660782219217
28:44.3;0.050180348868424145;-0.3429114291638464;-1.0274527017121362;0.882;0.017679805181663063
28:44.3;0.055139042568222565;-0.35787375401824645;-1.1044616389664654;1.046;0.021794138474031423
28:44.3;0.05968707251990639;-0.3759379408370141;-1.1745061905121197;1.255;0.026354315875898593
28:44.3;0.06415141968002434;-0.39730272148956486;-1.2326079422293217;1.5290000000000001;0.03141613637560554
28:44.3;0.06900561390896408;-0.4217689104141433;-1.2745955523831887;1.7069999999999999;0.03709636758896908
28:44.4;0.07476755444179496;-0.4485770588424848;-1.2977335014825129;1.777;0.04352469645315817
28:44.4;0.08186640387310655;-0.47634782325527747;-1.3011305539247167;1.712;0.0507400363469462
28:44.4;0.09050892750826355;-0.5031571996219387;-1.2858079204354844;1.565;0.058555973653175476
28:44.4;0.1005932332484329;-0.5267447987715063;-1.2543971093433692;1.163;0.06646669247399499
28:44.4;0.11170920766340842;-0.5448175830915827;-1.2105524573406332;1.163;0.07367560322303134
28:44.4;0.12321981102424397;-0.5553764622473067;-1.1582627340856833;1.163;0.07926383697828424
28:44.4;0.13437668815069864;-0.5569845659390558;-1.1012596845746072;1.163;0.08242459747995752
28:44.4;0.14442733348929565;-0.5489259815091937;-1.0426349500077081;1.128;0.08266001103879014
28:44.4;0.1526991613694211;-0.5312445485049494;-0.9846732758719478;1.091;0.07987728402686621
28:44.4;0.15866060660295694;-0.5046791283309879;-0.9288587873821875;1.05;0.07437622790423808
28:44.5;0.16195932947172773;-0.47052718341555627;-0.8760016809904797;1.011;0.06675681810281235
28:44.5;0.16243697795257558;-0.4304757721175358;-0.8264345979429831;0.982;0.05778859091569202
28:44.5;0.16012132487132874;-0.38643416941012854;-0.7802327118836566;0.951;0.04827795328380824
28:44.5;0.15519747580377152;-0.34038873420433924;-0.7374195762017224;0.8079999999999999;0.03895601226517981
28:44.5;0.1479624188346914;-0.294289299585789;-0.6981338010728503;0.8079999999999999;0.03039936831085811
28:44.5;0.13877275325233246;-0.24997129017720404;-0.6627476126440086;0.8079999999999999;0.022990187249466085
28:44.5;0.12799793424578892;-0.20911081584652616;-0.6319362056607876;0.725;0.016914248049210476
28:44.5;0.1159868243632314;-0.17319831615044262;-0.6066940125573517;0.657;0.01218770776705923
28:44.5;0.10304938600895915;-0.14351171376238028;-0.5882958350226045;0.623;0.008700185908328212
28:44.5;0.0894522510807853;-0.121078344507246;-0.5782126782522417;0.605;0.006262465674399582
28:44.6;0.0754239861625635;-0.10662661881658296;-0.5779996162580178;0.599;0.004648391185490165
28:44.6;0.06116207903725529;-0.10053497294656226;-0.5891684243404541;0.634;0.0036227541983809455
28:44.6;0.04683160384589028;-0.10278714947169991;-0.6130480695850561;0.6629999999999999;0.0029510215624825474
28:44.6;0.03254825035363994;-0.11294177471105173;-0.6506283590750392;0.66;0.0023917470370178316
28:44.6;0.018349126510954994;-0.13012343149612918;-0.7023812319286112;0.66;0.0016770414661190177
28:44.6;0.004169757815362223;-0.15304408099985328;-0.7680655623744345;0.66;0.0004901462252562216
28:44.6;-0.010149315294193677;-0.18006631240908438;-0.8465418599610274;0.7070000000000001;0.001547097388664935
28:44.6;-0.02481506675490871;-0.20931703283292663;-0.9356409169354707;0.7929999999999999;0.004859921154506085
28:44.6;-0.04000031165618609;-0.23884609890254854;-1.0321348909899535;0.929;0.009860932520083203
28:44.6;-0.05574723783333194;-0.2668051910101816;-1.131847116434774;1.103;0.01683470062326984
28:44.7;-0.07188352759354584;-0.29161263567814866;-1.2299102217117837;1.288;0.02578155633488774
28:44.7;-0.08798031970848398;-0.31207423121191613;-1.3211485616436558;1.4369999999999998;0.03627397099509729
28:44.7;-0.10336940867490833;-0.3274399476335142;-1.4005333673049702;1.557;0.047404236297974814
28:44.7;-0.11721272488377912;-0.3373884188354472;-1.463646506214347;1.7069999999999999;0.05788168075935283
28:44.7;-0.12859755811353976;-0.3419506303029625;-1.5070880725492088;1.7069999999999999;0.06627271509457927
28:44.7;-0.1366319475596175;-0.3414056232612217;-1.528769578586088;1.7069999999999999;0.071312384914026
28:44.7;-0.14053077142914855;-0.3361867803392782;-1.5280532114391123;1.7069999999999999;0.07219224378292648
28:44.7;-0.1396962434999531;-0.3268232129259471;-1.5057268258288543;1.591;0.06874542651915107
28:44.7;-0.13379760750399505;-0.3139214158068911;-1.463831496423263;1.486;0.061483754455018254
28:44.7;-0.12284658455191139;-0.2981783829987719;-1.4053798627330876;1.413;0.05147933974009102
28:44.8;-0.10725448615729305;-0.2804081094138296;-1.3340187144814142;1.3330000000000002;0.04012064977636414
28:44.8;-0.08785174511138467;-0.2615574366589041;-1.2536888320881632;1.249;0.02880760957815908
28:44.8;-0.06585442691605596;-0.24268782718761514;-1.1683179340263703;1.167;0.01867213640896436
28:44.8;-0.04277225282208924;-0.22491116282125725;-1.0815642595800707;0.9109999999999999;0.010404601798279761
28:44.8;-0.020267424617950572;-0.20928895636512004;-0.9966246054501083;0.9109999999999999;0.004227430572923909
28:44.8;1.0349462893899201e-05;-0.1967244100768505;-0.9161277260983076;0.9109999999999999;1.8652287052038495e-06
28:44.8;0.016583082807848554;-0.18787996639802612;-0.8421268940313715;0.868;0.0026237550070106505
28:44.8;0.02828037542169001;-0.1831373930026266;-0.7761755014123997;0.8220000000000001;0.004019963676724442
28:44.8;0.03434524555812431;-0.18259904749234487;-0.719445142542982;0.7809999999999999;0.004511934831740106
28:44.8;0.03450312005194094;-0.18612017577758905;-0.6728472942573085;0.7509999999999999;0.004320841480942693
28:44.9;0.028986407786296582;-0.19336137959463165;-0.6371335382406096;0.731;0.003571039058043533
28:44.9;0.018513381816027158;-0.20385322149105048;-0.6129583212295527;0.685;0.002313312380943517
28:44.9;0.004227463778646327;-0.2170683235068877;-0.6008944429270145;0.63;0.0005514098692581645
28:44.9;-0.012395217082886791;-0.23249651994198262;-0.6014025332597889;0.687;0.001733148784649571
28:44.9;-0.02966309952017376;-0.2497131040528639;-0.6147682991154914;0.687;0.0045537514942893195
28:44.9;-0.04580282088940036;-0.2684226789345056;-0.6410245940713807;0.687;0.007881087055056895
28:44.9;-0.059100698032179565;-0.28846176135816326;-0.6798710553872563;0.687;0.011590639901925225
28:44.9;-0.06805025437550086;-0.30975595065891137;-0.7306041271264224;0.755;0.015400383381085875
28:44.9;-0.07150846833911491;-0.3322428718018688;-0.792073842158498;0.843;0.01881823202748973
28:44.9;-0.06885312815720257;-0.35578231479924666;-0.8626776223489427;0.9740000000000001;0.021132776751751844
28:45.0;-0.06011200618171075;-0.38008056129479734;-0.9403830876283475;1.056;0.021485313305309433
28:45.0;-0.04601830917700705;-0.4046548435860787;-1.0227564850588104;1.08;0.019045292310069
28:45.0;-0.02794899301709514;-0.42885271210562026;-1.1069781009786355;1.107;0.013268241130092577
28:45.0;-0.007726698560882607;-0.4519244666830255;-1.1898501737876066;1.27;0.004154818934580607
28:45.0;0.012687858898478975;-0.47312996536568636;-1.2678251962807838;1.27;0.007610762566026789
28:45.0;0.03153541941846687;-0.4918459484241922;-1.3370889906994097;1.27;0.02073901007709325
28:45.0;0.047536411933502117;-0.5076369114708744;-1.3937328686087769;1.4240000000000002;0.03363249863584275
28:45.0;0.06004770486548436;-0.520268769987453;-1.4340441022578891;1.595;0.044800893716278385
28:45.0;0.06908220910205518;-0.5296669425618463;-1.4549121618936827;1.754;0.05323605436341553
28:45.0;0.07520248527471121;-0.5358355371606441;-1.4542880925294097;1.831;0.05860223161504697
28:45.1;0.07931705597330056;-0.5387624864164215;-1.4315839702625193;1.84;0.061175955523934636
28:45.1;0.08242586268216023;-0.5383380613872203;-1.3878919092916806;1.7690000000000001;0.061584898718039106
28:45.1;0.08537375453443989;-0.5343111100299047;-1.3259354705285245;1.611;0.06048406541713972
28:45.1;0.08866927187022366;-0.5263000938483705;-1.249727625977519;1.0590000000000002;0.058320596851340945
28:45.1;0.0924039809310195;-0.5138620944159434;-1.1639992189150525;1.0590000000000002;0.055270062205871516
28:45.1;0.09627267710740442;-0.49660265824827093;-1.0735536925756344;1.0590000000000002;0.05132581552248245
28:45.1;0.09967070696534372;-0.4742948970976437;-0.9827215010407384;0.966;0.04645649590581654
28:45.1;0.1018420069901263;-0.4469772570238978;-0.8950092425211518;0.912;0.04074177026552701
28:45.1;0.10205342728584389;-0.41500964991327854;-0.8129497686044471;0.877;0.03443098928878444
28:45.2;0.09976542941965169;-0.37907927792921786;-0.7381232163115461;0.8490000000000001;0.027915087045206843
28:45.2;0.09476570428312125;-0.340159766234579;-0.6713087431858973;0.802;0.021639959441274507
28:45.2;0.08723944520430056;-0.29943778910828217;-0.612715215541195;0.7440000000000001;0.016005828819097512
28:45.2;0.07776423480159102;-0.2582253170843133;-0.5622350177583723;0.716;0.01129006945421139
28:45.2;0.06723254254863827;-0.21787284616405006;-0.5196749329581761;0.565;0.007612273978663699
28:45.2;0.056720083869310225;-0.1796952235484072;-0.48493625768987375;0.565;0.004942629470489469
28:45.2;0.04733240035531327;-0.1449200363780042;-0.4581354074298356;0.565;0.0031425400525674856
28:45.2;0.04006475046999823;-0.11466290370665906;-0.4396658632075246;0.517;0.002019798870490684
28:45.2;0.03569696310667651;-0.08992149847678556;-0.43019977110399027;0.494;0.0013809087480016742
28:45.2;0.03472782729199683;-0.07157115339675342;-0.4306257950601864;0.47200000000000003;0.0010703250016176012
28:45.3;0.03734402188689579;-0.06034720174183673;-0.4419272558793485;0.446;0.000995930455740043
28:45.3;0.043415250571879005;-0.05680733368067501;-0.46501508561318955;0.41700000000000004;0.0011468688568386804
28:45.3;0.05250816059484845;-0.061274811469020724;-0.5005396472226179;0.39899999999999997;0.0016104500964076592
28:45.3;0.06391673020035667;-0.07377006973269469;-0.5487150406673986;0.436;0.0025872691389214274
28:45.3;0.07671252073871897;-0.09394453196613008;-0.6091924839429236;0.6559999999999999;0.0043902807889938085
28:45.3;0.08981890833051773;-0.12103311007901106;-0.6810033281005949;0.6559999999999999;0.007403229278824478
28:45.3;0.10210802387708562;-0.15383814860136164;-0.7625641414263967;0.6559999999999999;0.011978440920368035
28:45.3;0.1125141092262042;-0.1907529474471774;-0.8517276521177767;0.8140000000000001;0.018280117826943866
28:45.3;0.12015550731373714;-0.22983169026503295;-0.9458807571249314;1.03;0.026121011043393514
28:45.3;0.12445225955059122;-0.26890788175000047;-1.0420944751270413;1.215;0.03487493534441229
28:45.4;0.12521533225766895;-0.30575211524206797;-1.1373003145009017;1.31;0.043541375014648206
28:45.4;0.12267860335505183;-0.3382497682455741;-1.2284392614898993;1.337;0.05097532683934909
28:45.4;0.11745579128074078;-0.3645747568506117;-1.3125403419889659;1.3659999999999999;0.05620483671888368
28:45.4;0.1104276705462978;-0.38333653167770343;-1.3867269933536233;1.3559999999999999;0.0587014852033923
28:45.4;0.10258727511052566;-0.3936847178198878;-1.4481885235434433;1.436;0.058488051381452806
28:45.4;0.09488126350452075;-0.39536592578741303;-1.4941696058593883;1.436;0.05605051336033867
28:45.4;0.08808130685016698;-0.38873230118233126;-1.5220247406392355;1.436;0.05211420185548721
28:45.4;0.08270453987118435;-0.37469963811881984;-1.5293705500943737;1.545;0.04739421632513201
28:45.4;0.07898427309523073;-0.3546519464398039;-1.51434980827279;1.64;0.04241985505723243
28:45.4;0.07687800996941602;-0.33029547625729966;-1.4759859497362078;1.7280000000000002;0.03747891259009895
28:45.5;0.07609409650146125;-0.3034769378074699;-1.4145580166558094;1.7469999999999999;0.03266611016448803
28:45.5;0.07612275123254648;-0.275991548398737;-1.3318901856957723;1.665;0.027981995212116823
28:45.5;0.076267932643162;-0.24941068780468217;-1.231449625888538;1.518;0.023424681009773598
28:45.5;0.07568731743692046;-0.22495588391953422;-1.118181259711584;1.297;0.01903849785176013
28:45.5;0.07345391708992784;-0.20343784891497405;-0.9980695877299207;0.642;0.014914460144183248
28:45.5;0.06864942961211436;-0.1852659447317664;-0.8775047389795961;0.642;0.011160457529162955
28:45.5;0.06048556092796549;-0.17051625266640252;-0.762613349180048;0.642;0.007865419589777383
28:45.5;0.048436036756748624;-0.15903379890937422;-0.6587207268099898;0.535;0.005074103974419785
28:45.5;0.03235843951319537;-0.15054231829003678;-0.570023498903197;0.489;0.0027767637358695764
28:45.5;0.012586795782190165;-0.14473958000985965;-0.4994629906606074;0.449;0.0009099254399310689
28:45.6;-0.010022875192955204;-0.14136444661157277;-0.44876141674515574;0.455;0.0006358402706800361
28:45.6;-0.034108660488902494;-0.14023310631373104;-0.41858293378132616;0.479;0.002002150573984538
28:45.6;-0.057888827084753784;-0.1412501385136781;-0.40877574259750715;0.47600000000000003;0.003342479472228343
28:45.6;-0.07931968042817553;-0.14439874267710526;-0.4186475004342041;0.493;0.004795047018770261
28:45.6;-0.0963190333309279;-0.14970856613529612;-0.4472325028279723;0.71;0.006448996254710548
28:45.6;-0.10703229259969141;-0.157200908164031;-0.49351201090249436;0.743;0.008303622661701735
28:45.6;-0.1100940541111301;-0.1668227655998974;-0.5565392612525774;0.743;0.01022150836520132
28:45.6;-0.1048278241401774;-0.17839218492222772;-0.6354206633741147;0.743;0.011882661614552427
28:45.6;-0.09134324084214422;-0.19157740546734264;-0.7291378595318543;0.7509999999999999;0.012759402938255301
28:45.6;-0.07051674046861542;-0.20592428272831884;-0.8362442517436406;0.7509999999999999;0.01214319409856113
28:45.7;-0.04386026201950644;-0.22093508345747853;-0.9545051699153415;0.7490000000000001;0.00924941343306196
28:45.7;-0.0132973993434782;-0.2361843817155226;-1.080571744600379;0.7759999999999999;0.003393684728595365
28:45.7;0.019116438252727817;-0.25143727378047676;-1.2097949891211774;0.831;0.005814982591337719
28:45.7;0.05147799933513025;-0.2667241897207425;-1.3362951849987952;0.9790000000000001;0.018347904371512274
28:45.7;0.08226681587359828;-0.2823347865756013;-1.4533758574154938;1.9280000000000002;0.03375724696846705
28:45.7;0.11047682520116073;-0.29872106570650975;-1.554267817716792;1.9280000000000002;0.05129356566244527
28:45.7;0.13563305581324983;-0.31633655276236383;-1.6330295994996784;1.9280000000000002;0.07006626717304494
28:45.7;0.15770861705376288;-0.33546057023003906;-1.6853525281982753;2.13;0.08916361360517215
28:45.7;0.17697158651791506;-0.356049126727361;-1.7090909736273487;2.154;0.10769081153037609
28:45.7;0.19379420252256183;-0.3776353923362574;-1.704446798979419;2.0;0.12473746702769517
28:45.8;0.2084650496228336;-0.39930068686507286;-1.67378988180932;1.785;0.13932666728984885
28:45.8;0.2210533871114619;-0.4197418850582781;-1.6211417458197215;1.5619999999999998;0.15041822925866744
28:45.8;0.23136028531277025;-0.4374397731198321;-1.5514244148276057;1.321;0.15701375520874625
28:45.8;0.23895348615830805;-0.45088634982748077;-1.4696447759851323;1.198;0.15834079963144754
28:45.8;0.24325360269897295;-0.45880020794146475;-1.380205451220949;1.23;0.15403755817424597
28:45.8;0.2436405099250627;-0.460276036011146;-1.2864891187175234;1.23;0.1442693188188721
28:45.8;0.2395668152343864;-0.4548576142672296;-1.1907673286782374;1.23;0.1297564750194091
28:45.8;0.23067622692278594;-0.44255439917944395;-1.0943888247517988;1.265;0.1117226301043201
28:45.8;0.21692113615022662;-0.4238249303064106;-0.9981500710924185;1.273;0.09176650926384132
28:45.8;0.19866082540673943;-0.3995413693890289;-0.9027367384575606;1.216;0.0716531201430892
28:45.9;0.17670988151905948;-0.3709429256085295;-0.8091295172932599;1.103;0.0530378576369818
28:45.9;0.152308989753505;-0.3395812077594173;-0.7188897297813664;0.96;0.03718189031252015
28:45.9;0.127011590667092;-0.3072569299510286;-0.6342777613930114;0.843;0.024752811049634137
28:45.9;0.10250849006828362;-0.27594646193482014;-0.5581944218344267;0.7509999999999999;0.015789564757432855
28:45.9;0.08043218968637929;-0.2477168096461269;-0.49396184971264184;0.40399999999999997;0.009841896156656935
28:45.9;0.06218439487384198;-0.22462885375861086;-0.444987285691949;0.40399999999999997;0.006215764558612504
28:45.9;0.04881508466106333;-0.20863191172835902;-0.41438482711855906;0.40399999999999997;0.004220254383000047
28:45.9;0.04096024719536344;-0.20145284310164768;-0.4046374603539793;0.40399999999999997;0.00333888957491149
28:45.9;0.0388302893986304;-0.2044773239337927;-0.41734676223614736;0.369;0.0033136972600242586
28:45.9;0.04223498814614966;-0.21861823332135727;-0.45307850518638326;0.38;0.004183427202224768
28:46.0;0.0506281182324501;-0.24417436414051089;-0.5113038690440781;0.47;0.0063207837189057
28:46.0;0.0631539357079495;-0.2806972127423685;-0.5904409931201765;0.6;0.010466826442904002
28:46.0;0.07868262291623385;-0.3268947486650884;-0.6879921159360146;0.7509999999999999;0.017695801349341286
28:46.0;0.09583385081900372;-0.3806063877567059;-0.8007482524942984;0.922;0.029207273119639453
28:46.0;0.11300168290089331;-0.4388823697006687;-0.925011608483136;1.25;0.045875438610123866
28:46.0;0.1284018777458453;-0.4981817932379855;-1.056774021112664;1.25;0.06759916864061241
28:46.0;0.1401600944421412;-0.5546659821033392;-1.1917969011343825;1.25;0.09265271811164201
28:46.0;0.14645143806331162;-0.6045418467282004;-1.325579532673326;1.327;0.11736153975819562
28:46.0;0.1456915554779339;-0.6444196439001408;-1.4532696880397247;1.431;0.13644240500262794
28:46.0;0.13676108335490558;-0.6716525546968464;-1.5696228211354881;1.599;0.14417916558317598
28:46.1;0.1192206087737897;-0.6846029929774158;-1.6691192024770802;1.8219999999999998;0.13623148231300802
28:46.1;0.09346075154589166;-0.6827705782327905;-1.7462962346004949;2.036;0.11143509429764688
28:46.1;0.060741290376951924;-0.6667458562712772;-1.7962644168290662;2.206;0.072746919197601
28:46.1;0.023092521777480154;-0.6380030796553633;-1.8152898996982638;2.286;0.026744847641286894
28:46.1;-0.01692579491755935;-0.5985863148368872;-1.8012893430378045;1.956;0.018249851612126316
28:46.1;-0.056574210185513764;-0.5507669776570897;-1.754118359204446;1.956;0.054656936631073426
28:46.1;-0.09330935172671093;-0.4967570090306247;-1.6756193654515186;1.956;0.07766843362477012
28:46.1;-0.12508902974655076;-0.43854034549607734;-1.5694569863228072;1.7730000000000001;0.08609505265017231
28:46.1;-0.15055165009663082;-0.37783715619604563;-1.44077192393496;1.5330000000000001;0.08195688068648856
28:46.1;-0.16906884880892306;-0.3161693392709575;-1.29567591504426;1.262;0.06925956077771536
28:46.2;-0.18069731933610345;-0.2549758376241653;-1.1406382802067965;0.987;0.052553141175167135
28:46.2;-0.18606200301391682;-0.1957278643955095;-0.9818568439503937;0.772;0.0357567897740694
28:46.2;-0.1862020642324074;-0.14000328900240405;-0.8247245329443235;0.61;0.021499662541031927
28:46.2;-0.1824058299539668;-0.0894909809875795;-0.6734880071398088;0.491;0.010993800463230374
28:46.2;-0.17605370412465896;-0.045913254849110324;-0.5311533669980248;0.45;0.004293418144326791
28:46.2;-0.1684821741569003;-0.010882245816397072;-0.3996388300939183;0.45;0.0007327235817648234
28:46.2;-0.16087681321515016;0.014265626461044466;-0.2801197403108931;0.45;0.0006428771916338698
28:46.2;-0.15419627261681965;0.02860860396560806;-0.1734701463846157;0.45;0.0007652358122518528
28:46.2;-0.14912365586331422;0.031727943007209033;-0.0806865268819921;0.38299999999999995;0.000381759172605183
28:46.2;-0.1460375340708312;0.023745157027698544;-0.0031874165431169583;0.289;1.1052953916695712e-05
28:46.3;-0.14499292397270397;0.005308675164698593;0.05708261211617098;0.13;4.393764729509981e-05
28:46.3;-0.14570625013135924;-0.02247536695733712;0.09776287382400647;0.147;0.0003201539999460958
28:46.3;-0.1475490738141687;-0.05816494597112189;0.11636300309230321;0.262;0.0009986486924496339
28:46.3;-0.1495644719730946;-0.1001365351411162;0.1106470478308295;0.33399999999999996;0.0016571462303499372
28:46.3;-0.15051756960019444;-0.14674564085879271;0.07902166789624171;0.298;0.0017454145758057755
28:46.3;-0.14898165593660173;-0.1964707609589352;0.02085569095001284;0.298;0.0006104573218059631
