Time;AccX;AccY;AccZ;Acc-old;Acc-trns
12:35.0;-0.10349700902852955;-0.23807581237506498;-1.2060090684309641;1.228;0.029716225657803755
12:35.0;-0.06369838102428085;-0.2723398245960843;-1.3330869271191945;1.442;0.023125866662378317
12:35.0;-0.02469992141713079;-0.3043254512235171;-1.4532080552339035;1.58;0.010923495715996242
12:35.0;0.01262011435373022;-0.33249183264782595;-1.559198502557243;1.7919999999999998;0.006542529370170382
12:35.0;0.047351352113403626;-0.3557413825214744;-1.6448332148256264;1.7919999999999998;0.027706944871241763
12:35.0;0.07855750641099202;-0.37349610575100434;-1.705282915214108;1.922;0.050034574234469734
12:35.0;0.10532232404275216;-0.3856690588353365;-1.737445404079594;2.011;0.07057427059665711
12:35.1;0.12684459983019625;-0.3925754840494207;-1.7401306955026181;1.9880000000000002;0.08665168763239338
12:35.1;0.14256127438424135;-0.3948347662608388;-1.7140693350502494;1.923;0.09648178746971645
12:35.1;0.1522557218106532;-0.39329505384360336;-1.6617250874169285;1.7690000000000001;0.09950646171860959
12:35.1;0.15610986233587817;-0.3889814409405542;-1.5869278857079572;1.5730000000000002;0.0963643537480788
12:35.1;0.15468071569739425;-0.38304579461131655;-1.4943848666738295;1.4809999999999999;0.08854200096964984
12:35.1;0.14881116540353856;-0.37669278021766334;-1.3891517220443197;1.2990000000000002;0.07787041620956676
12:35.1;0.13950665388266484;-0.3710689875898295;-1.2761452959548316;1.025;0.06606169391266382
12:35.1;0.12781654056145592;-0.3671251919735869;-1.1597660055265036;1.025;0.05442163939567161
12:35.1;0.1147527088560981;-0.36548783406509167;-1.043684240589381;1.018;0.04377286747276927
12:35.1;0.10126145949716875;-0.36638277125030094;-0.930811900144416;1.031;0.034533544224906634
12:35.2;0.08823861953183548;-0.36963109221475093;-0.823425007484991;1.063;0.026856613741146625
12:35.2;0.07655237167014642;-0.3747065917142889;-0.7233563411819104;0.935;0.020749243925827703
12:35.2;0.06703233058809296;-0.3808309004227615;-0.6321653801908397;0.8959999999999999;0.016137906961939133
12:35.2;0.06040421889322817;-0.3870804872021654;-0.5512178751515612;0.6970000000000001;0.012888187460597757
12:35.2;0.057184099752015535;-0.3924829080653275;-0.4816536461324141;0.5479999999999999;0.010810129320482748
12:35.2;0.05757550419616996;-0.39609521030320494;-0.4242704057766761;0.39899999999999997;0.00967564843866894
12:35.2;0.061423542496270085;-0.39708103962258906;-0.3793894792216604;0.518;0.009253356484897569
12:35.2;0.06826199456958676;-0.39480879459693013;-0.3467801830317303;0.518;0.009345877057012335
12:35.2;0.07744823591517344;-0.38896988472482286;-0.3256934108856049;0.518;0.009811524228420639
12:35.2;0.08834913027437329;-0.37968948483952925;-0.31500924008234876;0.632;0.010567059225108465
12:35.3;0.10053790289340352;-0.36759737794555797;-0.3134648837109996;0.687;0.011584868875233587
12:35.3;0.11396614185484062;-0.3538368040241908;-0.3199034490628066;0.6729999999999999;0.01290023947163333
12:35.3;0.129070139256114;-0.3400018649391179;-0.3334729622786328;0.597;0.014634156840607357
12:35.3;0.14677340135497496;-0.3280082723321402;-0.3537239118449156;0.547;0.017029291308549955
12:35.3;0.1683710628044118;-0.3199112087772934;-0.3805986387387022;0.611;0.020500485236895186
12:35.3;0.19531511067339513;-0.3176761326066631;-0.4143440156205608;0.618;0.025708782004987326
12:35.3;0.2289409986320444;-0.3228945907399302;-0.4553849589064152;0.547;0.03366379120496018
12:35.3;0.2701779692393169;-0.3364540017437395;-0.504179032581006;0.547;0.0458311138043595
12:35.3;0.3192762837494149;-0.35822719697955013;-0.5610567589791988;0.547;0.06416999615453252
12:35.3;0.3755811701933646;-0.3868921272884723;-0.6260513095023477;0.718;0.09097113884180145
12:35.4;0.4373960097543058;-0.41997919284052654;-0.6987264889115449;0.655;0.128354115739224
12:35.4;0.5019991574836022;-0.45418292459511883;-0.7780189527231292;0.8690000000000001;0.17738788980173031
12:35.4;0.5658748792653551;-0.48588503448715603;-0.8621344207076099;1.37;0.23704397555763482
12:35.4;0.6251464907812242;-0.5117535324069317;-0.9485591995297183;1.456;0.30346393646354364
12:35.4;0.6760863870602074;-0.5292702846446907;-1.0342191986587668;1.5190000000000001;0.3700771736872751
12:35.4;0.7155358969418077;-0.5370887647217942;-1.1157572764769952;1.8459999999999999;0.4287925405820104
12:35.4;0.7411488399200811;-0.5351696649343736;-1.1898579878118458;1.545;0.4719457200608176
12:35.4;0.7514835929956656;-0.5246850872763206;-1.2535334129949047;1.545;0.4942584905275139
12:35.4;0.7460143155403671;-0.5077442192925323;-1.3043083078834419;1.545;0.49405171315150537
12:35.4;0.725118560328323;-0.4870288376351864;-1.340310751212545;1.632;0.47333563336792295
12:35.5;0.6900630406764869;-0.46540373995894035;-1.360321134162024;1.665;0.4368779058955513
12:35.5;0.6429708188604069;-0.44553114944723493;-1.3638172740848364;1.626;0.39068390786519247
12:35.5;0.586730924767097;-0.42951267834659723;-1.3510131448369358;1.746;0.34046662178332204
12:35.5;0.5248150475925379;-0.4185947405411756;-1.3228579786573524;1.642;0.2906118151795454
12:35.5;0.4609817029499464;-0.412975402982998;-1.2809513643507593;1.247;0.24385996895210524
12:35.5;0.3988699708362384;-0.4117411913169909;-1.2273616508046217;0.919;0.20157107303001512
12:35.5;0.34152653136484923;-0.4129545140567081;-1.1644103224792646;1.264;0.1642225199351775
12:35.5;0.2909637105503198;-0.41389862865030996;-1.0945256949448046;1.264;0.13181316114671215
12:35.5;0.24786983514498048;-0.41145449574747406;-1.020205048016604;1.264;0.10404781345567247
12:35.5;0.21156167568796092;-0.4025562075260755;-0.9440188341098702;1.114;0.08039780375247034
12:35.6;0.1802104312709249;-0.38467409761718846;-0.8685622958211466;0.9420000000000001;0.06021072303752644
12:35.6;0.15132006928830222;-0.35627876095338207;-0.7963253239633206;1.068;0.0429315918343188
12:35.6;0.12237694515496517;-0.3172115453981996;-0.729533331304541;1.073;0.02832003153304004
12:35.6;0.09151354100471137;-0.26885738170145024;-0.670041505545692;0.932;0.01648576219281009
12:35.6;0.057986788965408355;-0.21404162235316546;-0.6193391837785338;0.695;0.007686981781210641
12:35.6;0.02231975737051733;-0.15666353321342874;-0.5786720271295231;0.9890000000000001;0.002023437876897406
12:35.6;-0.013914694157984948;-0.10117884550501105;-0.5492272876100571;0.64;0.0007732420990817506
12:35.6;-0.04854972259482527;-0.05207734062197651;-0.5322789727995909;0.64;0.0013457824526491879
12:35.6;-0.07933040967450501;-0.013452828670072204;-0.5292146874646931;0.64;0.0005647876571341796
12:35.6;-0.10431012395880673;0.011310068354517363;-0.5414428262357504;0.7390000000000001;0.0006387696822376917
12:35.7;-0.12206824247947308;0.019749610895275996;-0.5702131550181612;0.56;0.00137467004041463
12:35.7;-0.13176355236620124;0.010463815581459458;-0.6163679304213946;0.546;0.0008498169834768947
12:35.7;-0.13308149181153947;-0.01681611575945444;-0.6800437416915704;0.563;0.0015218792549197052
12:35.7;-0.12614231463049216;-0.06121025949779269;-0.7603746096698856;0.603;0.005871007334871526
12:35.7;-0.11141997330490643;-0.12073512029844241;-0.8552614283371618;0.657;0.011505236631362142
12:35.7;-0.08968782491666648;-0.19242920435550456;-0.961266583408991;0.601;0.016590073919218518
12:35.7;-0.06197643115344527;-0.2725894759258399;-1.0736845824828385;1.324;0.01813895927927812
12:35.7;-0.02952243103453099;-0.35711911197753043;-1.1868106176493902;1.324;0.012512573246020621
12:35.7;0.006291166407542182;-0.44192186007087364;-1.2943622224031082;1.324;0.0035985909774821747
12:35.7;0.04398402413580427;-0.5232482393677108;-1.3899651769311085;1.536;0.03198944139549996
12:35.8;0.08200954883013106;-0.5979392075704643;-1.4676449260902154;1.714;0.0719685001110062
12:35.8;0.11878553707254533;-0.6635652151190801;-1.5223061803953724;1.9069999999999998;0.11999114233695729
12:35.8;0.15274775150511635;-0.7184711117838837;-1.5501680469747718;2.059;0.1701229549013818
12:35.8;0.18243781414545035;-0.7617265132444114;-1.5490866536831998;1.744;0.2152730404268016
12:35.8;0.20661753369849126;-0.7929834907865427;-1.5187072942724944;1.784;0.24883152310135415
12:35.8;0.2243815348095436;-0.8122802861297421;-1.4604378238201319;1.8840000000000001;0.2661804161288477
12:35.8;0.23524350069538225;-0.819874281635874;-1.3772636600667025;1.496;0.2656329745301333
12:35.8;0.23919844571245924;-0.8161761529312487;-1.2734256876911836;1.496;0.24860843574189648
12:35.8;0.23676689512536475;-0.8017884805439088;-1.154006659505669;1.496;0.2190731265452295
12:35.8;0.22900017286502217;-0.777597596847932;-1.024497487627522;1.3869999999999998;0.18243225132986626
12:35.9;0.21741639535858368;-0.7448625848443174;-0.8903871707953804;1.128;0.1441940515339649
12:35.9;0.20385410153028202;-0.7052603811052435;-0.7567861899689742;1.057;0.10880331803519683
12:35.9;0.19024955003952596;-0.6608582637186148;-0.6281087940216484;0.825;0.0789708544855411
12:35.9;0.1783624243836139;-0.614003608104166;-0.5078602311231437;0.715;0.05561840062524049
12:35.9;0.1695009146797127;-0.567148597189842;-0.39855418190049935;0.746;0.03831389270984253
12:35.9;0.16432104252526678;-0.5226478179619416;-0.3017435015182622;0.505;0.025914345753548843
12:35.9;0.1627721296238167;-0.48256724065350887;-0.21812621162504992;0.42;0.01713348617714171
12:35.9;0.16420941705158199;-0.4485346852693661;-0.14771166969621144;0.42;0.01087949907053585
12:35.9;0.16761953651993103;-0.42165890149839474;-0.0900674161819191;0.42;0.006365809126563463
12:35.9;0.17186982425707212;-0.40253757917190924;-0.04465828514399872;0.5670000000000001;0.00308964161238953
12:35.9;0.17592001074359323;-0.39134718907848565;-0.01123606736046729;0.652;0.0007735560654670486
12:36.0;0.17897501292279624;-0.38797062151647094;0.009811744114796205;0.5329999999999999;0.000681298537246914
12:36.0;0.18056694047947486;-0.3921068373470828;0.01725378384817091;0.578;0.0012215943285717981
12:36.0;0.18054685211352095;-0.4033324192218662;0.009010710913105584;0.526;0.0006561635607747597
12:36.0;0.17898259878104208;-0.4211160362857459;-0.017627432163332544;0.42700000000000005;0.0013286226182603372
12:36.0;0.17600358544844033;-0.444795903008443;-0.06558266664913112;0.45299999999999996;0.005134183243129797
12:36.0;0.17166265500270034;-0.47352987228672955;-0.137434759379055;0.47200000000000003;0.011171713586095255
12:36.0;0.16586909063644406;-0.5062322566710152;-0.23483148418590813;0.47200000000000003;0.019718396771494128
12:36.0;0.15840782965978267;-0.5415160424048383;-0.35795552724534985;0.47200000000000003;0.03070556150934513
12:36.0;0.14903208689647132;-0.5776629944829786;-0.505115384566554;0.5379999999999999;0.0434855458977261
12:36.0;0.13760165103929142;-0.6126489791850658;-0.6725217276540136;0.763;0.05669459785075231
12:36.1;0.124220730855213;-0.6442474099458182;-0.8543038749185855;0.963;0.06836898580489556
12:36.1;0.10930915709211553;-0.6702103506727876;-1.042791398751465;1.189;0.07639503187795679
12:36.1;0.09354591489871714;-0.6884957732576732;-1.2290460857976722;1.4809999999999999;0.07915790165969652
12:36.1;0.07767253704065333;-0.6974918914796009;-1.4035890970060665;1.829;0.07604079348008662
12:36.1;0.06221541296097868;-0.6961845551651348;-1.5572281813915878;1.999;0.06744886205606662
12:36.1;0.04723198371012768;-0.6842118668373302;-1.681866818018819;2.106;0.05435235806540848
12:36.1;0.03217346222103147;-0.6617763382034679;-1.7711845012478113;2.106;0.03771141571768128
12:36.1;0.01590428447586048;-0.6294563872615323;-1.8211049030216866;2.106;0.018231178518846886
12:36.1;-0.003127786938532481;-0.5880148652669056;-1.8300074752788338;2.065;0.0033657226923202287
12:36.1;-0.026597747028875327;-0.5382806815853936;-1.7986854004506045;1.9069999999999998;0.025751874926862553
12:36.2;-0.055926999671330725;-0.48111746135840544;-1.7300944172791284;1.787;0.04655243958743855
12:36.2;-0.09189228264547869;-0.41745423282276584;-1.628960653085872;1.692;0.06248827023484759
12:36.2;-0.13431293666577587;-0.34834342747171987;-1.5013178468615678;1.57;0.07024220120687272
12:36.2;-0.18190624179799558;-0.27501464943996107;-1.3540224348396732;1.462;0.06773751965101014
12:36.2;-0.2323592596552167;-0.19890363999439062;-1.194259052490066;1.25;0.055195193078492785
12:36.2;-0.28260469773326696;-0.12164965337005117;-1.0290315439339799;0.7240000000000001;0.035376832103526795
12:36.2;-0.32923367641029727;-0.045067413927571784;-0.8646687758645974;0.7240000000000001;0.012829704865442541
12:36.2;-0.36895086542156175;0.02889072882260083;-0.7064378650281326;0.7240000000000001;0.007530104454559135
12:36.2;-0.39899123538209547;0.09817271665793639;-0.5583639194490593;0.695;0.021871144597382288
12:36.2;-0.41745805990018925;0.1606750317636198;-0.4232779276768411;0.679;0.028391403838682366
12:36.3;-0.4235677432558825;0.2143169922959658;-0.3030388067351912;0.727;0.02750918551344035
12:36.3;-0.41778523703991555;0.2571378103520668;-0.1988586620326593;0.6729999999999999;0.021363064119910465
12:36.3;-0.4018334367552123;0.287399164804722;-0.11166188810056762;0.58;0.012895451149079739
12:36.3;-0.37858164869465105;0.3036851937351478;-0.04239989170005324;0.515;0.004874700341118412
12:36.3;-0.351846219724211;0.30500488378921814;0.007749386327628127;0.534;0.0008316239628923266
12:36.3;-0.3261432760718364;0.2908978666891815;0.037331620480906214;0.525;0.0035418144686369265
12:36.3;-0.30641281631940653;0.2615299046627881;0.04471313702266283;0.525;0.003583137074338474
12:36.3;-0.2977040457894583;0.21775682437662697;0.028308781272896395;0.525;0.001835175843857202
12:36.3;-0.30479633668082295;0.1611369750121086;-0.013074735184119012;0.48;0.0006421520167578207
12:36.3;-0.33173788166031115;0.09387506144169867;-0.07981073631608351;0.278;0.0024854590884997745
12:36.4;-0.38131483594910387;0.018693858189115543;-0.1710091611906745;0.195;0.00121899527835308
12:36.4;-0.4545128911970716;-0.061335371131043266;-0.2841555726489951;0.156;0.007921608600038797
12:36.4;-0.5500840357298876;-0.14294409389401672;-0.4149215677944736;0.17800000000000002;0.03262580735852067
12:36.4;-0.6643533804318144;-0.222758686479769;-0.5571989020425154;0.968;0.0824601365255601
12:36.4;-0.7913663481446194;-0.29736498645135934;-0.7033462765406595;0.941;0.16551471170948923
12:36.4;-0.9233844027295364;-0.36344646942179193;-0.8445630814981689;1.52;0.283436046722838
12:36.4;-1.0516267438346265;-0.4180748073631178;-0.9713025040605956;1.52;0.42704154607091477
12:36.4;-1.1670873528411996;-0.4591045667753565;-1.0737424385636414;1.52;0.5753274480798672
12:36.4;-1.2612779639296134;-0.4855228244560925;-1.1424324907563088;1.909;0.6996019398366919
12:36.4;-1.3268372899882654;-0.49762880596778764;-1.1692088046147109;2.156;0.771996369386081
12:36.5;-1.3580187591508661;-0.4969991782962753;-1.1483260772376684;2.396;0.7750445507873861
12:36.5;-1.3510742170983012;-0.4862460644869401;-1.0775972118547945;2.555;0.7079323600305856
12:36.5;-1.304522111589253;-0.4686121645350211;-0.959245460656564;2.436;0.5864010720135974
12:36.5;-1.219264433442155;-0.4474930788603803;-0.8001902664293827;2.084;0.43659372793506396
12:36.5;-1.0985091883649285;-0.42599867626303956;-0.611594408056796;1.62;0.2862038353758893
12:36.5;-0.9474786198071786;-0.40663163550115083;-0.40767598898181573;0.7829999999999999;0.1570672772820235
12:36.5;-0.7729495472342327;-0.3910966703730164;-0.20399972669270863;0.7829999999999999;0.06166870821484034
12:36.5;-0.5827435831483854;-0.38020975274166063;-0.015621819297543272;0.7829999999999999;0.0034612451692639314
12:36.5;-0.38528095715005006;-0.3738705393905991;0.14454904449098624;0.84;0.020821595917502985
12:36.5;-0.18922533988432416;-0.3710790685217542;0.2669775379664714;1.013;0.018746512055700253
12:36.6;-0.0031774182731101404;-0.3700032870397783;0.346248334350014;0.955;0.0004070686566227102
12:36.6;0.16462583413677312;-0.368116464374842;0.3812856373577534;0.8440000000000001;0.023106473929363863
12:36.6;0.3066302238390305;-0.3624059618636453;0.37501794864594956;0.754;0.041673727489050585
12:36.6;0.4163173777666194;-0.3496256427192721;0.333548370810189;0.741;0.048549710088521505
12:36.6;0.48858198635264655;-0.32656148121332235;0.26499975461191905;0.741;0.04228125599455577
12:36.6;0.5200765592736385;-0.2903040391714271;0.17828296182792158;0.721;0.026917219667700353
12:36.6;0.509449388437219;-0.23853745613170285;0.0820374323751131;0.721;0.009969415299524595
12:36.6;0.4574384799479777;-0.16984575366887725;-0.016099692550124722;0.721;0.0012508492454754475
12:36.6;0.36682642614184935;-0.08401623216057147;-0.109861460516282;0.53;0.0033858614597626984
12:36.6;0.24227035822149348;0.01769763343965055;-0.19440732536354555;0.311;0.0008335431797746137
12:36.7;0.0900249416166004;0.13239843196740378;-0.2661653408501885;0.20600000000000002;0.003172467578957791
12:36.7;-0.08240631846879945;0.25549837610967646;-0.3225745212668856;0.257;0.006791703498828975
12:36.7;-0.26665614011589167;0.3808564062941774;-0.36182605570224724;0.266;0.036746221742499245
12:36.7;-0.45391774041461047;0.5011570787403357;-0.38266645004030914;0.40299999999999997;0.08705052869203078
12:36.7;-0.6354547683011802;0.6085715113894348;-0.3843013995941582;0.902;0.14861690995685284
12:36.7;-0.8032317726075638;0.6956735620189435;-0.36643560821889837;1.994;0.20475949392289336
12:36.7;-0.9506053428729027;0.7564698314650131;-0.32945902241309355;1.994;0.23691538767001658
12:36.7;-1.0729016882832803;0.787300278309479;-0.2747177193995232;1.994;0.23205290315361882
12:36.7;-1.1676956666555298;0.7873690449358677;-0.20474081495558935;1.819;0.18824022482175617
12:36.7;-1.2347316370480685;0.7587812981393436;-0.12328323707432316;1.744;0.11550298909632882
12:36.9;-1.275577580205064;0.7060974566173011;-0.0350799302921666;1.324;0.03159586476074098
12:36.9;-1.2931669941263215;0.6355226994360503;0.054692664836609096;1.324;0.0449484544388822
12:36.9;-1.2913478317683236;0.5539469165590747;0.14109208475808319;1.324;0.10092855083593147
12:36.9;-1.274488026921045;0.468084913636718;0.21998357314547864;1.324;0.13123529621682095
12:36.9;-1.247142576078058;0.3838730235947525;0.2883596840846532;1.324;0.13805058149970714
12:36.9;-1.213775186722891;0.30613627306992186;0.34439773764047943;1.179;0.12797152212665244
12:36.9;-1.1785300603605855;0.23846745392854293;0.387323173120553;1.179;0.10885371624892662
12:36.9;-1.1450577002187934;0.1832574895551685;0.4171606829695589;1.179;0.08753716438583996
12:36.9;-1.1164017104292996;0.14182906854413754;0.43444805361259176;1.179;0.06878972919380369
12:36.9;-1.0949419009462793;0.11462785318385302;0.43997025419318614;1.179;0.05522103594408456
12:36.9;-1.0823734471332922;0.10142485630135346;0.4345499590654702;1.179;0.04770470823197614
12:36.9;-1.0796968300198786;0.10148989545452188;0.41891347224141207;1.179;0.045903833843861985
12:36.9;-1.0871981584102732;0.11370850169697504;0.3936382309996909;1.179;0.048663004201546345
12:36.9;-1.1044079289792372;0.13662841242728396;0.3591769527948651;1.179;0.054197468247972454
12:36.9;-1.1300357290819774;0.16843487835729876;0.3159430696282127;1.179;0.060135792078587234
12:36.9;-1.1618902083104037;0.20686626105875963;0.264433709411548;1.025;0.06355819776128933
12:36.9;-1.1968145421750271;0.2490935809470484;0.20536579965083598;0.9309999999999999;0.06122340986845358
12:36.9;-1.2306996054207722;0.29160177050929764;0.13981218330350287;0.958;0.050174983183131475
12:36.9;-1.25865734370319;0.33012729134385177;0.06933128145698893;1.258;0.028808335756280737
12:36.9;-1.2754070384844531;0.35972440195320976;-0.00395598741069275;1.7530000000000001;0.001814987379247995
12:37.0;-1.275840550568703;0.37504433865097286;-0.07747235908873941;1.527;0.03707027401527984
12:37.0;-1.2556488013639533;0.3708944950980373;-0.14859915688311034;1.6340000000000001;0.06920459306017918
12:37.0;-1.2118948246228185;0.34306118556972337;-0.21530689308474946;1.959;0.08951471824466936
12:37.0;-1.143500944312559;0.2892380668723554;-0.2766359095375115;1.9269999999999998;0.09149566798323885
12:37.0;-1.0516499933650416;0.2097862670999495;-0.33267199792392793;2.22;0.07339467050815797
12:37.0;-0.9399958597379859;0.10803878457436134;-0.3840226503214403;2.359;0.03899980818962817
12:58.1;-0.8144529909552574;-0.0100373697829752;-0.431181998540727;0.948;0.003524898109353907
12:58.1;-0.6824228967222423;-0.13679366029359452;-0.4742002051603476;0.948;0.04426712305884756
12:58.1;-0.5516425512305171;-0.2641686537927125;-0.5127476704128685;0.948;0.07472101062789623
12:58.1;-0.4290754127903304;-0.3848495219930644;-0.5463676384527272;0.948;0.09022139720312468
12:58.1;-0.32016083753109514;-0.49304882202570205;-0.5747015357168146;0.948;0.09071946713031419
12:58.1;-0.2284777282035951;-0.5848606460116595;-0.5976140581655878;0.948;0.07985775127311294
12:58.1;-0.15573347389256523;-0.6582872435577893;-0.6152328302811532;0.948;0.06307204508950488
12:58.1;-0.10197085111568721;-0.7130424792004121;-0.6279311673077378;0.948;0.04565659165504774
12:58.1;-0.06590158935792582;-0.7502233337341425;-0.6362771833136669;0.948;0.03145812299756524
12:58.1;-0.045293201167482346;-0.7719233552451188;-0.6409673190312812;0.948;0.02241006334063031
12:58.1;-0.03735385608833376;-0.7808441385415393;-0.6427575368397112;0.948;0.018747655895151195
12:58.1;-0.03907723793649371;-0.7799439105750128;-0.6424011297854105;0.948;0.019579136175931926
12:58.1;-0.0475245140435013;-0.7721471265179051;-0.6405984442563389;0.948;0.0235073473137581
12:58.1;-0.06003317052687683;-0.7601262759731569;-0.637960886294818;0.948;0.029111935374168875
12:58.1;-0.07435226744129024;-0.7461571644500103;-0.6349893753270143;0.948;0.0352282434825316
12:58.1;-0.08871065643590176;-0.7320417904561519;-0.6320658832157003;0.948;0.04104630016051411
12:58.1;-0.10182910603400405;-0.719088383088383;-0.629455771807006;0.948;0.04609134950744161
12:58.1;-0.11288946172159378;-0.7081358484267682;-0.6273182166538531;0.948;0.05014849245248692
12:58.1;-0.1214743723378165;-0.6996093595255514;-0.6257219662846443;0.948;0.05317673591533459
12:58.1;-0.12749020531913713;-0.6935946490327421;-0.6246639235513267;0.948;0.055236859561173295
12:58.1;-0.13108399452361547;-0.6899202750445487;-0.62408844504121;0.948;0.05644100221564443
12:58.1;-0.1325630075186843;-0.6882393262012071;-0.6239057471270127;0.948;0.05692208761575816
12:58.1;-0.13232310646762924;-0.6881043747690451;-0.624008311009352;0.948;0.05681727240361001
12:58.1;-0.13078975277613963;-0.6890317167183305;-0.6242846404048572;0.948;0.056259462945882424
12:58.1;-0.12837343857232522;-0.6905528736222698;-0.6246301084296457;0.948;0.05537261392709425
12:58.1;-0.12543961659014516;-0.6922528632640288;-0.6249549148702308;0.948;0.05426854358520192
12:58.1;-0.1222918846198276;-0.6937958281328659;-0.6251893552517647;0.948;0.0530445655621675
12:58.1;-0.11916625699261466;-0.6949392490793115;-0.6252866836917277;0.948;0.051782059443966244
12:58.1;-0.11623378794514032;-0.6955382098728281;-0.6252238454238465;0.948;0.05054624728873544
12:58.1;-0.11360854596084319;-0.6955410886010099;-0.6250002805709644;0.948;0.04938715450304177
12:58.1;-0.11135791230889971;-0.6949777205134793;-0.6246348798041592;0.948;0.04834128542103735
12:58.1;-0.10951248727765792;-0.6939408802524812;-0.6241611221181087;0.93;0.0474332442020124
12:58.1;-0.1080739518658789;-0.6925628104048512;-0.6236207505512332;0.93;0.04667676583485501
12:58.1;-0.10702100368624753;-0.6909905553592193;-0.623057061619092;0.93;0.0460753829625396
12:58.1;-0.1063146622684063;-0.68936483154317;-0.6225092545331951;0.93;0.045623447566091525
12:58.1;-0.10590384318739549;-0.6878054114753577;-0.6220087467627643;0.93;0.04530788619089881
12:58.1;-0.10573105589577719;-0.6864032419260572;-0.6215774837432825;0.93;0.04511045103956419
12:58.1;-0.1057376318576873;-0.6852180270920313;-0.6212278074719739;0.93;0.04501002426613691
12:58.1;-0.10586802535046025;-0.6842797697183146;-0.6209633949179096;0.93;0.04498466731786093
12:58.1;-0.10607296872110665;-0.6835928990498156;-0.6207808400599659;0.93;0.04501327076466165
12:58.1;-0.1063114472497316;-0.6831418116747268;-0.620671529351194;0.93;0.04507676305186383
12:58.1;-0.10655158840173137;-0.6828968817189572;-0.620623541240871;0.93;0.045158894623664105
12:58.1;-0.10677064161831906;-0.6828202357428144;-0.6206233791471127;0.93;0.04524664345488863
12:58.1;-0.10695426543156379;-0.6828708152393382;-0.620657418735289;0.93;0.04533030198524916
12:58.1;-0.10709534715083627;-0.6830084515355698;-0.6207130110657616;0.93;0.045403311518815714
12:58.1;-0.10719256534524534;-0.6831968453193107;-0.620779231332378;0.93;0.045461911874268804
12:58.1;-0.1072488749802182;-0.6834054720200142;-0.6208472981399984;0.93;0.045504672444705886
12:58.1;-0.10727005645860233;-0.6836105249567774;-0.6209107112886907;0.93;0.04553196587135227
12:58.1;-0.10726342875269206;-0.6837950636415635;-0.6209651683407501;0.93;0.04554543734915986
12:58.1;-0.10723678765461205;-0.683948560007517;-0.6210083237989708;0.93;0.045547511778570804
12:58.1;-0.10719759589005665;-0.6840660368103378;-0.6210394516584076;0.93;0.04554096867112802
12:58.1;-0.10715242415303788;-0.6841469765062986;-0.6210590645098376;0.93;0.04552860225447605
12:58.1;-0.10710662169437998;-0.6841941517102337;-0.6210685321737597;0.93;0.04551297286712299
12:58.1;-0.10706418178397553;-0.6842124953097525;-0.6210697316304146;0.93;0.04549624642278549
12:58.1;-0.10702776043646539;-0.6842080938981243;-0.6210647490328755;0.93;0.045480111960422995
12:58.1;-0.1069988051543143;-0.6841873557354023;-0.6210556447344681;0.93;0.045465763156949945
12:58.1;-0.1069777528470701;-0.6841563762252885;-0.6210442840786236;0.93;0.045453927911053335
12:58.1;-0.10696426126367083;-0.6841205011965003;-0.6210322304462795;0.93;0.04544493024947976
12:58.1;-0.10695744505840665;-0.6840840715723479;-0.6210206927557068;0.93;0.045438770319989004
12:58.1;-0.10695609500620515;-0.6840503221314973;-0.6210105171114847;0.93;0.04543521058897597
12:58.1;-0.10695886610699086;-0.6840214013845475;-0.6210022113389846;0.93;0.04543385910051097
12:58.1;-0.10696442681187321;-0.6839984782154955;-0.6209959913933036;0.93;0.045434243422204486
12:58.1;-0.10697156701627011;-0.683981902838348;-0.6209918397555145;0.93;0.04543587145206375
12:58.1;-0.106979266631168;-0.6839713937656765;-0.6209895675993863;0.93;0.04543827743452496
12:58.1;-0.10698672944668691;-0.6839662279300148;-0.6209888744429017;0.93;0.045441053256187185
12:58.1;-0.10699338873533892;-0.6839654170342689;-0.620989400958276;0.93;0.04544386634491955
12:58.1;-0.10699889177184488;-0.6839678589990461;-0.6209907724271719;0.93;0.045446466304734
12:58.1;-0.10700307037702554;-0.6839724585675342;-0.6209926318767517;0.93;0.04544868283558608
12:58.1;-0.1070059039409694;-0.6839782154364119;-0.6209946631508518;0.93;0.045450417580388786
12:58.1;-0.10700748035090113;-0.683984281566743;-0.6209966050357907;0.93;0.04545163238571794
12:58.1;-0.10700795902248952;-0.683989991574803;-0.6209982580825693;0.93;0.0454523361318622
12:58.1;-0.1070075389570134;-0.6839948713823195;-0.620999485981077;0.93;0.04545257184988175
12:58.1;-0.10700643353182031;-0.6839986307523451;-0.6210002132973688;0.93;0.04545240535655594
12:58.1;-0.1070048526537094;-0.684001145119096;-0.6210004211404141;0.93;0.045451916149653694
12:58.1;-0.10700299200913982;-0.6840024314185884;-0.6210001419409166;0.93;0.0454511908514581
12:58.1;-0.10700102845144348;-0.6840026216192967;-0.6209994540617266;0.93;0.04545031909289315
12:58.1;-0.106999120075245;-0.6840019365009867;-0.6209984764733917;0.93;0.04544939141000014
12:58.1;-0.10699740923225327;-0.6840006610763358;-0.6209973632711302;0.93;0.04544849848817801
12:58.1;-0.10699602662495673;-0.6839991220101456;-0.6209962974273575;0.93;0.04544773094222175
12:58.1;-0.1069950946587798;-0.6839976665556418;-0.6209954829076623;0.93;0.04544717876370259
12:58.1;-0.10699472842386426;-0.6839966419628047;-0.6209951341626864;0.93;0.04544692960212178
12:58.1;-0.10699503300252852;-0.6839963740629991;-0.6209954620716223;0.93;0.045447065172110036
12:58.1;-0.10699609624751256;-0.6839971438184872;-0.6209966556742328;0.93;0.04544765529414717
12:58.1;-0.10699797673925;-0.6839991610441082;-0.620998859495378;0.93;0.04544874937705121
12:58.1;-0.10700068729417926;-0.6840025352383755;-0.6210021469322942;0.93;0.0454503655291636
12:58.1;-0.10700417513958406;-0.684007244455159;-0.6210064910150231;0.93;0.04545247792806166
12:58.1;-0.10700830066083063;-0.6840131043310828;-0.6210117348166523;0.93;0.04545500356377631
12:58.1;-0.10701281741553373;-0.6840197406551819;-0.6210175648087068;0.93;0.045457789965452654
12:58.1;-0.10701735682893729;-0.6840265700937697;-0.6210234914266813;0.93;0.0454606059817204
12:58.1;-0.10702142154899488;-0.6840327947036964;-0.6210288419024066;0.93;0.04546313805375671
12:58.1;-0.10702439174400431;-0.6840374164958014;-0.6210327708811281;0.93;0.04546499462863074
12:58.1;-0.10702554855341473;-0.6840392783466422;-0.6210342943033414;0.93;0.04546572133215762
12:58.1;-0.10702411833327012;-0.6840371367989228;-0.6210323513229703;0.93;0.045464829175711804
12:58.1;-0.10701934016082573;-0.6840297705571258;-0.6210258974975008;0.93;0.045461837336980476
12:58.1;-0.10701055719365592;-0.6840161256377579;-0.6210140300030312;0.93;0.045456330875162675
12:58.1;-0.10699732987898472;-0.6839954941126107;-0.6209961421434901;0.93;0.04544803209359267
12:58.1;-0.10697956570944984;-0.683967718237934;-0.6209720999787081;0.93;0.045436882171964676
12:58.1;-0.10695765634314344;-0.6839334056859316;-0.620942428655034;0.93;0.0454231272435915
12:58.1;-0.10693260867989653;-0.6838941349552405;-0.620908490299715;0.93;0.045407400451316166
12:58.1;-0.10690615226779615;-0.6838526233970502;-0.6208726296202204;0.93;0.045390788917332586
12:58.1;-0.10688080168763356;-0.6838128244179006;-0.6208382582905015;0.93;0.04537487231783451
12:58.1;-0.10685984993133005;-0.6837799162603546;-0.6208098456280303;0.93;0.04536171822917194
12:58.1;-0.10684726794887267;-0.6837601434148511;-0.6207927819140201;0.93;0.0453538190032256
12:58.1;-0.10684748722760612;-0.6837604743465056;-0.6207930829912625;0.93;0.045353956028080435
12:58.1;-0.10686504720353861;-0.6837880469557557;-0.6208169114620022;0.93;0.045364980192892077
12:58.1;-0.10690409808389155;-0.6838493869710837;-0.6208699017136943;0.93;0.04538950249974572
12:58.1;-0.10696776264798846;-0.6839494048688104;-0.6209562936186471;0.93;0.04542949626925549
12:58.1;-0.10705737779170062;-0.6840902039321296;-0.6210779030874184;0.93;0.04548582239599164
12:58.1;-0.10717165749219607;-0.6842697649179414;-0.6212329860311675;0.93;0.045557701622571445
12:58.1;-0.10730584236947532;-0.6844806097268402;-0.6214150841778211;0.93;0.04564217260569333
12:58.1;-0.10745092524970233;-0.6847085845461143;-0.6216119740671504;0.93;0.04573359105665653
12:58.1;-0.10759306443708237;-0.6849319379840437;-0.6218048708164066;0.93;0.04582324222252427
12:58.1;-0.1077133133285879;-0.6851208963180578;-0.6219680612220658;0.93;0.045899154208295635
12:58.1;-0.10778780241296942;-0.6852379496233685;-0.6220691508171785;0.93;0.04594620957135897
12:58.1;-0.10778850293887639;-0.6852390519353754;-0.6220701003358401;0.93;0.04594665222571961
12:58.1;-0.10768467580043688;-0.685075898159921;-0.6219291921100366;0.93;0.04588106981493149
12:58.1;-0.10744505993444224;-0.6846993630492088;-0.6216040000808356;0.93;0.04572989212069904
12:58.1;-0.10704077805904953;-0.6840640674055969;-0.6210553333345146;0.93;0.0454753794196847
12:58.1;-0.10644883171718363;-0.6831338703152029;-0.6202519793991633;0.93;0.04510398112906166
12:58.1;-0.10565592231475153;-0.6818878736423303;-0.6191758899533328;0.93;0.04460883175311044
12:58.1;-0.10466217299368877;-0.6803262706803062;-0.6178272319452196;0.93;0.04399203331532657
12:58.1;-0.10348414390863873;-0.6784750844280723;-0.6162284797531333;0.93;0.043266272464006654
12:58.1;-0.10215634047408063;-0.6763885376726461;-0.614426462086842;0.93;0.042455257348722346
12:58.1;-0.10073022340433072;-0.6741474973157546;-0.612491018461943;0.93;0.04159244474784649
12:58.1;-0.09926977731973073;-0.6718525107336029;-0.6105089851554284;0.9;0.04071768255701313
12:58.1;-0.0978436606121933;-0.6696114698320297;-0.6085735414415926;0.9;0.039872057187721854
12:58.1;-0.09651585785774076;-0.6675249219641837;-0.6067715235710558;0.9;0.03909231148267587
12:58.1;-0.09533782968304813;-0.6656737339933952;-0.6051727710102539;0.9;0.038406617611174594
12:58.1;-0.09434408137395935;-0.6641121286678087;-0.6038241124040599;0.9;0.03783262917402449
12:58.1;-0.09355117291976754;-0.6628661289678796;-0.6027480220604402;0.9;0.03737755239203858
12:58.1;-0.09295922726739661;-0.6619359282139358;-0.6019446668648984;0.9;0.03703949272045026
12:58.1;-0.09255494560880696;-0.6613006283697096;-0.6013959984561964;0.9;0.03680943059399697
12:58.1;-0.0923153292692535;-0.6609240887189223;-0.6010708043619962;0.9;0.036673388364734515
12:58.1;-0.09221150076573403;-0.6607609303806438;-0.6009298937238717;0.9;0.03661451242132356
12:58.1;-0.0922121988757061;-0.6607620285549272;-0.6009308406085002;0.9;0.03661490816773329
12:58.1;-0.09228668440555854;-0.6608790787253811;-0.601031927554566;0.9;0.036657140992483295
12:58.1;-0.09240692862052534;-0.6610680356163486;-0.6011951155885733;0.9;0.036725366413099224
12:58.1;-0.09254906216345354;-0.6612913900631555;-0.6013880106176535;0.9;0.036806087664465845
12:58.1;-0.0926941387529989;-0.6615193691105913;-0.6015848998788865;0.9;0.036888565338134886
12:58.1;-0.09282831720499587;-0.6617302220528045;-0.6017669989682696;0.9;0.036964923755058395
12:58.1;-0.092942591056372;-0.6619097955694936;-0.6019220848994442;0.9;0.03703001278367302
12:58.1;-0.09303220182707758;-0.662050611729778;-0.6020436998113947;0.9;0.0370810912902966
12:58.1;-0.09309586454837686;-0.6621506509948807;-0.6021300998919702;0.9;0.03711739917505509
12:58.1;-0.09313491725901768;-0.6622120157506656;-0.6021831011121934;0.9;0.03713967967182675
12:58.1;-0.09315248387065722;-0.6622396148569134;-0.6022069431021483;0.9;0.037149703722841196
12:58.1;-0.09315271557801158;-0.662239971629575;-0.6022072596215918;0.9;0.037149835668823385
12:58.1;-0.09314015249315831;-0.66222022074832;-0.6021902121913769;0.9;0.03714266614477942
12:58.1;-0.09311922627662991;-0.6621873267264872;-0.602161815078724;0.9;0.03713072555350718
12:58.1;-0.09309390734542702;-0.6621475295621146;-0.6021274564971185;0.9;0.037116280921914824
12:58.1;-0.09306748725636628;-0.6621060027875144;-0.6020916032639368;0.9;0.03710121091279858
12:58.1;-0.09304247808978346;-0.6620666953472268;-0.6020576642523797;0.9;0.03708694838622835
12:58.1;-0.09302060572829547;-0.6620323209864756;-0.6020279812831544;0.9;0.037074476962439894
12:58.1;-0.09300287223993811;-0.6620044561847878;-0.6020039138137522;0.9;0.037064367115137074
12:58.1;-0.09298966341784258;-0.6619837089962959;-0.6019859849263718;0.9;0.03705683792228264
12:58.1;-0.0929808801579;-0.6619699252939336;-0.601974059682763;0.9;0.03705183222702041
12:58.1;-0.09297607607501401;-0.6619624047647864;-0.6019675319601304;0.9;0.037049095176699534
12:58.1;-0.09297458796368706;-0.6619601056192845;-0.6019655015872042;0.9;0.03704824855618462
12:58.1;-0.09297564991544464;-0.661961823596312;-0.6019669293063514;0.9;0.03704885574253415
12:58.1;-0.09297848575848026;-0.6619663369105386;-0.6019707623138514;0.9;0.037050474293218484
12:58.1;-0.09298237775319035;-0.6619725139340227;-0.6019760275632824;0.9;0.03705269502229968
12:58.1;-0.09298671204139049;-0.6619793844423967;-0.6019818934944026;0.9;0.03705516786074848
12:58.1;-0.0929910031790875;-0.6619861781415728;-0.6019877033344859;0.9;0.03705761582777076
12:58.1;-0.09299490122449361;-0.6619923359878951;-0.601992984667936;0.9;0.03705983908447834
12:58.1;-0.09299818539383048;-0.6619975006616557;-0.6019974407048314;0.9;0.03706171134876754
12:58.1;-0.09300074835400673;-0.6620014926324159;-0.6020009287586153;0.9;0.03706317098476502
12:58.1;-0.09300257492019523;-0.6620042777622764;-0.6020034310398352;0.9;0.037064208911537715
12:58.1;-0.09300371839102851;-0.6620059315229332;-0.6020050221543329;0.9;0.03706485517267329
12:58.1;-0.09300427709485064;-0.6620066038270646;-0.6020058368103233;0.9;0.0370651656329897
12:58.1;-0.0930043730283983;-0.662006487338469;-0.6020060403128976;0.9;0.03706520987301391
12:58.1;-0.09300413381365152;-0.6620057910393865;-0.6020058035499845;0.9;0.03706506097586006
12:58.1;-0.0930036786263522;-0.6620047198752289;-0.6020052834133544;0.9;0.03706478757208751
12:58.1;-0.09300310828715372;-0.662003460513532;-0.6020046089860555;0.9;0.03706444824161821
12:58.1;-0.09300249936214453;-0.6620021726662337;-0.6020038733733387;0.9;0.03706408817325451
12:58.1;-0.0930019018881362;-0.6620009850328585;-0.6020031307478291;0.9;0.037063737849094426
12:58.1;-0.09300134020407388;-0.6619999947124907;-0.6020023979975417;0.9;0.03706341344470059
12:58.1;-0.09300081631142841;-0.6619992688808025;-0.6020016602748938;0.9;0.037063118604165446
12:58.1;-0.09300031517900534;-0.6619988476061313;-0.6020008797102657;0.9;0.037062847248587626
12:58.1;-0.09299981142720767;-0.6619987468554938;-0.6020000065401961;0.9;0.03706258709346258
12:58.1;-0.09299927685232627;-0.6619989609881429;-0.6019989918782795;0.9;0.03706232357318914
12:58.1;-0.09299868826674414;-0.6619994643236116;-0.6019978013048544;0.9;0.037062043890014135
12:58.1;-0.09299803512621486;-0.6620002116784766;-0.6019964283588243;0.9;0.03706174091433532
12:58.1;-0.0929973263879942;-0.6620011380688278;-0.6019949068829478;0.9;0.03706141666116964
12:58.1;-0.09299659599847034;-0.6620021580526834;-0.6019933210171693;0.9;0.037061085055462996
12:58.1;-0.0929959063582343;-0.6620031654180566;-0.6019918114804057;0.9;0.03706077368218653
12:58.1;-0.09299534907491236;-0.6620040340878298;-0.6019905766685468;0.9;0.03706052420453094
12:58.1;-0.09299504231325452;-0.6620046211916424;-0.601989867073264;0.9;0.03706039113622477
12:58.1;-0.09299512411463036;-0.662004773227608;-0.601989971645777;0.9;0.037060438684831366
12:58.1;-0.09299574121116709;-0.6620043360844108;-0.601991195045242;0.9;0.037060735454773015
12:58.1;-0.09299703312708145;-0.6620031694025296;-0.6019938252694783;0.9;0.03706134692329462
12:58.1;-0.09299911175802529;-0.6620011653141393;-0.6019980919984086;0.9;0.037062325787798736
12:58.1;-0.09300203715376959;-0.6619982710172267;-0.6020041170965835;0.9;0.037063700531777495
12:58.1;-0.09300579088968489;-0.6619945139277286;-0.6020118600968394;0.9;0.03706546286429057
12:58.1;-0.09301024916757311;-0.661990027349663;-0.602021063057895;0.9;0.03706755504052181
12:58.1;-0.09301515858239977;-0.6619850737647064;-0.6020312008420965;0.9;0.03706985844330047
12:58.1;-0.09302011824902888;-0.6619800620507471;-0.602041444431398;0.9;0.03707218516054482
12:58.1;-0.09302457259787618;-0.6619755542986634;-0.6020506461747087;0.9;0.037074274582427444
12:58.1;-0.09302781949446123;-0.6619722575337015;-0.6020573565781026;0.9;0.03707579720524821
12:58.1;-0.0930290382743009;-0.6619709957023374;-0.602059882120817;0.9;0.037076367799801224
12:58.1;-0.09302734166676424;-0.6619726579007583;-0.6020563923064176;0.9;0.03707556981160573
12:58.1;-0.09302185427629786;-0.6619781201286861;-0.602045081465849;0.9;0.03707299224526373
12:58.1;-0.09301181819492951;-0.6619881399525683;-0.6020243865075986;0.9;0.037068279296938476
12:58.1;-0.09299672338860217;-0.6620032264013288;-0.6019932557621336;0.9;0.03706119161551693
12:58.1;-0.09297645676367898;-0.6620234911627098;-0.6019514563594663;0.9;0.03705167631136733
12:58.1;-0.092951459415659;-0.6620484915610295;-0.6018998984925084;0.9;0.037039940759753656
12:58.1;-0.09292287675350713;-0.6620770806134841;-0.6018409449989522;0.9;0.037026522993040004
12:58.1;-0.09289268138635927;-0.6621072842751878;-0.6017786647789634;0.9;0.03701234923777633
12:58.1;-0.0928637444083164;-0.6621362302391518;-0.6017189797968148;0.9;0.03699876719173193
12:58.1;-0.09283982771173474;-0.6621601556661787;-0.6016696492152039;0.9;0.03698754227140199
12:58.1;-0.0928254689959215;-0.6621745221852325;-0.6016400322232025;0.9;0.036980803651398865
12:58.1;-0.09282573306420128;-0.6621742645796825;-0.6016405750910352;0.9;0.03698092783542912
12:58.1;-0.09284580863697778;-0.6621541939401042;-0.6016819796063861;0.9;0.03699035009581302
12:58.1;-0.0928904399352459;-0.6621095660367466;-0.6017740307274693;0.9;0.037011298687647715
12:58.1;-0.09296319712539862;-0.6620368108271998;-0.6019240918884816;0.9;0.03704545347745017
12:58.1;-0.09306560936492635;-0.6619343993646328;-0.6021353169189946;0.9;0.03709353957093536
12:58.1;-0.0931962080822534;-0.6618038004768736;-0.6024046768198867;0.9;0.03715487752564681
12:58.1;-0.09334955497673224;-0.6616504527324608;-0.6027209550226443;0.9;0.037226924363246844
12:58.1;-0.09351535691170068;-0.6614846495217386;-0.6030629218633801;0.9;0.03730485305611058
12:58.1;-0.09367779535948162;-0.6613222095941376;-0.6033979515680015;0.9;0.037381231169887855
12:58.1;-0.09381521740221532;-0.6611847860470841;-0.6036813849442344;0.9;0.03744587001016331
12:58.1;-0.09390034375773075;-0.6610996582962068;-0.603856958436051;0.9;0.03748592138340277
12:58.1;-0.09390114157840235;-0.6610988592775362;-0.6038586042710111;0.9;0.03748629674449491
12:58.1;-0.09378248035877389;-0.6612175195444958;-0.6036138657684589;0.9;0.03743046947716333
12:58.1;-0.09350863299834968;-0.6614913662119424;-0.6030490557796431;0.9;0.03730169184977245
12:58.1;-0.09304659667943375;-0.661953402086203;-0.6020961059960886;0.9;0.037084611166788205
12:58.1;-0.09237008723045181;-0.6626299113097237;-0.6007008053217519;0.9;0.03676720394488347
12:58.1;-0.09146390604835321;-0.6635360924460246;-0.5988318066484509;0.9;0.036342864500983244
12:58.1;-0.09032819368292135;-0.6646718049016643;-0.5964893998717864;0.9;0.03581239058799492
12:58.1;-0.08898187587641432;-0.6660181228915335;-0.5937126193465556;0.9;0.03518551271848179
12:58.1;-0.08746438727861816;-0.6675356117273189;-0.5905827990481053;0.9;0.03448152709534734
12:58.1;-0.08583454006398544;-0.6691654592025226;-0.5872212390946201;0.9;0.033728525450567606
12:58.1;-0.08416545947858015;-0.6708345400464729;-0.5837787603124788;0.888;0.032960789385991084
12:58.1;-0.0825356122528786;-0.6724643875114941;-0.5804172003377204;0.888;0.03221446632767238
12:58.1;-0.08101812363857226;-0.6739818763353328;-0.5772873800047289;0.888;0.03152263132399998
12:58.1;-0.07967180582089904;-0.6753281943275623;-0.5745105994470865;0.888;0.030911322630016724
12:58.1;-0.07853609346464231;-0.6764639068220597;-0.572168192661687;0.888;0.030397483797238806
12:58.1;-0.07762991232983826;-0.6773700880597228;-0.5702991940291284;0.888;0.02998871578687818
12:58.1;-0.07695340298491284;-0.6780465974738801;-0.5689038934725009;0.888;0.029684263404252564
12:58.1;-0.07649136684394275;-0.6785086336518406;-0.5679509439095771;0.888;0.02947668397867365
12:58.1;-0.07621751974818483;-0.6787824807525416;-0.5673861342649104;0.888;0.02935378811497205
12:58.1;-0.07609885888541311;-0.6789011415868288;-0.5671413962409836;0.888;0.029300567469964643
12:58.1;-0.07609965715008082;-0.6789003432573875;-0.5671430426858608;0.888;0.02930092543491045
12:58.1;-0.07618478401817551;-0.6788152162844614;-0.5673186168971873;0.888;0.02933910389068337
12:58.1;-0.07632220660755815;-0.6786777935465363;-0.5676020510585522;0.888;0.029400757056885985
12:58.1;-0.07648464558410129;-0.6785153543756063;-0.5679370815451392;0.888;0.02947366642024792
12:58.1;-0.07665044796051759;-0.6783495517600225;-0.5682790490704291;0.888;0.029548122084037717
12:58.1;-0.07680379512417321;-0.6781962043184789;-0.5685953277426323;0.888;0.02961701750036477
12:58.1;-0.07693439384231487;-0.6780656052965097;-0.5688646877620858;0.888;0.02967571746625824
12:58.1;-0.07703680571429929;-0.6779631931156753;-0.5690759124157613;0.888;0.02972176435389248
12:58.1;-0.07710956207491536;-0.6778904364710732;-0.569225972564967;0.888;0.02975448593977249
12:58.1;-0.07715419200760594;-0.6778458063180776;-0.5693180219226867;0.888;0.029774561400863916
12:58.1;-0.0771742656400546;-0.677825732575553;-0.569359423851422;0.888;0.029783591803017654
12:58.1;-0.07717452720726645;-0.677825471060153;-0.5693599633072592;0.888;0.02978370947712866
12:58.1;-0.07716016551398248;-0.6778398330196796;-0.5693303421709313;0.888;0.029777248613147986
12:58.1;-0.07713624553407825;-0.6778637535277783;-0.5692810069248212;0.888;0.029766488397738135
12:58.1;-0.0771073052353314;-0.6778926946516745;-0.5692213171081546;0.888;0.029753470858599397
12:58.1;-0.07707710688113675;-0.6779228941416778;-0.5691590323815933;0.888;0.02973988863825737
12:58.1;-0.07704852203368015;-0.6779514804185006;-0.5691000753514834;0.888;0.029727033251148477
12:58.1;-0.07702352384846141;-0.6779764802693421;-0.5690485156824465;0.888;0.029715791788147542
12:58.1;-0.07700325832440941;-0.6779967475896297;-0.5690067170551937;0.888;0.02970667918276195
12:58.1;-0.07698816713819553;-0.6780118405432086;-0.5689755905152993;0.888;0.029699893636925743
12:58.1;-0.07697813769805092;-0.678021871507277;-0.5689549039598744;0.888;0.02969538421035057
12:58.1;-0.07697266030538748;-0.6780273499154599;-0.5689436062808293;0.888;0.029692921530424705
12:58.1;-0.07697097712164752;-0.6780290333032214;-0.5689401346022779;0.888;0.029692164763867046
12:58.1;-0.07697221244936701;-0.6780277970479717;-0.5689426829736258;0.888;0.029692720160238162
12:58.1;-0.07697547824392667;-0.6780245288881934;-0.5689494199706355;0.888;0.029694188454244964
12:58.1;-0.07697995251185744;-0.6780200505656925;-0.568958650369707;0.888;0.02969620008605729
12:58.1;-0.07698493118572491;-0.6780150659997853;-0.5689689221129379;0.888;0.029698438509455985
12:58.1;-0.07698985616207851;-0.6780101333043675;-0.5689790841062471;0.888;0.02970065279427786
12:58.1;-0.07699432349474601;-0.6780056566513833;-0.5689883030869416;0.888;0.029702661313926647
12:58.1;-0.0769980763522137;-0.6780018933660233;-0.5689960490695039;0.888;0.029704348585582355
12:58.1;-0.07700098740750583;-0.677998971577617;-0.569002059002378;0.888;0.029705657358688263
12:58.1;-0.07700303497608077;-0.6779969141016692;-0.5690062875414601;0.888;0.029706577890183137
12:58.1;-0.0770042765923551;-0.6779956648525054;-0.5690088525576149;0.888;0.029707136065321584
12:58.1;-0.07700482294453609;-0.6779951148568558;-0.5690099814055347;0.888;0.02970738167714767
12:58.1;-0.0770048142751349;-0.6779951257520845;-0.5690099623052843;0.888;0.0297073778128022
12:58.1;-0.07700440058100187;-0.6779955494287911;-0.5690091035911033;0.888;0.029707191947038407
12:58.1;-0.07700372626739513;-0.6779962431609866;-0.5690077021786494;0.888;0.029706889037704368
12:58.1;-0.07700291935807611;-0.6779970801254889;-0.5690060214590498;0.888;0.029706526669340833
12:58.1;-0.07700208495084412;-0.6779979556324318;-0.5690042779729784;0.888;0.02970615210543617
12:58.1;-0.07700130233300224;-0.6779987896728661;-0.5690026356459316;0.888;0.029705800986283767
12:58.1;-0.0770006250206034;-0.6779995265502118;-0.5690012060496186;0.888;0.029705497341767972
12:58.1;-0.07700008293853942;-0.6780001324194171;-0.5690000530522379;0.888;0.029705254567542444
12:58.1;-0.076999685991738;-0.6780005915338048;-0.5689992002837764;0.888;0.029705077028178227
12:58.1;-0.07699942836651225;-0.6780009019177374;-0.5689986400217817;0.888;0.02970496199092807
12:58.1;-0.07699929302270325;-0.6780010710644764;-0.5689983423522926;0.888;0.029704901648503194
12:58.1;-0.07699925597201514;-0.6780011121207765;-0.5689982637402363;0.888;0.029704885049822664
12:58.1;-0.07699929007015537;-0.6780010408767618;-0.5689983544222004;0.888;0.029704899816983356
12:58.1;-0.07699936816858016;-0.6780008737413673;-0.5689985642892491;0.888;0.02970493357953058
12:58.1;-0.07699946556844031;-0.6780006267564088;-0.5689988471437655;0.888;0.029704975100161502
12:58.1;-0.07699956179107087;-0.6780003155895475;-0.5689991633847753;0.888;0.02970501509762287
12:58.1;-0.07699964172554949;-0.6779999563494425;-0.5689994812992892;0.888;0.02970504679255139
12:58.1;-0.07699969623642904;-0.6779995669855821;-0.5689997772156763;0.888;0.029705066211271124
12:58.1;-0.07699972231752569;-0.6779991689708851;-0.569000034814573;0.888;0.0297050722828732
12:58.1;-0.07699972286562914;-0.6779987889180428;-0.5690002439004598;0.888;0.029705066758604154
12:58.1;-0.07699970612688807;-0.6779984597527925;-0.5690003989202781;0.888;0.029705053972355025
12:58.1;-0.07699968484431133;-0.6779982210623875;-0.5690004974813389;0.888;0.029705040449669835
12:58.1;-0.07699967511302576;-0.6779981182602985;-0.569000539075282;0.888;0.029705034362906942
12:58.1;-0.07699969493581793;-0.6779982002644239;-0.5690005241626513;0.888;0.02970504482448164
12:58.1;-0.07699976246938003;-0.6779985154816232;-0.5690004537171046;0.888;0.029705081010589593
12:58.1;-0.07699989396473728;-0.677999106031018;-0.5690003292715458;0.888;0.029705151115999185
12:58.1;-0.0770001014352523;-0.6780000003244969;-0.5690001534518588;0.888;0.029705261157230003
12:58.1;-0.07700039013231005;-0.6780012043534055;-0.5689999309283332;0.888;0.02970541366664583
12:58.1;-0.07700075597016129;-0.6780026922979494;-0.56899966966122;0.888;0.029705606352584756
12:58.1;-0.07700118311302888;-0.6780043973656004;-0.568999382266558;0.888;0.02970583083835307
12:58.1;-0.07700164201260268;-0.6780062040536657;-0.5689990872837396;0.888;0.029706071632188392
12:58.1;-0.07700208825316719;-0.6780079432872558;-0.5689988100906492;0.888;0.029706305516346135
12:58.1;-0.0770024626133072;-0.6780093920668816;-0.5689985831902362;0.888;0.02970650157031282
12:58.1;-0.07700269277418598;-0.6780102793228471;-0.5689984455897751;0.888;0.02970662205392431
12:58.1;-0.07700269708069347;-0.6780102995657612;-0.5689984410172696;0.888;0.029706624363525266
12:58.1;-0.07700239067960425;-0.6780091355940956;-0.5689986147749765;0.888;0.029706464231093
12:58.1;-0.07700169420657162;-0.6780064909280252;-0.5689990091235663;0.888;0.029706100256357917
12:58.1;-0.07700054496365749;-0.6780021317557896;-0.568999657225755;0.888;0.029705499741391996
12:58.1;-0.07699891021981245;-0.6779959369998736;-0.5690005758558336;0.888;0.029704645635238565
12:58.1;-0.07699680188565058;-0.6779879536633443;-0.5690017572972645;0.888;0.029703544196843866
12:58.1;-0.07699429137938678;-0.6779784529708934;-0.5690031610943153;0.888;0.029702232757536244
12:58.1;-0.07699152304415188;-0.6779679810921099;-0.5690047065784374;0.888;0.029700786726028067
12:58.1;-0.07698872404323746;-0.6779573965963289;-0.5690062673309612;0.888;0.029699324753076524
12:58.1;-0.07698620830808815;-0.6779478854612067;-0.5690076689382245;0.888;0.029698010790300072
12:58.1;-0.07698437191499768;-0.6779409437084188;-0.569008691504363;0.888;0.02969705167502741
12:58.1;-0.07698367729960712;-0.6779383178680622;-0.5690090783669441;0.888;0.02969668889127795
12:58.1;-0.07698462406462472;-0.6779418947847282;-0.5690085522665562;0.888;0.029697183337674866
12:58.1;-0.0769877048702885;-0.6779535350543582;-0.5690068398120535;0.888;0.029698792314414826
12:58.1;-0.07699334607599838;-0.6779748488371201;-0.5690037044268597;0.888;0.029701738552639044
12:58.1;-0.07700183445172662;-0.6780069190275474;-0.5689989870438764;0.888;0.029706171964845093
12:58.1;-0.07701323338101537;-0.6780499847100675;-0.5689926526473017;0.888;0.02971212588657098
12:58.1;-0.07702729445644756;-0.6781031071944033;-0.5689848393818794;0.888;0.029719470870623408
12:58.1;-0.07704337307490726;-0.6781638511501205;-0.5689759054462503;0.888;0.029727870512771083
12:58.1;-0.07706035934505535;-0.6782280235790482;-0.5689664674841557;0.888;0.029736745217257457
12:58.1;-0.07707663801176971;-0.6782895224018378;-0.5689574228582369;0.888;0.029745251090937907
12:58.1;-0.07709009279360411;-0.6783403528240066;-0.5689499472517143;0.888;0.029752282079398715
12:58.1;-0.07709817107182133;-0.678370871695875;-0.5689454587420355;0.888;0.02975650377998309
12:58.1;-0.07709802378642777;-0.6783703159885872;-0.5689455400925277;0.888;0.02975642681314925
12:58.1;-0.07708673222520435;-0.6783276595346202;-0.5689518127690679;0.888;0.029750525935376127
12:58.1;-0.07706162775153623;-0.6782328208734814;-0.5689657593223733;0.888;0.029737408008467612
12:58.1;-0.07702070217116273;-0.6780782135149362;-0.5689884954131149;0.888;0.02971602737579782
12:58.1;-0.07696309538527142;-0.6778605881772982;-0.5690204988975166;0.888;0.029685941173793216
12:58.1;-0.07688963353689095;-0.6775830657830937;-0.5690613108580823;0.888;0.029647589890495568
12:58.1;-0.07680337575257662;-0.6772572029311218;-0.5691092318557932;0.888;0.02960258060496726
12:58.1;-0.07671011200728223;-0.6769048727283189;-0.5691610453324736;0.888;0.029553942607529953
12:58.1;-0.07661874030428843;-0.6765596897063403;-0.5692118080566068;0.888;0.02950631853967976
12:58.1;-0.07654144048040548;-0.6762676664390279;-0.569254753551446;0.888;0.029466049943260783
12:58.1;-0.07649355718492355;-0.6760867714877197;-0.5692813570899643;0.888;0.029441115267080133
12:58.1;-0.07649310892406602;-0.6760850747087717;-0.5692816084286381;0.888;0.029440881848915645
12:58.1;-0.07655985660718348;-0.6763372284583838;-0.5692445292611459;0.888;0.029475641813139993
12:58.1;-0.07671389669389218;-0.6769191528447117;-0.5691589547830654;0.888;0.029555915671835787
12:58.1;-0.0769737931964914;-0.6779009788736184;-0.5690145714508005;0.888;0.02969152729807696
12:58.1;-0.07735433084876829;-0.6793385604370551;-0.5688031652091696;0.888;0.02989048105988306
12:58.1;-0.0778640587131925;-0.6812641946114231;-0.5685199861508823;0.888;0.030157708483991307
12:58.1;-0.07850289754465894;-0.6836775827962689;-0.568165077767892;0.888;0.030493801096563487
12:58.1;-0.07926020140296294;-0.6865385078813012;-0.5677443538578049;0.888;0.03089391143941145
12:58.1;-0.08011378807853207;-0.6897631713482584;-0.567270137218884;0.888;0.03134708714124452
12:58.1;-0.08103057551688715;-0.6932265974504187;-0.5667608061433633;0.888;0.03183639980898814
12:58.1;-0.08196943060117054;-0.6967733951606746;-0.5662392118427514;0.912;0.032340253421524315
12:58.1;-0.08288621570289524;-0.7002368227743534;-0.5657298749082983;0.912;0.032834950814930645
12:58.1;-0.08373979788520158;-0.7034614891815923;-0.5652556469768755;0.912;0.03329792303339071
12:58.1;-0.08449709545805104;-0.7063224184638242;-0.5648349072052554;0.912;0.0337105858416524
12:58.1;-0.08513592676742059;-0.7087358118306426;-0.5644799797174468;0.912;0.03406008985648926
12:58.1;-0.08564564662438869;-0.7106614517860715;-0.5641967801175081;0.912;0.03433987063062831
12:58.1;-0.08602617672752251;-0.7120990392191883;-0.5639853541865029;0.912;0.03454926780638798
12:58.1;-0.08628606725700799;-0.7130808705668356;-0.5638409547553783;0.912;0.03469253850603948
12:58.1;-0.0864401041976681;-0.7136627989604035;-0.5637553708682806;0.912;0.03477755395341613
12:58.1;-0.08650685287626597;-0.7139149545501178;-0.5637182922816525;0.912;0.034814416413592314
12:58.1;-0.0865064110261511;-0.7139132565419873;-0.5637185574451545;0.912;0.0348141721645773
12:58.1;-0.08645854064904868;-0.7137323564181758;-0.5637451909205831;0.912;0.034787733659355446
12:58.1;-0.08638126098704475;-0.7134403232909716;-0.5637881845162065;0.912;0.03474506762928327
12:58.1;-0.08628991686637345;-0.7130951252348295;-0.5638390142358106;0.912;0.034694660433921914
12:58.1;-0.08619668752578097;-0.7127427747406981;-0.5638909124652388;0.912;0.03464323945067667
12:58.1;-0.08611046938616712;-0.7124168868174212;-0.56393893242656;0.912;0.03459570933757728
12:58.1;-0.08603704968063426;-0.7121393357593633;-0.5639798511385786;0.912;0.03455525269124571
12:58.1;-0.08597948352694476;-0.7119216801871018;-0.5640119595510853;0.912;0.03452354337500046
12:58.1;-0.0859385917905607;-0.711767043952949;-0.5640347858867517;0.912;0.03450102498837517
12:58.1;-0.08591350796967631;-0.7116721816088031;-0.5640487921845103;0.912;0.03448721432071618
12:58.1;-0.08590221666721665;-0.7116295112914086;-0.5640550760694408;0.912;0.034480998421229966
12:58.1;-0.08590204178119946;-0.7116289567177586;-0.5640551011048349;0.912;0.034480902881689195
12:58.1;-0.08591005763592531;-0.7116594970524809;-0.5640504706580196;0.912;0.03448531725348166
12:58.1;-0.0859234096961688;-0.7117103741945855;-0.5640427526948842;0.912;0.034492670723433816
12:58.1;-0.08593954253151728;-0.7117719488009919;-0.5640333567101616;0.912;0.034501557004499965
12:58.1;-0.08595634100966523;-0.71183622791282;-0.5640234592800012;0.912;0.03451081177707705
12:58.1;-0.08597219629899173;-0.7118971083827765;-0.5640139714931042;0.912;0.034519548984158224
12:58.1;-0.08598601138963077;-0.7119503923036058;-0.5640055396527793;0.912;0.03452716396660393
12:58.1;-0.08599716188694996;-0.7119936347588127;-0.5639985699407852;0.912;0.03453331201343573
12:58.1;-0.08600542725778217;-0.7120258821950486;-0.5639932679515987;0.912;0.03453787062447907
12:58.1;-0.08601090600101105;-0.7120473533481531;-0.5639896848934658;0.912;0.034540892882369244
12:58.1;-0.08601392582498013;-0.7120591056288739;-0.5639877635790882;0.912;0.0345425580452734
12:58.1;-0.0860149572400734;-0.7120627196512627;-0.5639873788967174;0.912;0.03454312401414828
12:58.1;-0.0860145363337399;-0.7120600243381178;-0.5639883691059295;0.912;0.03454288487573853
12:58.1;-0.08601320012086922;-0.7120528756227458;-0.5639905559280538;0.912;0.03454213540786987
12:58.1;-0.08601143590555502;-0.7120429937423227;-0.5639937529238427;0.912;0.03454114334456812
12:58.1;-0.08600964462632155;-0.7120318577752084;-0.5639977630253206;0.912;0.03454012938019967
12:58.1;-0.0860081171971097;-0.7120206514831977;-0.5640023672894726;0.912;0.03453925435244988
12:58.1;-0.08600702236091592;-0.7120102515852853;-0.5640073079523273;0.912;0.03453861276244309
12:58.1;-0.08600640446444396;-0.7120012481067429;-0.5640122696658341;0.912;0.034538231724100456
12:58.1;-0.08600618973800922;-0.7119939861496773;-0.5640168633704719;0.912;0.03453807452741938
12:58.1;-0.08600620000934654;-0.7119886190327737;-0.5640206175532666;0.912;0.03453804818797663
12:58.1;-0.0860061731737432;-0.7119851639753326;-0.5640229816077053;0.912;0.03453801457232887
12:58.1;-0.08600579007242187;-0.7119835531153772;-0.5640233455800402;0.912;0.034537804874178554
12:58.1;-0.08600470759603397;-0.7119836744619985;-0.5640210796814561;0.912;0.03453723731479583
12:58.1;-0.08600259775058085;-0.7119853992475381;-0.5640155954998639;0.912;0.03453613791012559
12:58.1;-0.0859991920461162;-0.7119885939724351;-0.5640064288134278;0.912;0.03453436395791082
12:58.1;-0.08599432987444758;-0.7119931171700431;-0.5639933412863497;0.912;0.03453182954071793
12:58.1;-0.08598800854992107;-0.7119988025322456;-0.5639764351735969;0.912;0.03452853182566796
12:58.1;-0.08598043146019366;-0.7120054315131918;-0.5639562716143556;0.912;0.034524576303104924
12:58.1;-0.08597204942169702;-0.7120126998498542;-0.563933979391421;0.912;0.03452019840336309
12:58.1;-0.08596358901513863;-0.7120201835715354;-0.5639113375216278;0.912;0.034515778246930695
12:58.1;-0.0859560605926745;-0.7120273109587721;-0.5638908121765092;0.912;0.03451184472480249
12:58.1;-0.08595073804023434;-0.7120333474684567;-0.563875526765788;0.912;0.034509064796424266
12:58.1;-0.08594910250897883;-0.7120374007501075;-0.5638691441710731;0.912;0.034508213966001254
12:58.1;-0.08595274346434247;-0.7120384523986348;-0.5638756427368901;0.912;0.03451012448703188
12:58.1;-0.08596321277873464;-0.7120354218722905;-0.5638989733088818;0.912;0.034515609068858914
12:58.1;-0.0859818313922473;-0.7120272659113568;-0.5639425938202732;0.912;0.034525359807720646
12:58.1;-0.08600945335922255;-0.7120131137201421;-0.5640088908978441;0.912;0.034539824781684055
12:58.1;-0.0860461988143481;-0.7119924340855455;-0.5640985145695768;0.912;0.034559068211711015
12:58.1;-0.08609117526573618;-0.711965225563819;-0.5642096718273821;0.912;0.03458262419050443
12:58.1;-0.0861422151604366;-0.7119322150706934;-0.5643374463853509;0.912;0.03460935849589393
12:58.1;-0.08619566612130926;-0.7118950440182016;-0.5644732336952347;0.912;0.03463735757818079
12:58.1;-0.08624627761398553;-0.711856415094777;-0.5646043996920022;0.912;0.03466386792116362
12:58.1;-0.08628723282185635;-0.7118201676088152;-0.5647142857788418;0.912;0.034685311928267966
12:58.1;-0.0863103757595019;-0.7117912459030056;-0.5647826876687273;0.912;0.03469740741483021
12:58.1;-0.08630667963632858;-0.7117755247148285;-0.5647869280708169;0.912;0.03469541571638077
12:58.1;-0.0862669917571283;-0.7117794585748751;-0.5647036191360614;0.912;0.03467453737173008
12:58.1;-0.08618307164259646;-0.7118095304077499;-0.5645111669205546;0.912;0.03463046352085168
12:58.1;-0.0860489118967631;-0.7118714882384516;-0.5641930049032237;0.912;0.03456007523628852
12:58.1;-0.08586229572964221;-0.7119693787465263;-0.563741456638441;0.912;0.034462262398136385
12:58.1;-0.08562650209132604;-0.7121044122228323;-0.5631620212824329;0.912;0.03433880984690143
12:58.1;-0.08535202151557691;-0.7122737243779135;-0.5624777555408857;0.912;0.034195273934849724
12:58.1;-0.08505809693923493;-0.7124691345859285;-0.5617333008234505;0.912;0.034041750709828004
12:58.1;-0.08477385950982458;-0.7126760345864529;-0.5609979884200152;0.912;0.03389342166376465
12:58.1;-0.08453879686265736;-0.7128725722954302;-0.5603673657817085;0.912;0.033770757605768684
12:58.1;-0.08440227907021976;-0.7130293169295051;-0.5599624445885911;0.912;0.03369926752647225
12:58.1;-0.08442188492288887;-0.7131095978586268;-0.5599259999563115;0.912;0.03370869663357968
12:58.1;-0.08466032814373137;-0.7130706935174137;-0.5604153746416642;0.912;0.033831603053814885
12:58.1;-0.08518088865755205;-0.7128660011768284;-0.5615914859682868;0.912;0.03410127240680009
12:58.1;-0.08604141537804981;-0.7124482367251195;-0.5636041157947316;0.912;0.03454896311125728
12:58.1;-0.08728718823264861;-0.7117735904450881;-0.5665740971010309;0.912;0.0352005208137897
12:58.1;-0.08894320784383657;-0.7108065969394511;-0.5705736955726392;0.912;0.036072478614475004
12:58.1;-0.09100681513033801;-0.7095252648515754;-0.5756073074399682;0.912;0.037167904734083324
12:58.1;-0.09344191701192853;-0.7079257588663221;-0.5815955253279642;0.912;0.03847250911087438
12:58.1;-0.0961764882302836;-0.7060256412345476;-0.5883666133303582;0.912;0.03995189743284179
12:58.1;-0.09910540638120724;-0.703864375964857;-0.5956604151165751;0.912;0.0415513436073657
12:58.1;-0.10210055277670436;-0.7014998245754274;-0.6031495106921411;0.945;0.043199690958761236
12:58.1;-0.10502802266082834;-0.6990008319868569;-0.6104776394303163;0.945;0.04481801762898044
12:58.1;-0.10776820626201188;-0.6964387341140932;-0.6173059420012065;0.945;0.046331251248238094
12:58.1;-0.11023219728257372;-0.6938820790159758;-0.623352225537282;0.945;0.04767905617653207
12:58.1;-0.11237029514060075;-0.6913970625601051;-0.6284138308344329;0.945;0.048823036511737236
12:58.1;-0.11417246214331785;-0.6890531311522122;-0.6323741606376414;0.945;0.04974943963103838
12:58.1;-0.11566271386384677;-0.6869315512070875;-0.6351977203617777;0.945;0.05046796268242081
12:58.1;-0.11688959423045178;-0.6851344889281475;-0.6369186958330274;0.945;0.0510076926096863
12:58.1;-0.11791457249939194;-0.6837922955579636;-0.6376270402190364;0.945;0.05141127921880046
12:58.1;-0.11879990233867116;-0.6830669334065037;-0.6374549461346155;0.945;0.05172837563050336
12:58.1;-0.11959722685102414;-0.6831498264587693;-0.6365655072697204;0.945;0.05200920009395563
12:58.1;-0.12033801011304766;-0.6842529018267478;-0.63514438321951;0.945;0.052298825463659826
12:58.1;-0.12102672702272614;-0.6865922325463137;-0.6333944156496741;0.945;0.052632549142873485
12:58.1;-0.12163763956541551;-0.6903645229562579;-0.6315324368357885;0.945;0.05303250126508
12:58.1;-0.12211591071168064;-0.6957177103999381;-0.6297869878745572;0.945;0.053505570009212244
12:58.1;-0.12238373248436224;-0.7027181902209593;-0.6283953423989938;0.945;0.054042800652823915
12:58.1;-0.12235204502463146;-0.7113185811893871;-0.6275981272023555;0.945;0.0546206702643447
12:58.1;-0.12193798897419335;-0.7213315629639022;-0.6276295130526811;0.963;0.055204861080418575
12:58.2;-0.12108640321968156;-0.7324166754267112;-0.6286999820845741;0.956;0.055756698557895244
12:58.2;-0.11978987833636189;-0.7440861146248859;-0.6309697144435128;0.956;0.05624084515269624
12:58.2;-0.11809841633947113;-0.7557315547854412;-0.6345172320958351;0.963;0.05663110699839687
12:58.2;-0.11611030248598386;-0.7666702970733318;-0.6393155945733147;0.983;0.05691080024277936
12:58.2;-0.11394154195928852;-0.7762076225232769;-0.6452281402788409;1.047;0.057065456486577334
12:58.2;-0.11168066689401505;-0.7837085813264179;-0.6520271942077321;1.047;0.05706874342820905
12:58.2;-0.10934452308079225;-0.7886656358022294;-0.6594299604879688;1.054;0.05686677867919721
12:58.2;-0.10685189489145323;-0.790747139855874;-0.6671416844106692;1.068;0.05636868910935237
12:58.2;-0.10402375820702758;-0.789819476569037;-0.6748965345176754;1.068;0.055449492701007734
12:58.2;-0.10060873412729009;-0.7859447893021091;-0.6824878714342411;1.064;0.053966302269896134
12:58.2;-0.09632678458407691;-0.7793603173647411;-0.689780675720483;1.064;0.0517840932572778
12:58.3;-0.09092305867769812;-0.7704463353647535;-0.696701044286098;1.051;0.04880483989122595
12:58.3;-0.08422354890045201;-0.7596893900106191;-0.7032016856624286;1.0190000000000001;0.04499347135384428
12:58.3;-0.07618261800262986;-0.7476457029721207;-0.7092101514031732;0.983;0.040394913077530924
12:58.3;-0.06691065744180211;-0.7349078879182586;-0.714577452957101;0.998;0.03513803852939246
12:58.3;-0.05667305872476263;-0.7220774894701988;-0.7190501586163548;0.998;0.02942521504247915
12:58.3;-0.04586099754664903;-0.7097442647289098;-0.7222810000294226;1.03;0.023509943181006163
12:58.3;-0.034943297046569156;-0.6984694038049059;-0.7238767801465364;1.008;0.017667533065829764
12:58.3;-0.024410862529404727;-0.6887675739621855;-0.7234701509198399;1.008;0.012164000677275615
12:58.3;-0.014722841607182714;-0.6810855519534607;-0.7207982393031258;1.0170000000000001;0.007227814942041107
12:58.4;-0.006260164189385682;-0.67577963658534;-0.7157730998960984;1.015;0.003028072001344649
12:58.4;0.0007100109145999814;-0.6730942608852777;-0.7085318419463214;1.015;0.00033861039396053383
12:58.4;0.0060545253687622905;-0.6731418385415517;-0.6994559229586684;0.995;0.002850670621211453
12:58.4;0.009774107078928566;-0.6758831170602811;-0.6891520346785126;0.977;0.004552644442235539
12:58.4;0.01198139210231081;-0.6811089737081455;-0.6783941495352179;0.905;0.005536126143926487
12:58.4;0.012861547397853598;-0.6884292732749098;-0.668036602969563;0.905;0.005914973598920122
12:58.4;0.01262504496230563;-0.6972809632035132;-0.6589162974250478;0.9359999999999999;0.005800574263477156
12:58.4;0.0114643416774081;-0.7069677956235036;-0.6517628821222006;0.9229999999999999;0.005282486255780182
12:58.4;0.00952505613696282;-0.7167324490191997;-0.6471312301653416;0.95;0.00441791107484472
12:58.4;0.0068985530249845274;-0.7258472830979593;-0.645366150704508;1.0270000000000001;0.003231539325914763
12:58.4;0.0036366077915430278;-0.733703057699799;-0.6466017418652159;1.0270000000000001;0.0017252564673578643
12:58.5;-0.00021937140661069986;-0.7398751104647858;-0.6507842884890455;1.028;0.00010562713426406899
12:58.5;-0.0046074976370780035;-0.7441513473987647;-0.6576996465477386;1.011;0.0022550387136519236
12:58.5;-0.00942438652501305;-0.746516200991192;-0.6669933033218184;0.983;0.004692602855099092
12:58.5;-0.014519404333908288;-0.7470968331465386;-0.6781858545625543;0.948;0.007356553914958248
12:58.5;-0.019704179772546408;-0.746088620929873;-0.6906965395953404;0.972;0.010153974249394567
12:58.5;-0.024773956487089216;-0.7436828241894154;-0.7038880170001531;1.0170000000000001;0.012968408841398051
12:58.5;-0.02953386069285568;-0.7400160838709863;-0.7171357115391901;1.05;0.015673382442776877
12:58.5;-0.03381982774701039;-0.7351498344110275;-0.7299094177668046;1.0759999999999998;0.018147475647133735
12:58.5;-0.03750547932132588;-0.7290757363565926;-0.7418444161928304;1.068;0.02028524219983654
12:58.5;-0.04049436457436545;-0.7217380890387086;-0.7527811575435512;1.05;0.02200102699364603
12:58.5;-0.0427052397445135;-0.7130655736830835;-0.7627644456505558;1.06;0.023227425464508487
12:58.6;-0.04405925928746669;-0.7030061539398926;-0.7720074890400982;1.077;0.023912106247025427
12:58.6;-0.04447347087938073;-0.6915566626532593;-0.7808339029143265;1.057;0.024015269031974124
12:58.6;-0.043861571465663364;-0.678777789592313;-0.7896082773522776;1.021;0.023508423348009
12:58.6;-0.04214188780386707;-0.6647922951778386;-0.7986612672150197;1.002;0.022374976447696055
12:58.6;-0.039250457647702644;-0.6497747715762293;-0.8082168205445596;1.005;0.02061272716093533
12:58.6;-0.03515442949125757;-0.6339443476759072;-0.818334041276491;1.012;0.018237353058905795
12:58.6;-0.029861140171313375;-0.6175648879098397;-0.8288765275719391;1.0090000000000001;0.015285470926292274
12:58.6;-0.023420509959895416;-0.6009483499755012;-0.8395173319155821;1.013;0.011815800805355832
12:58.6;-0.015920269481451095;-0.5844535433833863;-0.8497820848100451;1.037;0.007906931597248673
12:58.6;-0.007475306122280892;-0.5684747110978499;-0.8591265492738571;1.063;0.0036508775913760855
12:58.7;0.001784783249797731;-0.5534184602571357;-0.8670355061875142;1.08;0.0008563987128598821
12:58.7;0.01172353425800398;-0.5396715832479837;-0.8731198593772066;1.071;0.005524105624200379
12:58.7;0.022195410930659965;-0.5275657440459569;-0.8771858731716361;1.045;0.010271441737804596
12:58.7;0.03303281468690744;-0.5173466158328544;-0.8792590405308061;1.033;0.015026022539155217
12:58.7;0.0440272623387028;-0.5091536068282299;-0.8795608039772975;0.9990000000000001;0.01971679738942546
12:58.7;0.054912577816149985;-0.5030126334598536;-0.8784502559238063;0.9990000000000001;0.02426430733455714
12:58.7;0.06535689182694866;-0.4988409239264773;-0.876349282316066;0.9990000000000001;0.028571346002109983
12:58.7;0.07496835541100746;-0.49646097823154794;-0.8736684143574569;0.951;0.032516945077101754
12:58.7;0.08331906332956321;-0.4956205301343832;-0.8707475374015801;0.946;0.03595720464043973
12:58.7;0.08999005905504219;-0.4960167544728826;-0.8678245207241913;1.041;0.038736716065489465
12:58.8;0.09463423463714743;-0.4973248913794547;-0.865038104226603;1.024;0.04071211913518232
12:58.8;0.09704468721903516;-0.4992301352892117;-0.8624550258829118;1.024;0.04178390399466862
12:58.8;0.09720917975213175;-0.5014565397509904;-0.8601019081759851;1.0090000000000001;0.04192668149724
12:58.8;0.0953329296723842;-0.5037846968828711;-0.8579904150856349;1.0090000000000001;0.041206938247607613
12:58.8;0.09182186322218436;-0.5060555536086553;-0.8561347365953632;1.033;0.039781981835799125
12:58.8;0.0872294796975247;-0.5081648164929539;-0.8545606298722255;1.0;0.03788006848569176
