Time;AccX;AccY;AccZ;Acc-old;Acc-trns
04:53.9;0.2565046352454849;-0.25720529498685385;-0.9451183671831435;1.013;0.06235357030126419
04:53.9;0.2332504408086009;-0.2622290149405628;-0.973350199980093;1.099;0.05953499742129753
04:53.9;0.21128181220500147;-0.2680702251683301;-1.0000724663492682;1.097;0.05664246734716068
04:53.9;0.1914942127496877;-0.27533281673088916;-1.023611387973832;1.097;0.053969542938090725
04:53.9;0.17453608419466035;-0.2844653267146457;-1.0425724291254326;1.125;0.05176316251029216
04:53.9;0.16073757323174626;-0.2957064391885424;-1.0559345016334054;1.133;0.050189765796187946
04:54.0;0.150055906677932;-0.3090706235773586;-1.0630990977808596;1.15;0.04930427456952493
04:54.0;0.14205670424097058;-0.32436864988663494;-1.063896783552744;1.15;0.0490230247251785
04:54.0;0.13594683554175874;-0.34124350628486944;-1.0585547071280037;1.15;0.04910738477307366
04:54.0;0.13066807089473553;-0.35919904439909595;-1.0476299692079938;1.113;0.04917139910806527
04:54.0;0.12505121177032377;-0.3776119165156336;-1.0319148248783148;1.06;0.04872787218709977
04:54.0;0.1180175039065027;-0.395734497677058;-1.0123247786686;1.054;0.04727920912930221
04:54.0;0.10879759874618748;-0.41270406232697265;-0.9897891400347981;1.048;0.04444273099644831
04:54.0;0.09712140454167542;-0.42757042858572125;-0.9651665957851265;1.05;0.040079740241616015
04:54.0;0.08332529862070605;-0.43934680237193086;-0.9392003833727001;1.055;0.03438290836732481
04:54.0;0.06833493402980517;-0.4470832539061572;-0.912512660895244;1.0490000000000002;0.027878543561759925
04:54.1;0.05351141659970199;-0.44996036334139744;-0.8856239886610405;0.99;0.021324068972910556
04:54.1;0.0403904303004343;-0.4473961402768199;-0.8589810034464307;0.99;0.01552223565338791
04:54.1;0.030382994475503067;-0.439149532297106;-0.8329851706083579;0.99;0.011114252755019517
04:54.1;0.024515260047099252;-0.4253968815441714;-0.8080236387218266;0.99;0.008426648382315606
04:54.1;0.02325601187641547;-0.4067607318607738;-0.7844980210854999;0.937;0.00742106290663643
04:54.1;0.026444991154530643;-0.3842791471670215;-0.7628389674679195;0.87;0.007752166893955282
04:54.1;0.033317366743818716;-0.3593134784917868;-0.7434986789209815;0.8059999999999999;0.008900704425940618
04:54.1;0.042612121190202835;-0.33340480932452926;-0.7269267321041517;0.7659999999999999;0.010327510700714679
04:54.1;0.052743176902677866;-0.3081025346701356;-0.7135433298506108;0.743;0.011595297804160536
04:54.1;0.06200390550582964;-0.28479628520673894;-0.7037225830697632;0.7440000000000001;0.012426672535427466
04:54.2;0.06877334009214599;-0.2645813200621913;-0.6977903919979938;0.746;0.012697092435671286
04:54.2;0.07169690538119099;-0.2481788062144828;-0.6960330180032018;0.746;0.012384969572068066
04:54.2;0.06982406476993837;-0.2359189095175414;-0.6987080141920338;0.746;0.011509689406960568
04:54.2;0.0626954627280372;-0.22778143505431178;-0.7060503037928695;0.746;0.010083007286487786
04:54.2;0.05037803959855799;-0.22348149152237978;-0.7182705957675285;0.759;0.008086692188881823
04:54.2;0.03344912140390141;-0.2225856787021352;-0.7355473762028908;0.778;0.005476367488932774
04:54.2;0.012934596148233689;-0.22464133705023817;-0.758015868356876;0.7979999999999999;0.0022025249973029954
04:54.2;-0.00978815725696108;-0.22929498336362847;-0.7857584215343167;0.845;0.0017635368365860656
04:54.2;-0.03311081670950452;-0.2363715543503208;-0.8188004504423161;0.897;0.006408305052488901
04:54.2;-0.055332920126940084;-0.2458900768013971;-0.8571114812316862;0.951;0.01166170108769116
04:54.3;-0.07482229804894543;-0.2580051972662571;-0.9006007077243394;1.0759999999999998;0.017385683978584456
04:54.3;-0.09019688231147112;-0.2728857023843645;-0.9490841861375472;1.015;0.023360226274151127
04:54.3;-0.10050473302959888;-0.2905654252668964;-1.0021980336849743;1.015;0.029267390112476328
04:54.3;-0.1053566161856836;-0.3108160546864922;-1.059252381136662;1.015;0.034686837522754775
04:54.3;-0.10496869605990738;-0.33308611912663305;-1.1190575687595974;0.966;0.03912629866880374
04:54.3;-0.10009654934191985;-0.35653121144531646;-1.1797831119060065;1.037;0.04210356171468017
04:54.3;-0.09186672239941991;-0.38013455326262335;-1.2389175809383641;1.2229999999999999;0.0432651272634666
04:54.3;-0.08153810564106564;-0.40288563490392904;-1.2933784624479738;1.379;0.04248816987041685
04:54.3;-0.07025384551498644;-0.4239574924868436;-1.3397756358573003;1.49;0.0399047405978454
04:54.3;-0.058856991391498595;-0.4428194804579395;-1.3747826661368179;1.5759999999999998;0.03583099135295526
04:54.4;-0.04782240844547979;-0.4592505369337758;-1.3955433778922866;1.6130000000000002;0.030649575043589155
04:54.4;-0.03731028375023277;-0.47326230768838085;-1.4000399826765124;1.6130000000000002;0.024721277379550002
04:54.4;-0.02729891872707391;-0.48497436729884397;-1.3873633202741777;1.6130000000000002;0.018367685684085693
04:54.4;-0.017734137202330018;-0.4944895855853058;-1.3578481487693501;1.5330000000000001;0.011907440443697096
04:54.4;-0.008643150557017858;-0.5018041482809322;-1.3130611347777117;1.4340000000000002;0.005694967791145856
04:54.4;-0.0001808342716792005;-0.5067703614558198;-1.255653061852368;1.375;0.0001150698663087807
04:54.4;0.007404201925553588;-0.5091161601505748;-1.189106047651958;1.3119999999999998;0.004482452793701529
04:54.4;0.013870723346495934;-0.5085095331800779;-1.1174139702572348;1.2229999999999999;0.007881562170855663
04:54.4;0.019113738451381725;-0.5046425199249412;-1.0447305524697408;1.121;0.010077058383987538
04:54.4;0.02327050539285914;-0.49730777184986646;-0.9750150898727075;1.0590000000000002;0.011283462736183485
04:54.5;0.026761607770495712;-0.48645229198333223;-0.9117057194028418;0.867;0.011868808821609147
04:54.5;0.030249318383331628;-0.4722083239951979;-0.8574531806658579;0.867;0.012247844028510566
04:54.5;0.03452715436459399;-0.4549100797299189;-0.8139504637377017;0.867;0.01278451688978872
04:54.5;0.04037473634926462;-0.43510291648594884;-0.7818838761734016;0.867;0.013735483484165787
04:54.5;0.04840917015386612;-0.41354214678178375;-0.7610050637446001;0.846;0.01523473703793743
04:54.5;0.05895327463921327;-0.3911708417911783;-0.7503002522184452;0.85;0.017302525607205417
04:54.5;0.07194007747627808;-0.36906711448635504;-0.7482259875306991;0.895;0.019865936304881093
04:54.5;0.08687680927761658;-0.34836079954062754;-0.7529785217383771;0.927;0.02278849945203493
04:54.5;0.10288637953340728;-0.3301299645529061;-0.7627562270673949;0.927;0.02590768405862092
04:54.5;0.11882884438555043;-0.3152938496074194;-0.7759699335283402;0.925;0.029072492471058455
04:54.6;0.13348654800971574;-0.30452141967197555;-0.7913667949120043;0.895;0.03216867490224381
04:54.6;0.14577784637720576;-0.29817304089497754;-0.8080580847335238;0.895;0.035123879960016716
04:54.6;0.15495067199015464;-0.2962831250278166;-0.8254685535000151;0.895;0.037896658139806784
04:54.6;0.16071034064657855;-0.298579158463526;-0.8432405796772472;0.895;0.0404626953764358
04:54.6;0.16325705367293897;-0.30452789008958153;-0.8611244420727237;0.946;0.04281194357241005
04:54.6;0.16323079659417283;-0.3134017085775991;-0.8788733223953995;0.965;0.0449603560469208
04:54.6;0.16157357281491955;-0.3243589126676716;-0.8961486920826975;0.909;0.046965206870247606
04:54.6;0.15932780631676724;-0.33652910917832557;-0.9124390130990467;0.872;0.04892356079071776
04:54.6;0.15740447700796323;-0.3490935493979795;-0.9270077711765355;0.8859999999999999;0.05093804579474977
04:54.6;0.1563712713006568;-0.36134981825610624;-0.9389024686167302;1.018;0.053052430922082
04:54.7;0.15631367098219429;-0.3727472742574082;-0.9470490981679475;1.113;0.055180284293078426
04:54.7;0.15680087654175787;-0.3828800401559373;-0.9504197659012436;1.113;0.05705933064599996
04:54.7;0.1569574106123875;-0.39143968951896074;-0.94822035335359;1.113;0.05825805172280229
04:54.7;0.15562244445869766;-0.398151093822541;-0.9400352676371038;1.077;0.058245756922249536
04:54.7;0.151572600772297;-0.40272156501578354;-0.9258919343915297;1.044;0.05651788343400597
04:54.7;0.14377195528324196;-0.4048261837899238;-0.9062427929125545;1.01;0.052745733897353216
04:54.7;0.13159361932439587;-0.4041422000317068;-0.8818866931579374;0.987;0.046900969769602736
04:54.7;0.11495220077163013;-0.40043083726666673;-0.8538619240677668;0.973;0.03930361103331826
04:54.7;0.09430927595352868;-0.393643850593293;-0.8233407807075688;0.9670000000000001;0.030565922590486364
04:54.7;0.07055456494663641;-0.38401472564329103;-0.7915424950548317;0.9470000000000001;0.02144604595020556
04:54.8;0.04480345505982074;-0.3720932412112521;-0.7596659455198099;0.773;0.012664438692888807
04:54.8;0.018172378204506835;-0.3587042822986243;-0.7288386779240367;0.773;0.0047509421240721755
04:54.8;-0.008408024284921134;-0.34484758392924164;-0.7000865451516608;0.773;0.0020298917387214705
04:54.8;-0.034304041983567755;-0.33157533660075444;-0.6743325952235151;0.773;0.0076701113188251905
04:54.8;-0.05920742725463969;-0.3198739159542187;-0.6524232389583512;0.743;0.012356186054626437
04:54.8;-0.08309852690991448;-0.3105561026243517;-0.6351657764239799;0.718;0.01639156735486515
04:54.8;-0.10617198876446171;-0.30416560184233465;-0.6233584305083133;0.71;0.020130654161729388
04:54.8;-0.12875274785595572;-0.3009028448622539;-0.6177999256214459;0.706;0.023934846799058388
04:54.8;-0.15122072077499774;-0.3005852990859738;-0.619272091005907;0.6970000000000001;0.028148842957357246
04:54.8;-0.17394857137321654;-0.30265237677446394;-0.6284944066561136;0.7;0.033087684204716195
04:54.9;-0.19724651205785482;-0.3062179177723933;-0.6460557208892678;0.738;0.039022034436707806
04:54.9;-0.22130615555020905;-0.3101652640501875;-0.6723338890391644;0.738;0.046149994658222455
04:54.9;-0.24614013037015436;-0.31327365299670573;-0.7074166653033193;0.738;0.054548345713250804
04:54.9;-0.27152255179438617;-0.31436312849062276;-0.7510391780628355;0.8059999999999999;0.06410620991654507
04:54.9;-0.2969444882711901;-0.3124465052631947;-0.8025547737514653;0.894;0.0744604441315902
04:54.9;-0.3216031774456232;-0.3068739913290566;-0.8609504254950674;0.977;0.08496861865164995
04:54.9;-0.3444398454451348;-0.297448842390555;-0.9249041015569271;1.064;0.09475941569771291
04:54.9;-0.3642290487205695;-0.2844897772264771;-0.9928685765662337;1.171;0.10288048682068505
04:54.9;-0.3797063159007746;-0.2688218997371434;-1.0631598825161646;1.2770000000000001;0.10852031544088217
04:54.9;-0.3897050626085175;-0.2516881552199877;-1.134025706982137;1.36;0.11122994560584444
04:55.0;-0.3932646308310113;-0.2345857751905213;-1.2036694230971925;1.264;0.11104366595043258
04:55.0;-0.38967921953123524;-0.21905127906341323;-1.2702179560486064;1.264;0.10842546362747182
04:55.0;-0.3784838450838758;-0.20643969832473516;-1.3316504846733093;1.264;0.10404729988319668
04:55.0;-0.3593977869527618;-0.19774941649299238;-1.3857358018915533;1.262;0.09848521713986265
04:55.0;-0.3322521428675292;-0.19352665602304564;-1.4300384698200888;1.306;0.09195096761269086
04:55.0;-0.29692844321355166;-0.19386125672428445;-1.4620409811581718;1.4669999999999999;0.08415934972899806
04:55.0;-0.2533406495445112;-0.19846695740104897;-1.4793937196538076;1.676;0.07438354327067083
04:55.0;-0.20149098556909928;-0.2068182865213508;-1.4802505468677625;1.786;0.06168503096383178
04:55.0;-0.14160790144736357;-0.21829924944201984;-1.4635935196423921;1.808;0.04524391806581375
04:55.0;-0.07433497981928373;-0.23232212557291446;-1.429428701424248;1.7109999999999999;0.024685748405474512
04:55.1;-0.0009040681125243317;-0.2483967110913242;-1.3787693417357236;1.176;0.00030962684723387764
04:55.1;0.07677335849442415;-0.266153991714072;-1.3134110024623824;1.176;0.026837630765967443
04:55.1;0.1561219128047948;-0.2853397038187352;-1.2356047214231933;1.077;0.05504344774091716
04:55.1;0.23401291900455404;-0.3057916914350544;-1.14777466430542;1.077;0.08213384401196569
04:55.1;0.3069563526912713;-0.32740731033987713;-1.0523774730603532;1.081;0.10576367697500161
04:55.1;0.37137438854157456;-0.35010057475158934;-0.951918877216036;1.109;0.12376695685284697
04:55.1;0.4239504902743231;-0.3737471125749099;-0.8490877863984314;1.146;0.1345381903795946
04:55.1;0.4620165318905418;-0.39811987511598385;-0.746943210462631;1.2109999999999999;0.13739121333952461
04:55.1;0.4839069148321784;-0.4228292821607971;-0.6490774112036468;1.264;0.13280773782422514
04:55.1;0.48919748228192395;-0.4472895206853034;-0.5596693068353215;1.208;0.12246286819457901
04:55.2;0.4787683291232569;-0.4707264007759247;-0.48334608464007944;0.7759999999999999;0.10893117172849648
04:55.2;0.4546796683112115;-0.4922231596406325;-0.42482027324718363;0.7759999999999999;0.09507641821665455
04:55.2;0.4199044400511092;-0.5107855833425564;-0.3883588470234461;0.7759999999999999;0.08329564604818882
04:55.2;0.37798171244439366;-0.5254095349178397;-0.3771958323283937;0.66;0.0749092801546474
04:55.2;0.33263699924963247;-0.5351457406407771;-0.39298348288196294;0.5870000000000001;0.06995470421771303
04:55.2;0.28740123645891336;-0.5391632011240242;-0.43535355406452486;0.5529999999999999;0.06746071961940149
04:55.2;0.24527001786514557;-0.5368117028762397;-0.5016723692699211;0.5670000000000001;0.06605209849710039
04:55.2;0.2084525693399583;-0.5276828774684033;-0.5870767368336188;0.665;0.06457659270222996
04:55.2;0.17824608669651162;-0.5116674978164312;-0.6848351040236837;0.812;0.0624588305221986
04:55.2;0.15504655289435482;-0.48899945436094966;-0.7870108574651428;0.9640000000000001;0.059669337163567246
04:55.3;0.13848519059775655;-0.4602694256545121;-0.8853440032357114;1.439;0.05643226867515463
04:55.3;0.12765882629212238;-0.42639784656347995;-0.972214724494791;1.439;0.05292100025901634
04:55.3;0.1214022492514592;-0.3885786708691514;-1.0415104202448606;1.439;0.04913255069583977
04:55.3;0.11854469239229735;-0.3482177464751493;-1.0892310048034488;1.439;0.044962764915269814
04:55.3;0.1181081158986557;-0.3068744981767962;-1.1137523298807304;1.396;0.04036725019272283
04:55.3;0.11942607299054832;-0.2661940734800522;-1.1157594755992202;1.2690000000000001;0.03547056594551988
04:55.3;0.12217396381135719;-0.22781686361610629;-1.0979082782684468;1.067;0.030558398680169144
04:55.3;0.12631215239619054;-0.19326940812005358;-1.0642967133361778;0.909;0.025981903975167343
04:55.3;0.1319624703418387;-0.16385421976153092;-1.0198525903048747;0.802;0.022051872385983027
04:55.3;0.13925701234974233;-0.14055720209493716;-0.9697562553200492;0.746;0.018981597792116063
04:55.4;0.1482008976932219;-0.12398739418102937;-0.918996342086694;0.903;0.016886597413215156
04:55.4;0.1585759656654904;-0.11435935141753206;-0.8721017768240816;0.903;0.015815255763704884
04:55.4;0.16989067671675112;-0.11151634725779672;-0.8330251275393427;0.903;0.015782150610606196
04:55.4;0.18136766837491353;-0.11497595907821911;-0.8051074643645424;0.903;0.01678884284780523
04:55.4;0.1919621977246146;-0.12397557151443252;-0.7910528564502707;0.9079999999999999;0.018825968839853997
04:55.4;0.2004132392967543;-0.13750476464108302;-0.792863885956016;0.861;0.02184956481302325
04:55.4;0.20533127956533254;-0.1543208487584658;-0.8117154829493464;0.825;0.02572074517684205
04:55.4;0.20532078067579854;-0.17294987682261304;-0.8477717242194024;0.773;0.030104546641022824
04:55.4;0.1991246628425436;-0.19168243633659238;-0.8999822535711225;0.7170000000000001;0.03435115309939624
04:55.4;0.1857665655033901;-0.20858276066616627;-0.9659264407069522;0.679;0.037427430914070345
04:55.5;0.16466084098328854;-0.22153893296110713;-1.0417903247347449;1.072;0.038003247367073854
04:55.5;0.1356685097497489;-0.2283794340579336;-1.1225385090884834;1.072;0.0347806180786064
04:55.5;0.09909642478452341;-0.22705858618654545;-1.2022801146790631;1.072;0.02705213709218238
04:55.5;0.055649409763968496;-0.21588858931606306;-1.2747811003880003;1.321;0.015315312651199592
04:55.5;0.006347884032007178;-0.19378934609844653;-1.3340765748384928;1.5659999999999998;0.0016411173611390654
04:55.5;-0.04756600550012968;-0.16052780913486478;-1.3751332552271687;1.702;0.010500059139314353
04:55.5;-0.10469602805491417;-0.1169086025514539;-1.3944730491743944;1.7009999999999998;0.01706816372629076
04:55.5;-0.16350518046427587;-0.06486617111844908;-1.3906469519238176;1.619;0.014749139013501292
04:55.5;-0.22228433761000693;-0.007413702420735576;-1.3644829376270944;1.535;0.0022485995640470135
04:55.5;-0.2791257505162657;0.051575005671920596;-1.3190926766962798;1.436;0.018989542312606682
04:55.6;-0.3319663913129991;0.10774750708519168;-1.2596675145820027;1.429;0.045056481864390374
04:55.6;-0.3787351143798676;0.15677471727442802;-1.1931123247245576;1.429;0.07084234534421902
04:55.6;-0.4175680921230161;0.19487581164295426;-1.1275612766817378;1.429;0.09175408210327925
04:55.6;-0.44701291432851054;0.21924977047470834;-1.0717939486290393;1.429;0.10504382276870616
04:55.6;-0.46616605438175485;0.22834220721013931;-1.034534528185659;1.3730000000000002;0.11012142695956166
04:55.6;-0.4747351973654861;0.22193518601351728;-1.023602414290495;1.175;0.10784720519148586
04:55.6;-0.47303154240539336;0.20106964884789838;-1.0449195947394079;0.856;0.09938469147292522
04:55.6;-0.46188880639581076;0.16780928490626118;-1.101471109060101;0.644;0.08537417786918308
04:55.6;-0.4425091404967129;0.12486300346880279;-1.1924217375606678;0.53;0.06588490252504281
04:55.6;-0.4162550472474971;0.07510974048722087;-1.3126503067754194;0.586;0.04103976056758373
04:55.7;-0.38442428685715285;0.021110097933945447;-1.4529189044931488;1.716;0.011790777392414272
04:55.7;-0.34805292797463433;-0.03527727946211138;-1.6007268269730246;1.716;0.019654300895956562
04:55.7;-0.30779012381850807;-0.09306561534074961;-1.7416740843344682;1.716;0.04988969205349834
04:55.7;-0.2638734089287758;-0.15204651788890725;-1.8610486287263701;2.151;0.07466719343116475
04:55.7;-0.2162065860683969;-0.21246575207636237;-1.9454201253149694;2.4730000000000003;0.08936578168995464
04:55.7;-0.1645179053098929;-0.2745769816481136;-1.984106185788074;2.67;0.0896276911687871
04:55.7;-0.10856286778277006;-0.3382240388309718;-1.970358661449982;2.6839999999999997;0.07234875560500012
04:55.7;-0.04832891588030952;-0.402584074484678;-1.9020890725122073;2.517;0.037007904492780096
04:55.7;0.01580172389316772;-0.4661341112059929;-1.7820022526087058;2.233;0.013125734127121948
04:55.7;0.08296258296317939;-0.5268222690859597;-1.6171115377232281;1.88;0.07067834397246975
04:55.8;0.15179362711169597;-0.5823669581143174;-1.4177256989977856;1.085;0.12532637461000457
04:55.8;0.22049319720201255;-0.6305870664093305;-1.1961189344527785;1.085;0.16630856609580197
04:55.8;0.2869015301128941;-0.6696816627985442;-0.9651820269128212;1.085;0.1854430227854533
04:55.8;0.3486004320235212;-0.6984154780117953;-0.7373133004852824;0.966;0.17951214846227842
04:55.8;0.4030418957339329;-0.7162053633500539;-0.5236450822187879;0.871;0.15115579126773268
04:55.8;0.44773122965988393;-0.7231252149374917;-0.33356607478328415;0.865;0.10799726760217382
04:55.8;0.48047399071420904;-0.7198530120279112;-0.1744781368639517;0.9159999999999999;0.06034686650614979
04:55.8;0.49966431189267835;-0.7075833720747875;-0.05174765765034665;0.988;0.018295599566011664
04:55.8;0.5045615862545828;-0.6879227880847039;0.031188324883592647;1.069;0.010825449265059071
04:55.8;0.4954807553467088;-0.6627707633590562;0.07261347951664245;1.078;0.023845552044138487
04:55.9;0.47382135760474203;-0.6341776311527573;0.07228067202889923;0.67;0.021719395512794108
04:55.9;0.44190436218268137;-0.6041750841285323;0.031181485458724723;0.67;0.008325070129156356
04:55.9;0.4026646531838729;-0.5745991884315715;-0.048600848549467494;0.67;0.011244816379929981
04:55.9;0.3592935748412376;-0.5469398930971574;-0.16391544358563973;0.67;0.0322113499147189
04:55.9;0.31489763350505745;-0.522235902050604;-0.3104543330824533;0.541;0.0510544788644558
04:55.9;0.2721896913336982;-0.5010121523808109;-0.48261587714732845;0.467;0.06581449275738036
04:55.9;0.23322399667350957;-0.48325672445019985;-0.6734259921464097;0.574;0.07589986686456054
04:55.9;0.1992149542650632;-0.46844550111213973;-0.8746253500887129;0.8290000000000001;0.08162121760960943
04:55.9;0.17049177952350905;-0.45562307547070796;-1.0769888920186341;1.138;0.08366048520863661
04:55.9;0.14661822496594948;-0.44353606266607776;-1.2708699869374245;1.464;0.0826452728345607
04:56.0;0.1266639076606882;-0.43080487352031654;-1.4468871390787081;1.9269999999999998;0.07895291082662431
04:56.0;0.10956720269852867;-0.41611646291996723;-1.5966204087392049;1.9269999999999998;0.07279426219493013
04:56.0;0.09449109776207025;-0.3984162760318294;-1.713176391925548;1.9269999999999998;0.06449559406724693
04:56.0;0.08106567561175168;-0.3770722474111041;-1.7915345189899867;1.875;0.0547629401065565
04:56.0;0.06944420538656779;-0.3519819212031509;-1.828682789623039;1.8980000000000001;0.04469868512462921
04:56.0;0.060153489376541525;-0.3235928583433773;-1.8236196536580673;1.909;0.03549719343696586
04:56.0;0.05377560005409885;-0.29280815698733437;-1.7772984810208385;1.9240000000000002;0.027985225189585548
04:56.0;0.05055606796864299;-0.26077082795824835;-1.69254311123043;1.889;0.022313722845438234
04:56.0;0.05007816081451058;-0.22857204571315878;-1.5739122980036238;1.7480000000000002;0.018015736223378816
04:56.0;0.051142973861301025;-0.19698115249778952;-1.427468963389357;1.514;0.014380610590793307
04:56.1;0.051930688049897825;-0.166303464453608;-1.2604304352027862;1.005;0.010885396548493763
04:56.1;0.05040246904191713;-0.13641675121563826;-1.080735478339039;1.005;0.007430857324969868
04:56.1;0.04479271508986037;-0.10695185280349763;-0.8966229938094291;1.005;0.004295419382314603
04:56.1;0.034011949039492;-0.07752917114753949;-0.7163056828374057;0.885;0.0018888395048341524
04:56.1;0.017843050456792083;-0.04796791110839462;-0.5477342885746229;0.708;0.00046880241352423595
04:56.1;-0.0030968292569076494;-0.018417642049100645;-0.3983752387998983;0.47700000000000004;2.27218467409199e-05
04:56.1;-0.027589847705538323;0.010610033830179385;-0.27492987208393405;0.298;8.048000632944947e-05
04:56.1;-0.05416471164557913;0.03830636539049936;-0.18297708442607494;0.235;0.00037965059565598264
04:56.1;-0.0814555154702044;0.06369743827086248;-0.12657650056833533;0.309;0.0006567431438487568
04:56.1;-0.10848376238431634;0.08579739571378685;-0.10790959451936206;0.29600000000000004;0.001004381963051705
04:56.2;-0.13481748176818809;0.10373767694018038;-0.12704988725459554;0.292;0.0017768755567341779
04:56.2;-0.1606051624378036;0.1168444615903033;-0.18192301984114237;0.292;0.00341393532343553
04:56.2;-0.18650214274749852;0.12466167815797467;-0.26845553960463975;0.292;0.006241502730972694
04:56.2;-0.21350531654442964;0.12693446470132205;-0.3808724155712286;0.461;0.010322093059358219
04:56.2;-0.24270856122522408;0.12357320539990224;-0.5121108252481367;0.565;0.015359368644269587
04:56.2;-0.2749964158474927;0.11461933830508463;-0.6543286461347105;0.645;0.020624378218018533
04:56.2;-0.3107091611744407;0.10023062678850127;-0.799479043397158;0.765;0.024897835249213962
04:56.2;-0.3493394231515641;0.08068798940703505;-0.9399257334306097;0.9640000000000001;0.026494152545626884
04:56.2;-0.38934745811875493;0.05640940589189008;-1.0690853482346816;1.2790000000000001;0.02348017054628525
04:56.2;-0.4281872180822089;0.027959324284699782;-1.1820664770104263;1.604;0.01415149333793439
04:56.3;-0.4625973076054519;-0.003942603422341237;-1.2762214371534317;2.0180000000000002;0.002327620806530118
04:56.3;-0.4891202047397937;-0.03840813131475883;-1.3514720922615377;2.0180000000000002;0.025389015630085533
04:56.3;-0.504704928709273;-0.07437476914168922;-1.4102606562622333;2.0180000000000002;0.0529373950415546
04:56.3;-0.507207293930109;-0.11063770798760636;-1.457030032655825;1.8430000000000002;0.0817630651762059
04:56.3;-0.49566057580394335;-0.1459483875144626;-1.4972374623232587;1.475;0.10831144833334207
04:56.3;-0.47027986526083837;-0.17918696992130628;-1.5360241539680137;0.9940000000000001;0.12943772038035195
04:56.3;-0.4322289190111118;-0.20958294097622202;-1.5767894411328818;0.7240000000000001;0.14283789918339326
04:56.3;-0.38322863520232564;-0.23692801406257794;-1.6200177593100316;0.767;0.14709372364476578
04:56.3;-0.3251244596945075;-0.26171070654016615;-1.6627132958407518;1.013;0.14147786683423166
04:56.3;-0.2595325122269803;-0.28511204709670834;-1.698670858764362;1.443;0.12569458701363187
04:56.4;-0.18764568986069297;-0.30884022607968475;-1.7195848599861145;2.4330000000000003;0.09965430570353141
04:56.4;-0.11022305751238852;-0.3348362477044113;-1.7167427729260238;2.4330000000000003;0.06335926755830258
04:56.4;-0.027734556055534747;-0.364924482395962;-1.6828614876585852;2.4330000000000003;0.017032272271487722
04:56.4;0.059398353738935636;-0.4004889071867641;-1.6136134371557085;2.359;0.038385252484524034
04:56.4;0.15053869083717777;-0.4422345397412815;-1.5085526702170537;2.083;0.10042949339290837
04:56.4;0.24461697061948817;-0.49006658930089003;-1.37135030455424;1.709;0.16439556075853445
04:56.4;0.34001172853953254;-0.5430952574123099;-1.2093894745249625;1.361;0.2233243573781217
04:56.4;0.43454649775121895;-0.5997501846742297;-1.0328661519503475;1.107;0.26918489718027044
04:56.4;0.5255953655734854;-0.6579702857513615;-0.8536061561177233;1.023;0.2951993159693202
04:56.4;0.6102750877833162;-0.7154265347511413;-0.6838237934870449;1.0659999999999998;0.29856224905220385
04:56.5;0.6856932060329852;-0.7697348829408699;-0.5350128618280133;1.219;0.28238084762663285
04:56.5;0.7492097300715423;-0.8186238344635848;-0.41709099499961844;1.247;0.25581064197315107
04:56.5;0.7986593868797485;-0.8600385379993979;-0.3378334101472495;1.247;0.2320502869104945
04:56.5;0.8324906091642391;-0.8921865241742511;-0.3025584124071398;1.247;0.2247212982072548
04:56.5;0.8498098937544094;-0.9135492546128235;-0.31398907893572725;1.2790000000000001;0.24376328473667994
04:56.5;0.8503494921741159;-0.9228898657083728;-0.37221973846029416;1.2990000000000002;0.2921102075666942
04:56.5;0.8343809908678357;-0.9192796606715733;-0.4747485651268425;1.295;0.36414614226546027
04:56.5;0.8025871188342221;-0.9021502984321015;-0.6165801145459131;1.286;0.44643742698335664
04:56.5;0.755900055225911;-0.8713632470772954;-0.7904363350360265;1.301;0.5206315839777728
04:56.5;0.6953230943240588;-0.8272767136275712;-0.9871251748279329;1.3730000000000002;0.5678186881656744
04:56.6;0.6217664796497386;-0.7707858634663634;-1.1960911482520054;1.7690000000000001;0.5732252629095235
04:56.6;0.5359411230477736;-0.70332192129924;-1.4061065193806281;1.7690000000000001;0.5300165826772831
04:56.6;0.4383584911733929;-0.6268160169955628;-1.6059882055403443;1.7690000000000001;0.4412775775011704
04:56.6;0.3294653037131922;-0.5436395190032283;-1.7852271255858352;1.8840000000000001;0.31975267178669414
04:56.6;0.2099001671022498;-0.4565165659610625;-1.934507919628797;2.041;0.18537016566421904
04:56.6;0.08082767725692822;-0.36839917311657716;-2.046168265694952;2.19;0.06092844443049454
04:56.6;-0.055705063625564724;-0.28231796829961975;-2.1146264718393035;2.383;0.033255758612314786
04:56.6;-0.1964597811205265;-0.20124019389021608;-2.1367441183376736;2.496;0.08447747026133445
04:56.6;-0.3368459939104087;-0.12795117557792077;-2.1120483968167187;2.465;0.09102894989607058
04:56.6;-0.471028545359611;-0.0649385273963018;-2.042728889715275;2.387;0.0624827872044289
04:56.7;-0.5924023857858465;-0.014235070066998682;-1.9333522085491575;1.9769999999999999;0.01630374548034493
04:56.7;-0.694422818188642;0.02280076962970654;-1.790318756970427;1.9769999999999999;0.028346787717156163
04:56.7;-0.7716026331375231;0.045722685156370894;-1.6211868080701266;1.9769999999999999;0.05719505598765413
04:56.7;-0.8203936003640064;0.05516131283550987;-1.4340163763655516;1.891;0.06489495994224129
04:56.7;-0.8397416244255953;0.0528439258101222;-1.2368132336023694;1.7009999999999998;0.054883889148226755
04:56.7;-0.8312243801497207;0.04144611717141815;-1.0370870197887705;1.3780000000000001;0.03572870882922467
04:56.7;-0.7987541051232957;0.02428988837904592;-0.8415394105230687;1.069;0.01632725146801153
04:56.7;-0.7479073596926646;0.00493383647214038;-0.6559042318663739;0.861;0.002420321122074878
04:56.7;-0.6850437957676202;-0.013269352480063987;-0.4849223674746925;0.718;0.004407986794851033
04:56.7;-0.6164266398541298;-0.02756314934146965;-0.3323845376550704;0.598;0.005647432513118097
04:56.8;-0.5475230948900478;-0.03605854161579731;-0.20116240958750897;0.33;0.0039715261785391275
04:56.8;-0.4825780998872842;-0.03785685928027894;-0.09319157993899893;0.33;0.0017025068364488378
04:56.8;-0.4244713266864344;-0.03303302715107202;-0.009441573691564375;0.33;0.00013238571342257408
04:56.8;-0.37481458881593116;-0.022509669900805586;0.05006084865147624;0.34299999999999997;0.00042236101060507146
04:56.8;-0.33422648408592276;-0.00785348738994448;0.0861253389747903;0.397;0.00022606553431180442
04:56.8;-0.3027161185151873;0.008974667199003871;0.10022713627341005;0.44;0.00027229472041640374
04:56.8;-0.2801027933834736;0.025875818972384213;0.09430668711306062;0.486;0.0006835244166804314
04:56.8;-0.26639306830961756;0.04083463034318159;0.07057680241750257;0.537;0.0007677388656593168
04:56.8;-0.2620360978815758;0.0520846746643621;0.031376916599868916;0.623;0.0004282341943830002
04:56.8;-0.26798252699750696;0.05821506049635784;-0.020896195325331338;0.602;0.00032599358226154324
04:56.9;-0.28549071144498966;0.05822421359839154;-0.08378034679210336;0.07;0.0013926364824026149
04:56.9;-0.31568756426942207;0.05153047671744043;-0.15469638690344756;0.07;0.002516528220125305
04:56.9;-0.35899729035541916;0.03795790875186817;-0.2309141591874345;0.07;0.003146617921553302
04:56.9;-0.4146202589401937;0.017719707745298477;-0.30960780578336095;0.172;0.002274673011020195
04:56.9;-0.4802208044047094;-0.008589724094408502;-0.38805745700013367;0.433;0.001600723123191178
04:56.9;-0.5519155113840373;-0.04000154828721039;-0.4640044372055417;0.757;0.010244046352591612
04:56.9;-0.6245964713497886;-0.07519531056053078;-0.5360911759247218;1.079;0.025178447176694447
04:56.9;-0.6925646141584253;-0.11255165181524027;-0.6042504346631815;1.395;0.04710089315715348
04:56.9;-0.7503685438626017;-0.15024104427460808;-0.669887329517687;1.673;0.07552052088908945
04:56.9;-0.7936591913642743;-0.18635401073445917;-0.7357314660233526;1.893;0.10881584147403663
04:57.0;-0.8198214765709121;-0.21908213377973662;-0.8053146191980022;1.125;0.1446411401164376
04:57.0;-0.82819687904192;-0.2469463920455385;-0.882139827590533;1.125;0.1804154414743512
04:57.0;-0.8198763119571988;-0.26903313923735644;-0.9687189386908663;1.125;0.21367411236590303
04:57.0;-0.7971932730973443;-0.2851746505486496;-1.0657045703355308;1.125;0.24227654496125467
04:57.0;-0.763062922625211;-0.29603012345742985;-1.1713066658173776;0.865;0.26458600732636167
04:57.0;-0.7202654613130078;-0.30305515852386056;-1.2811185031192582;0.995;0.27964275639737946
04:57.0;-0.6707873070297822;-0.30835664708973587;-1.3884193461125232;1.338;0.28718305244285386
04:57.0;-0.6153784256224581;-0.3144316116049701;-1.4849409451390438;1.72;0.2873278019347008
04:57.0;-0.5534490760484344;-0.3238188023555096;-1.5619706577774393;2.0580000000000003;0.2799320342768716
04:57.0;-0.48330917687559044;-0.33874570751224314;-1.6115659123967;2.2359999999999998;0.2638438130685732
04:57.1;-0.4026424322249217;-0.36087889870244155;-1.6276291495242174;2.0709999999999997;0.23650290994306813
04:57.1;-0.3090750198893211;-0.3912382954687983;-1.606655944693422;1.838;0.19428002436298594
04:57.1;-0.20073669897628962;-0.4302410178429013;-1.5480950994466554;1.838;0.13370148356898823
04:57.1;-0.07676535387180092;-0.477779998486168;-1.4543731136621265;1.838;0.053341970926157604
04:57.1;0.062275651504872964;-0.5332616582838053;-1.3306630689513896;1.585;0.04419027886643668
04:57.1;0.21411228489658626;-0.5955832832204305;-1.1844404642753337;1.3230000000000002;0.15104185873010986
04:57.1;0.37465728664108217;-0.6630696418094396;-1.0248521265834578;1.126;0.25459773438892924
04:57.1;0.5381239637914295;-0.73341318909205;-0.8619520880711975;0.95;0.3401842278310099
04:57.1;0.697370714401201;-0.8036865350504419;-0.7058848399449449;1.0090000000000001;0.3956254784277874
04:57.1;0.8444676034737928;-0.8704946090898174;-0.5661029161474278;1.254;0.4161447990709365
04:57.2;0.9714310623152779;-0.9302868107678767;-0.4507049523157236;1.8259999999999998;0.40730634928713855
04:57.2;1.0710098760076976;-0.9797777349702906;-0.36596725515298545;1.8259999999999998;0.38402833588449853
04:57.2;1.137364065341944;-1.0163709608307019;-0.31610651799936723;1.8259999999999998;0.36541401638078497
04:57.2;1.1665041959296407;-1.0384805002565887;-0.3032644151517161;1.831;0.36737204422764635
04:57.2;1.1564440395243218;-1.0456945535389894;-0.32766452161482207;1.787;0.39624052289350775
04:57.2;1.1070992654262322;-1.0387758227192085;-0.387866945583184;1.681;0.44605782840844077
04:57.2;1.0200013601077358;-1.0195111262166423;-0.48104060355125317;1.554;0.5002354394646539
04:57.2;0.8979059068480448;-0.9904282401977712;-0.6031933513155618;1.375;0.5364267039339528
04:57.2;0.744376394806086;-0.9544097487649328;-0.7493442764617108;1.179;0.5323642136768518
04:57.2;0.5634220000659541;-0.9142516844635318;-0.9136737278201207;1.079;0.4706420286348767
04:57.3;0.3592610496350854;-0.8722326581877177;-1.0897144876768603;1.495;0.34147208221513997
04:57.3;0.13626663167021313;-0.8297708451455972;-1.2706166636256593;1.495;0.14366872542452427
04:57.3;-0.10088733990745057;-0.787242062024263;-1.4494451266690105;1.495;0.11511892880627106
04:57.3;-0.34693055908482956;-0.7440046474634132;-1.619439552264;1.7730000000000001;0.41800641463628424
04:57.3;-0.5956739946723953;-0.6986342838771036;-1.774215547089831;2.044;0.7383544810089154
04:57.3;-0.839802646854937;-0.649335833059633;-1.9079228837363527;2.199;1.0404169665083178
04:57.3;-1.0708761256891575;-0.5944793862115404;-2.015357308608767;2.224;1.2830042381299251
04:57.3;-1.2795677791698763;-0.5331878884501021;-2.0920159964990925;2.296;1.4272780021129305
04:57.3;-1.4561679757776889;-0.4658589933080794;-2.1341311786541657;2.541;1.4477283210280045
04:57.3;-1.5914202447276138;-0.3944463188495487;-2.1387487691153986;2.8369999999999997;1.3425564595848647
04:57.4;-1.677733279701754;-0.32233474025167647;-2.103885065643429;3.472;1.1377636252761556
04:57.4;-1.710620692869302;-0.253789200184849;-2.0287311752593085;3.472;0.8807473828104333
04:57.4;-1.6899727084695142;-0.19315364605699467;-1.9138464038085792;3.472;0.6247261456397711
04:57.4;-1.620697823161561;-0.1440501810254349;-1.7612889915805847;3.2089999999999996;0.41119372438623725
04:57.4;-1.5124501717505374;-0.10875465164710404;-1.5746411545286636;2.478;0.2590064116575031
04:57.4;-1.3784308353255008;-0.0878373866442248;-1.358899707349991;1.7;0.1645325356810611
04:57.4;-1.2335053243375371;-0.08010686839768959;-1.1202382981737689;1.131;0.11069326530511081
04:57.4;-1.092074048484572;-0.08283132819844057;-0.8656847546773414;0.782;0.07830806299708358
04:57.4;-0.9661916347820344;-0.09215075770800596;-0.6027753296026619;0.5820000000000001;0.05366827702123059
04:57.4;-0.8643137520083021;-0.10357694735460413;-0.3392396591012676;0.529;0.030369745213409738
04:57.5;-0.7908254687390153;-0.11250397885218028;-0.0827419215009651;0.802;0.007361632475108975
04:57.5;-0.7462769291650199;-0.11468225692354271;0.15931464102630058;0.802;0.013634899346663256
04:57.5;-0.7281010773716379;-0.10662946254095462;0.37990613136012896;0.802;0.02949478240905214
04:57.5;-0.7315638756963175;-0.08596113027013916;0.5724293987811395;0.961;0.035997828154937524
04:57.5;-0.7507731474418949;-0.05162617196337832;0.7307191429454577;1.188;0.02832234049154522
04:57.5;-0.7796490149567918;-0.0040318602758360475;0.8491161652150256;1.416;0.0026691422306380167
04:57.5;-0.8127727932795936;0.054956894354440886;0.9226207139125738;1.59;0.041211131707903643
04:57.5;-0.8460066723779615;0.1221527804232393;0.9471166485646411;1.642;0.09787699242515484
04:57.5;-0.8767720479290709;0.19331334378791443;0.9196348837470502;1.5630000000000002;0.15587051323127765
04:57.5;-0.9039255755127114;0.26352668358914955;0.838614702985686;1.442;0.19976515812959683
04:57.6;-0.9272742407179074;0.3276907304767468;0.7041085485985826;0.927;0.21394984148578522
04:57.6;-0.9468845348307481;0.3810390836233161;0.5178946373075806;0.927;0.1868563931415284
04:57.6;-0.96241017503308;0.4196358175949586;0.2835194011254715;0.927;0.11450265019067563
04:57.6;-0.9726464875938131;0.44075683297091756;0.006314183746077907;0.89;0.002706894268722243
04:57.6;-0.97543042146348;0.4431111011785931;-0.30662078925673614;1.062;0.132528878788013
04:57.6;-0.9678966052188099;0.42689277515445956;-0.6465105254099368;1.44;0.2671304348481545
04:57.6;-0.9470052645559212;0.39366513512810275;-1.0030825242793355;1.7280000000000002;0.3739521295999784
04:57.6;-0.910185841190702;0.3460794257659654;-1.3647753974130963;1.8619999999999999;0.42989960074962885
04:57.6;-0.8559089077881663;0.28745195938687984;-1.7189348742841466;1.815;0.42291417552484606
04:57.6;-0.7840244650430613;0.22126077761505128;-2.0520366287640477;1.65;0.35597472060833574
04:57.7;-0.6957842193438111;0.1506590310963607;-2.3500736717741177;2.6510000000000002;0.24634923712580412
04:57.7;-0.5935857337031193;0.07811397076427587;-2.5992408474417914;2.6510000000000002;0.12051988060254704
04:57.7;-0.48058711851761243;0.0052555464473056064;-2.786903336254003;2.6510000000000002;0.007039015314109801
04:57.7;-0.3603549418931025;-0.06703910132631634;-2.9027094140332506;3.278;0.07012328091868589
04:57.7;-0.2366114990252723;-0.13837317790539216;-2.9397113185725052;3.6519999999999997;0.09624816241661434
04:57.7;-0.11304403093224687;-0.20848538034783445;-2.8953627704054905;3.734;0.06823799022046072
04:57.7;0.006883313856583252;-0.2769750245078286;-2.772185652877571;3.555;0.005285188647196285
04:57.7;0.12013011661521951;-0.3431982103771076;-2.5778702069859563;3.136;0.10628156982392467
04:57.7;0.22426123278098764;-0.40634585041904836;-2.3246790867748035;2.548;0.21184247558084188
04:57.7;0.3175655402252977;-0.4656328595826353;-2.0281998029918165;1.974;0.29990777647554645
04:57.8;0.3990886907527185;-0.5204982749585249;-1.7056544155950373;1.042;0.35430702099545885
04:57.8;0.46858094857115;-0.5707371549047827;-1.3741052611637323;1.042;0.36748598059219295
04:57.8;0.52636977763169;-0.6165274126803404;-1.0489489186445244;1.042;0.3404063685822496
04:57.8;0.5731714481588585;-0.65835421887762;-0.7429856306624106;0.9209999999999999;0.2803655096221805
04:57.8;0.6098710401839061;-0.6968629758136234;-0.4661151659589033;0.893;0.19809733646807212
04:57.8;0.6373139601932006;-0.7326866301153285;-0.2255188888903452;0.8809999999999999;0.10530636491240485
04:57.8;0.6561492464519563;-0.7662926117603204;-0.026139337283706536;0.9109999999999999;0.01314291942345198
04:57.8;0.6667512546977963;-0.7978808950163905;0.12870707862961261;0.965;0.06847063265313044
04:57.8;0.6692329620272617;-0.8273445305228242;0.23672447959108006;1.003;0.13107108483786847
04:57.8;0.6635514349786984;-0.8542871691944868;0.2961568024370706;1.056;0.16788047476753634
04:57.9;0.6496892526484271;-0.8780838710780396;0.3055167586480062;1.2429999999999999;0.1742917057870299
04:57.9;0.6278728601040223;-0.8979663088512975;0.2635640832966027;1.2429999999999999;0.14859971647971104
04:57.9;0.5987660511293289;-0.9131059609806612;0.1695207771035109;1.2429999999999999;0.09268325577111401
04:57.9;0.563569641458092;-0.9226683962804139;0.02346786971858324;1.213;0.01220300822852414
04:57.9;0.5239752502875649;-0.9258261369499599;-0.1731559151206575;1.127;0.08399966283813391
04:57.9;0.48195347683821954;-0.9217365257585469;-0.4170444730079496;1.002;0.18526538585135086
04:57.9;0.4393972323716965;-0.9095045830853026;-0.7025960906809621;0.953;0.28078114322118586
04:57.9;0.3976877659318126;-0.8881608984445188;-1.0216472196534916;1.053;0.36085675360575736
04:57.9;0.3572903404641899;-0.8566889240373897;-1.3634315674450106;1.2670000000000001;0.41732823826137405
04:57.9;0.3174985387002913;-0.8141256806145747;-1.7148193318329998;1.5019999999999998;0.4432528695828733
04:58.0;0.27642725050681294;-0.7597374293170163;-2.0608790491298072;2.4730000000000003;0.4328095960870036
04:58.0;0.23130750340620762;-0.693253413019958;-2.3857408823991064;2.842;0.38256480210828886
04:58.0;0.1790540006091122;-0.6151303810582679;-2.673623431562332;2.842;0.29447704390689855
04:58.0;0.11697985455315787;-0.5268035902342246;-2.9098339880406026;2.842;0.1793197048736865
04:58.0;0.04348401068776161;-0.43085466362168456;-3.081653161826481;3.283;0.05773566196146419
04:58.0;-0.04145158442294735;-0.33101308200278906;-3.179148111970982;3.638;0.043621144379804376
04:58.0;-0.13609291131351867;-0.23192205352013717;-3.195949737249148;3.804;0.10087359364595865
04:58.0;-0.2372039984565655;-0.13864925709224712;-3.1298989664178585;3.838;0.10293661224900127
04:58.0;-0.34068407333847134;-0.05600729640048768;-2.9833699130948013;3.637;0.056925066362828396
04:58.0;-0.4423929992746773;0.012167629050691745;-2.763098716621314;3.285;0.014873411991895041
04:58.1;-0.5388755894730424;0.0636027880737516;-2.479472677671688;1.9169999999999998;0.08498142154995955
04:58.1;-0.6277554176728359;0.09791473156062588;-2.145425111667112;1.9169999999999998;0.1318717795070174
04:58.1;-0.7077352522116461;0.11663604776033787;-1.7752437693170473;1.9169999999999998;0.14654183328829817
04:58.1;-0.7782907936090755;0.12297554369699526;-1.3835814689002952;1.472;0.13242359724329905
04:58.1;-0.8392007616445774;0.12137221424769322;-0.9847552742252079;1.038;0.10030289311556716
04:58.1;-0.8900550919081577;0.11691472947910048;-0.592254154906118;0.698;0.061630293272217425
04:58.1;-0.9298759473131322;0.11471383088852755;-0.21837532771380022;0.598;0.023294015881663875
04:58.1;-0.9569658221254919;0.1193204305260021;0.12602479879750142;0.754;0.014390213975654684
04:58.1;-0.9690441303640736;0.13426245732345574;0.43166006885742797;1.021;0.05616167119241665
04:58.1;-0.9636572451208991;0.16173563887125386;0.6908444728187118;1.252;0.10767344454114235
04:58.2;-0.938771362547285;0.2024438371755127;0.8974679102716067;1.565;0.17056240938193556
04:58.2;-0.8934098128501983;0.25555788297854987;1.046960516159083;1.565;0.23903984779481152
04:58.2;-0.8281914823454933;0.3187573194829231;1.1362636898220413;1.565;0.2999646341427193
04:58.2;-0.7456553253407442;0.3883381960513615;1.1638171598506835;1.561;0.33700239634977464
04:58.2;-0.6502973613467928;0.45939836031548076;1.1295860888260902;1.5090000000000001;0.33745880780003545
04:58.2;-0.5482952047635079;0.526125383697597;1.035144396369413;1.4269999999999998;0.29861020017333956
04:58.2;-0.44695618606842835;0.5822015542528943;0.883779566561203;1.314;0.229975869333597
04:58.2;-0.35398843952401243;0.6213164131410175;0.6805330780037372;1.1740000000000002;0.14967564727727137
04:58.2;-0.2767329912147429;0.6377509117611164;0.43208192806972895;1.021;0.07625672115949841
04:58.2;-0.22149125370044714;0.6269722381510303;0.14640058783991003;0.919;0.020330483770750963
04:58.3;-0.19303932024798026;0.5861622906092379;-0.16779079240767802;1.249;0.01898592584762536
04:58.3;-0.19435160614836894;0.5146084848462558;-0.5016761771693701;1.249;0.05017513561912723
04:58.3;-0.22648850604005594;0.4139121811598288;-0.846862739595694;1.249;0.07939029209452705
04:58.3;-0.2885748264325598;0.28799093307499857;-1.1955553707760151;1.482;0.09935894072605576
04:58.3;-0.3778167662616823;0.1428520373999671;-1.5403427168228248;1.601;0.08313521510581268
04:58.3;-0.4895370172358251;-0.01387622590400968;-1.8737110451246386;1.642;0.012727980923741932
04:58.3;-0.6172231508735487;-0.17363195663518427;-2.1874543446827137;1.719;0.23442874574968886
04:58.3;-0.7526004935056192;-0.3277524931114745;-2.4721684179804084;1.814;0.6098015959981445
04:58.3;-0.8857793958225351;-0.46833772577878807;-2.717052493111402;2.053;1.1271526738890811
04:58.3;-1.0055873619343574;-0.5890007452654641;-2.910248691582933;2.533;1.723716161283633
04:58.4;-1.1002346101805995;-0.6853606143367472;-3.039863328701087;4.301;2.292231645764045
04:58.4;-1.158380254902261;-0.7551865205522686;-3.0955834845433245;4.301;2.707995240459062
04:58.4;-1.1704518476290642;-0.7982190710379581;-3.0704993654253387;4.301;2.8686968942077917
04:58.4;-1.1299090212889786;-0.8157990269411337;-2.962606267904233;4.381;2.7308672952834403
04:58.4;-1.0341751025874502;-0.8104523263778809;-2.775600475811242;3.957;2.326368477894754
04:58.4;-0.8850803258987241;-0.7855367770733422;-2.5188243127012493;3.218;1.7512457175261034
04:58.4;-0.6887488920013631;-0.7449998003562133;-2.206400567107542;2.432;1.1321433763104742
04:58.4;-0.4549542540847179;-0.6932355300612763;-1.8557448534982892;1.7409999999999999;0.5852842108955211
04:58.4;-0.1960770228059443;-0.6349775236517816;-1.4857598810592736;1.2409999999999999;0.1849837946568613
04:58.4;0.07413254827307494;-0.5751478737929587;-1.1150432884353099;0.963;0.047542298629396705
04:58.5;0.3417853436805847;-0.5186105699352895;-0.7603788941948335;0.927;0.13477981414919277
04:58.5;0.5939111857491213;-0.4698371102501856;-0.4356874999902071;0.927;0.12157490017607532
04:58.5;0.8192280089579019;-0.4325575078164605;-0.15152473710809874;0.927;0.053694794643498085
04:58.5;1.0085881278877422;-0.4094888684932833;0.08488734120634689;1.0979999999999999;0.03505894824354637
04:58.5;1.1551660682208975;-0.4021909404471355;0.26921793210585937;1.2209999999999999;0.12507793173117904
04:58.5;1.2545003824133836;-0.41104328049159555;0.3993566965741281;1.338;0.20592985907181377
04:58.5;1.304473748032163;-0.43531633535495473;0.4746865133292425;1.443;0.26955488134783195
04:58.5;1.3052610207933888;-0.47331037466694964;0.4954412210879882;1.507;0.30608040703774325
04:58.5;1.2592351254764702;-0.522539120209775;0.46226560318455173;1.528;0.30417058873999137
04:58.5;1.1707984630803896;-0.5799342512718887;0.3760588203944569;1.528;0.2553387231408801
04:58.6;1.0461037191832248;-0.6420463130070695;0.23812445642456115;1.163;0.15993558533870647
04:58.6;0.8926556010873905;-0.7052184709413177;0.05058517994853734;1.163;0.031844241757079735
04:58.6;0.7188320793475353;-0.7657160118386762;-0.18303477380335562;1.163;0.10074622587500305
04:58.6;0.5333733928490014;-0.8198131726859753;-0.45719645253617247;0.9209999999999999;0.19991670789141838
04:58.6;0.3448466684833652;-0.8638655521221188;-0.7638603256430271;0.855;0.22755487530483906
04:58.6;0.1610835727967834;-0.8944133933980063;-1.0922688103214375;1.097;0.15736896195174271
04:58.6;-0.01134928273495086;-0.9083560497488526;-1.4290826972320674;1.452;0.014732684526436899
04:58.6;-0.16752245708869457;-0.9032137560102566;-1.7588957829181109;1.82;0.2661360367951822
04:58.6;-0.30424263497954873;-0.8774585580399785;-2.0651118916319695;2.225;0.5513028979368616
04:58.6;-0.4198501846292596;-0.8308594519346635;-2.331139834005196;2.6430000000000002;0.8131866474075117
04:58.7;-0.513805527181269;-0.7647574132592931;-2.541815748233413;3.47;0.9987724020607708
04:58.7;-0.5862354650156395;-0.6821818160652382;-2.6848787084896824;3.47;1.0737344758356566
04:58.7;-0.6376093386877549;-0.5877457975125732;-2.752241077334094;3.47;1.0314084241704653
04:58.7;-0.6686514021599383;-0.48728911573397543;-2.7408032459288454;3.447;0.8930264672004627
04:58.7;-0.6805046974077811;-0.38726654827284845;-2.6526825498611353;3.2460000000000004;0.6990792192607806
04:58.7;-0.6750427066410561;-0.2939463035909581;-2.494859030952674;2.92;0.4950456674483618
04:58.7;-0.655116870775069;-0.21258065019759903;-2.278323723303247;2.445;0.3172911414263815
04:58.7;-0.6245305287809302;-0.1467556195802539;-2.0168731683128485;1.879;0.18485321204504673
04:58.7;-0.5876722646527132;-0.09806689300026844;-1.7257355441744648;1.459;0.09945619838054218
04:58.7;-0.5489259847334884;-0.06615066391806197;-1.4202152490833255;1.198;0.05157059811704447
04:58.8;-0.5120785299297252;-0.04899673505420675;-1.1145043275899817;0.5760000000000001;0.02796310979654018
04:58.8;-0.47991650692617605;-0.04342289842205585;-0.8207695639905751;0.5760000000000001;0.01710431712513828
04:58.8;-0.4540846110059917;-0.0455921306270021;-0.5486036457955005;0.5760000000000001;0.011357568414277618
04:58.8;-0.43516829233286625;-0.05148864540780545;-0.30487923046369686;0.53;0.006831192908965546
04:58.8;-0.4229240056023036;-0.05731121915358197;-0.09394508540277553;0.531;0.0022770682588630297
04:58.8;-0.41658260443775447;-0.05977189900168581;0.0819652949358728;0.534;0.0020409303815976773
04:58.8;-0.41515765672645794;-0.05630087498397301;0.2222289516638776;0.524;0.005194321587769643
04:58.8;-0.41770497801702594;-0.04516351948044718;0.32730750246592677;0.528;0.006174664842437948
04:58.8;-0.42350671849417143;-0.02550259463168295;0.39825505620378776;0.544;0.0043013617655617035
04:58.8;-0.4321756416263153;0.0026724750516158215;0.43631064574951495;0.57;0.000503929467589935
04:58.9;-0.4436813597657782;0.03852437085176796;0.4426214762308687;0.595;0.007565527608279982
04:58.9;-0.4582971381155968;0.08043821274829038;0.41813201539640166;0.595;0.015414270622766471
04:58.9;-0.47646628379579137;0.12608275641964403;0.36365048633416974;0.595;0.021846005646614104
04:58.9;-0.49859591656535995;0.17249776302810985;0.2800734720176471;0.563;0.024088189557822926
04:58.9;-0.5248022303435412;0.21623389923683123;0.16871938083891327;0.535;0.019146280837070453
04:58.9;-0.5546553988186924;0.25357040728980507;0.031690960772538974;0.534;0.004457149678797912
04:58.9;-0.5869943241206536;0.28081650615398834;-0.12783818491379864;0.55;0.021072551763805156
04:58.9;-0.6198807571921021;0.29467060462612354;-0.30551675401914946;0.607;0.05580588506153606
04:58.9;-0.6507336342106976;0.2925837268192351;-0.49595582694107243;0.8340000000000001;0.09442704935598355
04:58.9;-0.6766428913229205;0.27306178874640524;-0.6931242035845797;1.242;0.1280653140601254
04:59.0;-0.6948161185756581;0.2358463106441074;-0.8909326851206216;1.8330000000000002;0.1459969770875937
04:59.0;-0.7030626759906139;0.18194173803818608;-1.0838519409605785;1.8330000000000002;0.13864248743194382
04:59.0;-0.7001892961123414;0.11350803918558161;-1.267348933530203;1.8330000000000002;0.10072523574456257
04:59.0;-0.6861956216223648;0.033666161088853584;-1.4379726327589868;1.8330000000000002;0.03321942879287665
04:59.0;-0.6622088508036357;-0.05376181625926416;-1.5930679340544653;1.499;0.05671568860320145
04:59.0;-0.6301561380004884;-0.14459203621916855;-1.7302508702042638;1.295;0.15765277547296197
04:59.0;-0.5922383930251012;-0.23469537225879075;-1.8468715910458586;1.4180000000000001;0.25670704360512586
04:59.0;-0.5503358280298114;-0.3204280275155429;-1.939708319077972;1.7469999999999999;0.3420540303668586
04:59.0;-0.5055085954459668;-0.39897205461988844;-2.0050542939183917;2.197;0.4043869751248867
04:59.0;-0.4577297244678645;-0.4685025511190978;-2.039191203588642;2.569;0.4372995446142044
04:59.1;-0.40591822034566477;-0.5281645228287967;-2.039070800564967;2.316;0.43715965788249134
04:59.1;-0.3482550587330579;-0.5779056998415756;-2.002960579877279;2.316;0.40311300899325725
04:59.1;-0.2826883839472117;-0.6182408887874256;-1.9308834558936636;2.316;0.33745957040139335
04:59.1;-0.20749804960893742;-0.6500199896798206;-1.82480222240067;2.093;0.24612545529600446
04:59.1;-0.12180413248302412;-0.6742490627932066;-1.6885637339670456;1.8980000000000001;0.1386755292220757
04:59.1;-0.025939450060193613;-0.6919812754094462;-1.527636900940906;1.7180000000000002;0.02742049230085998
04:59.1;0.0783641021219823;-0.7042633288234716;-1.3486989658455861;1.555;0.07443329789157413
04:59.1;0.18799871301759374;-0.7121078541146666;-1.159133684612354;1.345;0.15517943943531803
04:59.1;0.2987075009865779;-0.7164675252394203;-0.9664906371736101;1.135;0.20684274372020361
04:59.1;0.4054850150302749;-0.718201801981698;-0.7779429690671531;1.0;0.22655260471851782
04:59.2;0.5031055028395593;-0.7180400343232634;-0.5997915655465623;1.026;0.2166746385923806
04:59.2;0.5867124446761582;-0.7165507130960274;-0.4370907097952263;1.09;0.18375696464307464
04:59.2;0.6523738456098157;-0.7141277537179905;-0.29348438500837004;1.09;0.13672799725146814
04:59.2;0.6975044834304432;-0.7110025865942354;-0.17130449366584075;1.09;0.0849546078914945
04:59.2;0.7211023727843219;-0.7072855388078035;-0.07189712018252414;1.139;0.03666934887172253
04:59.2;0.7238039458549815;-0.703032126951947;0.003930304415876799;1.151;0.0019999645945539867
04:59.2;0.7077846747510119;-0.6983207018935002;0.055468766376702935;1.11;0.027416030790589293
04:59.2;0.6765250993624613;-0.6933213605707921;0.08177839427283688;1.061;0.03835809878099961
04:59.2;0.634456302898482;-0.688337013378682;0.08153174313751747;1.0190000000000001;0.03560652302279049
04:59.2;0.5865044193186665;-0.68380270135266;0.05305341931084454;0.9740000000000001;0.02127724922435869
04:59.3;0.5375651709595292;-0.6802330531526775;-0.00544984903333758;0.7290000000000001;0.001992844102512677
04:59.3;0.4919564702316979;-0.6781161651313419;-0.09550775813410228;0.7290000000000001;0.03186173528472158
04:59.3;0.4529172904309955;-0.6777698681687383;-0.21792576866470295;0.7290000000000001;0.06689747783835819
04:59.3;0.4222216363042744;-0.6791894320610558;-0.3723349077246673;0.69;0.10677391306884611
04:59.3;0.3999497462885539;-0.6819133224334919;-0.5568349264294543;0.763;0.15186617989609727
04:59.3;0.3844366524375447;-0.6849271377682651;-0.767781467728974;0.884;0.2021653797617795
04:59.3;0.3724169266186684;-0.686626604727086;-0.999726012497511;1.044;0.25564130814748476
04:59.3;0.35938004830289944;-0.6848642457569865;-1.245495854065467;1.203;0.306549592271053
04:59.3;0.3401315425764095;-0.6771070836689075;-1.4964084340391806;1.444;0.34463105797530674
04:59.3;0.3095315671148507;-0.6607342497979842;-1.7426280388768642;1.76;0.3563989890866654
04:59.4;0.2633495102684335;-0.63348719109371;-1.973668595231537;2.519;0.3292642532175952
04:59.4;0.19911450772541817;-0.5940238090471407;-2.179013553856625;2.519;0.2577310175030227
04:59.4;0.11677902024221502;-0.542438074274314;-2.3487869092255544;2.519;0.1487848154067979
04:59.4;0.01900093257197803;-0.4805629106598967;-2.4744206054634836;2.792;0.02259428953392039
04:59.4;-0.0890857471361505;-0.411918510300401;-2.5493090152392885;2.991;0.09354961761183107
04:59.4;-0.200621574617017;-0.34126814262592003;-2.5694274921859663;3.1260000000000003;0.17591778582231463
04:59.4;-0.30816035462102287;-0.27385828403845813;-2.5338070009404614;3.069;0.21383371422649095
04:59.4;-0.4049373689908159;-0.214518979822395;-2.444712176576058;2.9530000000000003;0.21236420461307093
04:59.4;-0.48595396361995685;-0.1668428806587238;-2.307432597637308;2.719;0.18708192591079462
04:59.4;-0.5486092704404614;-0.1326322599516116;-2.1297088604058096;2.369;0.15496461782185
04:59.5;-0.5927455493320778;-0.11172325507821235;-1.9209003429398555;1.453;0.12720867125929405
04:59.5;-0.6201651295276455;-0.10218684523168722;-1.6910546957537804;1.453;0.10716673254112621
04:59.5;-0.6338433152518764;-0.10080106667974698;-1.4500649240015;1.453;0.09264766744320974
04:59.5;-0.6371064885871525;-0.10364651407182315;-1.2070504462514198;1.215;0.07970620818899843
04:59.5;-0.6329637219495868;-0.10670804292905971;-0.9699760741877551;0.9940000000000001;0.06551443440903665
04:59.5;-0.6236733585641651;-0.10640890996823374;-0.74543831371716;0.81;0.04947056811231708
04:59.5;-0.6105613904203668;-0.10002095909626439;-0.5385631956506624;0.703;0.03288948125012792
04:59.5;-0.5940704655276654;-0.08590908515733245;-0.35300885803198595;0.675;0.018016177803967956
04:59.5;-0.5739860348041039;-0.06359721749122851;-0.1910812573608177;0.6829999999999999;0.006975213918009028
04:59.5;-0.5497653605468601;-0.03367122254606536;-0.05395063175825368;0.6940000000000001;0.0009986948084255171
04:59.6;-0.5208914528759814;0.002447652298727562;0.05807340499288306;0.6559999999999999;7.404133591215147e-05
04:59.6;-0.48718543873284537;0.04280457634704926;0.1452596003840709;0.6559999999999999;0.00302920976031729
04:59.6;-0.44903121690635034;0.08521027946654951;0.20819775809048474;0.6559999999999999;0.007966078335198606
04:59.6;-0.40748452321835626;0.12746229444257967;0.2475795464240283;0.574;0.012859012343854682
04:59.6;-0.3642517648269296;0.167455547634304;0.26403242679093164;0.47;0.016104916295396565
04:59.6;-0.32154431543659784;0.20320077702760586;0.2580218136340723;0.386;0.016858643384762995
04:59.6;-0.28184409335601096;0.23279915192263143;0.22981880394100906;0.33399999999999996;0.015079116329806146
04:59.6;-0.24763689709300213;0.25442769577978636;0.17951473691634753;0.306;0.011310448988089429
04:59.6;-0.2211668351491676;0.2663767521245334;0.10706372714239135;0.303;0.006307520646996819
04:59.6;-0.20424586262595204;0.267154257587035;0.012340682672943817;0.302;0.0006733712233038431
04:59.7;-0.1981309617111559;0.25564549401633885;-0.104790148328388;0.5489999999999999;0.005307755939221636
04:59.7;-0.20346338424306373;0.23129928915053605;-0.2443794327453003;0.5489999999999999;0.011500724879231618
04:59.7;-0.22025113370656074;0.19430109715217905;-0.40622220794099817;0.5489999999999999;0.017384294389888345
04:59.7;-0.24787265231899036;0.14568940539230613;-0.5895697210532914;0.722;0.021290788990574707
04:59.7;-0.28508606424380795;0.08737505664200385;-0.7927343934756432;0.88;0.019746546829758446
04:59.7;-0.3300334405709336;0.022032374838206477;-1.0126427090299235;0.938;0.007363350925060968
04:59.7;-0.38023107550015545;-0.04715045153643938;-1.244396817069703;0.9129999999999999;0.02230962938410668
04:59.7;-0.43254473752825984;-0.11684368064564876;-1.4809223575762844;0.9079999999999999;0.07484599244335673
04:59.7;-0.4831667257477812;-0.18401975475631085;-1.7128360736097203;1.091;0.15229206187473235
04:59.7;-0.527640131720468;-0.24638992995778003;-1.928714424373181;1.5019999999999998;0.25074293360232475
04:59.8;-0.5610101321570424;-0.30273142808800163;-2.115904067848459;2.8560000000000003;0.3593554105079458
04:59.8;-0.5781778926087826;-0.35300233117710306;-2.2618377603080195;2.8560000000000003;0.4616368887405285
04:59.8;-0.5744543939642895;-0.3981981124024036;-2.355581142334746;2.8560000000000003;0.5388313076859776
04:59.8;-0.5462209882810148;-0.43999059743229274;-2.389239628811667;3.103;0.5742109749198487
04:59.8;-0.49156929736479527;-0.48024820698547555;-2.3589724863243786;3.125;0.5568950752856145
04:59.8;-0.41078359710643314;-0.5205610723249867;-2.2655181296334446;2.8939999999999997;0.48445375208288705
04:59.8;-0.30652607694986456;-0.561892794988022;-2.114200139417788;2.528;0.36413882572856693
04:59.8;-0.1836442613725332;-0.6044290311272783;-1.9144197225651158;2.1519999999999997;0.2125004417436482
04:59.8;-0.04863788374396946;-0.6476092525144767;-1.6787046805888735;1.8130000000000002;0.05287641672353474
04:59.8;0.09108254823806476;-0.6902729112995202;-1.4214443894659363;1.4969999999999999;0.08936878974039288
04:59.9;0.2279884425256169;-0.7308481832452693;-1.1574723675435044;1.02;0.19286376266015762
04:59.9;0.35514459240929575;-0.7675361370520484;-0.9006889922157965;1.02;0.2455154875422051
04:59.9;0.4667516580759692;-0.7984702690466716;-0.6629419775160956;1.02;0.24707007024311695
04:59.9;0.5584907014947577;-0.8218527195517299;-0.4533287366680838;1.0090000000000001;0.2080765763240506
04:59.9;0.6277000332857454;-0.8360823585394817;-0.2779447066747354;1.087;0.14586786252063805
04:59.9;0.6734397921905392;-0.8398908272511401;-0.13999077598556836;1.18;0.0791810093340819
04:59.9;0.696480539130354;-0.8324869818265226;-0.04013713481490544;1.24;0.023271951548547457
04:59.9;0.6992180151172435;-0.8136870310418893;0.022938928805490595;1.2670000000000001;0.013050980379539369
04:59.9;0.685494919037972;-0.7839931491139909;0.05192110983486168;1.213;0.0279036152399815
04:59.9;0.6603078959000832;-0.7445859642195269;0.05021317246163808;1.131;0.024687607085481827
05:00.0;0.6293919391611422;-0.6972152755664547;0.021368810149885488;0.831;0.009377097047804515
05:00.0;0.5987032594117587;-0.6440053371130963;-0.031344821364308176;0.831;0.012085563043001088
05:00.0;0.5738517530769859;-0.5872219027345212;-0.1052113157677945;0.831;0.03545393225665575
05:00.0;0.559540098824789;-0.5290508773872791;-0.19814984322048163;0.7170000000000001;0.05865734304923796
05:00.0;0.5590477552116356;-0.47141108031350687;-0.3086461398682261;0.631;0.08134100686407703
05:00.0;0.573789806919635;-0.4158031494122671;-0.43557575200008697;0.569;0.10392123482572563
05:00.0;0.6030006419454442;-0.363202864268847;-0.5779708919766289;0.61;0.12658230686587535
05:00.0;0.6436171073996935;-0.3140197385183672;-0.7347792751950154;0.8059999999999999;0.14850511933822527
05:00.0;0.6904382024935428;-0.26814381016992467;-0.9046494020370662;1.025;0.16748383236415215
05:00.0;0.7366144515665467;-0.2251019541016246;-1.085747197557143;1.222;0.18003138275873704
05:00.1;0.7744693042435197;-0.1843415375910298;-1.2755798189090004;1.916;0.18211052843704026
05:00.1;0.7965607434550085;-0.14562635292493525;-1.4707973395279101;1.916;0.17061283842358782
05:00.1;0.7967727567045394;-0.10945354320123361;-1.6669698193386298;1.916;0.14537577340287985
05:00.1;0.7711790623460455;-0.07733927766440216;-1.8583925792397995;1.916;0.11083905235226893
05:00.1;0.7184981105125346;-0.0518380535474882;-2.0380337986162833;2.085;0.07590767655487733
05:00.1;0.6400836260228778;-0.03623181514031188;-2.197750720194866;2.247;0.05096889761847642
05:00.1;0.5394988318022729;-0.033906658770957464;-2.328825027900114;2.455;0.04260027121967106
05:00.1;0.4218143350061328;-0.047528780221517415;-2.4227470949060415;2.665;0.04857201103116363
05:00.1;0.292839446269335;-0.07822551623258477;-2.4721007387692264;2.75;0.05662968934724665
05:00.1;0.15849080875793153;-0.12501791050717426;-2.4714000588972023;2.7739999999999996;0.04896878970405068
05:00.2;0.02440695446868977;-0.18469414766368403;-2.417773678238345;2.678;0.010898892537996644
05:00.2;-0.10420875117221495;-0.25215686571298673;-2.311436314538291;2.678;0.060737501262578035
05:00.2;-0.22261908065964214;-0.3210919252578512;-2.155911009283955;2.678;0.15410708277053276
05:00.2;-0.32658123330150496;-0.3847257650263012;-1.9579604312507324;2.408;0.24600640104321905
05:00.2;-0.4124662024781721;-0.4365104905963171;-1.727174318107079;2.063;0.31097052398289604
05:00.2;-0.47749111756413853;-0.4706861631376627;-1.4751898349419035;1.685;0.33154664664764183
05:00.2;-0.5199994445258771;-0.4827180783061423;-1.2146057552940723;1.314;0.3048819954882396
05:00.2;-0.5396784684315753;-0.4696113715563067;-0.9577451274650903;1.044;0.2427301069601325
05:00.2;-0.5376259809002786;-0.4301025449919627;-0.7154755777728653;0.897;0.1654424962815514
05:00.2;-0.5162366728844876;-0.3647210579616713;-0.4962933095831913;0.784;0.09344328823256083
05:00.3;-0.47893135645746826;-0.27571271348308846;-0.3058184569826777;0.359;0.04038255164645451
05:00.3;-0.42978716207509765;-0.16684021530020562;-0.14675455916492655;0.359;0.010523150522945265
05:00.3;-0.3731453516424285;-0.04311568986445349;-0.0192668268184407;0.359;0.0003099727875835296
05:00.3;-0.3132627731281529;0.08947589840212575;0.07833518871868403;0.268;0.0021956936702884136
05:00.3;-0.2540341403549575;0.22425089205379475;0.14875274231866556;0.275;0.008474054382490916
05:00.3;-0.19878093753472487;0.35412741453780416;0.1948313915396617;0.35700000000000004;0.013714918009598119
05:00.3;-0.15010199049708578;0.4719737317484352;0.2187975200745206;0.48100000000000004;0.015500534527265557
05:00.3;-0.1097930769288046;0.5709998734453723;0.221695750148463;0.601;0.013898512952106227
05:00.3;-0.07884649305831784;0.6451733415890402;0.20308770796687223;0.703;0.01033100172004997
05:00.3;-0.05753344579049441;0.6896341720678892;0.1610321018411352;0.8029999999999999;0.006389275576606333
05:00.4;-0.045557507062739776;0.7010793414338646;0.09233362923109392;0.858;0.00294908321498802
05:00.4;-0.04225070358092589;0.6780810535918725;-0.006968809518554828;0.858;0.00019965222256507128
05:00.4;-0.0467721302129579;0.6213008260773832;-0.14091143728700842;0.858;0.004094824808808151
05:00.4;-0.05827073977572186;0.5335621284160792;-0.31276362256474277;0.8079999999999999;0.009724152535934734
05:00.4;-0.07598728712174753;0.4197464437215623;-0.5241112565316182;0.74;0.01671673478445863
05:00.4;-0.09928099475908002;0.28648379100637755;-0.7739621487734806;0.6890000000000001;0.022013337733617914
05:00.4;-0.12756586067384562;0.14162716798372418;-1.0579760202438144;0.617;0.019114232252947276
05:00.4;-0.16013885402938602;-0.0064641158780362785;-1.3679304249172686;0.6409999999999999;0.0014160215360700177
05:00.4;-0.19589842969703372;-0.14975775915304007;-1.6915620996760783;0.9279999999999999;0.04962588145383427
05:00.4;-0.23300511100606805;-0.2813723487881942;-2.0129557396370195;1.4280000000000002;0.13197178450428296
05:00.5;-0.2686135055642377;-0.3962322668483641;-2.31362582981505;3.13;0.2462469204495244
05:00.5;-0.2988444172080825;-0.49140623188784255;-2.574264909029149;3.13;0.37804112206989093
05:00.5;-0.3191084728404773;-0.566057832771479;-2.7768525611385795;3.5469999999999997;0.5015935705422444
05:00.5;-0.3247626144578955;-0.6210522052782621;-2.906667620263551;3.5469999999999997;0.5862589825008853
05:00.5;-0.3119579690257189;-0.6583601593774238;-2.953854175813476;3.747;0.6066646330297312
05:00.5;-0.27847117735431887;-0.6804391545862271;-2.914391640338268;3.74;0.552226774997975
05:00.5;-0.224300937080828;-0.6897487471992368;-2.7904255106717066;3.523;0.4317103313735297
05:00.5;-0.15185672454117294;-0.6884885633641101;-2.589945071194083;3.0469999999999997;0.2707829480262769
05:00.5;-0.06567800319569861;-0.678550051889243;-2.325835089359465;2.498;0.10365273044347881
05:00.5;0.028234238756352788;-0.6615948416269125;-2.0144096285727797;2.006;0.037628419919822576
05:00.6;0.12329175573692178;-0.6391548043167822;-1.6736331714916866;1.023;0.1318865081417949
05:00.6;0.2131961184852375;-0.6126900759068957;-1.3213208754645953;1.023;0.17259508965214707
05:00.6;0.2926543950138403;-0.5836006965662546;-0.9736446346062966;1.023;0.16629198872347076
05:00.6;0.3578432347023973;-0.5532190860772598;-0.6441761635117675;0.847;0.1275247898102786
05:00.6;0.40661226870427575;-0.5228027145080631;-0.3434905734646015;0.76;0.07301853838088486
05:00.6;0.4384694222006134;-0.49352828076763894;-0.07919811050881909;0.7090000000000001;0.017138238280204974
05:00.6;0.45440305437500345;-0.4664835766238529;0.14374604124188667;0.6809999999999999;0.03047007289819687
05:00.6;0.4565914182100487;-0.44265504293798563;0.32256551431454317;0.6659999999999999;0.06519452052259944
05:00.6;0.4480466383569285;-0.42290905272869245;0.4561119654243221;0.655;0.08642545415123745
05:00.6;0.4322375988897067;-0.4079648414257675;0.5443248488052346;0.6559999999999999;0.09598501556346603
05:00.7;0.4127295510381236;-0.3983591827402618;0.5877749541879531;0.645;0.09663878788818499
05:00.7;0.39286897183300656;-0.3944063834883554;0.5873455502050393;0.645;0.09100921083927965
05:00.7;0.3755328315435199;-0.39615956233192934;0.5440812882636724;0.645;0.08094347499888917
05:00.7;0.36295101723830797;-0.403378861740513;0.4592110139434018;0.645;0.06723160047382669
05:00.7;0.356598927058523;-0.4155101638764647;0.3343268357471595;0.633;0.04953736726825313
05:00.7;0.35714860433103873;-0.43167588011790214;0.17167709989082197;0.613;0.026467877057389677
05:00.7;0.3644639038054413;-0.4506773931495487;-0.025490565121125935;0.599;0.00418696914054842
05:00.7;0.377626061120164;-0.47100688325429646;-0.25261343282802523;0.578;0.04493095537646129
05:00.7;0.39498005083561044;-0.49086748449974954;-0.5036099738334627;0.5539999999999999;0.09764134405635881
05:00.7;0.4142015694050898;-0.5082088741023684;-0.7708788321932065;0.573;0.16227069817312553
05:00.8;0.43239894142941376;-0.5207994370836974;-1.0455766671520486;1.661;0.23545667740838952
05:00.8;0.4462766172732261;-0.5263635720902979;-1.3181666868055522;1.661;0.3096423036665872
05:00.8;0.452388745979997;-0.5228012883463244;-1.5790910338642614;1.661;0.37346990333325364
05:00.8;0.44750060663306535;-0.5084842086213303;-1.8193723140159619;2.093;0.41399269705743424
05:00.8;0.4290492173643087;-0.4825972399191152;-2.031056134846381;2.415;0.4205463563569481
05:00.8;0.3956425724396761;-0.44546319192692374;-2.207515707274983;2.603;0.38906184683856815
05:00.8;0.34747102912464206;-0.3987549853811851;-2.3436444440655135;2.559;0.3247255429069991
05:00.8;0.28647419995505574;-0.3454946114433015;-2.4359441958480734;2.517;0.24109828905902428
05:00.8;0.2161574889068655;-0.28977840730829774;-2.4825383350232064;2.537;0.15550067235335174
05:00.8;0.14106682642452234;-0.23624395187300667;-2.4831539917242127;2.594;0.0827540482010062
05:00.9;0.06604115590790786;-0.1893710984081759;-2.43909222591149;2.504;0.0305039855294126
05:00.9;-0.00457627515737712;-0.15276109022965279;-2.353170121431636;2.504;0.0016450465965344534
05:00.9;-0.06758095627167611;-0.12855361482491834;-2.2296064364511694;2.504;0.01937032178312721
05:00.9;-0.12126892790186698;-0.11710972910543879;-2.0738203882929724;2.209;0.029451922862470663
05:00.9;-0.16547496685876106;-0.1170105384587125;-1.8921110854738994;1.876;0.036635650801950324
05:00.9;-0.20133102863698488;-0.12533465852555348;-1.6912099379274215;1.5490000000000002;0.042675578453039965
05:00.9;-0.23083396915849164;-0.13812156983575813;-1.4777574722983422;1.26;0.0471155634360322
05:00.9;-0.25632285769423424;-0.15091569635932034;-1.2578054497747546;1.032;0.04865586752856572
05:00.9;-0.2799618046326807;-0.15930710090614503;-1.0364489041855305;0.866;0.046225521068400055
05:00.9;-0.3033116601285217;-0.15941720728894096;-0.8176572621521645;0.7509999999999999;0.039536261560339854
05:01.0;-0.3270522929232748;-0.14830402232637607;-0.6043243509482392;0.523;0.02931164706251886
05:01.0;-0.3508842670301589;-0.12427458759621694;-0.39851947622002665;0.523;0.017377839315304115
05:01.0;-0.3736036308591881;-0.0870930355576396;-0.20190228616221412;0.523;0.006569551970332815
05:01.0;-0.3933263117124088;-0.03806574828664762;-0.016238118833877616;0.47100000000000003;0.0002431213431998441
05:01.0;-0.40784041176580843;0.020019100642003403;0.1560898784628288;0.485;0.0012744111483867053
05:01.0;-0.4150572770453639;0.08311179156871487;0.3116918122516798;0.603;0.01075216872445246
05:01.0;-0.413500111902883;0.14627153371894902;0.44599461468998125;0.75;0.026975224098904765
05:01.0;-0.4027339134116985;0.20414761684373145;0.5533170242230501;0.89;0.04549215909477792
05:01.0;-0.38363108578172456;0.25150816589724284;0.6271922166106864;0.963;0.06051548820968488
05:01.0;-0.35839171365937433;0.28374395624557797;0.6609011707231667;0.987;0.06720801998178862
05:01.1;-0.33029203767082455;0.29728412795394576;0.6481525127428158;0.847;0.06364247140687249
05:01.1;-0.30321210643372004;0.2898902187424052;0.5838263970028342;0.847;0.05131730333879173
05:01.1;-0.28106528511061607;0.26083091857322566;0.46469511407047187;0.847;0.03406703882495252
05:01.1;-0.26726792505584673;0.21095781905555375;0.2900372316626551;0.657;0.016352954191483474
05:01.1;-0.264340729572381;0.14269572755615811;0.06206885560630411;0.429;0.0023412554028273335
05:01.1;-0.2736803471947859;0.059948603149002584;-0.21386950631539717;0.235;0.003508904490213386
05:01.1;-0.29550964170167293;-0.03208314185705762;-0.5294012371757273;0.536;0.005019188412925739
05:01.1;-0.32898078241154777;-0.12718350308233625;-0.8734651525876717;1.022;0.036546592869021566
05:01.1;-0.372356274858722;-0.21852250715318253;-1.2328734792509293;1.4769999999999999;0.1003167287969192
05:01.1;-0.4231595514204173;-0.29921620741988275;-1.5929878002932398;1.649;0.20169805572199553
05:01.2;-0.4782048643472458;-0.3630703942243496;-1.9384257034008274;2.3930000000000002;0.3365534029508033
05:01.2;-0.5335046423229758;-0.4054490764782478;-2.253739627001475;2.3930000000000002;0.4875040850294992
05:01.2;-0.5841770555171495;-0.4240741542844273;-2.524045536918959;2.3930000000000002;0.6252928833663804
05:01.2;-0.6245433420439216;-0.41950208650812415;-2.73563338645984;2.675;0.7167283835056975
05:01.2;-0.6485527427118222;-0.3951065650507826;-2.8766565089099365;2.875;0.7371358846561596
05:01.2;-0.6505355421728264;-0.3565441873220477;-2.9379991718342144;3.384;0.6814532372308142
05:01.2;-0.6261294319017966;-0.3108156664802977;-2.914315416532445;3.9930000000000003;0.5671573615593071
05:01.2;-0.5731180661002089;-0.2651492863444131;-2.805061402857785;4.082;0.42626230953188937
05:01.2;-0.4919225286119165;-0.22598279346507413;-2.615193435354602;3.884;0.29072066452637163
05:01.2;-0.38559214940202513;-0.1982563072649156;-2.355168892504242;3.3110000000000004;0.18004341932675985
05:01.3;-0.25929210333314506;-0.1850966778212867;-2.040034396228587;0.914;0.0979096289172804
05:01.3;-0.11944479769068625;-0.18784916340913216;-1.6877212052683268;0.914;0.03786842229361463
05:01.3;0.027196077942785037;-0.2063285263198612;-1.3170456270001458;0.914;0.007390373270324261
05:01.3;0.17427050356694374;-0.23914395520762635;-0.9460083635863045;0.914;0.03942559623270377
05:01.3;0.3162207117457096;-0.28400554533388606;-0.5906836202746837;0.626;0.05304837192174584
05:01.3;0.44842641380337495;-0.3379890612734588;-0.2646214193703694;0.602;0.04010687510242067
05:01.3;0.5671672853719368;-0.3977677821741756;0.021425558594361196;0.6829999999999999;0.004833624728202928
05:01.3;0.669501045264263;-0.4598217469117698;0.259562999998175;0.764;0.07990676550126799
05:01.3;0.7531279788407998;-0.520634325181251;0.4446454558567466;0.917;0.17434738500734143
05:01.3;0.8163033394372402;-0.5768912100534869;0.5740299018043603;1.057;0.2703211403069879
05:01.4;0.8578390026836972;-0.6256924095418294;0.6472438689656723;1.4180000000000001;0.3474038441707423
05:01.4;0.8771919330775468;-0.6647622158622353;0.6656259463549362;1.4180000000000001;0.3881424997330134
05:01.4;0.8745839777832133;-0.6926128520884232;0.6319806403903053;1.4180000000000001;0.3828210742028942
05:01.4;0.8510753606798174;-0.7086152739091176;0.5502646692758731;1.3159999999999998;0.33185636797418017
05:01.4;0.8085431302487994;-0.712957502528103;0.42530561267178313;1.1740000000000002;0.2451703511326603
05:01.4;0.7495654567508047;-0.7064997197259143;0.2625541203099078;1.032;0.1390402039641984
05:01.4;0.6772436696351045;-0.6905516585879427;0.06788154976231076;0.909;0.03174628244607528
05:01.4;0.5949990313615009;-0.6666081804998375;-0.15256367731500006;0.823;0.060511517719738755
05:01.4;0.5063722029694827;-0.6360854152461106;-0.39245122992930376;0.77;0.12640696075713656
05:01.4;0.4148387916960294;-0.6000975917302692;-0.6453642038112946;0.775;0.16065939137137442
05:01.5;0.32364159759584227;-0.5593055465728874;-0.9049587279700064;1.515;0.16381068843899343
05:01.5;0.23564138563123108;-0.5138595199373369;-1.165195288281813;1.515;0.14108950002004458
05:01.5;0.1532018073900832;-0.4634524955796922;-1.4205398624444459;1.515;0.10086083033009301
05:01.5;0.07812495836777629;-0.4074884604810763;-1.665998654757442;1.766;0.05303709884555954
05:01.5;0.011638244391629126;-0.3453536927773982;-1.8969492842231777;1.8419999999999999;0.007624428513882814
05:01.5;-0.045563634985165795;-0.2767707545863878;-2.108845484308421;1.8530000000000002;0.02659397902327499
05:01.5;-0.0931954833626374;-0.20220649157031395;-2.296913316519743;1.965;0.04328471523611153
05:01.5;-0.1311681284180647;-0.12326945651602503;-2.4559680455762827;2.068;0.03971060603225462
05:01.5;-0.1593555266114115;-0.042972168938580614;-2.5804865391964307;2.3890000000000002;0.017670791484679052
05:01.5;-0.17749198578803158;0.03430339037145867;-2.665029631901733;2.8539999999999996;0.016226237791430516
05:01.6;-0.18533403648085275;0.10325669124300317;-2.704994806094971;3.438;0.05176542983190698
05:01.6;-0.1830801508762627;0.15850220705682372;-2.6975203646955035;3.438;0.0782782859870566
05:01.6;-0.17185887446807957;0.19555137410070747;-2.642249642655774;3.438;0.08879871538011148
05:01.6;-0.15402395266359067;0.21162881339737488;-2.541683204428505;2.9939999999999998;0.08284846766979911
05:01.6;-0.1330872456819849;0.20611740381136417;-2.400986054823168;2.4219999999999997;0.0658628832039838
05:01.6;-0.11328520120759078;0.1805971649730762;-2.2272964391230516;1.964;0.04556822704783947
05:01.6;-0.09891221530181153;0.13855337409436216;-2.0287313577459214;1.676;0.02780299471201299
05:01.6;-0.09362293749068784;0.08487544965808064;-1.8133474404662524;1.49;0.014409382670356921
05:01.6;-0.099890768771633;0.025271377110870685;-1.588275142616351;1.3530000000000002;0.004009405696357629
05:01.6;-0.11873086359346864;-0.03430730752269986;-1.3591398329034066;1.2109999999999999;0.005536233549826742
05:01.7;-0.14970307306001032;-0.08817629150175613;-1.1297857603848225;0.742;0.014913467824988256
05:01.7;-0.19113736549831775;-0.13134056547267037;-0.9022821269900887;0.742;0.022650971421346797
05:01.7;-0.24048410698505035;-0.1598148058617748;-0.6772065760464459;0.742;0.026027026750282362
05:01.7;-0.29469845021578683;-0.17083626121403664;-0.4541965312686991;0.6509999999999999;0.022866606767255358
05:01.7;-0.3506121360649043;-0.16297577461821888;-0.23269858068201563;0.62;0.013296695793521779
05:01.7;-0.40528026029926584;-0.1361591304167931;-0.012791883962498092;0.617;0.0007058895159487273
05:01.7;-0.45628953656833676;-0.09160747131280018;0.20404154527254517;0.631;0.008528840821721366
05:01.7;-0.5020008687155006;-0.03170069538902807;0.414311352169422;0.649;0.006593258311285143
05:01.7;-0.5416965040637023;0.04023075681173671;0.6121873840311759;0.657;0.013341314150319665
05:01.7;-0.5756117297816117;0.12017278932437504;0.7895541553397494;0.69;0.05461572468374426
05:01.8;-0.6048475359859713;0.20372974352535736;0.9365380605415191;1.516;0.11540530838556333
05:01.8;-0.6311786706235099;0.28642403923645116;1.0424899198643645;1.516;0.18846627361873056
05:01.8;-0.6567841300360526;0.3639440143429392;1.097238399798372;1.516;0.2622758055039772
05:01.8;-0.6839310114002071;0.43230388628862965;1.0923452747683007;1.516;0.32296939534777835
05:01.8;-0.7146414368197019;0.4879232454800513;1.0221734687586521;1.643;0.35642183978096975
05:01.8;-0.7503720154620618;0.5276738014138802;0.884694007540879;1.594;0.3502960554577513
05:01.8;-0.7917385470080549;0.5489488663618083;0.6819793120437263;1.444;0.2964045614016326
05:01.8;-0.8383219921596374;0.5497886224300155;0.42030386213554194;1.2770000000000001;0.19371800517916354
05:01.8;-0.8885899979712983;0.5290548166861775;0.10978537557204038;1.115;0.05161151233870235
05:01.8;-0.9399617367748055;0.48660554613295787;-0.23644942429426988;1.064;0.10814974269213783
05:01.9;-0.9890326433020398;0.42339510321615054;-0.6035181514049691;2.023;0.2527241783098136
05:01.9;-1.0319470676787008;0.34144251546514015;-0.9762673076886733;2.252;0.3439883741775163
05:01.9;-1.0648561068401494;0.24367756713952432;-1.3406314512121484;2.252;0.34786912086417004
05:01.9;-1.0843616175008728;0.1337282628454574;-1.6844876094167591;2.252;0.24426720360324625
05:01.9;-1.0878645284810133;0.015699193573871117;-1.9978511950133735;2.271;0.034120493057691555
05:01.9;-1.0737842891574139;-0.10606333831758244;-2.272552498456408;2.19;0.2588190640643242
05:01.9;-1.0416502785708668;-0.22723420416284304;-2.5016875671920804;2.187;0.5921458749122693
05:01.9;-0.9920785054550095;-0.3437697721077641;-2.6791547239404983;2.448;0.9137166141175704
05:01.9;-0.926650569446942;-0.45210203853176595;-2.799527883889226;2.884;1.172835923457911
05:01.9;-0.8477054846388474;-0.5492344767995693;-2.8583788367174967;3.2889999999999997;1.3308299681216915
05:02.0;-0.758047598914286;-0.6327737360116173;-2.852965320078453;3.417;1.3684893248581347
05:02.0;-0.6605979412502134;-0.7009577748290349;-2.783043993954939;3.417;1.2886920362612504
05:02.0;-0.5580707062165924;-0.7527048508079666;-2.6515262229588124;3.417;1.1138068073809564
05:02.0;-0.45277439638585704;-0.7876660716431735;-2.4647554321987055;3.054;0.8790181278544913
05:02.0;-0.3465819052321656;-0.8062605359150611;-2.2322867251431995;2.5860000000000003;0.6237797389669524
05:02.0;-0.24104295165393724;-0.8096788001720341;-1.9661668328469442;2.086;0.383731605589693
05:02.0;-0.13757844042967263;-0.7998331346487996;-1.6798361811397409;1.6469999999999998;0.18484882945800565
05:02.0;-0.03768708971518793;-0.7792329654975232;-1.386864124711099;1.276;0.040728070204104586
05:02.0;0.05690576284801349;-0.7507849993659361;-1.0997451971725276;0.963;0.04698550624189146
05:02.0;0.14421381693717927;-0.7175463183919241;-0.8289375685286478;0.753;0.08577853701786008
05:02.1;0.22209640011635454;-0.682478438482344;-0.582253488191734;0.7240000000000001;0.08825565725543585
05:02.1;0.28848447345593686;-0.6482503390656712;-0.36464937359754446;0.7240000000000001;0.06819313687371377
05:02.1;0.34165328775410503;-0.6171182090560134;-0.17841598298012237;0.7240000000000001;0.03761730882511512
05:02.1;0.3804566088901963;-0.5908817562741664;-0.02371618912204292;0.76;0.005331514794621606
05:02.1;0.40447606662642777;-0.5708970659774628;0.10064348535017899;0.784;0.02324000987416536
05:02.1;0.41407995287887994;-0.5581200412652317;0.19635982834707963;0.753;0.045379997401286495
05:02.1;0.41039511668039164;-0.5531591055742441;0.26484780968080723;0.738;0.06012410655184025
05:02.1;0.3951937963044116;-0.5563251616695856;0.3066437666499053;0.721;0.06741754942488976
05:02.1;0.3707045348412467;-0.567673456727822;0.3210794760104644;0.7040000000000001;0.06756768389655937
05:02.1;0.3393676694282766;-0.5870314640301193;0.3062670843996704;0.725;0.06101437536817952
05:02.2;0.303563764609689;-0.6140028929123597;0.2593869832847715;0.737;0.04834688811925311
05:02.2;0.26534903412688454;-0.6479368721511468;0.17722097228500452;0.737;0.030469499543992886
05:02.2;0.22623488906361947;-0.6878563319763076;0.056832899599006836;0.737;0.008844171074541782
05:02.2;0.18704006888067373;-0.7323516162069882;-0.10371858136201317;0.691;0.014207277590146393
05:02.2;0.1478238962419372;-0.7794613559312475;-0.30474322843622725;0.675;0.03511343346051061
05:02.2;0.10789745405228059;-0.8265757886122133;-0.5444417582343974;0.7559999999999999;0.04855626860092223
05:02.2;0.06591397150249755;-0.8704041100803994;-0.8186358326035146;0.978;0.046966604472421555
05:02.2;0.020045257480460744;-0.9070476042720671;-1.1207134556939675;1.276;0.020376815161036208
05:02.2;-0.0317528795489631;-0.9322149736715812;-1.441762699982548;1.511;0.042676910890796095
05:02.2;-0.0913925478054676;-0.941604599126867;-1.7708573208070943;1.597;0.152392266004607
05:02.3;-0.16024333440685745;-0.9314520049856062;-2.095483376656561;2.73;0.31276970117833774
05:02.3;-0.23870633487269496;-0.8991832328903583;-2.4021079572832043;2.73;0.5155902148636735
05:02.3;-0.32585525309766067;-0.8440380944770226;-2.6768480628331908;2.73;0.7362248910267224
05:02.3;-0.41925077287687945;-0.7674897187596647;-2.9061821166288535;2.73;0.9351241312526863
05:02.3;-0.515029469557162;-0.6733208482311442;-3.077731297720631;3.366;1.067295903506933
05:02.3;-0.608327921060172;-0.5672914545447352;-3.181192619781248;3.9330000000000003;1.097827127316908
05:02.3;-0.6940155438958701;-0.4564218819508972;-3.2093815498251934;4.156000000000001;1.0166161542031336
05:02.3;-0.7675932116383984;-0.34801624758577504;-3.1591385012796023;4.069;0.8439161766475629
05:02.3;-0.826030862991347;-0.24862714381561468;-3.0317909340143423;3.785;0.6226501040668688
05:02.3;-0.8683126888194117;-0.16317902901493472;-2.832994458976806;3.361;0.4014081788378206
05:02.4;-0.8955338826780547;-0.09442280501287742;-2.5719835138649083;2.057;0.21748389404361873
05:02.4;-0.9105334433531426;-0.04279582328481031;-2.2604449029986284;2.057;0.08808282058858571
05:02.4;-0.91720130527214;-0.006641566036050932;-1.9113303667923067;2.057;0.011643161434186625
05:02.4;-0.9196669945311259;0.017329502368173766;-1.5378683086989842;1.584;0.024509578337985487
05:02.4;-0.921531840965828;0.03345435552968;-1.1528472866614896;1.091;0.03554142163877118
05:02.4;-0.9252362715745668;0.04649536996026283;-0.768117517073676;0.7340000000000001;0.03304380320090928
05:02.4;-0.9316283313235697;0.06105520760084952;-0.3942847746834048;0.632;0.022427218104018327
05:02.4;-0.9397947662744959;0.08108813937764033;-0.04062964706523914;0.6940000000000001;0.003096231375607829
05:02.4;-0.9471910054839314;0.10954184026643277;0.2847428457000262;0.7929999999999999;0.029544076489502604
05:02.4;-0.9500607248098794;0.14813766485517957;0.5746097285237712;0.9209999999999999;0.08087044519464495
05:02.5;-0.9440872705530587;0.1972804834707449;0.8223469160351804;1.499;0.15316210749762296
05:02.5;-0.9251762081764809;0.2560753240966037;1.0217868788725648;1.499;0.24207643134835652
05:02.5;-0.890236783040071;0.3224150129319954;1.1672507220113515;1.499;0.33503096013223727
05:02.5;-0.8378294911037006;0.3931074497844767;1.253725873290429;1.6769999999999998;0.41292341075622313
05:02.5;-0.7685814596320341;0.4640373443607155;1.2771780586285424;1.771;0.45550619249968416
05:02.5;-0.6853151239005665;0.5303775914088501;1.23499440391551;1.776;0.448890560150292
05:02.5;-0.5928768380067138;0.5868644974627915;1.12649466151484;1.692;0.39195071363098544
05:02.5;-0.49769919542791424;0.6281437754273749;0.9533811393959062;1.56;0.2980523533491753
05:02.5;-0.4071717813259238;0.6491861588698189;0.7199873551563727;1.381;0.19031446258267776
05:02.5;-0.32890678948280844;0.645750253228723;0.4332230989896231;1.151;0.09201296560544237
05:02.6;-0.2699757128007918;0.6148400873083729;0.10218136637532668;0.902;0.016961278212190446
05:02.6;-0.2361894321077067;0.5550935979007416;-0.2625127276729865;0.902;0.03441731962448291
05:02.6;-0.2315002377656284;0.4670570241677018;-0.6494041609285109;0.902;0.07021605350237008
05:02.6;-0.25759305224165474;0.3533192852652144;-1.0467545903629423;1.308;0.09526784961590774
05:02.6;-0.31368957236942124;0.2184739800709423;-1.4428792307975786;1.817;0.09888485586177533
05:02.6;-0.3965345860679344;0.06886612492282146;-1.8263305354895036;2.0340000000000003;0.04987306961867509
05:02.6;-0.5005044503742426;-0.08789739429794953;-2.185956253662157;2.036;0.09616685439675705
05:02.6;-0.617799136757774;-0.2436384902592161;-2.5108378826046667;2.055;0.3779304366929354
05:02.6;-0.738745540100577;-0.3904029719547349;-2.790205035015983;2.287;0.8047187215343153
05:02.6;-0.8523056693334603;-0.5212234705733282;-3.013530201185013;2.7319999999999998;1.3387358367102242
05:02.7;-0.9468831220687498;-0.6307102124172778;-3.171000834234237;3.965;1.8937497775893108
05:02.7;-1.0114131686093597;-0.7153744089673999;-3.254398592153697;3.965;2.3546846209743446
05:02.7;-1.036562152924748;-0.7736711406343851;-3.2581884917566377;3.965;2.6129310536728756
05:02.7;-1.0157922520527978;-0.8058206836804995;-3.1805171451438934;4.138;2.6034008816438416
05:02.7;-0.9461133767555587;-0.8134937351556366;-3.0238887573268434;4.045;2.327358070790483
05:02.7;-0.8284324165576293;-0.7994403167341214;-2.7953899847078967;3.63;1.8513372343513477
05:02.7;-0.6674492400945254;-0.7671273232250635;-2.5063873579087543;2.9930000000000003;1.2833168180838057
05:02.7;-0.4710939702951156;-0.7204254086756524;-2.1716875652579897;2.2769999999999997;0.7370448428909364
05:02.7;-0.24958783277853516;-0.6633520808397495;-1.8082637386129545;1.689;0.29938447745259983
05:02.7;-0.014292836206782691;-0.5998506345103412;-1.433750474159081;1.2770000000000001;0.012292355561643147
05:02.8;0.22345361604352204;-0.533580269609019;-1.0649467651441118;0.922;0.12697407212336972
05:02.8;0.4533359348655035;-0.4677166373384575;-0.7165530866959681;0.922;0.15193272797075957
05:02.8;0.6667450348826512;-0.40479743633663945;-0.4003250495785061;0.922;0.1080464021266099
05:02.8;0.8570869617846235;-0.34665625464990596;-0.12472309187240557;0.966;0.037057046074784994
05:02.8;1.0197633207621124;-0.29445710890675963;0.10500776465713918;1.063;0.03153137026060979
05:02.8;1.1519446101016182;-0.24880700513387347;0.2864754202625826;1.131;0.08210726121587371
05:02.8;1.2522603266552474;-0.209912394075021;0.4196179736630441;1.189;0.11030286319382059
05:02.8;1.3204999417517924;-0.17775096772914947;0.5060938392600186;1.3;0.11879041808601604
05:02.8;1.357385954890328;-0.1522391646334654;0.5486456821384718;1.425;0.11337615098708512
05:02.8;1.3644402322483047;-0.1333803660794948;0.5505017597947603;1.511;0.10018556075204865
05:02.9;1.343921125152506;-0.12137721447115835;0.5148655013914434;1.439;0.08398558275789655
05:02.9;1.2987813731152127;-0.1166886327327684;0.4445286409775514;1.439;0.06736965919357844
05:02.9;1.2325971175998949;-0.12001316073179392;0.3416426016864077;1.294;0.050538464415872376
05:02.9;1.1494364799558154;-0.13218782073994198;0.207680880330748;1.294;0.031555345177485365
05:02.9;1.0536535136948684;-0.15400551524083828;0.04360126103979897;1.113;0.0070751091455951666
05:02.9;0.9496038687529876;-0.18596966006064802;-0.1498181584861273;0.9329999999999999;0.026457513541318745
05:02.9;0.8412942806357727;-0.22801971396432993;-0.37151670099068945;0.782;0.07126867335621415
05:02.9;0.7320084563912006;-0.2792754563688689;-0.6196144179258627;0.675;0.1266690120362733
05:02.9;0.6239840056753138;-0.3378583395130169;-0.8908600838250926;0.609;0.18780951935961643
05:02.9;0.5182279669062231;-0.40085027910192;-1.1801538250069852;0.636;0.24515550805333872
05:03.0;0.4145435441550819;-0.4644358170346576;-1.4802703966834159;1.713;0.2849947862144487
05:03.0;0.31179907644849336;-0.5242309704409741;-1.7818831562195658;1.713;0.2912572345199553
05:03.0;0.2084134665948375;-0.5757455715531861;-2.0738866057345975;1.713;0.248852146008029
05:03.0;0.10298161150514272;-0.6149032069399365;-2.3439552845172447;2.3;0.1484279755604605
05:03.0;-0.005072281232325215;-0.6385610664522461;-2.5793224175750544;2.844;0.008354325524432193
05:03.0;-0.1149572771566681;-0.6449713003272135;-2.7677844287290387;3.2569999999999997;0.20521500871104928
05:03.0;-0.2242610897737705;-0.63408373216568;-2.8988519072604233;3.488;0.4122176363294759
05:03.0;-0.3291196042470297;-0.6075717169915938;-2.9648695979166746;3.655;0.5928664817459154
05:03.0;-0.42484469400437047;-0.568524805357385;-2.9619002471442646;3.772;0.7154018267323823
05:03.0;-0.5068797534077433;-0.5208667623913704;-2.890188449298512;3.7960000000000003;0.7630583522527529
05:03.1;-0.57181092198612;-0.4686509256679839;-2.7540782921112226;2.5839999999999996;0.7380371237830732
05:03.1;-0.6181342460818611;-0.4154072603704954;-2.561394300285862;2.5839999999999996;0.657708306364587
05:03.1;-0.6465854831854865;-0.3636718955656474;-2.3224812785990654;2.5839999999999996;0.5461197866690451
05:03.1;-0.6599929309259694;-0.3147575349995325;-2.049171359528231;2.055;0.42569024360796565
05:03.1;-0.6627227918867639;-0.26875758147885215;-1.753836535422853;1.6159999999999999;0.3123789379252099
05:03.1;-0.6598545731372061;-0.2247355264411701;-1.4485600813526147;1.2670000000000001;0.21481097954206857
05:03.1;-0.6562740428216999;-0.18103392141971497;-1.1444488918309004;0.986;0.1359695277210627
05:03.1;-0.6558749583215887;-0.1356374931328904;-0.8511354688966195;0.772;0.07571806259759616
05:03.1;-0.6610059502010062;-0.08653596118083008;-0.5765020729541211;0.626;0.032976371269436734
05:03.1;-0.6722244303939312;-0.03204653547983093;-0.3266173109294024;0.5670000000000001;0.007036141681753107
05:03.2;-0.688357907289931;0.028929069939146932;-0.10584117350637637;0.736;0.0021076739286101957
05:03.2;-0.7068222525463403;0.09671983472106202;0.0829549309079186;0.736;0.005671108618498962
05:03.2;-0.7241048934067646;0.17076270393601375;0.23809527461812077;0.736;0.02944050678544848
05:03.2;-0.7363127392910547;0.24953383154996;0.35877745917465986;0.865;0.0659199545955284
05:03.2;-0.7397142095938636;0.33054553683468746;0.44478738473650264;0.997;0.10875462118445696
05:03.2;-0.7312303988035685;0.41042912598935344;0.4963196433441636;1.111;0.1489545845271725
05:03.2;-0.7088278948441648;0.4851072719923344;0.513928518938817;1.172;0.17671820981553926
05:03.2;-0.6717613864631609;0.5500387474539749;0.4985803639125306;1.186;0.18422284765878655
05:03.2;-0.6206338135609969;0.6005113380014213;0.45173849681230976;1.186;0.16836187246790554
05:03.2;-0.557278073142762;0.6319624760874658;0.3753865561600759;1.1420000000000001;0.13220319851126766
05:03.3;-0.48449893008025635;0.64031119755067;0.27190118436356747;0.725;0.08435192893202749
05:03.3;-0.40574285169682056;0.6222872799184042;0.14376339867195606;0.725;0.03629862149439006
05:03.3;-0.32478260534010944;0.575747947554015;-0.006765626832487135;0.725;0.0012651243063867632
05:03.3;-0.24548749622332922;0.4999747106092994;-0.1778161453408005;0.725;0.021824716230511895
05:03.3;-0.17169225265187524;0.39593198105985805;-0.3678322435397427;0.797;0.025004667146061196
05:03.3;-0.10711828404541343;0.2664485382216907;-0.5752809867345671;0.868;0.01641938815116276
05:03.3;-0.05527564540196515;0.1162676489016887;-0.7982268567212863;0.885;0.005130019883082336
05:03.3;-0.01927871967302523;-0.04809159414191583;-1.0338304656507;0.838;0.0009585100875858539
05:03.3;-0.00153363481270445;-0.218710131043554;-1.277836377286624;0.809;0.000428613757187314
05:03.3;-0.0033035849754837997;-0.3869033684030625;-1.5241638726458857;0.9390000000000001;0.0019481377247437537
05:03.4;-0.02422524891185648;-0.5440794021880835;-1.764754236958067;2.285;0.0232602707696884
05:03.4;-0.061907113610084843;-0.682694202755252;-1.9897805207891353;2.285;0.08409534287849467
05:03.4;-0.11175380133066681;-0.7970867693149797;-2.1881880393591975;2.285;0.19491826856898117
05:03.4;-0.16712917912789674;-0.8839795305573729;-2.3484492894725943;2.285;0.3469570172025309
05:03.4;-0.2199237803221208;-0.9425499777430765;-2.4594826116877586;2.66;0.5098240704638968
05:03.4;-0.26152353003254547;-0.9741247200568407;-2.5117631202810062;3.12;0.6398880704723134
05:03.4;-0.2840533006994711;-0.9816357501846766;-2.4985831220507677;3.497;0.6966971094918837
05:03.4;-0.28162721842832694;-0.9690053187612305;-2.4172521611184465;3.5639999999999996;0.6596639391231879
05:03.4;-0.25128701540114884;-0.9405963507278383;-2.2699284513627442;3.3280000000000003;0.53651949354372
05:03.4;-0.19339833656453898;-0.9007950437998058;-2.063813901693248;2.8680000000000003;0.3595416903413704
05:03.5;-0.11144451499942336;-0.853725255393787;-1.8105974740669426;1.431;0.17226567009789287
05:03.5;-0.01133364526720517;-0.8030661984183137;-1.525259514559538;1.431;0.01388240482911945
05:03.5;0.09954208702108555;-0.7519510841390451;-1.224561504888861;1.431;0.09165938410868048
05:03.5;0.2132531893803831;-0.7029323926210411;-0.9255690565100864;1.139;0.1387451845828097
05:03.5;0.3221510811468226;-0.6579922033903671;-0.6443717444286434;0.956;0.13658934715669108
05:03.5;0.4195195950100913;-0.6185691752232624;-0.3950000824828711;0.877;0.10250326790523967
05:03.5;0.5000419890491609;-0.5855841354758915;-0.18854397797612069;0.9009999999999999;0.05520881711332024
05:03.5;0.560064883884818;-0.5594663657625087;-0.03254624994715576;0.925;0.010197959459499233
05:03.5;0.5976645799015757;-0.5401948776029626;0.06924350704759959;0.897;0.02235563632830375
05:03.5;0.6125515716822826;-0.5273674185503283;0.11672041128962023;0.8540000000000001;0.03770533144257078
05:03.6;0.6058630337551933;-0.5203010967159829;0.1129202702236154;0.816;0.035595992391083464
05:03.6;0.5798927993649657;-0.5181560915467348;0.06327183524293313;0.816;0.019011603836340766
05:03.6;0.5378012046135942;-0.5200589567808138;-0.025233166398992788;0.816;0.007057422257215693
05:03.6;0.4833309489522268;-0.5251948099115555;-0.1448031928387761;0.831;0.036757263247904785
05:03.6;0.4205310114864431;-0.5328465582692083;-0.2874670421318716;0.868;0.06441518420863264
05:03.6;0.3534739177002419;-0.5423750388198316;-0.44553925134660916;0.897;0.08541674908004165
05:03.6;0.28595402527219094;-0.5531446187179498;-0.611935056983872;0.935;0.0967921730392848
05:03.6;0.2211709439292487;-0.5644056881346614;-0.7803392321389473;0.9740000000000001;0.09740985466194006
05:03.6;0.16142217420869237;-0.5751545502975258;-0.9452475795219119;1.01;0.08775933557500919
05:03.6;0.10784644567471141;-0.5840024802162963;-1.1019222621857858;1.127;0.06940191998669426
05:03.7;0.060271461087213964;-0.5890952327839598;-1.2463131163498646;1.469;0.044251132871044804
05:03.7;0.01722464407303201;-0.5881276330615531;-1.3749786150487204;1.469;0.013928930944135135
05:03.7;-0.023842419514940868;-0.5784907167013631;-1.4850028489565987;1.469;0.020482077548913742
05:03.7;-0.06609221104819649;-0.557570396554391;-1.573897344885524;1.482;0.05799978599905723
05:03.7;-0.11262623430188834;-0.5231861855259273;-1.6395183703828828;1.57;0.0966077836803527
05:03.7;-0.16568863596290268;-0.4741102878684195;-1.6800741746585037;1.805;0.13197770074714205
05:03.7;-0.22591867317567663;-0.4105495084066678;-1.6942904960722773;1.9869999999999999;0.15714679930256242
05:03.7;-0.2918733359096244;-0.33443988709745454;-1.6817412778808578;2.117;0.1641616369020212
05:03.7;-0.36001663193299743;-0.24942801440419138;-1.6432646402690865;2.133;0.1475622621247574
05:03.7;-0.4252539662174353;-0.1604950753589196;-1.5813126762216834;2.188;0.10792643610498853
05:03.8;-0.4819125993168933;-0.07329477946316622;-1.5000682295981593;1.828;0.05298492651505425
05:03.8;-0.5249065794492433;0.0066254929074780426;-1.4052355568970556;1.828;0.004887078782506985
05:03.8;-0.5507582479025426;0.07452613449763022;-1.303546190955431;1.828;0.05350520477649353
05:03.8;-0.558213684628931;0.12696659748281997;-1.2021035068929022;1.48;0.08519847562970553
05:03.8;-0.5483405645522159;0.1620498707790252;-1.107667874779564;1.087;0.0984257253777164
05:03.8;-0.5241510081771084;0.17944864949120592;-1.025953189230299;0.805;0.0964993005647577
05:03.8;-0.4899021574682417;0.18026146245518962;-0.9610307684155078;0.657;0.0848690878434587
05:03.8;-0.45028151995951676;0.16674977768245722;-0.9149578556637494;0.595;0.06869900978339484
05:03.8;-0.4096761065787852;0.1420089399568864;-0.8877143791247211;0.7290000000000001;0.05164515386645611
05:03.8;-0.37166293030191033;0.10961934650408973;-0.8774650653897355;0.941;0.03574919692931147
05:03.9;-0.3387718357080147;0.07330884371530892;-0.8810890266335258;1.218;0.021881820917449786
05:03.9;-0.31248904100495695;0.036647173354977906;-0.8948470839283379;1.218;0.010247645680834458
05:03.9;-0.29341574572089996;0.0027930905394479553;-0.9150195742032539;1.218;0.0007498921620795642
05:03.9;-0.2814875786344943;-0.02568973746889145;-0.9383747122563666;1.159;0.0067857084646057355
05:03.9;-0.2761898365529245;-0.04694655093575761;-0.9624044980279295;1.038;0.012478690927185681
05:03.9;-0.2767404268839573;-0.05988468080589022;-0.9853454195913186;0.981;0.016329648918448184
05:03.9;-0.28223420083014356;-0.06417769057981244;-1.0060546841102496;1.012;0.018222808548090733
05:03.9;-0.29174656398113313;-0.060231969979260204;-1.0238300926198491;1.023;0.017991223877673653
05:03.9;-0.3043905396742782;-0.04912397305501731;-1.0382444899484087;1.0190000000000001;0.015524737657657
05:03.9;-0.31932193206054654;-0.03250632486961446;-1.0490341088734445;1.011;0.010888955651677322
05:04.0;-0.3356969660904901;-0.012474698621022722;-1.0560568124504819;1.129;0.004422468629397674
05:04.0;-0.3526009563067816;0.008603418854494851;-1.0593189930676563;1.129;0.00321352225380874
05:04.0;-0.3689772921141677;0.028278971580910462;-1.0590486963772814;1.129;0.011050430073331513
05:04.0;-0.38358820560713514;0.044205609677652254;-1.055778955697359;1.129;0.017902580328597147
05:04.0;-0.3950324801571577;0.05430616592114912;-1.0504118120647696;1.192;0.022534168862680132
05:04.0;-0.40183275860517315;0.05692312709395488;-1.0442453874444038;1.24;0.023885627473545702
05:04.0;-0.4025864188988133;0.050951796270399044;-1.0389460834661064;1.229;0.021311382780677346
05:04.0;-0.39615187532271057;0.035941503764302975;-1.036444285941669;1.196;0.014757198580310212
05:04.0;-0.381825205711653;0.012142886991743554;-1.0387421313873133;1.214;0.004816086678583103
05:04.0;-0.3594561708735954;-0.01951753436076649;-1.047641484410559;1.2209999999999999;0.007349936441029866
05:04.1;-0.329461599673163;-0.057544485032446344;-1.0644138278343995;0.893;0.02017990040596638
05:04.1;-0.2927252794290101;-0.1000519952537587;-1.0894494253998612;0.893;0.031907520521922625
05:04.1;-0.2504185478476368;-0.14497352433512128;-1.121955743965447;0.893;0.04073154801836942
05:04.1;-0.20379893227488338;-0.19025499942332233;-1.1597999092923916;0.9329999999999999;0.04496980999099666
05:04.1;-0.15403341680874372;-0.2340035316938922;-1.1995714174151566;1.114;0.04323778825205641
05:04.1;-0.10208137682632189;-0.2745912916652922;-1.2368861571090548;1.31;0.03467073176356733
05:04.1;-0.04866719008156303;-0.31072392708144353;-1.2668876516945304;1.5030000000000001;0.019157951617016052
05:04.1;0.0056561854330875174;-0.34148568819201214;-1.2848448656359677;1.57;0.002481686049066855
05:04.1;0.06039521737029445;-0.3663710957928379;-1.2867197673770896;1.565;0.02847132802897726
05:04.1;0.11501513405431033;-0.38529689925059774;-1.2695975192953801;1.528;0.05626218171571313
05:04.2;0.16889189836771323;-0.39857223360680727;-1.2319262304880991;1.2570000000000001;0.0829278794415554
05:04.2;0.22132212554640748;-0.40681376750410864;-1.1735769117405197;1.2570000000000001;0.10566521263968046
05:04.2;0.2715613429346319;-0.4108213610560926;-1.0957828063360038;1.2570000000000001;0.12224903694374296
05:04.2;0.3188524646396311;-0.41144826477607127;-1.0010226174150454;1.1540000000000001;0.13132545179677618
05:04.2;0.3624316647979897;-0.4094943901520215;-0.8928745387514777;1.06;0.13251484388626475
05:04.2;0.4015266944883064;-0.40563575709035404;-0.775833359998333;0.97;0.12636276048111542
05:04.2;0.4353672639112691;-0.4003923231242378;-0.6550814414803188;0.88;0.11419229687970314
05:04.2;0.46321686891402664;-0.3941306900507402;-0.5362173397534136;0.813;0.09789611880555521
05:04.2;0.4844251855566848;-0.38709464787991343;-0.42495226394376917;0.769;0.0796863671778456
05:04.2;0.4984926671033651;-0.3794541061237855;-0.32678489182044396;0.748;0.06181302542848926
05:04.3;0.5051335135517891;-0.3713614968625889;-0.2466664316767555;0.65;0.04627144988690115
05:04.3;0.5043223341197174;-0.36300544411511654;-0.1886785669062652;0.65;0.034541715973340895
05:04.3;0.4963156490731604;-0.3546549108441969;-0.15576460291804564;0.65;0.027417807256018643
05:04.3;0.4816466215314451;-0.34669009259777595;-0.1495552731524857;0.65;0.024973055344541237
05:04.3;0.46109280351704507;-0.33961599269697007;-0.17030527415712712;0.626;0.026668867583622018
05:04.3;0.43561472999784256;-0.3340520009969593;-0.216930284690962;0.609;0.03156725514123403
05:04.3;0.406266746456708;-0.3306887205815851;-0.2871271713117614;0.563;0.03857491257222542
05:04.3;0.37409180858601954;-0.3302056879128368;-0.3775624843620576;0.596;0.04663925275223108
05:04.3;0.3400200462449016;-0.33315494439538246;-0.4841129640759136;0.645;0.05484000654459452
05:04.3;0.3047886235928682;-0.3398309495854203;-0.6021384419606721;0.7040000000000001;0.06236745699040061
05:04.4;0.26889288009012036;-0.35015376793103703;-0.7267674395266355;0.988;0.06842795621685138
05:04.4;0.23257854313908716;-0.3635861063201495;-0.8531709944018818;0.988;0.07214612454177355
05:04.4;0.1958908440601985;-0.37909617531298617;-0.9767893063819121;0.988;0.07253780953977791
05:04.4;0.15879206233852314;-0.39517612094537585;-1.093489026508272;0.988;0.06861734535630477
05:04.4;0.12133899662039083;-0.40992757269154684;-1.1996768079811841;1.3530000000000002;0.05967216479313971
05:04.4;0.08388791054415855;-0.42122389454681586;-1.2924194700283762;1.5330000000000001;0.045668407583108875
05:04.4;0.047273830158766864;-0.4269467072114848;-1.3695790427309324;1.545;0.027642770037755626
05:04.4;0.012896773437556274;-0.4252718313226611;-1.4299157101723199;1.5859999999999999;0.007842564975965154
05:04.4;-0.01734609849424293;-0.41495504647836956;-1.4731137735549378;1.666;0.010603253605567553
05:04.5;-0.041305597227688395;-0.3955539385562571;-1.499724525169682;1.702;0.02450338663097851
05:04.5;-0.056970607078893364;-0.3675300265665498;-1.5110372842766677;1.541;0.031638716269316816
05:04.5;-0.06291926575643238;-0.3322099003227496;-1.5088890705744384;1.541;0.03153940744347718
05:04.5;-0.05871377974033737;-0.291630090613543;-1.4954356427429345;1.541;0.025605903216509275
05:04.5;-0.04512519758417146;-0.2483120724708802;-1.472920486091793;1.495;0.01650426748940596
05:04.5;-0.024123786432121288;-0.20499928311679824;-1.443469063163713;1.4340000000000002;0.007138472613969391
05:04.5;0.0013610457047980523;-0.16437233193058756;-1.4089153553623415;1.3259999999999998;0.0003152000866629809
05:04.5;0.0278533929821321;-0.12876772240201667;-1.370662573718337;1.262;0.004916043025212395
05:04.5;0.051829415542234226;-0.09994132438464437;-1.329592159194474;1.235;0.00688715499896156
05:04.5;0.07020807160312705;-0.07891699692176993;-1.2860466594505258;1.247;0.007125483201201508
05:04.6;0.0807488070773807;-0.06594285357743508;-1.239906134909855;1.278;0.006602260570987087
05:04.6;0.08229273126547186;-0.060553618962014874;-1.1907547450934353;1.193;0.005933676991349586
05:04.6;0.07482122452668068;-0.06171579316547756;-1.1381106836218173;1.193;0.0052553981836215395
05:04.6;0.05935127964843783;-0.06801936383817596;-1.0816827239569602;1.193;0.004366792405113224
05:04.6;0.03771373088064161;-0.0778816639967638;-1.021615382270875;1.2;0.0030006969927579958
05:04.6;0.012258145857335416;-0.08974242934510343;-0.958679422979599;1.172;0.0010546200221567422
05:04.6;-0.014477207245388774;-0.10224046965259123;-0.8943575826268944;1.074;0.0013237891606536932
05:04.6;-0.04008324214799591;-0.1143641622738685;-0.8307832317604599;0.9059999999999999;0.0038083821219338154
05:04.6;-0.06253501970962994;-0.12556527868719974;-0.7705223061917001;0.74;0.006050316193586362
05:04.6;-0.08034970511373027;-0.13582486758164283;-0.7162371240250748;0.623;0.007816645299240019
05:04.7;-0.09263870007385862;-0.14566226560205675;-0.6703106472501414;0.547;0.009045147029055064
05:04.7;-0.09906326974568724;-0.1560824378029052;-0.6345210056919106;0.521;0.009810987037990992
05:04.7;-0.09971622233485057;-0.16846207262069687;-0.6098355416199738;0.568;0.010244262270049624
05:04.7;-0.0949685834494796;-0.184381353129413;-0.5963525786746483;0.568;0.010442393615323991
05:04.7;-0.08532997854050989;-0.20541494853701256;-0.5933780523320799;0.568;0.010400762039654381
05:04.7;-0.07136043581956462;-0.232900421868052;-0.599603673266672;0.615;0.009965338463231124
05:04.7;-0.05364799978412476;-0.2677056122977593;-0.6133543707121714;0.6729999999999999;0.00880891612297891
05:04.7;-0.03284732065165852;-0.3100217588815161;-0.6328759973660966;0.7490000000000001;0.006444819383388181
05:04.7;-0.009759275825658801;-0.35921591554284277;-0.6566272790854363;0.8590000000000001;0.00230192984795256
05:04.7;0.014584941240451463;-0.41377918601476266;-0.6835276139094806;0.968;0.00412505163422109
05:04.8;0.03888490959769386;-0.47140167628005775;-0.7131024431209478;1.014;0.013071461271377658
05:04.8;0.06162297465339983;-0.5291864289070726;-0.7454714150143595;1.023;0.024309854075488874
05:04.8;0.08121888027230095;-0.583975845693649;-0.7811594300476685;1.023;0.03705028575859888
05:04.8;0.0962446086513011;-0.6327170294953289;-0.8207731000041386;1.032;0.04998147276129607
05:04.8;0.10562621023979535;-0.672779015734927;-0.8646326338231286;1.032;0.061443473384672015
05:04.8;0.10877913976315369;-0.7021732367297849;-0.9124512434954986;0.9940000000000001;0.06969466898915243
05:04.8;0.105668222013005;-0.719681793644821;-0.9631297903061867;1.056;0.0732436084419763
05:04.8;0.09681704909716683;-0.724928440578813;-1.0147096699910765;1.105;0.0712178369725815
05:04.8;0.08329917452697318;-0.7184261049941775;-1.064503797103661;1.382;0.06370448618670939
05:04.8;0.06671845944833672;-0.7015980249309975;-1.1093977951885046;1.723;0.05193039977684926
05:04.9;0.049140002097502834;-0.6767099520815658;-1.1462712512870097;1.675;0.038117563682927465
05:04.9;0.03291123628781835;-0.6466311635778846;-1.172436066506412;1.3230000000000002;0.024951117269532624
05:04.9;0.020357251740399006;-0.6144203026108062;-1.1859732318055878;1.3230000000000002;0.014834044992613366
05:04.9;0.013417017824470426;-0.5828555019672024;-1.185905860959174;1.3230000000000002;0.009274000449061149
05:04.9;0.013325641503821279;-0.5540710921432538;-1.1722233911065092;1.298;0.008654938788413861
05:04.9;0.020416173441587082;-0.5293929678988716;-1.1458008650352525;1.261;0.012384020448206643
05:04.9;0.03406645299787534;-0.5093654513777205;-1.1082476970300423;1.238;0.01923061792936137
05:04.9;0.05279038435314953;-0.4939039925906472;-1.0617128934232996;1.177;0.027682445422430264
05:04.9;0.07445743157279186;-0.48249639452111615;-1.0086728049042182;1.093;0.03623701663115982
05:04.9;0.09660585393241725;-0.47439466788902396;-0.9517245407980981;1.034;0.043616871393818674
05:05.0;0.11679898874182064;-0.4687699712743678;-0.8934058068766538;1.0090000000000001;0.04891562840818737
05:05.0;0.13296667419508312;-0.4648259459926935;-0.8360596199039102;0.941;0.051673801948093054
05:05.0;0.1436774067163356;-0.46187636663459597;-0.7817556044632895;0.941;0.051878238910084445
05:05.0;0.14829970297854556;-0.45939542235446296;-0.7322693263272035;0.941;0.04988819454847184
05:05.0;0.14703034399146991;-0.4570465526908822;-0.6891080899903591;0.912;0.04630786508930163
05:05.0;0.14078941466445621;-0.4546914849730434;-0.6535569331262094;0.879;0.04183793594921314
05:05.0;0.13100596066201858;-0.452377771119316;-0.6267111106314888;0.836;0.037141522880911264
05:05.0;0.11934055372553837;-0.45030174368377096;-0.6094685432704844;0.774;0.032752388164160165
05:05.0;0.10740344091398037;-0.44874514065874804;-0.602474498880653;0.6990000000000001;0.029037326178967017
05:05.0;0.09652260152828163;-0.44798938644286307;-0.6060339342059551;0.653;0.026205574580561747
05:05.1;0.08759732451911081;-0.44822023113635684;-0.6200268492746103;0.6509999999999999;0.024344047866784332
05:05.1;0.0810476939705802;-0.4494409457527411;-0.6438679988449745;0.8;0.023453633741447908
05:05.1;0.07684765645034118;-0.4514113989703551;-0.6765334337533419;0.8;0.023468882647433003
05:05.1;0.07461720678803647;-0.45362694214851906;-0.7166404659669663;0.8;0.02425711548084203
05:05.1;0.07374999189653261;-0.45534759021275883;-0.7625475214919936;0.9009999999999999;0.025607780190919437
05:05.1;0.0735590542873107;-0.4556811961430659;-0.812451108005613;0.968;0.027232936914772857
05:05.1;0.07342350649554595;-0.45371148308276454;-0.8644734913945111;1.034;0.02879828151430425
05:05.1;0.07290909887331729;-0.4486456890740452;-0.9167386901353696;1.063;0.02998684607488349
05:05.1;0.07182907829191644;-0.4399452496586306;-0.967437554895926;1.081;0.03057186045487239
05:05.1;0.07022612909089525;-0.42740618472263653;-1.0148893397849146;1.1340000000000001;0.030461986655698433
05:05.2;0.06828844996659077;-0.41117433308743445;-1.0576060304206938;1.1909999999999998;0.029695946370962047
05:05.2;0.0662372213487647;-0.391701111046895;-1.0943546743382377;1.198;0.028393243449524323
05:05.2;0.06422294156893457;-0.36965771188104074;-1.1242030519574846;1.198;0.02668914888498173
05:05.2;0.06225561154093596;-0.34583096491911836;-1.1465350997614205;1.198;0.024684806923711125
05:05.2;0.06018275636382191;-0.32102148189180096;-1.1610349546189764;1.143;0.022431146132796818
05:05.2;0.05771947200566401;-0.2959542848974928;-1.1676555876848616;1.097;0.019946272309406887
05:05.2;0.05452208503350602;-0.2712071009344899;-1.1666009123841288;1.173;0.017250267094760106
05:05.2;0.05028308052290667;-0.24716868582748738;-1.1583464749775105;1.319;0.014396396726119318
05:05.2;0.04481488863788876;-0.2240425207859284;-1.1436930881361433;1.3259999999999998;0.011483182537989835
05:05.2;0.03809036694468248;-0.201893922268261;-1.1238066794425725;1.225;0.008642313391026949
05:05.3;0.03022283741328653;-0.18071293703451616;-1.100187644430363;1.1059999999999999;0.006008848335569505
05:05.3;0.021394620973185185;-0.16046023120741212;-1.0745505991964328;0.9670000000000001;0.0036889169784589454
05:05.3;0.011766103497474346;-0.14108580002274348;-1.0486490233445758;0.9670000000000001;0.0017407889693998471
05:05.3;0.001403522598242798;-0.12253520726216593;-1.0241072690189983;0.9670000000000001;0.0001761269230780752
05:05.3;-0.009748164294352879;-0.10476110615094132;-1.0023104899480204;1.001;0.0010235880125422918
05:05.3;-0.021840279928801425;-0.0877442971183455;-0.9843661764365776;1.044;0.0018863999769211692
05:05.3;-0.03505294940797151;-0.07151863526081087;-0.9711146642512815;1.053;0.002434525325817478
05:05.3;-0.04950595351639043;-0.056195175284039535;-0.9631465829333988;1.0290000000000001;0.002679469686340768
05:05.3;-0.06517439436664324;-0.04198563031436456;-0.960787289995719;0.965;0.002629086837645592
05:05.3;-0.08183503691753002;-0.02922617337270866;-0.9640299798804045;0.909;0.00230569458137362
05:05.4;-0.09906282493530848;-0.018397851927427558;-0.9724302681607121;0.894;0.0017722961578055417
05:05.4;-0.11628538601017067;-0.010131191195206845;-0.9849993080974825;0.904;0.001160437021557394
05:05.4;-0.1328833627520852;-0.005179666165555016;-1.0001390559798333;0.904;0.0006883871690552541
05:05.4;-0.1483008505089219;-0.004358947185636968;-1.0156553841563258;0.904;0.0006565557722116451
05:05.4;-0.1621229686152451;-0.00846528022813254;-1.028873808496816;0.904;0.0014120432479228287
05:05.4;-0.17409623078450145;-0.01818972393844531;-1.0368713752083518;1.1740000000000002;0.0032835252604807197
05:05.4;-0.1840952831411376;-0.034039083394895184;-1.0368120061289485;1.215;0.0064971147278635125
05:05.4;-0.19206095311264584;-0.05626941353850961;-1.0263260989456149;1.188;0.011091667484939944
05:05.4;-0.19794603665014496;-0.08483365343399463;-1.003842967765;1.196;0.0168570184521736
05:05.4;-0.20170034042804535;-0.11934609116458336;-0.9688003250307602;1.107;0.023321104047681736
05:05.5;-0.20330421968715262;-0.1590757210187237;-0.9216995639455171;1.028;0.029808469304982377
05:05.5;-0.20283458286161507;-0.20298101971925953;-0.8640142097302774;0.96;0.0355728219174456
05:05.5;-0.20053108185420934;-0.24978063423040633;-0.7979856578158638;0.755;0.039970128702628734
05:05.5;-0.1968265761139034;-0.29803790473331365;-0.7263612590885319;0.755;0.04260964462873279
05:05.5;-0.19231754077214094;-0.34624117025624634;-0.6521385856114594;0.752;0.04342476741968726
