Time;AccX;AccY;AccZ;Acc-old;Acc-trns
56:29.9;-0.03836215574782806;-0.20512337025491198;-0.6046605752656059;0.638;0.004758058755089417
56:29.9;-0.05409797052631936;-0.19417137982232693;-0.5943329276425079;0.527;0.006243038048485555
56:29.9;-0.06966441215800837;-0.18334228417738582;-0.5856461369290902;0.508;0.007480125724071452
56:29.9;-0.08477604046531535;-0.1728385276437846;-0.5813683681067706;0.516;0.008518538391842323
56:29.9;-0.09895664503836421;-0.16308363886892208;-0.5837847757023953;0.552;0.009421241166799287
56:29.9;-0.11152414319556414;-0.1547229321817361;-0.5945522888252104;0.622;0.010259203344705608
56:29.9;-0.12161048430282917;-0.14857852753840262;-0.6146556239707888;0.622;0.011106032185468816
56:29.9;-0.12822860635134053;-0.1455608537198841;-0.6444363572807483;0.622;0.012028446762395067
56:29.9;-0.1303849838758466;-0.14655051595571114;-0.6836658789030308;0.677;0.013063478493895886
56:30.0;-0.12722779808797746;-0.15226467319932965;-0.7316497248349357;0.759;0.014173737304278755
56:30.0;-0.1182128693070679;-0.16311898394254684;-0.7873614589091865;0.89;0.015182504510074853
56:30.0;-0.10325657005964384;-0.17910004034047872;-0.8495938541046933;1.036;0.015711756523676772
56:30.0;-0.08283591598448568;-0.19967265100005221;-0.9170913252136428;1.114;0.015168751911547951
56:30.0;-0.05800000316610486;-0.22375564346565188;-0.9886113314990341;1.034;0.012830027848151786
56:30.0;-0.030272156456691;-0.24980315502169967;-1.062878809205456;0.868;0.008037574789793122
56:30.0;-0.0014446399032282814;-0.27601439242828824;-1.1384533929081326;1.228;0.00045394850560557257
56:30.0;0.02670020649328995;-0.3006495485815405;-1.21358276097274;1.228;0.009741920358833409
56:30.0;0.05267352622689014;-0.3223662886812838;-1.2861160677038301;1.228;0.021838468390958453
56:30.0;0.07549010385543432;-0.3404635395196054;-1.35351499619088;1.4469999999999998;0.034787538866756514
56:30.1;0.09475723004100765;-0.3549551362826598;-1.4129722221026828;1.514;0.047524706758194306
56:30.1;0.11063654469540035;-0.3664591681384783;-1.461624054947113;1.5530000000000002;0.05925975847700265
56:30.1;0.12370297904402318;-0.37594601770797326;-1.4968135969645913;1.595;0.06961027780537173
56:30.1;0.1347419226292089;-0.3844320789388516;-1.5163468462278005;1.6469999999999998;0.0785454283623183
56:30.1;0.14452800309180097;-0.39271731549707495;-1.5186956834513348;1.685;0.0861991158246377
56:30.1;0.15362108163829666;-0.401233385389549;-1.5031161422396495;1.685;0.09264893246389189
56:30.1;0.16221339265144047;-0.4100217598307859;-1.469660733239416;1.395;0.09774863548436302
56:30.1;0.170060936932775;-0.41882055179914407;-1.4190919381036222;1.395;0.10107484521024812
56:30.1;0.17651304205717744;-0.42720668157046593;-1.35275301574083;1.395;0.10200779195880505
56:30.1;0.1806280851141393;-0.43472905915675925;-1.2724731251655796;1.395;0.09992003279046678
56:30.2;0.18135644050883817;-0.44098953555011033;-1.180542504238073;1.365;0.09441541259104605
56:30.2;0.1777746601722757;-0.4456612674168254;-1.0797317169605876;1.263;0.08554420746074833
56:30.2;0.16934333568504792;-0.44845557002517744;-0.9733025152006161;1.167;0.07391547605739437
56:30.2;0.15613909499303427;-0.44905938431711173;-0.8649695001231223;1.083;0.06064796435256751
56:30.2;0.13899938253625171;-0.44707236371845366;-0.7587931852708047;0.998;0.047153519879233295
56:30.2;0.11952509906433334;-0.44197368611766064;-0.6589961821165055;0.888;0.03481275745149546
56:30.2;0.09991118847865546;-0.4331419710703257;-0.5696998147127263;0.5529999999999999;0.02465417485531073
56:30.2;0.08262343444402401;-0.4199361017988057;-0.49460311027339404;0.5529999999999999;0.017161027964543676
56:30.2;0.06999757476976581;-0.4018230888533111;-0.4366699468604695;0.5529999999999999;0.012282059139222
56:30.2;0.06385978122152476;-0.37852335282337296;-0.3979043292049811;0.5529999999999999;0.009618309967923087
56:30.3;0.06523638838992622;-0.3501425635218202;-0.3792518437894524;0.5379999999999999;0.008662884369692696
56:30.3;0.07417871574615893;-0.31726550252721986;-0.3806144949898689;0.52;0.008957513799296794
56:30.3;0.08971599626019082;-0.2809934950755651;-0.40095166818269723;0.496;0.010107835726358072
56:30.3;0.10994943534789801;-0.24291572081680152;-0.4384473250390443;0.536;0.011710246854131787
56:30.3;0.13228278801808732;-0.20501701430144173;-0.49072466523389974;0.606;0.0133085619812351
56:30.3;0.15375436131557102;-0.16953186010938778;-0.5550830750959135;0.665;0.01446894135222495
56:30.3;0.17141689953958825;-0.1387523107131896;-0.6287277081931995;0.873;0.014953968458128245
56:30.3;0.182711721748341;-0.11479861112706582;-0.7089583708850506;0.873;0.014870438619534881
56:30.3;0.18579105014752526;-0.0993738453368634;-0.7932808367322751;0.873;0.014646162492590056
56:30.3;0.17975290671562605;-0.09353433408541283;-0.8794181097242373;0.8859999999999999;0.014785716856990908
56:30.4;0.16476092027314987;-0.0975104501608769;-0.96524192455027;0.9259999999999999;0.015507491340504225
56:30.4;0.14201753789481533;-0.11062583174145452;-1.0486895477049547;0.9840000000000001;0.016475760399331678
56:30.4;0.11355979556667642;-0.13137201979966143;-1.1277394695918523;1.209;0.01682427117105842
56:30.4;0.08188610609624769;-0.15765057879190109;-1.2004788141134657;1.35;0.01549745162440212
56:30.4;0.04949226551471988;-0.18711012891276477;-1.2652299525491137;1.4709999999999999;0.011716667265057101
56:30.4;0.018441154355654285;-0.2174691758011562;-1.3206598825394886;1.548;0.005296351464360616
56:30.4;-0.009919896287758467;-0.24675955323009446;-1.3657999775894634;1.324;0.003343245033800327
56:30.4;-0.0350376941993469;-0.27348403511715474;-1.3999510908543138;1.324;0.01341468132751284
56:30.4;-0.05704696731516336;-0.29669784754069467;-1.4225164924463156;1.324;0.024077105051240458
56:30.4;-0.07655113760302189;-0.3160140128086632;-1.4328497241618543;1.3319999999999999;0.03466240035481423
56:30.5;-0.09436766763306752;-0.33153405814835935;-1.4301953910055214;1.365;0.04474523002771147
56:30.5;-0.11129726553593272;-0.34371992711582444;-1.4137580369718241;1.439;0.05408343811252154
56:30.5;-0.12795914110832743;-0.35323142951340525;-1.3828914628199733;1.507;0.06250557443788358
56:30.5;-0.14471286240456235;-0.36075266475189477;-1.337365076714058;1.561;0.06981788036537845
56:30.5;-0.16165865566534648;-0.36683000078261513;-1.2776342845778017;1.556;0.0757653034544799
56:30.5;-0.1786883744275102;-0.3717475555097366;-1.2050274750373704;1.479;0.08004631958506372
56:30.5;-0.1955586380817731;-0.3754662611744696;-1.1217771461148887;1.05;0.08236723930803046
56:30.5;-0.21196762591284204;-0.37763939110487005;-1.0308802297614024;1.05;0.08251920497712799
56:30.5;-0.22762540979647794;-0.37769458818524665;-0.9358503594445243;1.05;0.08045775571678057
56:30.5;-0.24231261689958727;-0.37495819990431567;-0.8404537341565309;0.9540000000000001;0.07636119119412385
56:30.6;-0.2559254800712938;-0.3688004521014324;-0.7484758444946303;0.866;0.07064521648896738
56:30.6;-0.26850277853179566;-0.3587871264410192;-0.6635164729015347;0.812;0.06392008524536644
56:30.6;-0.2802223448239286;-0.3448232096748579;-0.5888067302375471;0.757;0.05689472705699194
56:30.6;-0.2913530572708219;-0.32726821004919293;-0.5270582320961398;0.6970000000000001;0.05025531526334657
56:30.6;-0.3021599327310642;-0.3069969034614397;-0.4803603414613681;0.624;0.04455926462893254
56:30.6;-0.31277916084594354;-0.2853783299102575;-0.45014005642322086;0.589;0.0401796790404226
56:30.6;-0.32309387244014987;-0.2641568152923618;-0.4371944710575382;0.591;0.03731343255246997
56:30.6;-0.33264107322241426;-0.24524526266978358;-0.44179022457975825;0.591;0.03604064894568154
56:30.6;-0.3405684165331747;-0.23047191000927528;-0.46380083434335273;0.591;0.03640440159765013
56:30.6;-0.34564798844586697;-0.22133295884249896;-0.5028414353441423;0.688;0.03846902515817479
56:30.7;-0.34634878289541265;-0.21878958383959482;-0.5583678013044308;0.77;0.0423117194543351
56:30.7;-0.34096529807468584;-0.22313423238830588;-0.6297123905130559;0.861;0.04790916730985445
56:30.7;-0.32779238995332416;-0.2339511667130971;-0.7160260632648547;0.907;0.054910185765918135
56:30.7;-0.30532766164038977;-0.25019301457463455;-0.8161002908068589;0.8690000000000001;0.0623425933484403
56:30.7;-0.2724752943528675;-0.2703764861479956;-0.928079109146552;0.7959999999999999;0.06837243498154712
56:30.7;-0.22872099857693118;-0.29287459352973705;-1.0491302399531999;0.748;0.07027763572261646
56:30.7;-0.1742490189091023;-0.31625969957801664;-1.1752008440681334;1.328;0.06476290039038173
56:30.7;-0.10998618238191939;-0.3396291794978781;-1.3009768225325138;1.328;0.04859736067579589
56:30.7;-0.03758266884888998;-0.36282360653586065;-1.4200804937482099;1.328;0.0193640464291435
56:30.7;0.04065212045764734;-0.38645109365790037;-1.5254673200188957;1.506;0.023965177649673586
56:30.8;0.12186063867390451;-0.4116841076431208;-1.6099823169460703;1.742;0.08076973502074156
56:30.8;0.20281466698883552;-0.4398781383914719;-1.6670434390944553;1.962;0.14872317686594166
56:30.8;0.28016346427259686;-0.472129182385447;-1.6913710765972247;2.063;0.2237233138639383
56:30.8;0.35072271489059953;-0.508903461332611;-1.6796316378481297;2.11;0.29978737925570664
56:30.8;0.41174945956900755;-0.5498337086710645;-1.6308681414712736;2.077;0.36921832559688955
56:30.8;0.4611470904811912;-0.5937102657460671;-1.5466390771656078;1.93;0.4234508509984362
56:30.8;0.4975696522567363;-0.6386382062577959;-1.430848808312216;1.484;0.45467651925658126
56:30.8;0.5204335840351364;-0.6822978859321486;-1.2893287453154432;1.484;0.4578286907415471
56:30.8;0.5298720900940255;-0.7222338891149641;-1.1293005804492022;1.484;0.43217382383592245
56:30.8;0.5266686921341903;-0.756110655723217;-0.9588532880441167;1.3719999999999999;0.3818343743347546
56:30.9;0.5121912730373583;-0.781907926914123;-0.786481550311509;1.263;0.31497517771515215
56:30.9;0.48832859931433154;-0.7980576850782887;-0.6206597022754242;1.167;0.24188001821717303
56:30.9;0.4574138812782163;-0.8035305884291613;-0.4694252746979927;1.058;0.1725354032223841
56:30.9;0.42211125236681113;-0.7978781799660097;-0.33997833871125177;0.968;0.11450244626757407
56:30.9;0.38524660949916645;-0.7812395798697311;-0.23831890137449363;0.9109999999999999;0.07172681576020974
56:30.9;0.3495807197197999;-0.7543230143436003;-0.16894208903196248;0.873;0.04454948526524137
56:30.9;0.3175424246438688;-0.7183677172057914;-0.13460214900900708;0.7170000000000001;0.03070439593004694
56:30.9;0.2909595612486295;-0.6750861831947264;-0.13615355322371708;0.7170000000000001;0.026743659385788925
56:30.9;0.2708385848187299;-0.6265872012722326;-0.17248622426704496;0.7170000000000001;0.029271600626162807
56:30.9;0.257238132075751;-0.5752789912759119;-0.24058177571517939;0.6509999999999999;0.03560217967208747
56:31.0;0.2492586173316609;-0.5237430674766955;-0.33571496212541;0.607;0.043826739898801044
56:31.0;0.24515054451388016;-0.4745672283745534;-0.45180696623574634;0.6459999999999999;0.052563409700762995
56:31.0;0.24253701528021115;-0.4301411801946283;-0.5819101043926379;0.7709999999999999;0.060707863578783376
56:31.0;0.2387370306902036;-0.39243912816528814;-0.7187755580294496;0.951;0.0673419039082943
56:31.0;0.23115646463112371;-0.3628254996499347;-0.8554372793207213;1.0979999999999999;0.07174506248982103
56:31.0;0.21769124738539458;-0.34192047342191706;-0.9857433634855071;1.225;0.07337192879479931
56:31.0;0.1970772005079;-0.3295541085709208;-1.1047777947225148;1.4980000000000002;0.07175266755227039
56:31.0;0.16913163458030567;-0.32482065937345783;-1.209125776901942;1.4980000000000002;0.06642628578207432
56:31.0;0.13485550723330414;-0.32621930368168106;-1.2969402437722704;1.4980000000000002;0.0570556043344372
56:31.0;0.09638128896525537;-0.33184958212369053;-1.367786991421313;1.4980000000000002;0.0437474228741114
56:31.1;0.056752453812742736;-0.339632696416239;-1.422292092846851;1.357;0.027414664325876036
56:31.1;0.01952637081717035;-0.34753967496103944;-1.461664717883871;1.3419999999999999;0.009919132397244193
56:31.1;-0.011771146582348081;-0.3538046251840618;-1.4871967308563538;1.4509999999999998;0.006193707559736057
56:31.1;-0.034252808848322644;-0.3570887734041741;-1.4998370418017966;1.4709999999999999;0.018344947056392745
56:31.1;-0.04620739661097425;-0.35655440954674855;-1.4999067732245641;1.416;0.02471164056980552
56:31.1;-0.04743017895140235;-0.3518255241735947;-1.4869869126298638;1.37;0.024813570047534095
56:31.1;-0.039245118173065405;-0.342859914565868;-1.459992485630454;1.449;0.01964504257117459
56:31.1;-0.024208529411192337;-0.3298003604780625;-1.4174296067707157;1.449;0.011316732078993707
56:31.1;-0.005603377511529531;-0.3128663185877309;-1.357798470118254;1.449;0.0023803674875635655
56:31.1;0.013106720232173836;-0.2923058331437971;-1.280074832189266;1.4780000000000002;0.004904185289774455
56:31.2;0.028737736329846983;-0.2683950202359981;-1.1841929933972188;1.4580000000000002;0.0091337579140425
56:31.2;0.03871075103827348;-0.24146253732162137;-1.0714543020631684;1.3869999999999998;0.010015093545710984
56:31.2;0.04123841294287959;-0.2119171845777599;-0.9447862026654051;1.255;0.008256607904756429
56:31.2;0.035388441649009776;-0.1802629908740622;-0.8087870906160067;1.032;0.00515943590707526
56:31.2;0.021053854757300813;-0.14709693992006928;-0.6695216559986165;0.7809999999999999;0.002073480186480284
56:31.2;-0.001139239643835728;-0.11309426609085131;-0.5340761329678925;0.562;6.881115482253014e-05
56:31.2;-0.029966009599102707;-0.07898906488179455;-0.4099309143895076;0.16;0.0009703011766063151
56:31.2;-0.06376652713643807;-0.04555720426592761;-0.3042493483658399;0.16;0.0008838518725955807
56:31.2;-0.10062164801378874;-0.013611038137321738;-0.22320083034906416;0.16;0.00030568806498275364
56:31.2;-0.13852165269313513;0.015984583528002246;-0.1714092690303868;0.172;0.00037953627663220513
56:31.3;-0.17551751587685382;0.04227476237847759;-0.15155614485424054;0.262;0.0011245407261029966
56:31.3;-0.20984973839216314;0.06416375443153223;-0.1641293694058976;0.319;0.002209960447731953
56:31.3;-0.24003992739606803;0.08036094706445342;-0.20732244537566405;0.28800000000000003;0.003999215949440843
56:31.3;-0.26492571365184925;0.08934090148274274;-0.2771183351986682;0.271;0.006559031317724687
56:31.3;-0.2836370281368062;0.08935273475509999;-0.3676035659249676;0.248;0.009316450720427772
56:31.3;-0.2955391712827094;0.07852399847857237;-0.4715467052927244;0.321;0.010943145457022477
56:31.3;-0.3001840389556872;0.05508497403012063;-0.5812387310508057;1.197;0.009611148592589243
56:31.3;-0.29730405319743225;0.017694370862987745;-0.6895088794889646;1.197;0.0036272360491019905
56:31.3;-0.2868567880768941;-0.03419676616163536;-0.790719235976343;1.197;0.007756619256852945
56:31.3;-0.26910106228929864;-0.10002457344168088;-0.881508313300266;1.4040000000000001;0.0237273115372267
56:31.4;-0.24467323452984122;-0.17790853436244045;-0.9611406974759197;1.472;0.041837932232022916
56:31.4;-0.2146294249424062;-0.26461904940429304;-1.0314226053819293;1.3780000000000001;0.05857968235613086
56:31.4;-0.18041911712646858;-0.3557508300316745;-1.0961898453790802;1.252;0.07035812381916978
56:31.4;-0.14376677682972988;-0.44610889871062803;-1.1604153825407013;1.114;0.07442398146437987
56:31.4;-0.10646400289560323;-0.5302743854957962;-1.229055970994641;1.031;0.06938651918312667
56:31.4;-0.07010425393768693;-0.6032699717108501;-1.3058331300744495;1.078;0.0552260221964131
56:31.4;-0.03581363592678001;-0.6612075269993901;-1.3921847660117794;1.3969999999999998;0.032967277240997385
56:31.4;-0.004041178349038034;-0.701794102897043;-1.4865972090824011;1.3969999999999998;0.004216101379116072
56:31.4;0.0255310575152704;-0.7245991835509205;-1.5844378436767916;1.3969999999999998;0.029311756967515503
56:31.4;0.053919647741001026;-0.731032537516792;-1.67832316926292;1.598;0.06615449274347521
56:31.5;0.08261557100991779;-0.7240370530897778;-1.759009196629273;2.031;0.10521818622685511
56:31.5;0.11325265607930253;-0.707558368779984;-1.816716613702434;2.403;0.14557870641416126
56:31.5;0.1472502710237877;-0.6859017502195441;-1.8426716670918184;2.58;0.18610839854122796
56:31.5;0.18551555859955537;-0.6631069713054072;-1.8305432275254363;2.635;0.22518731418906102
56:31.5;0.22826369560864715;-0.6424520121615042;-1.7774703897051793;2.496;0.2606633140931938
56:31.5;0.27497635491193023;-0.6261473448322479;-1.684483270169738;2.208;0.2900271106380481
56:31.5;0.32448848480663783;-0.6152289810195669;-1.556267899793782;1.3630000000000002;0.3106851062027084
56:31.5;0.3751702708731174;-0.6096186602393243;-1.4003961969803949;1.3630000000000002;0.32028573157532014
56:31.5;0.4251508256509113;-0.6083007560143411;-1.226287503372703;1.3630000000000002;0.31714194517977534
56:31.5;0.47253047288677696;-0.6095679978392484;-1.044179051655792;1.214;0.30076476420497494
56:31.6;0.5155548744631364;-0.6113024335136568;-0.8642478370916741;1.111;0.27237630458020345
56:31.6;0.5527458956550065;-0.6112675746450813;-0.695898398764707;1.047;0.23512711896760566
56:31.6;0.5829841832795855;-0.6073873187839696;-0.5472062021758706;1.013;0.19376418399978504
56:31.6;0.6055360308700777;-0.5979870372512384;-0.42452219799189395;0.978;0.1537206328499801
56:31.6;0.6200245753721164;-0.5819783114053744;-0.3322370337708692;0.9440000000000001;0.11988469546306661
56:31.6;0.6263556446974038;-0.5589761326875081;-0.2726869019403315;0.898;0.09547255345570882
56:31.6;0.624617189328973;-0.529341771116574;-0.24618162014705114;0.777;0.08139649859359581
56:31.6;0.6149796168980047;-0.49415105137378607;-0.25114358133218945;0.777;0.07632073222671348
56:31.6;0.5976294582905596;-0.4550985157896551;-0.28434793328003505;0.777;0.07733703035743687
56:31.6;0.5727623989207242;-0.4143504962485374;-0.341252034509843;0.784;0.08098742895568097
56:31.7;0.5406418013066148;-0.37434926356423276;-0.4164052313217145;0.802;0.0842757801365148
56:31.7;0.50170520690606;-0.33756464353583665;-0.5039300832592533;0.841;0.08534456046683844
56:31.7;0.45668557789307546;-0.3062027037114925;-0.5980523836572379;0.935;0.08363066374539994
56:31.7;0.40670982950859114;-0.2819032252895631;-0.6936355058574363;1.073;0.07952726173197953
56:31.7;0.3533404032592571;-0.26547499329842456;-0.7866541432891354;1.205;0.0737905510031219
56:31.7;0.2985319443924137;-0.2567282675826676;-0.8745267112549057;1.334;0.06702511668777249
56:31.7;0.24448960256219635;-0.2544644487193509;-0.9562215760176016;1.2009999999999998;0.059490284919369654
56:31.7;0.19344808053245563;-0.25665772191911734;-1.0320755688854295;1.2009999999999998;0.05124249384708072
56:31.7;0.1474289004321725;-0.2608057706418153;-1.103323177424537;1.018;0.042423115986782826
56:31.7;0.10803839590528223;-0.26437026639402234;-1.171414414027869;1.018;0.033458101913110515
56:31.8;0.07632976162699784;-0.26521081494367865;-1.2372642398292268;0.9259999999999999;0.025046531772473977
56:31.8;0.05271222491481563;-0.2619294623039674;-1.3006041540870692;0.978;0.017957291633257075
56:31.8;0.03688633522916035;-0.2540567823572243;-1.3595969695141557;1.056;0.012741087263310654
56:31.8;0.027808694809700937;-0.2420272921122014;-1.4108309750086663;1.278;0.009495545820407316
56:31.8;0.023719071536913414;-0.22694137145655421;-1.4497231720243444;1.551;0.007803625884862077
56:31.8;0.02227910617894997;-0.21019200586724113;-1.4712469162949373;1.8130000000000002;0.006889687496392829
56:31.8;0.02085499506971406;-0.19309139571518913;-1.4708059535874034;1.78;0.00592281806600271
56:31.8;0.016918565084443966;-0.17661342848519;-1.445052031254566;1.78;0.004317881630537348
56:31.8;0.008471994864327453;-0.16129027903019214;-1.3924910432014634;1.78;0.0019027699647154658
56:31.8;-0.005623263587951937;-0.14723252916601537;-1.3137977872401094;1.564;0.0010877290813024114
56:31.9;-0.0254945502836699;-0.13422248279080506;-1.2118178150112773;1.337;0.004146770079656617
56:31.9;-0.05030195229903388;-0.12183943855521034;-1.091280140981115;1.101;0.006688195851637703
56:31.9;-0.07844756616412188;-0.10958489521276253;-0.9582909456789427;0.877;0.008238109411944671
56:31.9;-0.10788826333091507;-0.09698537825159274;-0.8197106034874927;0.7;0.008577110778280071
56:31.9;-0.13647985812337715;-0.08366435987538662;-0.682519207014126;0.568;0.007793345541932215
56:31.9;-0.16229481136704665;-0.06938499060741372;-0.5532552246390668;0.485;0.0062301096909023685
56:31.9;-0.18388022514649302;-0.054070447548559004;-0.4375809674845482;0.402;0.004350642673274957
56:31.9;-0.20043644998727422;-0.037815228188429945;-0.34000058782333126;0.402;0.0025770514872425695
56:31.9;-0.21189689610152188;-0.020907289553215566;-0.2637366631849186;0.402;0.0011684034651644585
56:31.9;-0.21889304197826048;-0.003876892782903859;-0.21075088321589078;0.32;0.00017884843764137383
56:32.0;-0.22260568193681032;0.01243048201517957;-0.1818731114146965;0.259;0.0005032603456067765
56:32.0;-0.2245288073465056;0.026783968194232084;-0.1769993845565535;0.225;0.001064434019797574
56:32.0;-0.22619494237185486;0.03754219214398124;-0.1953348248587375;0.226;0.0016587548115737088
56:32.0;-0.22892204908150704;0.04271041302150427;-0.2356691159655068;0.27899999999999997;0.0023042206720189687
56:32.0;-0.23364054727141328;0.040092433686266984;-0.29666793918342693;0.41700000000000004;0.002778953303819762
56:32.0;-0.24084701590126073;0.027519785267301332;-0.3771506579931252;0.581;0.002499776496212806
56:32.0;-0.2507056925982893;0.0031198260741791984;-0.4763068551326185;1.001;0.0003725472918404366
56:32.0;-0.26326956160176707;-0.03441965393545151;-0.5937808391784846;1.001;0.0053806324799849994
56:32.0;-0.27873079138757584;-0.08562134356497146;-0.7295406267056771;1.001;0.017410709457908704
56:32.0;-0.29758487906896686;-0.15004786534625444;-0.88347987889856;1.001;0.03944912222857396
56:32.1;-0.3206303793316374;-0.22621801005948908;-1.0547799928709356;0.953;0.07650568889006752
56:32.1;-0.3487851369216527;-0.3116473840431171;-1.2411416187677984;0.968;0.13490958128716365
56:32.1;-0.38273898906673987;-0.4030428743392004;-1.4380460961929789;0.987;0.2218333104406243
56:32.1;-0.4224933721025039;-0.49664515342442134;-1.6382296313892297;1.052;0.3437485532173227
56:32.1;-0.4668794167312341;-0.588665510769061;-1.831558056070982;1.249;0.5033777424840942
56:32.1;-0.5131859901655405;-0.6757302984282357;-2.0054736980779664;1.725;0.6954487879825714
56:32.1;-0.557037863456365;-0.7552402777192365;-2.1461076875657072;3.1039999999999996;0.9028619901577911
56:32.1;-0.5926141300662284;-0.8255670509746745;-2.23995520736133;3.1039999999999996;1.0958817329118538
56:32.1;-0.6131997912554996;-0.8860461769795165;-2.2757584470491428;3.1039999999999996;1.236472659470904
56:32.1;-0.6119889202075857;-0.9367822101308717;-2.2461427863773533;3.176;1.2877144079519818
56:32.2;-0.5830422114310905;-0.978329308875815;-2.1486927777541664;3.035;1.2256300109823222
56:32.2;-0.5222851792842003;-1.0113374880164665;-1.9863612015938892;2.773;1.0492090594126373
56:32.2;-0.4283779715530389;-1.0362580247531525;-1.7672282053380568;2.445;0.7844904681742059
56:32.2;-0.3032549106653328;-1.053174458192414;-1.5036979832458508;2.0469999999999997;0.48025155244669443
56:32.2;-0.15218015672422233;-1.0617750500841807;-1.2112751528903816;1.61;0.19571916376693518
56:32.2;0.016725207433853854;-1.0614393584033268;-0.9070871566797838;1.276;0.016103330931645208
56:32.2;0.19340999765143546;-1.0513964541664342;-0.6083232214210905;1.3159999999999998;0.12370288338978261
56:32.2;0.36708875220971277;-1.0309182606174605;-0.3307790173881446;1.3159999999999998;0.12517951448391265
56:32.2;0.5274465224666818;-0.9995215068230264;-0.08771235931650066;1.3159999999999998;0.04624144209199086
56:32.2;0.6656217956498997;-0.957156774607569;0.11084700150860174;1.4080000000000001;0.07062111361088477
56:32.3;0.7748703550590458;-0.9043639029291561;0.2583357473597979;1.435;0.18103259279408998
56:32.3;0.8509294556062165;-0.8423749970900295;0.35156076689034094;1.455;0.2519993545482323
56:32.3;0.8921271616082518;-0.7731516213075996;0.39040075619373804;1.426;0.2692787503587502
56:32.3;0.8992667242195791;-0.6993477580478604;0.3773988101794525;1.3430000000000002;0.23734617492483873
56:32.3;0.8753139741740529;-0.6241933154768632;0.3172977944070015;1.202;0.17336045120484722
56:32.3;0.8249272029596612;-0.5512983361136825;0.21653758706843676;1.015;0.09847717917338404
56:32.3;0.7538849212375641;-0.4843894976420189;0.08271806666855669;0.6729999999999999;0.030206482172111967
56:32.3;0.6684853707936719;-0.42700909311778645;-0.07594845603796797;0.6729999999999999;0.021679436038300744
56:32.3;0.5750001854853787;-0.3822229180869571;-0.25113326510785644;0.6729999999999999;0.055193629220017915
56:32.3;0.4792399800976397;-0.3523773728531859;-0.4347790241980972;0.652;0.07342257952311775
56:32.4;0.38623843824711895;-0.338918849381743;-0.6193870785904401;0.759;0.08107992843836728
56:32.4;0.30002777942475156;-0.34227044820698904;-0.7982595507504947;0.938;0.08197378617886895
56:32.4;0.22348290864506398;-0.36176580169052047;-0.9657315166401964;1.101;0.07807791903753732
56:32.4;0.15823108476337325;-0.39564927289309987;-1.1173814578001457;1.3119999999999998;0.06995256402041553
56:32.4;0.10463838569734403;-0.4411517890601762;-1.2501812091818048;1.511;0.057710128689968276
56:32.4;0.06189278360450536;-0.49464514087878947;-1.362539918638281;1.62;0.04171411146435018
56:32.4;0.02820497508287865;-0.5518717714341543;-1.4542001964098796;1.63;0.02263539614663963
56:32.4;0.0011325468703918282;-0.60824190538691;-1.5259663834657144;1.63;0.0010511809665380066
56:32.4;-0.02200106019440947;-0.6591827336616191;-1.5792871397180495;1.63;0.022903957611442267
56:32.5;-0.0436522597596625;-0.7005225946771059;-1.61575562157714;1.5959999999999999;0.04940882819675439
56:32.5;-0.06563949206360463;-0.7288939522200315;-1.6366143985994313;1.617;0.07830255373080093
56:32.5;-0.08884264536825172;-0.7421148801612429;-1.642369268547744;1.7109999999999999;0.1082837858666042
56:32.5;-0.11310772548519246;-0.7394586406056054;-1.6326248116219793;1.7619999999999998;0.13655026570200113
56:32.5;-0.13741608705788635;-0.7216985030557967;-1.6062218511949822;1.8530000000000002;0.15929381447177393
56:32.5;-0.16029821961572607;-0.6908665818393976;-1.5616656282268275;2.012;0.17294616504501534
56:32.5;-0.1803762802408501;-0.6497721442540308;-1.4977188697554291;2.106;0.17553786716855801
56:32.5;-0.19685898727877235;-0.6014218788700603;-1.4139642781340214;1.511;0.16740672772923176
56:32.5;-0.20982935803206165;-0.5485147579969273;-1.3111733010448396;1.511;0.1509088348960725
56:32.5;-0.2202604000957904;-0.4931328948048333;-1.1914341042508612;1.511;0.12941077099676213
56:32.5;-0.22979566588711364;-0.43665875896076634;-1.0580823059295537;1.2309999999999999;0.10617040188259319
56:32.6;-0.2403740311482053;-0.3798798988519083;-0.9154793970620374;0.9670000000000001;0.08359541062470749
56:32.6;-0.2537841170027877;-0.3232138917173948;-0.7686667446154678;0.76;0.06305108278437227
56:32.6;-0.2712468147026635;-0.2669800702445675;-0.6229505510813662;0.625;0.045112517572795996
56:32.6;-0.2931294377804519;-0.21164989892986275;-0.4835014920391313;0.526;0.029996827045111696
56:32.6;-0.31886537257691056;-0.15802401111897163;-0.35503544311463303;0.442;0.017889662660761967
56:32.6;-0.34709664390790773;-0.10730663550641797;-0.24159786332330038;0.434;0.008998499187508315
56:32.6;-0.37599678851046436;-0.06107334225397787;-0.14644146371081335;0.622;0.0033627910596509404
56:32.6;-0.4036823615967199;-0.021154704674988988;-0.07197867368138941;0.622;0.0006146821201363116
56:32.6;-0.4285949798657319;0.010520658632365171;-0.01979499020151667;0.622;8.925761950958403e-05
56:32.7;-0.4497502286214458;0.03208127399140715;0.009293445561433352;0.597;0.00013409103979038342
56:32.7;-0.46680362800357317;0.041847008694093794;0.01516492555127938;0.529;0.0002962367432403337
56:32.7;-0.4799431608861743;0.03844381999725575;-0.0016761826038874034;0.465;3.092699125923238e-05
56:32.7;-0.48965714404530003;0.020904970795454603;-0.04016160666788146;0.363;0.0004111049810529739
56:32.7;-0.4964496913120384;-0.011238094961512686;-0.09874362934922504;0.259;0.0005509053986811474
56:32.7;-0.5005917453704478;-0.05787311936713233;-0.17554410536706944;0.239;0.005085654191897001
56:32.7;-0.5019984324679337;-0.11823057193006668;-0.26860643737032697;0.368;0.015942211561736305
56:32.7;-0.5002964262550724;-0.1908135996519716;-0.3762585163223345;1.2790000000000001;0.03591890294427556
56:32.7;-0.4950728723048328;-0.2733416927400458;-0.4975124883908007;1.2790000000000001;0.06732540831008395
56:32.7;-0.4862043527503316;-0.3627284043400795;-0.6323178875840779;1.2790000000000001;0.11151566425895326
56:32.8;-0.4741187653779855;-0.4551325046530554;-0.7814577707128741;1.4080000000000001;0.16862831949427262
56:32.8;-0.4598742123327984;-0.5461373206657931;-0.9459840844036485;1.308;0.2375881315045543
56:32.8;-0.4449991710221504;-0.6311010665613777;-1.126240418185617;1.0959999999999999;0.3162927412452025
56:32.8;-0.4310932588280999;-0.7056678731472592;-1.3206506671355664;0.966;0.4017533738520812
56:32.8;-0.4192579714819246;-0.766358005571511;-1.524578669766794;1.15;0.4898497227169998
56:32.8;-0.40951475269209947;-0.8111056376342884;-1.7296562280063221;1.52;0.5745221363523976
56:32.8;-0.40042748760120417;-0.8395949179715816;-1.923943111015485;1.8430000000000002;0.64682367815883
56:32.8;-0.3891176256738697;-0.8532639808118954;-2.093075606246931;3.1430000000000002;0.6949430764119786
56:32.8;-0.3717174242782007;-0.8549372733757176;-2.2222178220195787;3.1430000000000002;0.7062098931453541
56:32.8;-0.34412055679874143;-0.8481971295854354;-2.2983080731505177;3.1430000000000002;0.6708349144598875
56:32.9;-0.3027969290561905;-0.8366984527796922;-2.3120214846394544;3.225;0.5857500005018479
56:32.9;-0.24548348425654662;-0.8235950397297424;-2.259082438754538;3.109;0.45673898313387445
56:32.9;-0.17164926358572472;-0.811159732610292;-2.1408141656289543;2.8310000000000004;0.29807619773884847
56:32.9;-0.08268608849883766;-0.8006208141124332;-1.9639400485517953;2.397;0.13001323085572392
56:32.9;0.018187389587160426;-0.7921950945270918;-1.7397167128614865;1.912;0.025065770224980195
56:32.9;0.12628019985567684;-0.7852644828004711;-1.4825570011827467;1.479;0.14701532744299645
56:32.9;0.23597874702813698;-0.7786317916372288;-1.2083704403492936;1.193;0.2220266548561072
56:32.9;0.3414029292336461;-0.7708003374134582;-0.9328796480826897;1.046;0.2454905379856374
56:32.9;0.43706083210835334;-0.7602380320947841;-0.6701675854187763;1.046;0.22267676248002813
56:32.9;0.5183911207747057;-0.745604495124882;-0.4316705595080406;1.046;0.16684703833986594
56:33.0;0.582117292739879;-0.7259332758778845;-0.22572682596260293;1.036;0.09538726137367391
56:33.0;0.62640307929218;-0.7007661219247885;-0.057638798311312564;1.015;0.025301245448837842
56:33.0;0.6508480308144154;-0.6702372357603055;0.06990538120599595;0.995;0.03049430610019949
56:33.0;0.6563727964702938;-0.6351078681887798;0.1562339337628104;0.971;0.06512885367982589
56:33.0;0.6450322963893096;-0.5967530347374385;0.20208008938579247;0.9440000000000001;0.07778567444079816
56:33.0;0.6197805831182376;-0.5571002845622766;0.20908252276760222;0.899;0.07219200075344294
56:33.0;0.5841986069600047;-0.5185178063790983;0.1794696477695244;0.8440000000000001;0.054364475522489485
56:33.0;0.5421900589529778;-0.4836499844809393;0.11593752692840266;0.655;0.030402322450496854
56:33.0;0.4976569122403598;-0.4552060709401259;0.0216784831934746;0.655;0.004910966574111654
56:33.0;0.4541790870695939;-0.43571779375524944;-0.09951210026239532;0.655;0.019692838592114677
56:33.1;0.414722106873238;-0.4272827859491941;-0.2431338053925626;0.58;0.04308418978390809
56:33.1;0.38137926845941067;-0.4313027554412071;-0.4039646535063806;0.5329999999999999;0.06644811731705866
56:33.1;0.35514751600368444;-0.4482266772639151;-0.5761865589940967;0.65;0.09172117412753152
56:33.1;0.3357575338774341;-0.4773293393983286;-0.7536589924687249;0.903;0.12078660684280759
56:33.1;0.32161212457966304;-0.5165799130896256;-0.9302897874588727;1.168;0.1545568227425974
56:33.1;0.30990379200405654;-0.5626661043409913;-1.10041241233295;1.39;0.1918815086156944
56:33.1;0.29696791554347357;-0.6112328862099302;-1.259069090562024;1.507;0.2285418852477743
56:33.1;0.2788792846364411;-0.6573662939651409;-1.4021241648988458;1.844;0.2570455928453635
56:33.1;0.25221372378356105;-0.6962807536245076;-1.52619394348025;1.844;0.26801730182656647
56:33.1;0.21479690893631445;-0.7240644355156821;-1.6284602410182332;1.844;0.2532692144785232
56:33.2;0.16622190711077672;-0.7382864048766592;-1.7064912833550705;2.015;0.20941954239251814
56:33.2;0.10797486429446132;-0.7383182203178881;-1.7581882316799569;2.117;0.1401624311495212
56:33.2;0.043117840649470475;-0.725304471969868;-1.781908469094367;2.1;0.055726626135424506
56:33.2;-0.02440664506416599;-0.7017849380608178;-1.7767227536016015;2.108;0.030432090908586343
56:33.2;-0.09067156289641261;-0.67105298178595;-1.7426951780452933;2.086;0.10603502464927311
56:33.2;-0.15260631442839434;-0.6364200233184651;-1.681069526043908;1.994;0.16326835403701914
56:33.2;-0.2085357589256115;-0.6005867000748341;-1.594291591932557;1.7890000000000001;0.19967514254401547
56:33.2;-0.25827714060799795;-0.565272351992195;-1.485858627581921;1.3780000000000001;0.21693079319306563
56:33.2;-0.3028204843135905;-0.5311469337721856;-1.36004726200855;1.3780000000000001;0.21875295527223299
56:33.3;-0.34376223989081994;-0.4979988363558251;-1.2216127620043415;1.3780000000000001;0.20913179232843587
56:33.3;-0.3827045519273669;-0.46502206779298044;-1.0755367968643248;1.273;0.1914090483719657
56:33.3;-0.4207730014072991;-0.4311265324353182;-0.9268312578053638;1.097;0.16813312655636625
56:33.3;-0.45832072254955736;-0.39521708061016014;-0.7803553503824937;0.904;0.1413505856104744
56:33.3;-0.4948322940555866;-0.3564139001493445;-0.6406183418928172;0.7959999999999999;0.11298272295489858
56:33.3;-0.5290138628795872;-0.31420161694945853;-0.5115838562143759;0.738;0.08503393950975152
56:33.3;-0.5590382182024266;-0.26850830990404867;-0.39651119810227325;0.731;0.05951887133842621
56:33.3;-0.5828963290192026;-0.21972902375047007;-0.2978583838812506;0.768;0.03814947582924186
56:33.3;-0.5987904497190112;-0.1687156477858854;-0.2172530048399311;0.8290000000000001;0.021948054033443288
56:33.3;-0.6054941374848898;-0.11675416371272193;-0.15552536629239197;0.8290000000000001;0.010994704281054838
56:33.3;-0.602606879166663;-0.0655437504384151;-0.11279171116502999;0.8290000000000001;0.0044549471757173095
56:33.4;-0.5906487290873796;-0.01717863965802967;-0.08856819154239719;0.74;0.0008986608471369341
56:33.4;-0.5709725403192281;0.025885956074477738;-0.08189344588640657;0.595;0.0012103990601481944
56:33.4;-0.5455119772840352;0.060914221298559605;-0.09145222487785651;0.44;0.003038905973008431
56:33.4;-0.516425054593754;0.08503988775052855;-0.11572099911007964;0.318;0.00508208771982626
56:33.4;-0.48572486186466257;0.09549071282600662;-0.15317260602988708;0.289;0.007104484484100376
56:33.4;-0.45499804429751667;0.08987189346865451;-0.20256126488765178;0.426;0.00828304120786898
56:33.4;-0.4252918444483067;0.0664756489416801;-0.2632659743190514;0.6509999999999999;0.007442937511485941
56:33.5;-0.39720411930967253;0.024572227901944948;-0.3356151166251331;1.037;0.0032756673532165674
56:33.5;-0.3711393426070434;-0.03536211596179744;-0.42106780849579234;1.037;0.005526208647573225
56:33.5;-0.3476172079371864;-0.11151305721625746;-0.5221168517984991;1.037;0.020239263292661874
56:33.5;-0.32748866935243476;-0.2007195150627194;-0.6418256420171184;1.037;0.04218936041315286
56:33.5;-0.31194928416166795;-0.2986265180041042;-0.783000219417505;0.863;0.07294142567369437
56:33.5;-0.30230351850430787;-0.40003959989876114;-0.9470910586850054;0.6779999999999999;0.11453492155958486
56:33.5;-0.2994946391048963;-0.49948136560275147;-1.1330088218399101;0.667;0.16948904585441482
56:33.5;-0.30348558675965637;-0.5918811039376085;-1.3361250564937464;1.02;0.24000464875577118
56:33.5;-0.3126645686042986;-0.6732666232418894;-1.5477764797198765;1.4969999999999999;0.3258171926480611
56:33.5;-0.32352277801372414;-0.7412888615976864;-1.755547413700611;1.8769999999999998;0.42102210768609255
56:33.5;-0.33084104045615886;-0.7954090508044939;-1.9444366783368239;2.9410000000000003;0.5116862078999393
56:33.5;-0.3284567439307666;-0.8366667107187674;-2.098731592792144;2.9410000000000003;0.5767499599791137
56:33.5;-0.3104142866400061;-0.8671183421944417;-2.204138302912328;2.9410000000000003;0.5932789176918143
56:33.6;-0.2721409973376031;-0.8891602320807246;-2.249667111389175;3.085;0.5443675914190919
56:33.6;-0.21134866091619797;-0.9049330956072209;-2.2289687400569926;3.088;0.4263045324229232
56:33.6;-0.1285065840568509;-0.9159188519951242;-2.141030682659076;2.9210000000000003;0.2520027432994738
56:33.6;-0.02683621110125368;-0.9227629624319149;-1.9902248145849606;2.529;0.0492848558832742
56:33.6;0.08814104632548488;-0.9252963218080235;-1.7857303854783693;2.086;0.14563807369408235
56:33.6;0.20939004644733547;-0.9226952847580515;-1.5404283582524045;1.6980000000000002;0.2976157013283936
56:33.6;0.32931867946730564;-0.9137204665597276;-1.2694499914724033;1.465;0.3819841257255232
56:33.6;0.4407325520074569;-0.896995065569433;-0.9886152958465189;1.275;0.3908341532308331
56:33.6;0.5376353655522412;-0.8712966815369715;-0.7130074935930667;1.275;0.33400116604434354
56:33.6;0.6157655216517799;-0.8358398505111504;-0.45589700125415034;1.275;0.23464168933995533
56:33.7;0.6728223226382124;-0.7905254950794626;-0.22812614550945706;1.2209999999999999;0.1213364642097301
56:33.7;0.7084020839148862;-0.7361313465555267;-0.03791547282978028;1.155;0.019772046264081612
56:33.7;0.7237100521256546;-0.6744168384317725;0.10904829252500968;1.074;0.05322453546128835
56:33.7;0.7211304834980207;-0.6081196041015253;0.209384461956161;0.99;0.09182211856284185
56:33.7;0.7037360052560816;-0.5408288531034862;0.26174328790251655;0.9129999999999999;0.09961968817849322
56:33.7;0.6748073818537758;-0.47673236061306906;0.26652755940832457;0.825;0.08574258647438887
56:33.7;0.6374181431362085;-0.4202471927552655;0.22562082359666438;0.705;0.06043776867878547
56:33.7;0.5941196765433847;-0.37556089362993295;0.1421190290081453;0.462;0.031710751282111635
56:33.7;0.5467488419283627;-0.34613447661922986;0.02007866796095965;0.462;0.0037998602882444964
56:33.7;0.4963720995972793;-0.3342436099615726;-0.13567697629855627;0.462;0.022510058929009442
56:33.8;0.4433674838916547;-0.34063446096899797;-0.3196586644460893;0.5;0.04827684741710461
56:33.8;0.387625185694549;-0.3643410498223964;-0.525737734395684;0.605;0.07424876630552607
56:33.8;0.3288302211924718;-0.4026831293302929;-0.7471601239830437;0.8340000000000001;0.0989347464369895
56:33.8;0.2667844031131744;-0.45145688225649544;-0.9765993279227092;1.094;0.11762323919421197
56:33.8;0.20172550018359092;-0.5053311577823167;-1.2062580687031823;1.3019999999999998;0.12296375281182348
56:33.8;0.1346021841247574;-0.558450949894095;-1.4279999679672732;1.444;0.10734092629965207
56:33.8;0.06725324982375709;-0.6052124542092677;-1.6335089359827224;1.641;0.06648790462060133
56:33.8;0.00241642211525733;-0.6411034802181405;-1.8145265196959786;2.38;0.0028110220747774133
56:33.8;-0.05650440822015318;-0.6634284614985191;-1.963229173308585;2.38;0.07359485075568964
56:33.8;-0.10591984505810532;-0.6717149700620932;-2.072729975937853;2.38;0.14747047947241176
56:33.9;-0.1427143673367416;-0.667656208556113;-2.137611824435236;2.5810000000000004;0.20368049024231952
56:33.9;-0.16497554372770235;-0.6545651130062418;-2.154404531214419;2.6180000000000003;0.23264818930946893
56:33.9;-0.17263237318998922;-0.636468315410679;-2.1219441617172836;2.54;0.23314869062729934
56:33.9;-0.167778454301534;-0.617100178842056;-2.041548469541443;2.345;0.21137399539606244
56:33.9;-0.15449261801262942;-0.599095131087902;-1.916956112759687;2.04;0.17742535911827614
56:33.9;-0.13814855250502353;-0.5835861141643568;-1.7540270634019517;1.8780000000000001;0.14141242783609317
56:33.9;-0.12441508848698594;-0.5702459646448588;-1.5602478204847114;1.821;0.11069521752501923
56:34.0;-0.118252242287705;-0.5576519624643423;-1.3441105302699599;1.111;0.08863548041317895
56:34.0;-0.12315501495184798;-0.5437865129103779;-1.1144607546681844;1.111;0.07463547700346773
56:34.0;-0.14075089060240165;-0.526516681498526;-0.8799374622053129;1.111;0.06521013428576905
56:34.0;-0.17073689751269122;-0.503967586303996;-0.6486045547979611;0.846;0.05580973810065932
56:34.0;-0.21110241842640123;-0.4747629326712547;-0.42777864514067504;0.674;0.04287351721629416
56:34.0;-0.25857677164235193;-0.43813871473681265;-0.22398562186148752;0.618;0.025375889807774325
56:34.0;-0.30921898388633756;-0.39395572333893153;-0.04298401526155394;0.617;0.005236252065809561
56:34.0;-0.3590471196158446;-0.34264643297686853;0.11018440226494612;0.65;0.013555569941426858
56:34.0;-0.404608813704796;-0.2851311040593364;0.23116257320009737;0.688;0.026668430353914637
56:34.0;-0.4434167091217513;-0.2227292275045111;0.316320201140393;0.7090000000000001;0.031240371763495374
56:34.1;-0.4742005330085764;-0.15708150314445601;0.36291222759670133;0.7759999999999999;0.02703265410122262
56:34.1;-0.4969585342570022;-0.09009383521878567;0.3693562375540282;0.7759999999999999;0.016537149997682504
56:34.1;-0.5128210434768737;-0.023917842539814802;0.3355768354294158;0.7759999999999999;0.004116042161660029
56:34.1;-0.5237584770300778;0.039025742215836594;0.26333024643831127;0.746;0.005382486908093205
56:34.1;-0.5321735235602659;0.09599956436528868;0.15642564447452503;0.6609999999999999;0.007991540029271571
56:34.1;-0.5404250597412341;0.14391785128723564;0.020773526673044072;0.539;0.001615698707288283
56:34.1;-0.5503466503922753;0.1793719038858433;-0.13580433706661904;0.35;0.01340615959673956
56:34.1;-0.5628387227876173;0.1987458928300263;-0.304057392166157;0.201;0.034012432877700643
56:34.1;-0.5776255374193617;0.19844816315704553;-0.47410277471153384;0.41200000000000003;0.05434579748184645
56:34.1;-0.5932714252931981;0.17527364850654237;-0.6365080929017521;0.82;0.06618719682384415
56:34.2;-0.6075215912678978;0.12689002093772947;-0.7835613890860255;2.1719999999999997;0.06040351528429272
56:34.2;-0.6179351614024597;0.05239402799242349;-0.9105148569764259;2.1719999999999997;0.029478931118268013
56:34.2;-0.622635477849824;-0.047172731315122174;-1.0164685855544169;2.214;0.029855121782833453
56:34.2;-0.620925357180291;-0.1684897171837873;-1.1045582715996625;2.214;0.11555837587393518
56:34.2;-0.6135663324145304;-0.30592997548171796;-1.1812731416443614;1.8090000000000002;0.22173481227351885
56:34.2;-0.602634307203897;-0.4519168471418843;-1.2549470122557074;1.214;0.341773017380488
56:34.2;-0.5909699244462894;-0.5976684041209428;-1.3336561601378525;0.8690000000000001;0.4710527592383806
56:34.2;-0.5813409904434127;-0.7342320432340528;-1.42293881306239;1.115;0.6073660407523575
56:34.2;-0.5755240503073541;-0.8536201337544989;-1.5238947738555044;1.6059999999999999;0.7486573738204098
56:34.2;-0.5735649787949157;-0.9498078712236846;-1.6322360660638302;1.824;0.8892039026882781
56:34.3;-0.5734632459024529;-1.0193546104997204;-1.7386600777890107;2.761;1.0163553142248953
56:34.3;-0.5714015405036033;-1.0615026716501845;-1.8304930271949846;2.761;1.1102750419642229
56:34.3;-0.5624360163781003;-1.0777999524369406;-1.8940801799599094;2.761;1.1481791157334225
56:34.3;-0.5414187247903114;-1.0714488720614237;-1.9172189598812082;2.991;1.1121834771444423
56:34.3;-0.5039329739804312;-1.0465898518486245;-1.8911342737547208;3.0389999999999997;0.9974052767460228
56:34.3;-0.44708795635896137;-1.0076531718821344;-1.8117773709225766;2.8939999999999997;0.8162230938357354
56:34.3;-0.3700490903332594;-0.958855569991222;-1.6803610535994642;2.489;0.5962318111621725
56:34.3;-0.2742139448292405;-0.9038723923036662;-1.503110047358514;1.9480000000000002;0.3725524604402857
56:34.3;-0.1630174387278342;-0.8456704012784062;-1.2903131101170653;1.429;0.1778813044981808
56:34.3;-0.04143023825612226;-0.7864622546571811;-1.054883614098751;1.047;0.03437160887343853
56:34.4;0.08473381672581248;-0.7277461562494183;-0.8107104270868488;0.782;0.04999222291538698
56:34.4;0.2095590113339399;-0.6704097419873674;-0.5711006131676545;0.782;0.0802341551372854
56:34.4;0.3276716671431046;-0.6148924366897849;-0.34758177626409004;0.782;0.07003175988383303
56:34.4;0.43468271767370925;-0.5614011624052262;-0.14922335106716483;0.8390000000000001;0.03641518073375316
56:34.4;0.5274078444707295;-0.5101573471670459;0.017524861155689353;0.8640000000000001;0.004715256436262874
56:34.4;0.6039072472034981;-0.4616358754364436;0.14859964781202673;0.867;0.04142739007592421
56:34.4;0.663398111057778;-0.4167546839803048;0.24185593492679736;0.85;0.06686694308477324
56:34.4;0.706081419736064;-0.3769847322970328;0.2965151790407778;0.8490000000000001;0.07892697818337788
56:34.4;0.7329178962811457;-0.34436361415245015;0.31266467781421714;0.87;0.07891351796324916
56:34.4;0.7453818877267476;-0.32140452827847077;0.2909049331743089;0.899;0.06969183710232747
56:34.5;0.7452116777122986;-0.31089598970258653;0.23218612969529331;0.747;0.05379365386877063
56:34.5;0.7341680874614852;-0.31559672522869886;0.13782246353598981;0.747;0.031933608711406665
56:34.5;0.7138168552715661;-0.3378497926291979;0.009643690330632563;0.747;0.002325700100487598
56:34.5;0.6853542751083609;-0.37915690875101;-0.14977140921114449;0.653;0.038919120379596245
56:34.5;0.6494911114479825;-0.4397599068395432;-0.3368481847530098;0.589;0.09621062927987312
56:34.5;0.6064078227965909;-0.5182855897043154;-0.546826547797357;0.614;0.17186344779826918
56:34.5;0.5558028628690058;-0.6115301321425338;-0.7736814325708055;0.7929999999999999;0.2629667354411817
56:34.5;0.497060943580049;-0.714469906387912;-1.0101791834537706;1.158;0.3587500710182459
56:34.5;0.42955106656234976;-0.8205659171655934;-1.2480674234693176;1.506;0.43991252128416675
56:34.5;0.3530235133725909;-0.9223807453040422;-1.4783676642498749;1.71;0.48138917065342257
56:34.6;0.2680288673561765;-1.0124629879004599;-1.6917270595599792;2.46;0.45908280128651885
56:34.6;0.17625497839391108;-1.0843684960240918;-1.878798836298337;2.46;0.3590860773471085
56:34.6;0.08067802326227383;-1.1335924872316228;-2.030649221998566;2.46;0.18571505738905347
56:34.6;-0.014559302719779291;-1.1581641523891324;-2.139222587399424;2.6660000000000004;0.03607170495694174
56:34.6;-0.10459291807406403;-1.158751621432797;-2.197912815992352;2.853;0.2663809086135625
56:34.6;-0.1845759503758363;-1.1382625435499834;-2.202237942355196;2.966;0.46268114214906947
56:34.6;-0.2505665792255526;-1.1010321878051923;-2.1505036349747306;2.926;0.5932849619265623
56:34.6;-0.3003337014312381;-1.0517780092443534;-2.0442628353077166;2.714;0.6457507036039897
56:34.6;-0.33383979286436316;-0.9945715611703208;-1.8884018180959108;2.373;0.6270014554586893
56:34.6;-0.3532380060222253;-0.9320930174113644;-1.6907793070723607;2.039;0.5566902347196386
56:34.6;-0.36236795783624265;-0.8653477831794242;-1.4614579351367298;1.189;0.4582756621559973
56:34.6;-0.365901262499942;-0.7938553772713829;-1.2116827535877992;1.189;0.351960742543501
56:34.6;-0.36838932053384926;-0.7161632183726996;-0.9528553925198554;1.189;0.25138886664097904
56:34.7;-0.3734473515009724;-0.6304845509955674;-0.6957323938763149;0.9740000000000001;0.16381213026187533
56:34.7;-0.3832083777784146;-0.53530330130092;-0.4499272337807561;0.8009999999999999;0.09229479263820102
56:34.7;-0.39808732325853774;-0.4298556626474283;-0.22366342432690037;0.616;0.038273305329791445
56:34.7;-0.4168471485990262;-0.31444789632900105;-0.023702724751314637;0.518;0.003106875153969717
56:34.7;-0.43693255217806504;-0.19060543085401221;0.14461025794421403;0.532;0.012043390629762203
56:34.7;-0.45500861036366647;-0.06107048017035846;0.277251483852993;0.608;0.007704151756970326
56:34.7;-0.46761357666835396;0.07033033243190348;0.3714443185374418;0.728;0.012215844677694593
56:34.8;-0.4718179593417654;0.19892699969078334;0.42566935682955764;1.015;0.039952189742680055
56:34.8;-0.4657831397240584;0.3195177196573851;0.4397648075819063;1.015;0.06544842259120108
56:34.8;-0.44913181928831736;0.4266889490065707;0.4150610602012344;1.015;0.07954212888563929
56:34.8;-0.4230726005306559;0.5150926358775947;0.3544634802132436;0.966;0.0772452420059438
56:34.8;-0.39025567187760724;0.5796813944541455;0.26241469944240847;0.8690000000000001;0.05936449038850641
56:34.8;-0.35437581861887896;0.615941230428158;0.14469666599484052;0.7809999999999999;0.03158361814211617
56:34.8;-0.31958228477716677;0.6201511539908497;0.008050757681468616;0.715;0.0015955742121088056
56:34.8;-0.2897938978264149;0.5896634782726853;-0.14038652189879636;0.715;0.023989372089778613
56:34.8;-0.2680438154168683;0.5231714843177678;-0.29380070989130064;0.8270000000000001;0.04120051992145654
56:34.8;-0.25598980603623694;0.42092395360922086;-0.44648935111416815;1.047;0.048110228272537095
56:34.9;-0.2537115594920857;0.2848593783643732;-0.5945907450666212;1.37;0.04297233196638147
56:34.9;-0.2598418674755196;0.11866220278404249;-0.7365749426259656;1.37;0.02271111600121681
56:34.9;-0.2719486844183487;-0.07223369581628006;-0.8733196580149237;1.37;0.017155367829156516
56:34.9;-0.28699874655307883;-0.2806926637512308;-1.0076617433484836;1.37;0.08117566077548741
56:34.9;-0.3017638634038978;-0.4980455786818359;-1.1434318937723509;1.149;0.17184884681164234
56:34.9;-0.31311131613860665;-0.7144957354215344;-1.2840993041885473;0.98;0.28727445892511094
56:34.9;-0.31816470340831654;-0.9198294354254957;-1.4312690007551068;1.229;0.4188712633803043
56:34.9;-0.3143494349319412;-1.1043634597460505;-1.5833912516782427;1.6640000000000001;0.5496838201261921
56:34.9;-0.2993867083672689;-1.2599283218138133;-1.7350928280239941;2.097;0.6544870662041452
56:34.9;-0.27134056615249474;-1.3806336347651726;-1.8774342773863764;2.489;0.7033280188485039
56:35.0;-0.22879802187185969;-1.4632182989938396;-1.9991282560687789;3.266;0.669271061053601
56:35.0;-0.17116936849525224;-1.5069416651308079;-2.0884150233480585;3.266;0.5386904766965758
56:35.0;-0.0989988558598854;-1.5131510767983938;-2.1350501459022206;3.266;0.31983099298157824
56:35.0;-0.014143939582350976;-1.4847460235303565;-2.1318737192472605;3.0589999999999997;0.0447696850509893
56:35.0;0.08027456814477522;-1.4257065003216867;-2.075674969780959;2.792;0.23755679417381542
56:35.0;0.18016411210535316;-1.3407464289253674;-1.9673380194134302;2.525;0.4752191350571677
56:35.0;0.280922582039135;-1.235074301639406;-1.8114143999549506;2.249;0.6284888144850667
56:35.0;0.3779536069934553;-1.1142045618882366;-1.615326002132557;1.9669999999999999;0.680242262693614
56:35.0;0.4671242654696717;-0.9837598960325123;-1.3883995986519693;1.673;0.6380225397526126
56:35.0;0.5450974311973431;-0.849233010578074;-1.140892850058823;1.3869999999999998;0.5281361085578584
56:35.1;0.6095209411076338;-0.7157200560720508;-0.8831208509214501;0.89;0.3852582585503321
56:35.1;0.6590912190269899;-0.5876791343869834;-0.6247662777791074;0.89;0.24199331957548167
56:35.1;0.6935218250074457;-0.4687866486630478;-0.37445030911446864;0.89;0.12173895246767541
56:35.1;0.7134463427340042;-0.361937062219826;-0.13959811928230656;0.83;0.036047399554400596
56:35.1;0.7202817564260575;-0.2693684464228612;0.07345959715858119;0.802;0.014252717555193318
56:35.1;0.7160721974876828;-0.1928498404757825;0.25926833025508966;0.8059999999999999;0.035803506853160534
56:35.1;0.7033215272778867;-0.13386507238755901;0.413017932137299;0.809;0.03888571561148621
56:35.1;0.6848134074634508;-0.0937498295648129;0.5303577304217385;0.825;0.03404957102467234
56:35.1;0.6634143685418217;-0.07375939945136234;0.6072958278697994;0.8420000000000001;0.02971683432309382
56:35.1;0.6418563594864801;-0.07505790677393656;0.6402110658463522;0.857;0.0308430610588016
56:35.2;0.6224984701186858;-0.09862778052469917;0.6259951314902602;0.7829999999999999;0.03843337329209611
56:35.2;0.6070778937299767;-0.14510240910817618;0.562323844490896;0.7829999999999999;0.049534244235922016
56:35.2;0.5964775435227204;-0.214528823138229;0.4480331488012552;0.7829999999999999;0.057331049971749336
56:35.2;0.5905462951120639;-0.30607713984672463;0.2835505579264306;0.706;0.05125253487350508
56:35.2;0.5880003069343517;-0.41773093310325426;0.0713102628040892;0.595;0.017515648684257135
56:35.2;0.5864279794688775;-0.5460093728088099;-0.18393238270667153;0.493;0.058894261150237284
56:35.2;0.5824274239200465;-0.6857825578998988;-0.4749621144937898;0.611;0.18970868789463574
56:35.2;0.5719088173842031;-0.8302500325210468;-0.7921812640254483;0.912;0.3761493019823585
56:35.2;0.5505812465580142;-0.9711615012498911;-1.123896983796116;1.251;0.6009514372980678
56:35.2;0.51461785955151;-1.0993625698247813;-1.4567770635789137;1.575;0.824173972851854
56:35.3;0.46145242180835117;-1.2057162558813728;-1.776428560814681;2.957;0.9883705418115084
56:35.3;0.39058467778293804;-1.2823224268712154;-2.068069437392834;2.957;1.0358039353763089
56:35.3;0.3041733961504945;-1.3237556349645185;-2.3172872754177174;2.957;0.9330586114761283
56:35.3;0.2071565686510552;-1.3279466168523386;-2.5109180853798168;3.387;0.6907356486292474
56:35.3;0.10672412642104144;-1.2964494138772649;-2.6380890417493;3.7760000000000002;0.36501241339373913
56:35.3;0.01115323562919843;-1.2340352389464881;-2.6913595944508737;3.826;0.03704248954666591
56:35.3;-0.07176686611817659;-1.1477119435035097;-2.667708708685415;3.68;0.21973300230439635
56:35.3;-0.1363122143612528;-1.0454056025721645;-2.5690434389166885;3.3539999999999996;0.3660926787226166
56:35.3;-0.17993700780725047;-0.9346465773830379;-2.402031703437233;2.7489999999999997;0.4039677072018875
56:35.3;-0.20358479178927782;-0.8215875908301913;-2.1772805691266153;2.165;0.36417791072712635
56:35.4;-0.21114415795728325;-0.710529976804946;-1.9080592169146584;1.318;0.2862551599488603
56:35.4;-0.20829822277066154;-0.6039394450065374;-1.608867666371387;1.318;0.20239476900100148
56:35.4;-0.20118250249752678;-0.5027993682519349;-1.2941701071127598;1.318;0.1309110461847829
56:35.4;-0.19522299265239615;-0.40711679570003956;-0.9775041474356645;1.088;0.07769062126547557
56:35.4;-0.19435174064555744;-0.316433091959227;-0.6709780304276631;0.8170000000000001;0.041264694095900056
56:35.4;-0.2006329624136303;-0.23024625991438327;-0.38502567683851124;0.505;0.01778625698762135
56:35.4;-0.21424768450466117;-0.14829977253837148;-0.12828536490648862;0.275;0.00407599587425261
56:35.4;-0.23375960800125348;-0.07072903564680684;0.09246571263033543;0.289;0.001528790333988456
56:35.4;-0.25658307112794604;0.00191973468493488;0.27233380284409137;0.478;0.00013414384831082784
56:35.4;-0.2795737527656143;0.06877174393962732;0.40827654484396897;0.63;0.007849841076638983
56:35.5;-0.29965639284218426;0.12877483963891437;0.49900425051401565;0.8270000000000001;0.01925567778328054
56:35.5;-0.3143962212831454;0.18087874456110475;0.5448152452988486;0.8270000000000001;0.03098233206594779
56:35.5;-0.3224232552669042;0.22418986319499984;0.5473831147972372;0.8270000000000001;0.03956705502234682
56:35.5;-0.3236414968041398;0.2580551807487304;0.5095246410571156;0.735;0.04255415540102901
56:35.5;-0.3191980266324665;0.2820622114583605;0.43497604603161155;0.598;0.03916250339458322
56:35.5;-0.3112372013152742;0.29597836894500473;0.3281945735309011;0.509;0.03023311319003214
56:35.5;-0.30250846756413613;0.2996667595296425;0.19418733584735137;0.402;0.017603418366879727
56:35.5;-0.2959222568365403;0.29300842850474446;0.03835138270112448;0.312;0.003325360777797549
56:35.5;-0.29415006994454146;0.27584793703358923;-0.13370576866461362;0.26899999999999996;0.01084897832274858
56:35.5;-0.29934274648139675;0.24796977915444093;-0.3163967237705695;0.363;0.023485481690811057
56:35.6;-0.3130007387138256;0.20911162385703175;-0.5044459160279642;1.053;0.03301704087862985
56:35.6;-0.33597707159965773;0.15902496766566038;-0.6931995345901094;1.053;0.03703677974496851
56:35.6;-0.3685438350308255;0.09759577841161006;-0.878849006847114;1.053;0.03161072447072672
56:35.6;-0.41044065368215016;0.02502569215164256;-1.0584683359871696;1.053;0.010872122551280778
56:35.6;-0.46085956125991956;-0.057952471249990964;-1.229863476111893;1.27;0.032847132810022585
56:35.6;-0.5183659570033413;-0.14988031877543653;-1.3913272208378389;1.479;0.10809618385635834
56:35.6;-0.5807739355468496;-0.24847427993319363;-1.541396097625881;1.67;0.22243484077422296
56:35.6;-0.6449997241935058;-0.35068764907244937;-1.6786437993246766;1.7590000000000001;0.37969821035014406
56:35.6;-0.70693991933801;-0.45295595713678405;-1.8014964393190935;1.857;0.5768619448401505
56:35.6;-0.76146105698611;-0.551577014820857;-1.9080551814791658;1.89;0.801391603556681
56:35.7;-0.802603639573301;-0.6431264591505058;-1.9959460438108096;2.229;1.0302587202225757
56:35.7;-0.8240512177463278;-0.7248085514821362;-2.062246833670862;2.229;1.231737488530784
56:35.7;-0.8198082633586806;-0.794677227979956;-2.103544302987669;2.229;1.3704232652171369
56:35.7;-0.7849569919953558;-0.851709305431283;-2.1161599227891355;2.438;1.4147696663354878
56:35.7;-0.7163681850818306;-0.8957522767294607;-2.096559639120897;2.647;1.3453380690229104
56:35.7;-0.6132679455723552;-0.9273848493786748;-2.0419162331643936;2.693;1.1613100483579113
56:35.7;-0.4775701068876765;-0.9477181382338635;-1.9507249658963235;2.588;0.8829017334304154
56:35.7;-0.3139007489587601;-0.95815494286327;-1.8233301184952737;2.435;0.5483948935483667
56:35.7;-0.12928105029802392;-0.9601333137744856;-1.6622332473567991;2.199;0.20632809815447617
56:35.7;0.06752071680786716;-0.9548986027964572;-1.4721013959087261;1.952;0.09491438248720196
56:35.8;0.2669068379346414;-0.9433531286546333;-1.25945265563129;1.489;0.31711431037160426
56:35.8;0.4594984370909284;-0.9260138084109762;-1.0320865952457585;1.489;0.43915480485692593
56:35.8;0.637097216490047;-0.9030751149957748;-0.7984299811975313;1.489;0.4593740085902415
56:35.8;0.7933583859718062;-0.8745494924976277;-0.5669778645522495;1.46;0.3933869172924598
56:35.8;0.9240990299610129;-0.8404508670969392;-0.34589610573697527;1.4369999999999998;0.26864361103013995
56:35.8;1.0272866579574644;-0.8009895029056759;-0.1427478756171162;1.41;0.11745949412138357
56:35.8;1.1027891877443088;-0.7567483091435407;0.035697420828309546;1.3780000000000001;0.029790706151983235
56:35.8;1.1519642171287734;-0.7088137128468004;0.18358455107033445;1.3530000000000002;0.1499019325232973
56:35.8;1.1771665908237483;-0.6588408593591184;0.2960337790218903;1.318;0.22959357054117574
56:35.8;1.1812518905807594;-0.6090408981971481;0.369168193880309;1.294;0.2655909367321642
56:35.9;1.1671401665578665;-0.562086809941684;0.4001356783309839;1.204;0.2625026468009302
56:35.9;1.137483287433576;-0.5209463578676482;0.38715162552435706;1.204;0.22941357760483758
56:35.9;1.0944560783878114;-0.48866294075375866;0.3295859298700961;1.204;0.17626918847200723
56:35.9;1.0396687311256907;-0.46810480222214895;0.22810767481636157;1.159;0.11101405759889703
56:35.9;0.9741788318013186;-0.4616900648926039;0.08487784865638297;1.0759999999999998;0.03817539863650012
56:35.9;0.898570876743787;-0.4710909871661508;-0.09624684817758122;0.97;0.04074212253761757
56:35.9;0.8130731607942133;-0.496937914388384;-0.30955742600876107;0.858;0.1250757123981066
56:35.9;0.7176932857171837;-0.5385685654780595;-0.547454498227138;0.807;0.21160596856398028
56:35.9;0.6123649271153496;-0.5938850570258261;-0.8006016468996092;0.847;0.29115830729140224
56:35.9;0.49710240693292385;-0.6593824369832829;-1.058332111789216;0.977;0.3469007309118592
56:36.0;0.3721592727077948;-0.7303921878748729;-1.3093361628278106;2.1919999999999997;0.35590666961709944
56:36.0;0.2381959285047125;-0.8015301848679713;-1.5425624533367202;2.1919999999999997;0.29450791571231305
56:36.0;0.09647678265691921;-0.8672645430606827;-1.7481316153767064;2.1919999999999997;0.14626773303753113
56:36.0;-0.050894772936864355;-0.9224891396924111;-1.9180252822501016;2.1919999999999997;0.09005104782651459
56:36.0;-0.2007517341764269;-0.9630342066646108;-2.046451518876311;2.47;0.39564208282272995
56:36.0;-0.3487611378550223;-0.9860895408109058;-2.129953166859952;2.569;0.7325115765250897
56:36.0;-0.48957850470248854;-0.9904886837504044;-2.1673717317361265;2.628;1.0510061670912827
56:36.0;-0.6173491764329667;-0.9767595963614613;-2.159733523996747;2.6689999999999996;1.3023230564637684
56:36.0;-0.7265322213281622;-0.9468809739841665;-2.110067212060219;2.77;1.4515986616676226
56:36.0;-0.8128749187466614;-0.9037866828571102;-2.023121638517174;2.82;1.4863177235158365
56:36.1;-0.8742640879374354;-0.850751292105571;-1.904944609690159;2.0709999999999997;1.4168621828985908
56:36.1;-0.9112014236975091;-0.7908148524885302;-1.7623326867272266;2.0709999999999997;1.2699221647713699
56:36.1;-0.9267893855405742;-0.726372806142306;-1.6022460992648966;2.0709999999999997;1.0786234325960085
56:36.1;-0.926264309225966;-0.6589941212307435;-1.4313090403037732;1.7009999999999998;0.8736749520956223
56:36.1;-0.9161900441508612;-0.5894607349729726;-1.2554500567314073;1.446;0.6780159180479227
56:36.1;-0.9034611129441543;-0.5179668091786518;-1.0796714393302318;1.2770000000000001;0.505246145285814
56:36.1;-0.8942960759853942;-0.4443923260277354;-0.907932312624457;1.141;0.3608289283324557
56:36.1;-0.8933966783697148;-0.36857170500640657;-0.7431409685836614;1.025;0.244702005825504
56:36.1;-0.9033947407576817;-0.2905018233132074;-0.5872385600467357;0.902;0.15411360714375175
56:36.1;-0.9246442167353416;-0.21046151021846266;-0.4413397127413897;0.821;0.08588559884168548
56:36.2;-0.9553590681974476;-0.12904225907431022;-0.3059026857751229;1.053;0.03771220080818575
56:36.2;-0.9920375155435894;-0.04711920829259875;-0.18093142944690196;1.053;0.008457462778078547
56:36.2;-1.0300595112467719;0.03418853739371112;-0.06623457588390666;1.053;0.002332531933627172
56:36.2;-1.0643365738306008;0.11353042603313912;0.03825149688854375;1.214;0.004622103739519201
56:36.2;-1.0899328475802514;0.18930892612648392;0.13211860003637624;1.331;0.027260561456065553
56:36.2;-1.1026070234017677;0.25965791246910513;0.21420157118960956;1.359;0.06132604648582087
56:36.2;-1.0992231570964754;0.3224293032302393;0.282427884612439;1.297;0.10009858698765788
56:36.2;-1.0779858597625926;0.3751910438105821;0.3338398230560024;1.1909999999999998;0.13502173007158016
56:36.2;-1.0384982571280927;0.41524725433792287;0.36477162679064973;1.129;0.15730176352634115
56:36.2;-0.9816942121151574;0.4397102802807437;0.37111198050125654;1.1059999999999999;0.16019458240535486
56:36.3;-0.9097218314814448;0.4456615264862385;0.3485650850230581;1.005;0.1413180522954496
56:36.3;-0.8258383113309051;0.43041651243878254;0.2928738225705978;1.005;0.10410330229156403
56:36.3;-0.7343302722019778;0.39186920190108804;0.2000673125677613;1.005;0.057571653499847546
56:36.3;-0.6404249983028774;0.3288624409579148;0.06684788739093375;1.005;0.014078949089412339
56:36.3;-0.5501246860955026;0.24152820517386547;-0.10882085360829691;0.966;0.01445909516435935
56:36.3;-0.46988412960952136;0.13154378510406614;-0.3269592605165094;0.8959999999999999;0.020209462067714793
56:36.3;-0.40606462891303857;0.0022417746801722278;-0.5847433339363014;0.68;0.0005322950166075988
56:36.3;-0.36413919598125305;-0.14149409087283676;-0.8757294989528916;0.146;0.04512068779746869
56:36.3;-0.34770723715225865;-0.2935876494301906;-1.1893137425753426;0.53;0.12140818012185187
56:36.3;-0.35749980431125633;-0.447350525415456;-1.5106832594698167;0.9490000000000001;0.24160013732758423
56:36.4;-0.3906670457699473;-0.596167834708741;-1.8215418169274167;2.602;0.4242427847023891
56:36.4;-0.4406363982238835;-0.7341335092678182;-2.1017224547672915;2.602;0.6798776751210873
56:36.4;-0.49767294484282143;-0.856498688417824;-2.3314429071245355;3.327;0.9937920512723022
56:36.4;-0.5500638592956559;-0.9598648565664778;-2.4936919997411233;3.327;1.3166368765859944
56:36.4;-0.5857151929121018;-1.0421440520254277;-2.576276473249527;3.835;1.572558140287886
56:36.4;-0.5939025867995299;-1.1023732997128035;-2.573251799660499;3.968;1.68471401149119
56:36.4;-0.5668908312496231;-1.1404870628151609;-2.485584666888319;3.748;1.6070091784390959
56:36.4;-0.5011156121868898;-1.1571379153173635;-2.3209573703795057;3.263;1.345830050248315
56:36.4;-0.3976737402733677;-1.1536122004987255;-2.0927255328740384;2.6460000000000004;0.9600614412145483
56:36.4;-0.2620332229543752;-1.1318095382616224;-1.8181887610007532;2.0540000000000003;0.5392233337367058
56:36.5;-0.10307898112148746;-1.0941963751204067;-1.5164672362036997;1.127;0.17104028854073805
56:36.5;0.06823733101921454;-1.0436700995682326;-1.2063619927433584;1.127;0.08591379817533472
56:36.5;0.2403186414862794;-0.983356240299958;-0.9045885964616212;1.127;0.21377132396295714
56:36.5;0.40215908482518276;-0.9164112918973726;-0.6246536670682428;1.083;0.23021181542409888
56:36.5;0.5442946881685572;-0.8458810209418297;-0.3764175637643363;1.147;0.17330586341780202
56:36.5;0.6594783064734795;-0.7746245409091573;-0.16620967486911134;1.21;0.0849078933493921
56:36.5;0.7430963553179056;-0.7053013112872016;0.0026819347591029233;1.238;0.001405620335101105
56:36.5;0.7933167772852353;-0.6404144960659004;0.12930369418231874;1.229;0.06569294407915051
56:36.5;0.8109588975990005;-0.5823913553034684;0.21425238178688485;1.192;0.10119042538415007
56:36.5;0.7991017297595296;-0.5336659623540685;0.25894551142752237;1.094;0.11042819211376113
56:36.6;0.7624785122929295;-0.49672198265031;0.2650627949803586;0.79;0.1003898401246272
56:36.6;0.7067407121222226;-0.4740599926495011;0.2342361300322453;0.79;0.07847788666466207
56:36.6;0.6377041539779528;-0.4680719960291942;0.168002814009675;0.79;0.05014740460424532
56:36.6;0.5606794978514823;-0.4808213076062362;0.06797879762627987;0.69;0.018326176275848597
56:36.6;0.4799371373356342;-0.5137338796869931;-0.06382267662493793;0.561;0.01573611707883091
56:36.6;0.3983171138783697;-0.5672209001439729;-0.224617341685715;0.43700000000000006;0.05074864772834899
56:36.6;0.31700109179370034;-0.6402805244480889;-0.41051779265763194;0.41600000000000004;0.08332264255646263
56:36.6;0.2354887500057094;-0.7301594472388037;-0.6163238770340558;0.584;0.10597339951105318
56:36.6;0.15183244971216975;-0.8321801296983067;-0.835478775932694;0.821;0.10556437059599885
56:36.6;0.06317476772226052;-0.9398510161604716;-1.0601932152344773;1.095;0.06294883394719586
56:36.7;-0.03340379270329509;-1.045358263431201;-1.2817093336060201;1.973;0.044755919439172516
56:36.7;-0.13980778681543185;-1.1404465070680427;-1.490658366897636;1.973;0.23767549237268867
56:36.7;-0.2558314196715123;-1.2175372330577812;-1.677473245632187;2.412;0.5225065441825889
56:36.7;-0.37835059341886984;-1.2708178806219885;-1.8328599303361564;2.412;0.8812659961914563
56:36.7;-0.501105623593459;-1.2970471045263652;-1.948383781624585;2.862;1.2663668429669999
56:36.7;-0.6152861923861488;-1.2959032331389708;-2.01722130891545;3.11;1.6084341662263226
56:36.7;-0.7109516078501401;-1.2697841807404948;-2.0350214915166;3.3739999999999997;1.8371260400887828
56:36.7;-0.7790454924322276;-1.223074313591069;-2.0006726229095437;3.5610000000000004;1.9063019574695312
56:36.7;-0.8134790190383077;-1.161050484622705;-1.916706972462498;3.514;1.8103109695587973
56:36.7;-0.8126217337134493;-1.0887386179705616;-1.7891595856541185;3.0639999999999996;1.5829279252773765
56:36.8;-0.7796732789161921;-1.0100564634638152;-1.6268731485112102;1.4;1.2811854372256708
56:36.8;-0.7218058908804507;-0.9274492976158093;-1.440421832744989;1.4;0.9642736388010662
56:36.8;-0.6484795668952179;-0.8420070742396448;-1.2409417885272518;1.4;0.6775844742031316
56:36.8;-0.5695741019018028;-0.7538876243809889;-1.0391279577710972;1.325;0.4461962107988108
56:36.8;-0.4938179810084135;-0.6628437223837802;-0.8445011707554635;1.133;0.27642562680353205
56:36.8;-0.4277080868828586;-0.5687019417642399;-0.6649141718538578;0.905;0.16173267227721788
56:36.8;-0.37496085696100545;-0.47169549232456554;-0.5062437372224351;0.657;0.0895379862451512
56:36.8;-0.3364736400209254;-0.3726097391818152;-0.3722531000277783;0.524;0.04667062015260449
56:36.8;-0.3107193392834682;-0.2727550355556362;-0.26462987481748645;0.465;0.02242745186794109
56:36.8;-0.29445163445511324;-0.1738140383008009;-0.18319345352540084;0.517;0.009375809381503309
56:36.9;-0.28357245378171547;-0.07762029881498236;-0.12623802863591746;0.593;0.002778622546588497
56:36.9;-0.2740078313940166;0.014067992608716861;-0.09095603167889402;0.593;0.0003506118669045682
56:36.9;-0.2624590657350779;0.09972778509008186;-0.07388332923621008;0.593;0.0019338563419983312
56:36.9;-0.2469387736923284;0.1781112668980598;-0.07131656675514494;0.593;0.003136686447776274
56:36.9;-0.22704571205177018;0.2481656934490026;-0.07966710426945114;0.526;0.004488839530593915
56:36.9;-0.2039657021813225;0.3088815240258796;-0.095730987557967;0.445;0.006031170629522455
56:36.9;-0.18021672468359237;0.35912994761620604;-0.11686672550404756;0.38;0.007563757390377602
56:36.9;-0.1591913320217172;0.3975371581363693;-0.14108208569963387;0.353;0.008928304982165687
56:36.9;-0.14457897731074487;0.42242543818611566;-0.1670420375604893;0.35700000000000004;0.010201898314932283
56:36.9;-0.139763813717858;0.431838151896161;-0.19402348245070042;0.368;0.011710354612929403
56:37.0;-0.14729053949716264;0.4236568688926853;-0.22185093499440384;0.43200000000000005;0.013843642276296147
56:37.0;-0.16847308187734208;0.39581034054252157;-0.25084325947013125;0.43200000000000005;0.016727078375885367
56:37.0;-0.20319040494416055;0.34656175594851485;-0.2817895642937511;0.43200000000000005;0.019843064168759292
56:37.0;-0.24988556457732825;0.2748449375655241;-0.3159644205810644;0.47200000000000003;0.02170036765000073
56:37.0;-0.3057681345485114;0.18060965518552158;-0.3551872601779102;0.622;0.01961510184127715
56:37.0;-0.3672004855983085;0.06513223627551865;-0.401909842480301;0.843;0.009612312432641802
56:37.0;-0.4302114526125377;-0.06875527957907306;-0.45927263182327294;1.103;0.013584966955307537
56:37.0;-0.4910399255922914;-0.2165712585218504;-0.5310274681568493;1.306;0.05647218761460839
56:37.0;-0.5465857924682507;-0.3722912258252791;-0.6212078343258232;1.381;0.12640901982545108
56:37.0;-0.5946467511045834;-0.528726245519839;-0.7334556539811775;1.22;0.23060237728824953
56:37.1;-0.633861049302223;-0.6782114226817691;-0.8700019181029406;1.389;0.37400669408267656
56:37.1;-0.6633776938843619;-0.8135296737490094;-1.0304597002583833;1.389;0.5561158519025545
56:37.1;-0.6824083549456426;-0.928839526478746;-1.2107683747345843;1.389;0.7674429351361746
56:37.1;-0.6898791720418748;-1.020326422257698;-1.4026978366315308;1.564;0.9873617388181251
56:37.1;-0.6843363958384928;-1.0864225586097611;-1.594204762673418;1.838;1.1852569626428235
56:37.1;-0.6641296123943449;-1.1276187362676033;-1.7706853037435724;2.436;1.3260396535054897
56:37.1;-0.6277918273456405;-1.1460027681806155;-1.9168996077644;2.9989999999999997;1.3791156693727027
56:37.1;-0.5744879343505104;-1.1446925620996664;-2.0191463228096014;3.339;1.3278149838229818
56:37.1;-0.5043989739404378;-1.1273047063215902;-2.0672005028430447;3.449;1.1754336421548848
56:37.1;-0.41892777758751343;-1.0975340783291376;-2.055600008064215;3.2489999999999997;0.9451392139115072
56:37.2;-0.320651891222683;-1.0588568954280597;-1.9840427430185525;1.8940000000000001;0.6736310529500725
56:37.2;-0.21303438786128615;-1.014336195233263;-1.8569216963874478;1.8940000000000001;0.401259406232196
56:37.2;-0.10000908994858186;-0.9665060696878494;-1.6822973520906794;1.8940000000000001;0.16260983998891104
56:37.2;0.014409139994014344;-0.9173192024578617;-1.4707003446947349;1.587;0.01943939478956163
56:37.2;0.12641052497059693;-0.8681451861017296;-1.2340122015993165;1.324;0.13542381692397296
56:37.2;0.23258127169791123;-0.8198120665143903;-0.984489339370899;1.126;0.1877154698285516
56:37.2;0.3300329166501057;-0.7726943552612964;-0.7339378505168476;0.991;0.18716484663770327
56:37.2;0.41649125440086654;-0.726851719476215;-0.4930590719796866;0.922;0.14926248321908359
56:37.2;0.49035438872744885;-0.6822087878602627;-0.27098327470930195;0.9009999999999999;0.09065042881282918
56:37.2;0.5507231022673436;-0.6387528903290804;-0.07498801351976443;0.899;0.026378981445067923
56:37.3;0.5974021366954965;-0.5967232864177553;0.08962089055754735;0.9890000000000001;0.03194839260707959
56:37.3;0.6308675542730222;-0.5567691266447975;0.21948958792611065;0.9890000000000001;0.07709518598431055
56:37.3;0.6521932637159419;-0.520056338153706;0.31306748951211416;0.9890000000000001;0.1061853671819256
56:37.3;0.6629332125612181;-0.4883017054557785;0.3703381982325869;0.9740000000000001;0.11988270339939695
56:37.3;0.6649655908932992;-0.463709966424332;0.39246373840406296;0.94;0.12101665363628916
56:37.3;0.6603128999914695;-0.44879619597114895;0.3813961186798901;0.893;0.11302518278476655
56:37.3;0.6509506783836769;-0.44609327848961017;0.33950365770119295;0.8370000000000001;0.09858667534618888
56:37.3;0.6386127446553691;-0.4577655176778627;0.2692410127528773;0.763;0.07870854283009689
56:37.3;0.6245994091589552;-0.4851685041461463;0.1728754677669959;0.672;0.05238748351366567
56:37.3;0.609599953546089;-0.528411623652175;0.052266819433008024;0.612;0.01683617226008545
56:37.4;0.5935501001941352;-0.5859908322232482;-0.09130498934100775;0.879;0.03175723730566786
56:37.4;0.5755562892732006;-0.6545600157588215;-0.25723040891706506;0.879;0.09690798974522881
56:37.4;0.5539261352747664;-0.7289000164811754;-0.4454710261931856;0.879;0.17986194227729008
56:37.4;0.5263387082135701;-0.8021373593984964;-0.6561477118787935;0.879;0.27702290101625177
56:37.4;0.49016687716576807;-0.8662656504231515;-0.88879336745107;1.051;0.37739475455850036
56:37.4;0.4429375894626476;-0.913006903370691;-1.1413813167311206;1.34;0.461580399212548
56:37.4;0.3828862125005671;-0.9349770905547536;-1.4093266593629425;1.686;0.5045246210331158
56:37.4;0.30951528662645184;-0.9269891791604542;-1.6847179205250398;2.0980000000000003;0.48337475321898016
56:37.4;0.22401383320229123;-0.8871977324884436;-1.956078548275857;2.553;0.38875997991516315
56:37.4;0.12937270609097565;-0.8177290281821072;-2.208907902244484;2.715;0.23368438106124553
56:37.5;0.030091271200304023;-0.7245045156465161;-2.427052907640994;3.3089999999999997;0.052912816002516606
56:37.5;-0.0684814110452679;-0.6162100687311279;-2.5946676358024767;3.3089999999999997;0.10949221092801882
56:37.5;-0.16097153389348615;-0.5027082570662956;-2.698292118195924;3.3089999999999997;0.21835043721853686
56:37.5;-0.24273451448735092;-0.39336469308312155;-2.7285892052469887;3.491;0.26053439549181495
56:37.5;-0.31039123229767707;-0.2956564737864401;-2.681484837723433;3.471;0.24607765732696962
56:37.5;-0.3620963171942999;-0.2142624894514402;-2.558645608991935;3.1710000000000003;0.19850908674948461
56:37.5;-0.3975361958044455;-0.1507331588761127;-2.3672959259476114;2.716;0.14185283793141643
56:37.5;-0.4177002996239115;-0.10372467777818896;-2.11941622553182;2.202;0.09182546493827264
56:37.5;-0.4245158169637806;-0.06965748722883237;-1.8304406672459634;1.7169999999999999;0.05412742117160015
56:37.5;-0.4204457310766697;-0.04359998332140194;-1.5176487588621994;1.2819999999999998;0.02782066722604243
56:37.6;-0.4081248168417713;-0.020192613660039372;-1.198480200154068;0.484;0.00987680326910093
56:37.6;-0.39007891940384576;0.005523195650029072;-0.889010746532594;0.484;0.0019153578208514995
56:37.6;-0.3685514408074737;0.03744850924082509;-0.6028124400903304;0.484;0.008319837682201934
56:37.6;-0.3454432168783561;0.0779760288244211;-0.35033136868510434;0.405;0.009436627425854867
56:37.6;-0.32235307671858754;0.12775654570258038;-0.13875374745063282;0.377;0.005714256116664035
56:37.6;-0.3006868959304187;0.18567855184896803;0.02778975637643;0.387;0.0015515328727700737
56:37.6;-0.28178890731726847;0.2490361421759509;0.1478435717095765;0.435;0.01037501466052854
56:37.6;-0.2670474093840652;0.31384351014556033;0.22218737133228358;0.493;0.018621767183455606
56:37.6;-0.2579380297421845;0.3752485339779741;0.2534087044528726;0.5720000000000001;0.024527648340586197
56:37.6;-0.2559844582183995;0.4279986237023311;0.24552465540925478;0.664;0.02689992574172546
56:37.7;-0.2626331909250774;0.4669129122160952;0.20365875885344184;0.677;0.024974027596572322
56:37.7;-0.279055508477593;0.4873157749775204;0.1337548925239561;0.677;0.018189080571762037
56:37.7;-0.3059072827461825;0.48539469920418865;0.04229422141673725;0.569;0.006280090181346489
56:37.7;-0.34309029075326997;0.4584663591153278;-0.06402469100340566;0.569;0.010070786592947927
56:37.7;-0.3895645835040445;0.4051599108415343;-0.17868173246236102;0.424;0.028202401333825407
56:37.7;-0.44326507105646507;0.3255417619679345;-0.2958350211305534;0.56;0.042689375842111556
56:37.7;-0.5011759468358198;0.22120819918160617;-0.41091205551345683;0.97;0.04555544808680818
56:37.7;-0.5595970358900887;0.09535846658627382;-0.5212011592834874;1.3319999999999999;0.027812500569674867
56:37.7;-0.6145836486478429;-0.047179663947178346;-0.6262696410154989;1.655;0.01815922057710023
56:37.7;-0.6624710308732513;-0.20005942064469914;-0.727999527805716;1.89;0.09648437683733617
56:37.8;-0.7003424360329249;-0.35577625538058394;-0.8300751659378286;1.253;0.20682585251864244
56:37.8;-0.7263045341095525;-0.5063264349016869;-0.9369066902488196;1.253;0.3445447983295095
56:37.8;-0.7395044397314251;-0.644052937067544;-1.0522010200441647;1.253;0.5011423085433735
56:37.8;-0.7399100357777483;-0.7624776262422933;-1.1775475466590577;1.2819999999999998;0.6643309323353328
56:37.8;-0.7279287355174899;-0.8569729524974115;-1.3113639841284335;1.47;0.8180488354494873
56:37.8;-0.7039742039407447;-0.9252012299732884;-1.4484387754347678;1.585;0.9433939557172665
56:37.8;-0.6681216365521022;-0.9672522764152525;-1.5802050235385974;1.774;1.0211951295834207
56:37.8;-0.6199784850446375;-0.9854252057988468;-1.695751541631226;2.198;1.0360065611036515
56:37.8;-0.558814325988848;-0.9836894718934394;-1.7833993571483844;2.6630000000000003;0.9803342150488135
56:37.8;-0.483885403447578;-0.9669566656024671;-1.8325126173237969;2.988;0.8574257198787077
56:37.9;-0.39482151909576024;-0.9403275735494159;-1.8351456714734662;2.394;0.681319046720451
56:37.9;-0.29195165376339993;-0.9084521018140975;-1.7872007948578545;2.394;0.47400871069982103
56:37.9;-0.17651195816173076;-0.8750848683267125;-1.6889587826325998;2.394;0.26088154529605684
56:37.9;-0.050734300492934634;-0.8428611790526469;-1.5450140054176138;1.916;0.06606784615204464
56:37.9;0.08218491752977959;-0.813274483854815;-1.363705901384297;1.525;0.09114859744180445
56:37.9;0.21824106547832178;-0.7868108058899143;-1.1561638536552004;1.256;0.19853001550678429
56:37.9;0.35288067551540203;-0.763181750526963;-0.9351398191128669;1.1059999999999999;0.2518444606863691
56:37.9;0.48131355731435455;-0.7415962252374302;-0.7138343809163215;1.0590000000000002;0.2547962703953138
56:37.9;0.5988282532728307;-0.7210231600156765;-0.5048784818912532;1.061;0.21799089718103612
56:37.9;0.7010800157564391;-0.7004141595250974;-0.3195523575024705;1.078;0.15691502517521652
56:38.0;0.7843373198203049;-0.6788684174077825;-0.16725449268380516;1.141;0.08905663408980356
56:38.0;0.8456774924909239;-0.6557364510131447;-0.05519490077603064;1.141;0.030607866249446034
56:38.0;0.8831159776716013;-0.630675822842775;0.01172802673117693;1.141;0.006532040547116837
56:38.0;0.8956553088468933;-0.6036777223440702;0.030917307540799497;1.141;0.016716591111694025
56:38.0;0.8832576272501201;-0.5750703190353904;0.001992148327102195;1.104;0.0010118823495854586
56:38.0;0.8467608392364464;-0.5454885269622451;-0.07332015034540464;1.024;0.03386645447817473
56:38.0;0.7877610456658086;-0.5157976383949769;-0.19128823971771677;0.927;0.07772524889804906
56:38.0;0.7084819764197571;-0.4869689116564718;-0.3462850787859038;0.8290000000000001;0.11947136381739576
56:38.0;0.611651893144112;-0.45991809732852623;-0.530947173143286;0.752;0.1493606297725326
56:38.0;0.5004039087812897;-0.43532632741095645;-0.7364645089190919;0.743;0.16043068908872862
56:38.1;0.3782067314559173;-0.4134669012334249;-0.9530794636651851;1.557;0.1490387211198554
56:38.1;0.24883163314282497;-0.39406848889029705;-1.170787234825873;1.557;0.1148035392766229
56:38.1;0.11636770753533371;-0.3762572586013069;-1.3800855760772732;1.557;0.0604259354648321
56:38.1;-0.014717146830612895;-0.3586218342542394;-1.5725702784008604;1.557;0.008299853247632903
56:38.1;-0.13951962406447974;-0.3394249258526595;-1.7412923230428246;1.8940000000000001;0.082461402028476
56:38.1;-0.2527418899011616;-0.316956894984479;-1.8809338999805778;2.085;0.15067838827797667
56:38.1;-0.348925237509138;-0.2899928184617926;-1.9878753184209872;2.178;0.20114478035181219
56:38.1;-0.42293764279455714;-0.258256750507643;-2.0601664922964833;2.3480000000000003;0.22502477803973578
56:38.1;-0.4707113840279572;-0.22272988657674114;-2.097392013037133;2.525;0.21989371041998054
56:38.1;-0.49011195316093886;-0.18563358457072585;-2.1004301573530246;2.6660000000000004;0.19109973753188877
56:38.2;-0.4816783201954914;-0.150024378781717;-2.0711208713256575;1.923;0.14966642394778037
56:38.2;-0.4489349562589389;-0.11911365452674354;-2.0118916938769744;1.923;0.10758446637672547
56:38.2;-0.3981258383883106;-0.09555232108408479;-1.925443303804617;1.923;0.07324742138341149
56:38.2;-0.3374293859175326;-0.08091157268873929;-1.8146041838368503;1.778;0.04954221869901715
56:38.2;-0.2758186599504277;-0.07547265308553264;-1.6823932396391745;1.8319999999999999;0.03502198645172367
56:38.2;-0.22177778064430695;-0.07831135228553415;-1.5322325613146583;1.8419999999999999;0.026611382896112413
56:38.2;-0.1821371009737315;-0.08758727705690614;-1.368189999941763;1.7;0.021826588296937344
56:38.2;-0.16126879727669052;-0.10092668054863851;-1.1951188854021637;1.439;0.01945214265769347
56:38.2;-0.1607597838411132;-0.11580511057844813;-1.0185974781466207;1.1440000000000001;0.01896303015995983
56:38.2;-0.17954283324116482;-0.12986992490934765;-0.8446390371092064;0.9;0.019694629409961625
56:38.3;-0.21438823497282586;-0.14117407523803616;-0.6792170011868142;0.5529999999999999;0.020557223063961044
56:38.3;-0.26061963134767263;-0.14831730957249029;-0.5277138086826024;0.5529999999999999;0.020398461988454766
56:38.3;-0.31289472544238006;-0.15050919622260653;-0.39444177442908557;0.5529999999999999;0.01857565696861096
56:38.3;-0.3659079315631885;-0.1475757389462028;-0.2823597674918589;0.602;0.015247182747834483
56:38.3;-0.4149354967153599;-0.1399274898053385;-0.19301965201768675;0.634;0.011206891333386272
56:38.3;-0.4562026730980923;-0.128500266166255;-0.12669808377331;0.624;0.007427315961862758
56:38.3;-0.4870750019200977;-0.11467542184752945;-0.08264950381631671;0.603;0.004616431948711533
56:38.3;-0.5060864461008889;-0.10018345284724912;-0.059423254479399994;0.585;0.003012847400708235
56:38.3;-0.5128333237673668;-0.08699342883022242;-0.05519228758678338;0.5479999999999999;0.002462300659873655
56:38.3;-0.5077735745292408;-0.07719443779000291;-0.0680495662592721;0.511;0.0026673589648245227
56:38.4;-0.4919726390205355;-0.07287882521821097;-0.09624482431219164;0.441;0.003450799271120813
56:38.4;-0.4668417594840027;-0.07603086990790411;-0.13834510001615422;0.441;0.004910474254306422
56:38.4;-0.4339226461741297;-0.08841019262895726;-0.19330068120507304;0.441;0.007415629742340438
56:38.4;-0.3947658196473417;-0.11141156414276303;-0.2604015831790909;0.441;0.011452846355152929
56:38.4;-0.35092009127021634;-0.14589130149832671;-0.33913304471490446;0.48;0.01736231939820071
56:38.4;-0.30401626647658914;-0.19196780073685488;-0.42896564584895286;0.526;0.02503500735925891
56:38.4;-0.25590578343047216;-0.24882035593374488;-0.5291255315706109;0.61;0.03369183970332241
56:38.4;-0.20879900036051785;-0.31452639305791824;-0.6383850225915376;0.746;0.041924529650165895
56:38.4;-0.16532970422261833;-0.3859944002192658;-0.7549032067515272;0.887;0.04817515972412166
56:38.4;-0.12845846004906664;-0.4590621480701009;-0.8761306933854215;0.961;0.05166579199190815
56:38.5;-0.10114350076033381;-0.528817614908987;-0.9987762747915108;1.21;0.053421012100292715
56:38.5;-0.08578861540707582;-0.5901373598910742;-1.1188300547115826;1.21;0.0566430841471386
56:38.5;-0.08360431331583018;-0.6383421959957944;-1.231655212874125;1.4069999999999998;0.06573117364388338
56:38.5;-0.09409202629023258;-0.6698235752556203;-1.3321835609254031;1.4069999999999998;0.08396094546495847
56:38.5;-0.11482206573306736;-0.6825341501053201;-1.4152545959303995;1.705;0.11091347586180614
56:38.5;-0.14158377092661734;-0.6762945011585171;-1.4761127581048872;1.9409999999999998;0.1413412296296826
56:38.5;-0.16890335552165892;-0.6528824730298409;-1.5110200813954442;2.153;0.1666262895856585
56:38.5;-0.1908461132892128;-0.6158680350487883;-1.5178632286525966;2.2430000000000003;0.17840360399644356
56:38.5;-0.20194244588262278;-0.570181448498056;-1.4965802477314587;2.126;0.17232199106447318
56:38.5;-0.19803095394369588;-0.5214578025094394;-1.4492501439565912;1.8619999999999999;0.14965650608096745
56:38.6;-0.17682659649400423;-0.4752621695604786;-1.379783750502861;1.03;0.11595563541258
56:38.6;-0.1381144840696805;-0.4363399085388357;-1.2932980326686179;1.03;0.07794042661893186
56:38.6;-0.08360615582203633;-0.4080329741050988;-1.1953794604796202;1.03;0.040779256694965973
56:38.6;-0.016576704828034514;-0.39195381300050275;-1.0914541738962182;0.927;0.007091508112052149
56:38.6;0.058618169668791166;-0.3879411500165192;-0.9863782157383402;0.919;0.022430635328263934
56:38.6;0.13709040638157952;-0.39426644173209713;-0.8842483177413054;0.9620000000000001;0.04779375131054118
56:38.6;0.2139798812430274;-0.4080247690369316;-0.7883853534228537;1.026;0.06883320905601926
56:38.6;0.28495797383706656;-0.4256279674580611;-0.7014312681268436;1.06;0.08507385115580227
56:38.6;0.3466107027297921;-0.44331985268904445;-0.6254935663856196;1.0590000000000002;0.09611296966411129
56:38.6;0.39666069695367046;-0.45764773563288813;-0.5622747371319997;1.024;0.10207022208431223
56:38.7;0.4340159332454949;-0.4658433882989457;-0.5131448405623319;0.863;0.10374939571236469
56:38.7;0.45866367822525883;-0.4660874307941831;-0.4791493094444852;0.863;0.10243128178943724
56:38.7;0.47145387693866925;-0.45765090825253146;-0.46097649452544903;0.863;0.09946088541422514
56:38.7;0.47382486455679174;-0.44091953383922583;-0.45891977050235455;0.83;0.0958768935890253
56:38.7;0.4675131871154013;-0.4173069426799283;-0.4728547228032191;0.794;0.0922523008493972
56:38.7;0.4542726178791296;-0.3890614484991546;-0.5022374258027074;0.742;0.08876542391575025
56:38.7;0.43561901960631483;-0.35897603885060636;-0.5461295962329211;0.6920000000000001;0.08540199324093178
56:38.7;0.4126199990608535;-0.3300254026614605;-0.6032588311745131;0.6920000000000001;0.08214882040198813
56:38.7;0.3857568984527672;-0.3049718712363506;-0.672115985668572;0.7390000000000001;0.07907108726019879
56:38.7;0.3548928080862705;-0.285996812984493;-0.7510802843125748;0.8079999999999999;0.0762333059740899
56:38.8;0.3193728652932138;-0.27441673324745236;-0.8385519339931676;1.099;0.07349174671352114
56:38.8;0.2782569090089926;-0.2705283421678751;-0.9330596176472642;1.099;0.07023735061215322
56:38.8;0.23064942938478228;-0.2735993388093819;-1.033299570465621;1.099;0.06520691846527779
56:38.8;0.17606766972003016;-0.281997318390448;-1.1380757082166433;1.232;0.056506153954346064
56:38.8;0.11478217807639135;-0.2934341103651323;-1.2461492564320231;1.3659999999999999;0.04197156096861286
56:38.8;0.04806229088286659;-0.30528865653337883;-1.3560334651224495;1.421;0.01989690575103478
56:38.8;-0.021741558559291278;-0.3149610150611918;-1.4657648356870334;1.43;0.010037181410412353
56:38.8;-0.09133079148010705;-0.32021179509220565;-1.5726770274485307;1.456;0.045993248992916964
56:38.8;-0.15681944269827366;-0.31944163565046013;-1.6732225237844522;1.4909999999999999;0.08381951222413657
56:38.8;-0.2142833631603588;-0.31185632737100166;-1.7629149384693317;1.5719999999999998;0.11780788844554217
56:38.9;-0.26040514913073887;-0.2974746580883921;-1.8364667644187893;2.039;0.1422599378486232
56:38.9;-0.29307964555599725;-0.27698754925365754;-1.8881481263934188;2.039;0.15327875610203148
56:38.9;-0.31183865237439956;-0.2515318457004559;-1.9123106668886145;2.039;0.14999658451524583
56:38.9;-0.3179953930295666;-0.22245096592206723;-1.9039764413328994;2.039;0.13468421346992157
56:38.9;-0.3144724275323257;-0.19108005576702491;-1.8594183142524183;2.072;0.11173134756873727
56:38.9;-0.3053314571578584;-0.15856164027917427;-1.7766973383621931;2.052;0.08601677029570783
56:38.9;-0.29507475972796543;-0.12569748358435995;-1.6561159324332002;1.989;0.06142559624614938
56:38.9;-0.2878441849767093;-0.09285577923786642;-1.5005137457639397;1.89;0.040105725537423816
56:38.9;-0.2866860474338372;-0.05995133900381461;-1.3153199040389811;1.725;0.02260668258751223
56:38.9;-0.29305691742453827;-0.02649897154757612;-1.108289283278724;1.504;0.00860664975281021
56:39.0;-0.30670316084474686;0.008274903652881868;-0.8888927687582534;0.563;0.002255955718894063
56:39.0;-0.32593854421321616;0.04527882236816172;-0.667432656081187;0.563;0.009850046856256501
56:39.0;-0.3481952700086333;0.08536986583453343;-0.45409215886191084;0.563;0.01349806355963653
56:39.0;-0.3706431570128128;0.12914080911327983;-0.25816088149977123;0.563;0.012356911173020587
56:39.0;-0.39072254730341094;0.1766974322592571;-0.08753628024035892;0.614;0.006043475973854193
56:39.0;-0.40653166175383615;0.22745519286788943;0.05156332538813238;0.6579999999999999;0.004767944038221684
56:39.0;-0.41704954643803904;0.27999014750216517;0.1547694767094124;0.6890000000000001;0.01807239527330544
56:39.0;-0.42217900466671426;0.3319822583181647;0.21964226046245422;0.713;0.03078416734349013
56:39.0;-0.42261476034669626;0.3802921052200449;0.24561211474333852;0.674;0.03947405622282109
56:39.0;-0.4195820789548141;0.4212040095954534;0.23372000667715934;0.596;0.041305255915307544
56:39.1;-0.4145191500079676;0.45083886456647954;0.18612790422487974;0.7879999999999999;0.03478383269841373
56:39.1;-0.4087751992932894;0.46568740934674013;0.1054658158244862;0.833;0.020076627056329892
56:39.1;-0.4033732262416994;0.4631603665289578;-0.005805255785047471;0.833;0.0010845755695011476
56:39.1;-0.39886107578986785;0.4420378937338246;-0.1457992190703706;0.833;0.025706109606840714
56:39.1;-0.39525909632278006;0.40273854034603834;-0.3132531011479549;0.857;0.04986553056054708
56:39.1;-0.39210345138897834;0.34737569372471305;-0.5072229307580707;0.903;0.06908741945434882
56:39.1;-0.38857186756842643;0.2795935100912919;-0.7265081756712847;0.987;0.07892942645398739
56:39.1;-0.3836588679147297;0.2041816404702443;-0.9689019442521359;1.02;0.07589999671922171
56:39.1;-0.3763481698104096;0.12648008745604286;-1.230370500940919;0.9;0.05856631184914964
56:39.1;-0.3657289806623484;0.05162358361210072;-1.504293840371963;0.83;0.028401429658261382
56:39.2;-0.3510301468202478;-0.016257454344314044;-1.7809465658349457;1.507;0.010163606637494984
56:39.2;-0.3315878600983421;-0.07470517765466148;-2.0474112709523578;1.507;0.05071710023187877
56:39.2;-0.3067910600673283;-0.12330397981367126;-2.2880534975483315;1.507;0.0865537659893958
56:39.2;-0.2760459674643946;-0.16365721976441308;-2.4856112872193092;2.233;0.11229225124365622
56:39.2;-0.23877730215903892;-0.1989732265930895;-2.6229041629428065;3.015;0.12461493807351544
56:39.2;-0.1944653887479041;-0.23334675266270102;-2.6850462061669726;3.702;0.12184166955070945
56:39.2;-0.1427154265013316;-0.2708823249835339;-2.6618215272347117;4.138999999999999;0.10290358877991973
56:39.2;-0.08335104141069477;-0.31483947907589255;-2.549699454290565;4.144;0.06690971908819679
56:39.2;-0.016507102270307918;-0.3669832601672594;-2.352963706181338;3.611;0.014253854615449325
56:39.2;0.05731484486368864;-0.4272839465788698;-2.0836014723700447;2.783;0.05102680229581737
56:39.3;0.13724682309500238;-0.4940147021624158;-1.7598987968874062;0.951;0.11932456747564561
56:39.3;0.2220904602448654;-0.5641667728191574;-1.404073944672823;0.951;0.17592493073132684
56:39.3;0.3103494798486051;-0.6340052831551951;-1.0395985191206236;0.951;0.2045547415759028
56:39.3;0.4002402961811993;-0.6995897577405169;-0.6888531035758868;0.8690000000000001;0.192881632572024
56:39.3;0.48970176124130593;-0.7571705009030336;-0.3714313497778083;0.941;0.13772218623718088
56:39.3;0.5764413365806262;-0.8034579505490228;-0.10308156525088677;1.05;0.04774185326504945
56:39.3;0.6580347649957687;-0.8357931949707113;0.10482773445623894;1.143;0.05765325998460629
56:39.3;0.732063640235439;-0.8522467312138907;0.24542305885389892;1.215;0.15311916281571658
56:39.3;0.7962569438303956;-0.8516696016222813;0.3161258522040769;1.2670000000000001;0.21438006198817525
56:39.3;0.848605727672197;-0.8337178010634239;0.3182361213248145;1.301;0.22515132429033277
56:39.4;0.8874362328543957;-0.7988624918758495;0.2563740300136558;1.213;0.18175368187037963
56:39.4;0.9114432573554713;-0.7483879631137986;0.1378380697571024;1.213;0.09402116172537067
56:39.4;0.9196954605010316;-0.6843701461829822;-0.02805635129917606;1.213;0.017659007459409494
56:39.4;0.9116282732118364;-0.6096180637396204;-0.2306080285924007;1.16;0.12815927332435653
56:39.4;0.8870412211435182;-0.5275496633653193;-0.4583293814326501;1.169;0.21447903707777033
56:39.4;0.8461149420633046;-0.44197626009711566;-0.699537170562179;1.28;0.26160082143939734
56:39.4;0.7894555109313256;-0.3567960825811038;-0.9429234781950344;1.4809999999999999;0.26559762530165454
56:39.4;0.7181592471576358;-0.27563414531405567;-1.1780494601400169;1.5530000000000002;0.2331939603169009
56:39.4;0.6338800957921501;-0.2014903783643336;-1.3956967109229044;1.536;0.17825941720747404
56:39.4;0.5388832315850595;-0.13646640983899377;-1.58805030295746;1.764;0.11678436163203965
56:39.5;0.43607369452240513;-0.08164280304143084;-1.7487438060336928;1.847;0.0622592644507663
56:39.5;0.32898676798070464;-0.03715671536096577;-1.8728233997625396;1.847;0.02289352002019487
56:39.5;0.2217214957065426;-0.0024640704284732136;-1.9566799000342294;1.847;0.0010690073718978748
56:39.5;0.11878912874844581;0.023299697097200648;-1.9979925979594206;1.9680000000000002;0.005529945448118625
56:39.5;0.02483405870006757;0.04096961143058716;-1.9957314049461683;2.059;0.002030540423613944
56:39.5;-0.05580605279839876;0.05111611905654371;-1.950238843572795;2.059;0.005563229558401498
56:39.5;-0.11967423808526648;0.05401365668828313;-1.863363730113259;2.052;0.01204486366808729
56:39.5;-0.16478182802942604;0.049837732745201896;-1.738587639220221;1.985;0.014277894904605147
56:39.5;-0.19101887294163553;0.039005495676585386;-1.5810910570900574;1.939;0.011780370832518785
56:39.5;-0.20020828413356395;0.02249542084191558;-1.3977209712203589;1.8019999999999998;0.006295013230118619
56:39.6;-0.1957340192121361;0.001990629799095389;-1.1968228083635033;1.074;0.00046632282381342733
56:39.6;-0.1818386482207033;-0.02021893852662814;-0.9879139229244998;1.074;0.0036321489671005867
56:39.6;-0.16282030980293485;-0.041520126706152904;-0.7812219361017393;1.074;0.0052813101957522755
56:39.6;-0.14237584005678983;-0.05932400638941172;-0.5871299618524252;0.687;0.004959078876423984
56:39.6;-0.1232331478039453;-0.07137851224239081;-0.41553293621665505;0.358;0.0036551102937971308
56:39.6;-0.10708429500734476;-0.0760000044068625;-0.2751017250500913;0.239;0.0022388897752763895
56:39.6;-0.09474612346938426;-0.07220142380584407;-0.17252257956324224;0.332;0.0011801933274034422
56:39.6;-0.08644270679663818;-0.05970580374724746;-0.11185126793614932;0.37200000000000005;0.000577279078478488
56:39.6;-0.082107727816391;-0.03885791781062038;-0.09412499568930098;0.316;0.0003003091250399251
56:39.6;-0.08163330764847963;-0.010475038080323002;-0.11732272778787589;0.205;0.00010032407313630415
56:39.7;-0.08503000998565682;0.024308890595551007;-0.1766874626330011;0.43799999999999994;0.00036521037206896557
56:39.7;-0.09249422085683615;0.06415973631465989;-0.2653362206378939;0.43799999999999994;0.00157461254688757
56:39.7;-0.10439286431866217;0.1075981060699899;-0.37501187573836536;0.43799999999999994;0.0042123113268942676
56:39.7;-0.1211749990135505;0.15299760243027372;-0.49683105832551805;0.573;0.009210991617285657
56:39.7;-0.14321925057944834;0.19855202309082473;-0.6219591929961653;0.701;0.01768632514449914
56:39.7;-0.17063362775857063;0.24224791602845125;-0.7422155117282673;0.821;0.030679953736207584
56:39.7;-0.2030384239627735;0.2818812069457221;-0.8506227810705761;0.9590000000000001;0.04868345205468056
56:39.7;-0.23937720190880243;0.3151494880867391;-0.9418985721905153;1.115;0.07105645401436146
56:39.7;-0.2778072305427197;0.33983194788698856;-1.0128710149226254;1.274;0.09562289613840974
56:39.7;-0.3157133058435585;0.3540420260991796;-1.0627897915535005;1.396;0.1187941562980169
56:39.8;-0.3498654840313713;0.3565146167131636;-1.0934881232785925;1.598;0.1363931343924545
56:39.8;-0.37670405496786036;0.3468739645991285;-1.1093392367735158;1.598;0.14495605906320044
56:39.8;-0.39269984027869553;0.32582059332932944;-1.1169481005759938;1.598;0.14291316875478
56:39.8;-0.39473035209598145;0.29518078773646256;-1.1245334860804346;1.494;0.1310270615929251
56:39.8;-0.38043286403293236;0.2577823575870739;-1.1409916089945007;1.304;0.11189576986125137
56:39.8;-0.34851006899777004;0.2171485958883373;-1.174690134765798;1.085;0.08889875463208823
56:39.8;-0.2989532498715551;0.1770323766779683;-1.232114734563067;0.8540000000000001;0.06520893840573593
56:39.8;-0.2331312843250613;0.1408445083691884;-1.316564632930309;0.6579999999999999;0.04322974351183998
56:39.8;-0.15369701319577445;0.11106429977582859;-1.4271443830163266;0.638;0.024361713042867272
56:39.8;-0.0642934960764473;0.08874822974682446;-1.5583002904276555;0.88;0.008891558548617088
56:39.9;0.030903707665625113;0.0732585135383876;-1.7000726453289352;1.815;0.0038488959329906836
56:39.9;0.1277144365169989;0.062294926108693714;-1.8390659026861407;1.815;0.014631537307785736
56:39.9;0.22243308024623795;0.05223184836382362;-1.9599497037020426;1.815;0.0227708738533361
56:39.9;0.3121748592603751;0.03868983386670408;-2.0472373272536726;2.266;0.024726519013085625
56:39.9;0.39507114145007605;0.017245796403222408;-2.087159350235226;2.823;0.014220477176966177
56:39.9;0.47033098577671484;-0.01582309343689111;-2.0694864406583786;3.165;0.015401306692391658
56:39.9;0.5381788030392809;-0.06288509522863893;-1.9890684086711707;3.187;0.06731688806400064
56:39.9;0.5996707330262915;-0.12450941806024625;-1.8467747587294183;2.839;0.13788879837067558
56:39.9;0.6564080533578815;-0.19930825846702915;-1.6495783046356833;2.235;0.21581028146185638
56:39.9;0.7101895251561524;-0.2840821440783643;-1.4097071777452947;1.6280000000000001;0.2844114723185171
56:40.0;0.7626595407354645;-0.374232038920557;-1.143017309778033;0.9129999999999999;0.3262304391389229
56:40.0;0.8150077882126825;-0.46435120380744166;-0.8669433592699667;1.042;0.3280945821666753
56:40.0;0.8677550736895354;-0.548864299194085;-0.5985058833109037;1.042;0.2850562506670672
56:40.0;0.9206323830180843;-0.6225797159824477;-0.35278712261868056;1.042;0.20220595348276624
56:40.0;0.97255149140857;-0.6810849897802266;-0.14203987743319121;1.166;0.09408582602916622
56:40.0;1.0216730338321265;-0.7209923454194453;0.024655310262479718;1.287;0.018161556107187993
56:40.0;1.065571700440195;-0.7400721948206473;0.1413706153878477;1.3780000000000001;0.11148486546884942
56:40.0;1.1014708442983414;-0.7373023299842454;0.20511512896442752;1.439;0.1665774872732269
56:40.0;1.1264961142083056;-0.7128454187392171;0.21553242412764934;1.475;0.17307632870389872
56:40.0;1.1378970639448094;-0.6679602617663803;0.1745653454793959;1.4769999999999999;0.13268188575128875
56:40.1;1.1332030535398139;-0.6048510175152735;0.08610119577854791;1.128;0.05901539723006647
56:40.1;1.1103124712270787;-0.5264703293034237;-0.044392186748905445;1.128;0.025949300603487567
56:40.1;1.0675549178130133;-0.43631510674521334;-0.21019662687527607;1.128;0.09790755786229147
56:40.1;1.0037825916185685;-0.3382538162300437;-0.4035929676765132;1.128;0.1370332490563688
56:40.1;0.9185194302534998;-0.23638301376722085;-0.6160476122188326;1.074;0.13375773061307672
56:40.1;0.8121540258535833;-0.13486989763200408;-0.8384261107819512;1.146;0.09183711331514466
56:40.1;0.6861405108756093;-0.03774232772860597;-1.0613221706415568;1.338;0.027484572076045495
56:40.1;0.5431659471726762;0.05137165545123101;-1.2755249406128115;1.607;0.035591398304212464
56:40.1;0.38723647126582417;0.1295084576539783;-1.4725750379621454;1.9180000000000001;0.07385022444630858
56:40.1;0.22363146079056637;0.19455680145409285;-1.6453091200847234;2.1319999999999997;0.07158579023516577
56:40.2;0.05868892999830727;0.24528113629006398;-1.7882706639643393;1.9869999999999999;0.02574267022405317
56:40.2;-0.10057670356939344;0.2811497681606238;-1.8978878355343474;1.9869999999999999;0.05366679617121198
56:40.2;-0.2469803912433005;0.3020460207629575;-1.9723921678519662;1.9869999999999999;0.1471393598242131
56:40.2;-0.3737492528670592;0.3080115992094216;-2.011534643992657;1.8659999999999999;0.2315660680516573
56:40.2;-0.4751679138044167;0.2991413892993478;-2.0162057616110878;1.903;0.2865883054571735
56:40.2;-0.5472571032253992;0.2756627031924402;-1.9880830247804357;2.052;0.2999189693470059
56:40.2;-0.5883721678173355;0.23815894205558188;-1.9294186981902772;2.2430000000000003;0.2703619039816257
56:40.2;-0.5995449932038182;0.1878532171139413;-1.8430238798720142;2.34;0.20757324750400674
56:40.2;-0.584425911924464;0.12684358371460383;-1.7324037286675997;2.296;0.12842426138927757
56:40.2;-0.5487939968056096;0.05818628713725333;-1.601900443775707;2.145;0.05115234163615066
56:40.3;-0.4997321533283503;-0.014229855897590007;-1.4566706099930107;1.1640000000000001;0.01035855445240094
56:40.3;-0.4446544088802935;-0.085994204037013;-1.3024101067944005;1.1640000000000001;0.04980116949747596
56:40.3;-0.3903951974448818;-0.15257453476082988;-1.144901503381118;1.1640000000000001;0.06819533174973265
56:40.3;-0.3425175717018727;-0.20970153251934365;-0.9895462907299216;0.887;0.0710756067730769
56:40.3;-0.3049048262701642;-0.25368372140683143;-0.8409893496223751;0.715;0.06505001403339956
56:40.3;-0.27962834198281195;-0.2816472223202236;-0.7028648470170084;0.645;0.055355207516337206
56:40.3;-0.2670554001003691;-0.29170274698101867;-0.5776837226494091;0.616;0.045002020562843276
56:40.3;-0.26614876288759887;-0.2830358177882336;-0.46688749433130144;0.64;0.035170463486914744
56:40.3;-0.2748948045490664;-0.2559201197449906;-0.37105943428212224;0.662;0.026104443559158898
56:40.3;-0.2907833079392106;-0.21166305559791793;-0.29023756643137716;0.6920000000000001;0.017863565966381577
56:40.4;-0.31125857572878013;-0.1524984665004371;-0.22424772389945383;0.613;0.010644244603805494
56:40.4;-0.33407144365572405;-0.08144593641937375;-0.17298118933340206;0.507;0.004706603934853425
56:40.4;-0.35748651669092024;-0.0021606295144924086;-0.13657712656429313;0.507;0.0001054916151863899
56:40.4;-0.38033433453081616;0.08120743369786251;-0.11550922929148427;0.507;0.003567615197555285
56:40.4;-0.4019291520799379;0.16414913845121062;-0.11058996828049922;0.41;0.007296319582001239
56:40.4;-0.42189027654931704;0.24195817030184572;-0.12290329695596028;0.36700000000000005;0.012545943896652324
56:40.4;-0.43991757540100274;0.30995306273650425;-0.15368728239935803;0.39799999999999996;0.02095584494333569
56:40.4;-0.4555852335619457;0.36377079604789725;-0.20420765558610052;0.527;0.03384304949862752
56:40.4;-0.46821907802573903;0.39971547584766504;-0.2756601991069142;0.7;0.05159102235822987
56:40.4;-0.4769009586673537;0.4151231215240047;-0.36910722542319463;0.88;0.07307312249208318
56:40.5;-0.4806036175784746;0.408686370095532;-0.48541295690478525;1.21;0.09534294314711618
56:40.5;-0.47841173640526985;0.3806753735895358;-0.625111097317569;1.21;0.11384496204887253
56:40.5;-0.46974536745754375;0.33299671700572125;-0.7881292228463745;1.21;0.12328206168255895
56:40.5;-0.45449501990872127;0.26904607174673034;-0.9733337452385369;1.091;0.11901934744310566
56:40.5;-0.43300998371939564;0.19333346306560395;-1.1779455962886722;0.9179999999999999;0.09861209217597755
56:40.5;-0.4059306397954586;0.11090528984076921;-1.3969652652913556;0.878;0.06289117404912889
56:40.5;-0.37390398123965424;0.026652632229582834;-1.622793859900177;1.091;0.016171993269398003
56:40.5;-0.33726769120202804;-0.055349955157745254;-1.8452292650689184;1.514;0.03444628153618133
56:40.5;-0.29581910994542676;-0.1323174835665635;-2.051949790510674;1.891;0.08031750122729005
56:40.5;-0.24877449237861096;-0.20292116829863227;-2.2294888291212693;2.228;0.1125481869898295
56:40.6;-0.19495931739356018;-0.2671211726390208;-2.364589913263337;3.032;0.12314254949874487
56:40.6;-0.13318001598370524;-0.3257476907476159;-2.4457320205556385;3.032;0.10610339441300755
56:40.6;-0.06266489652801142;-0.3799791669350533;-2.464547881127847;3.032;0.0586842249526574
56:40.6;0.016546043297705832;-0.43086044505799237;-2.416874661151102;3.032;0.01722998544980915
56:40.6;0.10335756612954257;-0.47895799538960226;-2.3032831699713374;2.801;0.11402157499327796
56:40.6;0.19558260656573925;-0.5242004751726623;-2.129047668060107;2.427;0.21827953763168867
56:40.6;0.290125849984;-0.5659027392128494;-1.9035965144269242;2.057;0.31253821169827367
56:40.6;0.3833417479932135;-0.6029241119088415;-1.6395502227244372;1.72;0.37894265684995115
56:40.6;0.47147741646416097;-0.6338892906101637;-1.351510566575395;1.459;0.4039185095342987
56:40.6;0.5511014845509469;-0.6574091586297164;-1.0547830094086217;1.28;0.3821470017488324
56:40.7;0.619439265555368;-0.6722629261011948;-0.7641944046017701;1.031;0.3182304597890691
56:40.7;0.6745688796266511;-0.6775289266487959;-0.493136960127767;1.031;0.22538328122637954
56:40.7;0.7154709104270351;-0.6726731824368941;-0.25293355924449923;1.031;0.1217313813670794
56:40.7;0.7419547853486632;-0.6576147359115978;-0.052547288598254895;1.0070000000000001;0.025638894083620516
56:40.7;0.7545003424248973;-0.6327814535881944;0.10144323178946794;0.995;0.04843243001255771
56:40.7;0.754053476490365;-0.599157675551034;0.2047380070883649;0.98;0.09250000269141352
56:40.7;0.7418077143239191;-0.5583149077003592;0.2551914086139191;0.97;0.10569066214915784
56:40.7;0.718996024990236;-0.5124104063663758;0.25272118963735424;0.965;0.09310780486602924
56:40.7;0.6867111805795926;-0.4641344037246996;0.19924744171379055;0.9309999999999999;0.06350539675957391
56:40.7;0.6457675852918591;-0.41658500938062315;0.09861713718843769;0.8540000000000001;0.026529695820503886
56:40.8;0.5966141054077937;-0.37305496611689404;-0.043549642692489815;0.562;0.009692837654045999
56:40.8;0.539311047268237;-0.3367351138915566;-0.22013159953238057;0.626;0.03997699185219107
56:40.8;0.4735926718693158;-0.3103741752983603;-0.42286672214085114;0.626;0.06215757485044082
56:40.8;0.399032750337107;-0.2959578840765144;-0.6427223166481784;0.626;0.07590350574445322
56:40.8;0.3153049803511386;-0.2944600192058518;-0.870233266987255;0.97;0.0807965558017276
56:40.8;0.2224997083370082;-0.3056913640973611;-1.095841006768843;1.258;0.07453498420900845
56:40.8;0.12144410948830055;-0.32826312371474403;-1.3102667880285295;1.4680000000000002;0.05223460145687046
56:40.8;0.013971782624378641;-0.359687952140192;-1.504889526956619;1.604;0.007562795048987829
56:40.8;-0.09691416483329199;-0.3966375240511353;-1.6720720753191987;1.57;0.06427410677210425
56:40.8;-0.20704725447069522;-0.43534497279496676;-1.8054307136485892;1.551;0.16273607459161182
56:40.9;-0.31133459786663953;-0.47209113751312076;-1.9001154555902702;2.458;0.27927574792959625
56:40.9;-0.4042430334348029;-0.5036712786270783;-1.9531653448678843;2.458;0.3976754127346069
56:40.9;-0.4804642354960314;-0.5277327889399828;-1.9638885192598772;2.458;0.49795715296100884
56:40.9;-0.5356309857478131;-0.542913224507616;-1.9341055354396497;2.648;0.5624401054530063
56:40.9;-0.566971323209235;-0.548776158828159;-1.868101183702898;2.4130000000000003;0.5812416466362091
56:40.9;-0.5738013613855251;-0.5456105595346942;-1.7722177967266266;1.959;0.5548319151080855
56:40.9;-0.5577389516711674;-0.5341904925662018;-1.6541330966849759;1.5959999999999999;0.492830504826257
56:40.9;-0.5225428673701291;-0.5155688321380717;-1.5219861035136284;1.444;0.41003342994918607
56:40.9;-0.47358093159728126;-0.490929241427956;-1.383574520827132;1.359;0.32167378120090195
56:40.9;-0.4170524018705594;-0.4614840297513935;-1.245779010195153;1.198;0.23976639433287306
56:41.0;-0.35916553659959993;-0.4283956401526084;-1.1142406850041437;1.021;0.17144258725530923
56:41.0;-0.30545651406052277;-0.3927132477482855;-0.9932436764665002;1.021;0.11914635259875254
56:41.0;-0.26034225923356646;-0.3553353857679528;-0.8857510312247743;1.021;0.08193978015828825
56:41.0;-0.22689885295373782;-0.3170104272982195;-0.7935480277645899;0.897;0.05707935600113737
56:41.0;-0.20680836059193938;-0.2783700046846729;-0.7174384192996314;0.7929999999999999;0.04130238763575041
56:41.0;-0.20041396110412837;-0.23997914042215512;-0.6574456050075729;0.723;0.03161995821378279
56:41.0;-0.20683634924675842;-0.2023910149048204;-0.6129993124282463;0.6920000000000001;0.025661266045313907
56:41.0;-0.2241234703350587;-0.16620368405967578;-0.5831082701148678;0.695;0.02172086846027439
56:41.0;-0.24942775209486454;-0.13211912917695065;-0.5665150369614996;0.695;0.018669037027421686
56:41.0;-0.2792214493179204;-0.10099961532752401;-0.5618156660604743;0.7040000000000001;0.015843909093268733
56:41.1;-0.30956264005234757;-0.07390919311955578;-0.5675232080561522;0.664;0.012984661396284354
56:41.1;-0.3364073163469429;-0.05212788007385042;-0.582069345737499;0.664;0.010207284601873338
56:41.1;-0.3559370912933525;-0.037132121760929504;-0.6037673008752223;0.664;0.007979810931148166
56:41.1;-0.3648630984051052;-0.03053836626195912;-0.6307802397058483;0.664;0.007028357131546986
56:41.1;-0.3606839891181834;-0.03400367717750206;-0.6611376677547434;0.726;0.008108577092571236
56:41.1;-0.34189533109250386;-0.04907607086460821;-0.6928252252642122;0.8109999999999999;0.011624830967172364
56:41.1;-0.3081470560679368;-0.07699432125944229;-0.7239516138886667;0.867;0.017176167175115945
56:41.1;-0.26033227446708146;-0.11845042466589151;-0.7529730352016568;0.919;0.023219029254888234
56:41.1;-0.20058397909013834;-0.17334327009568176;-0.7789359737132835;0.975;0.02708351256479132
56:41.1;-0.132163929530954;-0.2405667070752253;-0.8016875538918173;1.045;0.025489047552786262
56:41.2;-0.05924496292488026;-0.31788389742690865;-0.8219962160668746;1.0859999999999999;0.015480670944876172
56:41.2;0.013394450665594505;-0.40193164038734613;-0.8415248185064786;1.0859999999999999;0.004530478058144345
56:41.2;0.08073603866632388;-0.4883745142560046;-0.862610174695535;1.0859999999999999;0.03401222203720728
56:41.2;0.1379306535773156;-0.572213045052282;-0.887830791404654;0.992;0.0700726838190025
56:41.2;0.18074631881713538;-0.6482435287547421;-0.9193925776279661;1.092;0.10772305075723038
56:41.2;0.20603023693486508;-0.711630023658501;-0.9584364911263749;1.18;0.14052337283564675
56:41.2;0.21210925190247268;-0.7584842716166288;-1.0044466456794263;1.175;0.16159691459903838
56:41.2;0.1990342474147153;-0.7863261962202162;-1.0549513876419805;1.253;0.16510605591690375
56:41.2;0.16861243634364706;-0.7943440353449556;-1.1056385093767649;1.396;0.14808511239213043
56:41.2;0.12422146181373679;-0.7834337870718938;-1.150893872360095;1.604;0.11200417482766518
56:41.3;0.07042532250242603;-0.7560282205159266;-1.1846674712344925;1.796;0.06307587952644365
56:41.3;0.01244225209361345;-0.7157476888476246;-1.2014822366841555;1.796;0.010699815894402736
56:41.3;-0.0444353511235155;-0.6669382788383098;-1.1973502033059955;1.796;0.035484235505590246
56:41.3;-0.09535206924025384;-0.6141758542410358;-1.1703907504441768;1.557;0.06854152163202361
56:41.3;-0.1362633927537559;-0.5617908775427201;-1.1210520324773658;1.2930000000000001;0.0858182494079263
56:41.3;-0.16416506877503573;-0.5134488527430673;-1.0519586140775228;1.131;0.08866997683206425
56:41.3;-0.17719504948673095;-0.47182735526925595;-0.9674912255040466;0.985;0.08088756014435806
56:41.3;-0.174628094954706;-0.4384343312077317;-0.8732284058706147;0.866;0.06685694454252365
56:41.3;-0.15678791376418644;-0.41359245759590896;-0.775355433517896;0.8170000000000001;0.05027892994370069
56:41.3;-0.12490645752330937;-0.39657983018810206;-0.6801037483458777;0.7909999999999999;0.033689198779429406
56:41.4;-0.08095628355792701;-0.38588486105952113;-0.5932499184657737;0.536;0.018533011313903888
56:41.4;-0.027473672050453667;-0.3795179793916696;-0.5196933825306643;0.536;0.005418714277124056
56:41.4;0.03261436580763408;-0.37533085636634633;-0.463146010175508;0.536;0.005669452680346655
56:41.4;0.09615314477290178;-0.3713140260218825;-0.42597074904211574;0.5760000000000001;0.015208438466644117
56:41.4;0.15992172093683596;-0.36585566291489535;-0.409177640152447;0.6629999999999999;0.023940274713695104
56:41.4;0.2208046339146533;-0.3579398683619188;-0.4125477970420824;0.74;0.03260562503759095
56:41.4;0.2759675655873796;-0.3472539807727224;-0.43483675434546554;0.764;0.04167076956825232
56:41.4;0.32300863815770353;-0.33417902343766465;-0.4740062775863487;0.747;0.051165522757628076
56:41.4;0.3600539094319945;-0.3196604050768657;-0.5274442169523348;0.728;0.06070618083040626
56:41.4;0.38578390398051354;-0.30498581794947444;-0.5921539081190188;0.705;0.06967201136509986
56:41.5;0.3994054825811352;-0.2915187016150244;-0.6649157838996345;0.853;0.07741891588893024
56:41.5;0.4006028205174156;-0.28044167875375314;-0.7424292971356428;0.853;0.08340875950356642
56:41.5;0.38950203624020774;-0.2725560622534889;-0.8214351798351862;0.853;0.08720449614380853
56:41.5;0.36666960110872776;-0.26816536696324406;-0.8988192351794729;0.925;0.08837917697468928
56:41.5;0.333144619628641;-0.2670497584667387;-0.9717179425861185;1.065;0.0864500433070126
56:41.5;0.29048373376699127;-0.2685215658136733;-1.0376541517584676;1.2690000000000001;0.08093821406228686
56:41.5;0.24077786160584594;-0.2715413692465608;-1.0947021515284325;1.382;0.07157288582039406
56:41.5;0.18659003804598975;-0.27486679977908407;-1.1416352374012955;1.354;0.05855151064186311
56:41.5;0.13077279715531104;-0.27720066388608605;-1.1779908051645211;1.271;0.04270252737585651
56:41.5;0.07616114418052453;-0.2773095896936495;-1.204018066470327;1.17;0.025429121202282585
56:41.6;0.025199419660738485;-0.2741085690457286;-1.220526128444006;1.26;0.008430633941506761
56:41.6;-0.020390829196190622;-0.2667334044709662;-1.2286830309442764;1.26;0.006682702925392069
56:41.6;-0.05980393348254353;-0.2546191957896044;-1.2298117456108744;1.26;0.0187266256287298
56:41.6;-0.09316346614100307;-0.23757423574883904;-1.225204639831987;1.26;0.02711774744586318
56:41.6;-0.12136949610718235;-0.2158230897734898;-1.2159613359946853;1.145;0.03185130424130242
56:41.6;-0.1458207544827828;-0.19000231581826732;-1.2028582589975674;1.033;0.033326728982404
56:41.6;-0.1680674524647922;-0.16111273697571957;-1.18627671454338;1.018;0.03212177223715578
56:41.6;-0.18946171926774566;-0.13045107668573683;-1.166231392582906;1.16;0.028823974803871017
56:41.6;-0.2108739217644926;-0.09954818311368227;-1.142524428546103;1.2919999999999998;0.023984005082904054
56:41.6;-0.23253239585934088;-0.0701214291214059;-1.1149961228279277;1.272;0.018180573645625437
56:41.7;-0.2540221260656644;-0.044019006385657616;-1.0837926070600419;1.213;0.012118753896185308
56:41.7;-0.2744378319512561;-0.023125329954243785;-1.0495688464458348;1.213;0.006661052385469701
56:41.7;-0.29263758353794234;-0.009219758975187505;-1.01358422299953;1.213;0.002734698872824059
56:41.7;-0.3075221804018724;-0.003806096491810509;-0.9776797843751901;1.163;0.001144334192668439
56:41.7;-0.31828772819344;-0.007934450906074806;-0.9441327832014316;1.068;0.00238434914135852
56:41.7;-0.32462678670166883;-0.02203569861545192;-0.9153921473958043;0.9520000000000001;0.006548146079915761
56:41.7;-0.32685670591078736;-0.04579873046099639;-0.8937285577018232;0.872;0.013378778834353742
56:41.7;-0.3259460680727619;-0.07813129641029808;-0.8808702711662378;0.794;0.02243276103334632
56:41.7;-0.3234142499356086;-0.1172412634732799;-0.8777148025892529;0.731;0.03328074689113472
56:41.7;-0.3211003322120337;-0.16085202699879644;-0.8841974010267699;0.768;0.04566847683859398
56:41.8;-0.3208303380865717;-0.2065266411107357;-0.89936173194087;1.161;0.05959171923298172
56:41.8;-0.3240455080637313;-0.25203169216806964;-0.921614765237915;1.161;0.07526803617130988
56:41.8;-0.33147357546875034;-0.29564746761890004;-0.9490750509235492;1.161;0.09300871262796363
56:41.8;-0.342916764185019;-0.3363478042152301;-0.9798963987837931;1.163;0.11302056535715346
56:41.8;-0.3571981871077839;-0.373823125057827;-1.0124930624998378;1.137;0.13519712799468173
56:41.8;-0.3722704539283163;-0.4083679522733572;-1.0456597591449168;1.168;0.158964671273461
56:41.8;-0.3854595752993868;-0.44067843284095914;-1.0786167532125577;1.274;0.18321785584463368
56:41.8;-0.3937979040365987;-0.4716100802051912;-1.111009113229407;1.379;0.20633556939065997
56:41.8;-0.3943940541922639;-0.5019377766959645;-1.1428641385692726;1.436;0.22624284168394515
56:41.8;-0.38479266144871893;-0.5321464846472459;-1.1744831616917806;1.435;0.24049429203177186
56:41.9;-0.36328567423970776;-0.5622717725746506;-1.2062404647080691;1.2590000000000001;0.2463930462778447
56:41.9;-0.3291469027321378;-0.5918039116508497;-1.2382974208712654;1.2590000000000001;0.24120848032404765
56:41.9;-0.28277170828067677;-0.61966199773764;-1.2702960823061082;1.2590000000000001;0.22258494009913335
56:41.9;-0.22570759993267744;-0.6442403602268989;-1.3011285508001493;1.26;0.18919703164287852
56:41.9;-0.16055680166516495;-0.6635360148631282;-1.3288620216165519;1.339;0.14157060826915904
56:41.9;-0.09073049065740203;-0.6753751629114682;-1.350854417158904;1.43;0.08277646809955175
56:41.9;-0.020051373383401013;-0.67775094883884;-1.3640471272171562;1.7269999999999999;0.018537178577685526
56:41.9;0.04775619795555109;-0.6692477808455084;-1.3653752091775155;1.915;0.04363838773113168
56:41.9;0.10958765456504135;-0.6494603766095018;-1.3522030551289688;1.8330000000000002;0.09624013088640676
56:41.9;0.1633472607726906;-0.6192612914845363;-1.3226967504025766;1.868;0.13379690788431248
56:42.0;0.20809055950979782;-0.5807940095295383;-1.276078502056807;1.31;0.15422397709613975
56:42.0;0.24390924720699425;-0.5371836948118528;-1.2127467038269264;1.31;0.15889900975842458
56:42.0;0.2716491691406151;-0.4920881473459705;-1.1342784611107126;1.31;0.15162505482676203
56:42.0;0.29258208386615836;-0.449251890140587;-1.043347783940752;1.31;0.13714081931203706
56:42.0;0.308118306772916;-0.4121603181687831;-0.9435703797480546;1.081;0.1198279082952308
56:42.0;0.3196014028095244;-0.3838055828285935;-0.8392549897039946;0.934;0.10294704770868962
56:42.0;0.32819282058047644;-0.36653667999835565;-0.7350557908794604;0.8170000000000001;0.08842332088581478
56:42.0;0.33483105125112284;-0.3619577324319552;-0.6355706958124129;0.6829999999999999;0.07702779221821354
56:42.0;0.34023371077630865;-0.37083872346671715;-0.5449657819918178;0.647;0.06875933271774179
56:42.0;0.3449014049934329;-0.39302431198948334;-0.46670264311502707;0.627;0.0632637075618959
56:42.1;0.3490853220182976;-0.42736880962884494;-0.4034059756039789;0.603;0.0601834027084195
56:42.1;0.3527099706438068;-0.4717482650672215;-0.35685360683520073;0.603;0.05937698466509911
56:42.1;0.3552889656131055;-0.5231764296034317;-0.3280371072910261;0.603;0.060975147961474484
56:42.1;0.35589591809501675;-0.5780176025546218;-0.31724255042400573;0.603;0.06526126743506694
56:42.1;0.35323569529666016;-0.6322903971373052;-0.32411693040366535;0.779;0.07239071844993522
56:42.1;0.3458238231124719;-0.6820667133617825;-0.34770390316815164;0.96;0.08201462979846012
56:42.1;0.33224150925126145;-0.7239403364025343;-0.38646196345007394;1.193;0.0929530024188073
56:42.1;0.31139576209711295;-0.7554789122034555;-0.438315325864068;1.275;0.10311496538082078
56:42.1;0.28269700143071336;-0.7755345661425803;-0.500802647482121;1.229;0.10979662165168413
56:42.1;0.24609582094164206;-0.7843115935354382;-0.5713467925199275;1.258;0.11027896136959134
56:42.2;0.20199216328499223;-0.783174728124506;-0.64757446962233;1.107;0.10244314525633119
56:42.2;0.15109934116824164;-0.7742787526228249;-0.7275434485974143;1.107;0.08511749752203115
56:42.2;0.09436261252413888;-0.7601386981796844;-0.8097680145057989;1.107;0.05808358547539908
56:42.2;0.032990192468282546;-0.7432244348472482;-0.89303937001328;1.1159999999999999;0.021896536935365845
56:42.2;-0.0314127444534019;-0.7256100025443276;-0.976116200821517;0.9359999999999999;0.022249008556760177
56:42.2;-0.09667942926039048;-0.7086939958592309;-1.0573872204498092;0.748;0.0724480813562928
56:42.2;-0.16000394666109538;-0.6930417824427323;-1.134622746015011;1.033;0.12581765866904487
56:42.2;-0.21806979311233324;-0.6784271909647219;-1.204925203228461;1.7069999999999999;0.1782620292271675
