Time;AccX;AccY;AccZ;Acc-old;Acc-trns
12:42.1;-0.08719714574747531;0.075977642711775;-0.7352025866919681;0.732;0.004870741828678044
12:42.1;-0.11988726953590559;-0.007234315812006053;-0.7874257736005843;0.5870000000000001;0.0006829362393765891
12:42.1;-0.1513466666340028;-0.08738417548440429;-0.8397633979806651;0.5670000000000001;0.011106125954389196
12:42.1;-0.1802589533405054;-0.16172163806424505;-0.8914021083711725;0.715;0.025985952102128063
12:42.1;-0.2050638412050005;-0.22815754912990774;-0.9409419362395091;0.925;0.044023721861220146
12:42.2;-0.22402108944644225;-0.2854674419381865;-0.9864499202670688;1.236;0.06308418988998488
12:42.2;-0.2353781778221924;-0.3334153331282168;-1.0256795914656807;1.236;0.08049399435932914
12:42.2;-0.23760404937912435;-0.37274612692882403;-1.0563700214319034;1.236;0.09355845585512212
12:42.2;-0.22962992864413906;-0.40501473018820866;-1.076539412663365;1.2819999999999998;0.10012193713358264
12:42.2;-0.21104894456182738;-0.43225996667925926;-1.0847291664368246;1.2670000000000001;0.09895768296528698
12:42.2;-0.18224171545172488;-0.45657341068212615;-1.080186998767879;1.202;0.089878818874161
12:42.2;-0.14439906430984825;-0.47964508493538627;-1.062986231740771;1.167;0.07362274686402831
12:42.2;-0.09942139522021058;-0.5023811616365225;-1.034080557180321;1.189;0.05164967247162003
12:42.2;-0.04969877675181318;-0.5246750545419494;-0.9952930804469825;1.194;0.02595297214118524
12:42.2;0.002192359208715867;-0.5453764250080211;-0.9492271699221078;1.158;0.0011349539333986502
12:42.3;0.0538154491287407;-0.5624588853053807;-0.8990791499563817;1.01;0.027214206586965915
12:42.3;0.10315462865526845;-0.57334664292735;-0.8483570098602623;1.01;0.050174684078248426
12:42.3;0.14879409651808306;-0.575328566442963;-0.8005568739304749;1.01;0.0685320668639901
12:42.3;0.1899700945516055;-0.5659820609747946;-0.7588676716806537;1.01;0.08159319832251122
12:42.3;0.2265052972622902;-0.5435544810193248;-0.7259406018908401;0.941;0.08937633273833215
12:42.3;0.2586601590418481;-0.5072791609574524;-0.7037197610893455;0.883;0.09233711658758806
12:42.3;0.28694482044792924;-0.45761150016695495;-0.6933284446478845;0.888;0.09104043789726611
12:42.3;0.31193403092459404;-0.3963630755259878;-0.6950253695687705;0.914;0.08593233331310943
12:42.3;0.3341189051347194;-0.32670297972462226;-0.7082474618745837;0.932;0.07731062281269478
12:42.3;0.3538149937020731;-0.25299390087185564;-0.7317338868235456;0.91;0.06549972134654741
12:42.4;0.3711317007353998;-0.18044627695444698;-0.7637014235993796;0.9359999999999999;0.05114457545171543
12:42.4;0.3859950698890954;-0.11462015634244699;-0.8020312575932734;0.9359999999999999;0.035484120760922305
12:42.4;0.39820337051232507;-0.060864758299079336;-0.8444328198741206;0.9359999999999999;0.020466139865036547
12:42.4;0.4074908948406735;-0.023802435209831444;-0.888568558901363;0.9359999999999999;0.00861847136275299
12:42.4;0.41358600064138;-0.006914415179398767;-0.9321482110947353;1.018;0.0026656691990619374
12:42.4;0.4162629931888293;-0.012231412119005407;-0.9730157703463143;1.095;0.004954094440123959
12:42.4;0.4153914456280282;-0.04012991470488373;-1.009245081725462;1.1320000000000001;0.01682373531176764
12:42.4;0.4109833499423699;-0.08926375673004937;-1.0392408666895392;1.175;0.038125504977927174
12:42.4;0.4032326306498605;-0.15666869095284494;-1.0618302976955631;1.186;0.06707999119254689
12:42.4;0.39253401754291994;-0.23805157167384075;-1.076331722775263;1.189;0.10057603092122816
12:42.5;0.379465876565139;-0.3282380472800117;-1.0825939296816098;1.3559999999999999;0.13484263667010968
12:42.5;0.3647314372116709;-0.4217132527986983;-1.0810024367548134;1.3559999999999999;0.16627123413034883
12:42.5;0.3490673727652909;-0.5131519064427016;-1.0724457367751605;1.3559999999999999;0.19210140055000194
12:42.5;0.3331334248281805;-0.5978346554872623;-1.0582301099609224;1.3559999999999999;0.21075573962884264
12:42.5;0.31739353900497297;-0.6719030408135522;-1.039936245917158;1.2890000000000001;0.22177439530364484
12:42.5;0.3020038204170354;-0.7324623562531887;-1.0192280201583788;1.197;0.2254597915934092
12:42.5;0.2867373844620576;-0.777563023914216;-0.9976463204749255;1.18;0.22243161984678225
12:42.5;0.2709820994807368;-0.8061015175044656;-0.9764328129876225;1.192;0.21329108692090104
12:42.5;0.2538317615994157;-0.8176933395128864;-0.9564193806487298;1.182;0.19851109821746757
12:42.5;0.23426390824552673;-0.812563074139226;-0.938000315730121;1.193;0.17855230105489084
12:42.6;0.21137404416086739;-0.7914678183597532;-0.9211929956764457;1.328;0.1541116764134099
12:42.6;0.18461982241219044;-0.7556439152939285;-0.9057785775909233;1.328;0.12636231203446424
12:42.6;0.15401674201443588;-0.7067588413142423;-0.891482151500952;1.328;0.09704023395890052
12:42.6;0.12022657952301906;-0.6468533235933744;-0.8781255601484506;1.1540000000000001;0.06829091380026567
12:42.6;0.08450397513001189;-0.578266309773636;-0.8656985189104675;1.016;0.042303052295258464
12:42.6;0.048513052927248;-0.503550784125071;-0.8543354593422058;0.972;0.020870377973340935
12:42.6;0.014069461011325333;-0.425399647022588;-0.8442249395696563;0.8909999999999999;0.005052807618984395
12:42.6;-0.017123347378247583;-0.3465891418161997;-0.8354981602671263;0.87;0.0049584863025794795
12:42.6;-0.04369074579009395;-0.2699245761055002;-0.8281415532994159;0.8440000000000001;0.009766443965964147
12:42.6;-0.06472677316741145;-0.19816492523252757;-0.8219625558418139;0.8109999999999999;0.010542965327499154
12:42.7;-0.07984586087533573;-0.13391338703489547;-0.8166177169747566;0.848;0.008731627506464012
12:42.7;-0.08915251718435578;-0.07948190078184009;-0.8116942217456931;0.848;0.005751674610307982
12:42.7;-0.09315151899058324;-0.036757772792144684;-0.8068214221106106;0.848;0.0027625907345716332
12:42.7;-0.09262799802999015;-0.007101175805626111;-0.8017831929398244;0.8240000000000001;0.00052738708554339
12:42.7;-0.08852143920913647;0.00871854137028365;-0.7966100454590428;0.8079999999999999;0.0006148059721624383
12:42.7;-0.08180917393063745;0.010556603033299774;-0.7916449972919112;0.8240000000000001;0.0006836859732305589
12:42.7;-0.07340967993368223;-0.0010952791512831065;-0.7875851220136357;0.8809999999999999;6.332506655602073e-05
12:42.7;-0.06411141701991782;-0.02511673264914493;-0.7854940720183053;0.917;0.001264857006035451
12:42.7;-0.054528092930016384;-0.05978842019857269;-0.78676443434715;0.927;0.0025649689162383664
12:42.7;-0.04507847671586756;-0.10285264011087206;-0.7929971591792006;0.9009999999999999;0.003676684020229777
12:42.8;-0.03598741490392057;-0.15161971050900638;-0.8057741220797033;0.7;0.004396627071730907
12:42.8;-0.02730244282545122;-0.2031276659385026;-0.8263363452110993;0.7;0.004582763437746035
12:42.8;-0.01891827500303901;-0.2543446408958175;-0.8552305014049395;0.7;0.004115165509893346
12:42.8;-0.010601829952793783;-0.30239617030946603;-0.892013731525755;0.7609999999999999;0.002859753898812461
12:42.8;-0.002014622791275627;-0.34480766216905345;-0.935094060089055;0.763;0.0006495699849839837
12:42.8;0.007265272249760429;-0.37975113111498854;-0.9817566895314528;0.927;0.0027086621458677
12:42.8;0.017721187966200872;-0.4062660643819843;-1.0284031208787772;1.3030000000000002;0.00740400605109266
12:42.8;0.029882524530123765;-0.42440043458205323;-1.0709885252710687;1.4180000000000001;0.013582443976873002
12:42.8;0.04431678173947344;-0.4352012622543203;-1.1055805014442692;1.3090000000000002;0.02132302085247429
12:42.8;0.06161042200009315;-0.44050149887481643;-1.1289274505700704;1.435;0.030638507620931826
12:42.9;0.08232063604008666;-0.44252623577400935;-1.1389394433788753;1.4480000000000002;0.04149047189957083
12:42.9;0.10690527882488622;-0.44343197192119266;-1.1350088136147085;1.4480000000000002;0.05380534092018019
12:42.9;0.13564860425713518;-0.44491472678608857;-1.1181092225745837;1.4480000000000002;0.06748019679037143
12:42.9;0.1685862643913226;-0.4479672781026369;-1.090631247038247;1.3259999999999998;0.08236570417313882
12:42.9;0.20542401891182185;-0.4527947037163694;-1.0559506419136155;1.114;0.09821915157719766
12:42.9;0.24544847060635225;-0.4588478229032012;-1.0177812461774136;0.9009999999999999;0.11462608248700815
12:42.9;0.2874358385252151;-0.46491245901756106;-0.9794326770391224;0.685;0.13088403966157477
12:42.9;0.32958158450982683;-0.46921369467149376;-0.943143585955957;0.488;0.14585167869889903
12:42.9;0.36949870963585035;-0.46955067485144425;-0.9096619166502561;0.743;0.1578248583947026
12:42.9;0.40434249158823293;-0.46351223054966856;-0.8781855444864989;1.138;0.16458750629894525
12:43.0;0.4310881879744061;-0.44879209644989804;-0.8466657233681602;1.3159999999999998;0.16380354681933681
12:43.0;0.4469163116161452;-0.4235522688215542;-0.8123561313817613;1.3159999999999998;0.153772856190097
12:43.0;0.4495922491855716;-0.3867348474892389;-0.7724425755476795;1.3159999999999998;0.13430690015285024
12:43.0;0.4377204827870257;-0.3382253614866337;-0.7246291559466633;1.1520000000000001;0.10728001939463724
12:43.0;0.41081703807231357;-0.2788208639057604;-0.6676139730428378;0.872;0.07647141624565332
12:43.0;0.3692333756676043;-0.21003567588705452;-0.6014164441808671;0.737;0.046641157307409316
12:43.0;0.3140275816691028;-0.13384161832643726;-0.5275411276764183;0.6920000000000001;0.022172532352016296
12:43.0;0.24687597310102405;-0.052436386745614065;-0.4489904771987189;0.7140000000000001;0.005812309242305479
12:43.0;0.1700534133774049;0.03193186859429251;-0.37014603412119584;0.637;0.002009938585768729
12:43.0;0.0864376790485531;0.11712295542001648;-0.29651614251025904;0.617;0.0030018809255730953
12:43.1;-0.0005351097159248669;0.20130181702549577;-0.23433001249634042;0.637;2.5241691071207967e-05
12:43.1;-0.08701007600232202;0.28317498310679134;-0.18998265458061636;0.637;0.0046809972172744945
12:43.1;-0.16894247806540097;0.3621686865536537;-0.16939971906574977;0.637;0.010364836220908894
12:43.1;-0.2423859591012579;0.4384073503702942;-0.1774327360578523;0.578;0.01885467431097634
12:43.1;-0.30382924191714145;0.5124251330162922;-0.21737105916084506;0.359;0.033842443619854425
12:43.1;-0.3505834989360079;0.5846795833994645;-0.290608363953731;0.721;0.05956861593379576
12:43.1;-0.38118452287862853;0.6550430615543663;-0.39647891930035434;0.9259999999999999;0.0989977240964376
12:43.1;-0.395704720934455;0.7224623558007328;-0.5322721558779868;1.135;0.15216690332302132
12:43.1;-0.39583482430347955;0.7848827311794299;-0.6934159560343148;1.209;0.21543318602115935
12:43.1;-0.38463656820334075;0.8394069486180049;-0.8737976733166581;0.975;0.2821200908991494
12:43.2;-0.365973627429015;0.8826121087231257;-1.0661879015945117;1.7819999999999998;0.34439229148667805
12:43.2;-0.34375768246673133;0.9109681308485189;-1.262721748201878;1.7819999999999998;0.3954242114531794
12:43.2;-0.32123420426671445;0.9213019091017335;-1.455355004146732;1.7819999999999998;0.43071767742051364
12:43.2;-0.30051301870324865;0.9112266546965806;-1.6362091904790381;1.99;0.4480521171530151
12:43.2;-0.28243597453456987;0.8794668167342038;-1.7977899973161877;1.999;0.4465585720735372
12:43.2;-0.26675019236424385;0.8260515503533378;-1.9331338781272818;2.104;0.42596490941813364
12:43.2;-0.25247767403321975;0.7523794676923536;-2.035948007987252;2.168;0.38674668428270925
12:43.2;-0.23834917798272687;0.6611649414280878;-2.100788827415604;2.269;0.3310593624604697
12:43.2;-0.22319096214204912;0.5562736474581276;-2.1232991904059246;2.326;0.2636187430633398
12:43.2;-0.20620160056924158;0.4424515822554527;-2.1004893668084943;2.29;0.19163651831571982
12:43.3;-0.18711394468769726;0.3249613138266092;-2.0310182504412793;1.8980000000000001;0.1234956449086276
12:43.3;-0.16627623844703454;0.20917472602470438;-1.9154403986195687;1.8980000000000001;0.06662052379073537
12:43.3;-0.14468408374858185;0.10021048781305338;-1.7564274239908448;1.8980000000000001;0.025466199907039983
12:43.3;-0.12396541080467187;0.0026925606728028188;-1.5589868834330032;1.848;0.0005203654857807546
12:43.3;-0.10629932029247985;-0.07936341314481216;-1.330648746998132;1.8119999999999998;0.011225721250898794
12:43.3;-0.09425352035231305;-0.14259164826074447;-1.0815141798369563;1.571;0.014535296228033078
12:43.3;-0.09054905120418161;-0.18431089149078286;-0.8240306191512885;1.124;0.013752392321711476
12:43.3;-0.09778940790349883;-0.20259039743286836;-0.5723966523169629;0.72;0.011339861703207044
12:43.3;-0.1182019164462055;-0.1963533878133505;-0.34159280836396205;0.495;0.007928145933292587
12:43.3;-0.15342332709722353;-0.16549966027361707;-0.14612257702148235;0.325;0.003710272658329647
12:43.4;-0.20433489319076298;-0.11101753681242622;0.00141268407356773;0.718;3.204639425826904e-05
12:43.4;-0.27093353255589736;-0.03506717698526781;0.09175494223937841;0.718;0.000871752157699041
12:43.4;-0.3522219579617808;0.05895360211762909;0.12024556225194054;0.718;0.002496869419561154
12:43.4;-0.4461157065782052;0.16634255083599392;0.08767641678521201;1.077;0.006506293693656194
12:43.4;-0.5493936736341799;0.2810504349274235;0.0005612561814838089;1.246;8.666206894597392e-05
12:43.4;-0.6577395853026056;0.3957606784712478;-0.12931561319037693;0.813;0.03366181939460294
12:43.4;-0.765918661306772;0.50223603339408;-0.28619327380867876;0.866;0.11009052481510148
12:43.4;-0.8681059754960756;0.5920362330291796;-0.4524395278635657;1.943;0.2325313820341681
12:43.4;-0.958334433500214;0.6575597233814575;-0.6111334936330867;2.852;0.38511318100608827
12:43.4;-1.0309778037341315;0.6931728944360553;-0.7485165688587745;3.157;0.5349242732992817
12:43.5;-1.081166148814465;0.6960930545812162;-0.8556609048939227;1.7530000000000001;0.6439637631167462
12:43.5;-1.1050747355548907;0.6667761765365995;-0.9289750512629718;1.7530000000000001;0.6845036608010957
12:43.5;-1.1001074965223874;0.6087747846754759;-0.9696171943289126;1.7530000000000001;0.6493698014505948
12:43.5;-1.0650468184890132;0.5281950857049079;-0.9822031790154444;1.3;0.552540849513442
12:43.5;-1.0002291145033073;0.43290157228667214;-0.9732187989901906;1.1179999999999999;0.42140447602310566
12:43.5;-0.9077582049677391;0.3315930298337962;-0.9494496609194751;1.12;0.2857903233378338
12:43.5;-0.791721411886304;0.2328939386984435;-0.9166873924477102;1.219;0.16902534636928704
12:43.5;-0.6583332902078957;0.14461551794304103;-0.8788942924320439;1.247;0.08367531545253264
12:43.5;-0.5159016188229848;0.07328634403620277;-0.8378696109462694;1.112;0.03167862965448691
12:43.5;-0.3745077914887277;0.02396614543269457;-0.7933454795852805;0.919;0.007120678854670815
12:43.6;-0.24534402060093768;0.00028894658181634943;-0.7434032150616792;0.7290000000000001;5.270083232484121e-05
12:43.6;-0.13975819103730286;0.004644352802073192;-0.685109051150705;0.7290000000000001;0.0004446949307303482
12:43.6;-0.06816897238941515;0.038389677977589125;-0.6152805163111853;0.7290000000000001;0.0016101798192771199
12:43.6;-0.03903564052135834;0.10199811651163097;-0.5313029318894671;0.706;0.002115415463154073
12:43.6;-0.057992848394341594;0.19509234334562456;-0.43192633749688303;0.721;0.004886797603648493
12:43.6;-0.12719634685409034;0.3163622131061174;-0.3179839609560872;0.743;0.012795712044131642
12:43.6;-0.24492943101031142;0.46339928098703503;-0.19297196142000667;0.7609999999999999;0.021902341206732994
12:43.6;-0.40554020386889145;0.6325074414180173;-0.0634065072281175;0.866;0.016264225424238457
12:43.6;-0.5997692802258202;0.8185715114307324;0.06116767946981479;1.047;0.030030519733848793
12:43.6;-0.8154951553247216;1.0150712211800874;0.16868620781782756;1.266;0.13963602440812192
12:43.7;-1.0388741678326179;1.2143020136277896;0.24576053362105252;2.394;0.310028631988793
12:43.7;-1.2557518210615206;1.4077912363331777;0.27960234932288114;2.394;0.4942912130909996
12:43.7;-1.4530968572334522;1.5868037066506802;0.260467136748492;2.394;0.6005797789155729
12:43.7;-1.6201781303068252;1.742808088606887;0.18418800264644283;4.821000000000001;0.5200842127569645
12:43.7;-1.74929466413575;1.8678812325672673;0.054190673235911875;4.374;0.17706665233116975
12:43.7;-1.8359991406199223;1.9551815699131971;-0.11784771566583989;3.217;0.4230393216364139
12:43.7;-1.8789190746850761;1.9996323241564666;-0.3133815006532235;4.183;1.1774204641305113
12:43.7;-1.8794121847963112;1.9987024156396371;-0.5101769233976449;3.622;1.916421286121089
12:43.7;-1.8412217800377164;1.9529105112319811;-0.6860908785181274;3.5869999999999997;2.4670053539200816
12:43.7;-1.7700971482103331;1.8657764061718836;-0.8222431821448749;3.267;2.715544852205301
12:43.8;-1.673262704984525;1.7432776234479326;-0.9050596449577063;2.334;2.6400240777745085
12:43.8;-1.5587070688987417;1.5930568466731942;-0.9272265010823987;2.334;2.3024044402671335
12:43.8;-1.434386389866614;1.4236145953575048;-0.8878091477510361;2.334;1.8129181763468858
12:43.8;-1.30747380236272;1.2436330754393228;-0.7917900288655626;1.9680000000000002;1.2874645746099243
12:43.8;-1.1837299147314593;1.0614627585559182;-0.649189339723279;1.6;0.8156968107827216
12:43.8;-1.06701972275851;0.8847250142239759;-0.47384931425554594;1.284;0.4473227744613984
12:43.8;-0.9590165706429714;0.719983060725232;-0.28193772838635317;1.005;0.19467114636546354
12:43.8;-0.8591545897480914;0.57246836845036;-0.09023234456695611;0.845;0.044379770440670416
12:43.8;-0.7648659758090153;0.445875453184577;0.08571060646848153;1.382;0.029230313556196135
12:43.8;-0.6720944928851619;0.3422507147407271;0.2332686582190899;2.309;0.05365758124987699
12:43.9;-0.5760472022000858;0.2620080944055066;0.3439380093073277;0.7909999999999999;0.051910230034109696
12:43.9;-0.47212022617213195;0.20409586958578788;0.41361747210799504;0.7909999999999999;0.039855264735827164
12:43.9;-0.3568896639672311;0.16629953947942677;0.4419965040208008;0.7909999999999999;0.02623275186070453
12:43.9;-0.22902071723368464;0.1456190238206765;0.43146148655223343;0.7340000000000001;0.014389142754826788
12:43.9;-0.08995453115708826;0.13864880217645392;0.3860102837204505;0.575;0.004814354225642446
12:43.9;0.05572376039230953;0.14191694342531672;0.3105034956827233;0.35;0.0024555069000667977
12:43.9;0.20028305030781426;0.15216900792860635;0.2104021991470749;0.6759999999999999;0.00641240111710797
12:43.9;0.33322266541933915;0.1666012529920968;0.09193395897513867;0.95;0.00510374256154439
12:43.9;0.4420179435442011;0.18305712432777452;-0.037600805520570005;0.6659999999999999;0.0030424516434288387
12:43.9;0.51319696227491;0.2001910891948717;-0.1697551451662889;0.74;0.01744021224098088
12:44.0;0.5336628554292545;0.21756666168542538;-0.2953107221102339;0.924;0.03428771463523623
12:44.0;0.49213716458866935;0.23562678130474632;-0.40504375704518714;0.924;0.046969155998668397
12:44.0;0.3805987261985945;0.2554990564615463;-0.49065467343731894;0.924;0.04771254372006176
12:44.0;0.19561282634222776;0.2786532688129333;-0.5456574154192951;1.127;0.029742778148265515
12:44.0;-0.0605562774525042;0.30645999507750177;-0.566129572646776;1.349;0.01050627591243343
12:44.0;-0.37919508035912974;0.3397070995134412;-0.5512632098149085;1.173;0.07101111419608849
12:44.0;-0.7449413906532497;0.37814862217064693;-0.503624279697764;0.708;0.14187023461031914
12:44.0;-1.1363218819581158;0.42019408950977705;-0.42904062313390573;0.68;0.20485648841143916
12:44.0;-1.5271422400251593;0.46286296404023713;-0.33612440282264566;1.383;0.23759208321159944
12:44.0;-1.8887221012625337;0.5020816235141833;-0.23547274830138906;2.266;0.22329707860146528
12:44.1;-2.192805156128589;0.5332825893300974;-0.1385254652916216;3.9930000000000003;0.16198957512583914
12:44.1;-2.41475703227361;0.5521492055921917;-0.0560733104325654;3.9930000000000003;0.07476289116839278
12:44.1;-2.536451094506857;0.5553195007181374;0.0033555687196310546;3.9930000000000003;0.004726455299137418
12:44.1;-2.54824146692034;0.5409230371664323;0.03479090528528676;3.6430000000000002;0.04795587129983354
12:44.1;-2.449710983828136;0.5089010937843835;0.03745683392233456;3.102;0.04669595901897157
12:44.1;-2.249241640026841;0.4610985140280157;0.014704078063469704;2.494;0.015249922524474532
12:44.1;-1.9626760253620499;0.40112743964050135;-0.02660698805951404;1.931;0.020947234938585687
12:44.1;-1.6114135124120255;0.3340311481075183;-0.07710230379546892;1.439;0.04150126381009923
12:44.1;-1.2202644633862305;0.26582158963300023;-0.12617044543760944;1.24;0.04092624040465464
12:44.1;-0.8152942034602941;0.20297835440857637;-0.16342841497275368;0.946;0.027045290492747297
12:44.2;-0.4217832128131899;0.15195976646335718;-0.18020160157308018;1.001;0.011549855600160431
12:44.2;-0.06240534546303937;0.11873426156363097;-0.17078280544727364;1.001;0.0012654412603265704
12:44.2;0.2442142806083277;0.10833121894266345;-0.13326521564593644;1.001;0.003525668636571685
12:44.2;0.48440137469746564;0.12442000679371651;-0.0698224595086323;0.975;0.004208145335805151
12:44.2;0.6497594845338556;0.1689362471397489;0.013583345682757838;1.097;0.0014910157225939992
12:44.2;0.7369956214472635;0.2417941163676059;0.10794449371005578;0.8340000000000001;0.019235838858144477
12:44.2;0.7473387259782506;0.34074402455391706;0.2021899438427177;0.5820000000000001;0.05148791287782228
12:44.2;0.6856725743067009;0.4614256407518223;0.2842573590755763;0.569;0.08993530661439549
12:44.2;0.5595618696409592;0.5976312385400351;0.34227108659070776;0.456;0.11445943990706714
12:44.2;0.3783554090037358;0.7417736417798687;0.3659437338379244;0.5489999999999999;0.10270359815494687
12:44.3;0.15249052790058412;0.8855513552215057;0.34824674341151196;2.636;0.04702661117158352
12:44.3;-0.10695346585423327;1.0207658565625684;0.2871322906976265;2.636;0.03134750881875294
12:44.3;-0.38849314931199014;1.1401601565768007;0.18673940056523056;2.636;0.08271517359751629
12:44.3;-0.6803973295615512;1.2381080289955673;0.05737838933070906;2.141;0.048335864822545364
12:44.3;-0.9708843804160507;1.311036691121284;-0.08605939577320244;3.833;0.10954199672189528
12:44.3;-1.2483605991957407;1.3575253346762373;-0.22682135380363094;3.185;0.3843898704901419
12:44.3;-1.5016313898527114;1.3780542700675171;-0.34898600429914806;1.733;0.7221670508326985
12:44.3;-1.7201294775184917;1.3744744317536002;-0.4391450398624764;1.964;1.038259193895786
12:44.3;-1.8943289244676125;1.3494285616157722;-0.4871561472164657;3.15;1.2452985307872042
12:44.3;-2.0164497857979384;1.3059877459364702;-0.48673149269678895;3.88;1.2817872891405484
12:44.4;-2.081364623748147;1.2475379788314078;-0.43612284291960995;3.023;1.1324284689841102
12:44.4;-2.0874630320264416;1.1777001966981446;-0.3384258009234585;3.023;0.8319878920998509
12:44.4;-2.037194246334279;1.1001007149086142;-0.2011105598718127;3.023;0.4507126660192305
12:44.4;-1.9370812254685836;1.0180109356280194;-0.0348979667282851;2.443;0.06881773893780255
12:44.4;-1.7971288029703685;0.9339728162134493;0.14770258018104776;2.245;0.24791426840316347
12:44.4;-1.6296876623556185;0.8495290352337557;0.3339031694246175;1.919;0.462277915101129
12:44.4;-1.4479632622785057;0.7651751650101434;0.5118725080844881;1.449;0.5671268563113357
12:44.4;-1.2644480722349993;0.680601653636686;0.6714107520711641;1.1059999999999999;0.577806323468027
12:44.4;-1.0895718156269334;0.5951804720640588;0.804029210959462;1.024;0.5214064045979707
12:44.4;-0.930793161555181;0.5085515916797728;0.9027233820150224;1.093;0.42730983960367475
12:44.5;-0.792231131549337;0.42113280386648716;0.961888913094406;1.6680000000000001;0.32091934363940877
12:44.5;-0.6748230792895578;0.3344200690292278;0.9776806460718692;1.6680000000000001;0.22063747438186856
12:44.5;-0.5769386431754813;0.25103868308504024;0.9487234281828388;1.6680000000000001;0.13740733044658937
12:44.5;-0.49535764344068717;0.17457943284420574;0.8767779731058367;1.8880000000000001;0.07582310718322814
12:44.5;-0.4264907850186932;0.10927615177551027;0.7669782051841645;1.506;0.03574522768243208
12:44.5;-0.3676637301441384;0.05959917323670833;0.6274572981361266;1.349;0.01374912939929349
12:44.5;-0.31822311895217426;0.02986040890864173;0.46838468961973456;1.082;0.004450718935030332
12:44.5;-0.2802138100660096;0.023895398907950588;0.30063351230785645;1.114;0.002012988116182857
12:44.5;-0.2584582824481132;0.04481393254817724;0.1344655040883621;0.877;0.0015574510088601748
12:44.5;-0.2600156225540397;0.0947612380258639;-0.021360459369417082;0.563;0.000526308951700632
12:44.6;-0.293128886753932;0.17464152386748652;-0.15986838690478836;0.213;0.008184058475417397
12:44.6;-0.3658354337824394;0.2838063259624245;-0.2756853404613106;0.213;0.02862341929136087
12:44.6;-0.4844333521581735;0.4197553395561797;-0.36473716046034527;0.213;0.07416692576472293
12:44.6;-0.6519927343579708;0.5779147858170584;-0.42408587366239975;0.473;0.15979396323987444
12:44.6;-0.8670794435385536;0.7515614448933172;-0.45201898451641076;0.581;0.2945642642152736
12:44.6;-1.122842911049061;0.9319577312498546;-0.4483888561183146;0.831;0.4692129905306704
12:44.6;-1.40662491294768;1.1087599639259553;-0.4151162270669391;1.357;0.6474191647356536
12:44.6;-1.7002549248483012;1.2707532508752963;-0.3566835461196102;2.015;0.7706520652156831
12:44.6;-1.981177854920895;1.4068983010909706;-0.2803656500688234;2.688;0.7814675945080686
12:44.6;-2.2244895885105316;1.5075240539836001;-0.19592975580773264;2.926;0.657044864351878
12:44.7;-2.4058003723107295;1.5653814663449375;-0.11464805383978599;4.684;0.4317640335818745
12:44.7;-2.5045529122219876;1.5763317445570277;-0.047729060682193514;4.684;0.18843463042682174
12:44.7;-2.5070824949333868;1.5396317718135228;-0.004572403091513396;4.684;0.017649402151834134
12:44.7;-2.4086213674500687;1.4579108428945298;0.008654842566489124;4.332;0.030391957489059755
12:44.7;-2.2137565815788522;1.336922466841666;-0.010189224416527407;3.167;0.030156241640156727
12:44.7;-1.9353278460589778;1.185086841235467;-0.05909663951674615;1.994;0.135540008048595
12:44.7;-1.5921699187110527;1.0128065942262143;-0.1323178421249225;1.2429999999999999;0.21337048500773514
12:44.7;-1.206367346820732;0.8315622146665351;-0.22111570147829862;0.74;0.22181652827426213
12:44.7;-0.8006941601494872;0.652861965971224;-0.3147070434136022;0.396;0.1645108295785449
12:44.7;-0.39665701650466967;0.48719803048881133;-0.40129389839356755;0.596;0.07755025342204509
12:44.8;-0.013238827663538908;0.34319117309046526;-0.46912459071470897;0.738;0.0021314435569470065
12:44.8;0.3337581487400182;0.22706370498848816;-0.5075309680707601;0.738;0.03846291052065572
12:44.8;0.6319160132390346;0.14249180055622307;-0.507898862967957;0.738;0.04573266140092502
12:44.8;0.8720925971909266;0.09080266543086121;-0.4645578267242976;1.0170000000000001;0.03678755956796557
12:44.8;1.048159716492963;0.07142705773939462;-0.3755817567317173;1.295;0.028118666081902388
12:44.8;1.1567455248758607;0.08249017818386815;-0.24343960747733803;1.425;0.023229042512871115
12:44.8;1.1970732705057785;0.12141876882024935;-0.07535673699460303;1.534;0.01095288791192605
12:44.8;1.1708995738912868;0.18546053455045816;0.11678801814076194;1.661;0.02536117926208031
12:44.8;1.0824742972188757;0.2720441502719699;0.3171573853326788;1.6380000000000001;0.09339676067861075
12:44.8;0.9383795302691198;0.3789395296397177;0.5072631718824877;1.421;0.18037725364889215
12:44.9;0.7471114241990189;0.5042040241525734;0.6677913903756776;1.433;0.2515547372963575
12:44.9;0.5184080257988996;0.6459260554779299;0.7807461502759303;1.433;0.2614353868070628
12:44.9;0.2625253462679;0.8018138870835702;0.8316245845024012;1.433;0.17505403802998085
12:44.9;-0.010282903062385527;0.9687236098265972;0.8113270709792543;1.433;0.008081865029181397
12:44.9;-0.2899893679867979;1.1422587660323176;0.7176146529627245;1.619;0.2377047570356439
12:44.9;-0.5668287383101942;1.3165857274451973;0.5560178180147655;2.7030000000000003;0.4149442136849144
12:44.9;-0.8313382395406488;1.4845756153449674;0.3400068108995126;3.661;0.4196311286052559
12:44.9;-1.074576152540081;1.6383021087021816;0.09000520368377052;2.089;0.15845239488323865
12:44.9;-1.288561554639884;1.7698474452564477;-0.16912445310947818;4.519;0.3856980189221565
12:44.9;-1.466769741460876;1.8723155127586146;-0.41178951481083725;4.405;1.1308793189607964
12:45.0;-1.6044489191874252;1.940845538503771;-0.6153394718157471;2.895;1.9161594398355544
12:45.0;-1.6986996422194434;1.973319064955591;-0.7624462070152027;2.895;2.5557779288946962
12:45.0;-1.748447757620673;1.9705458188776332;-0.841909120008322;2.895;2.900710666615316
12:45.0;-1.7544526963036589;1.9359394528485274;-0.8484682205169891;2.8760000000000003;2.881834353236633
12:45.0;-1.719400310499828;1.8748168898413478;-0.7822588389762283;2.911;2.5216588838158094
12:45.0;-1.6480299218622845;1.7934599849570372;-0.6481737587322837;2.685;1.915791440294931
12:45.0;-1.5471626868773525;1.6980825309995902;-0.45516368938575275;2.3369999999999997;1.1958105650762554
12:45.0;-1.425476438701934;1.593872994616122;-0.21548160743421446;1.806;0.48958033179158267
12:45.0;-1.2929393597062133;1.4843130582423767;0.056097982109522666;1.558;0.10765913949700673
12:45.0;-1.159931203848261;1.3709692454181044;0.3430915702801246;1.5419999999999998;0.5455945103031589
12:45.1;-1.0361805541655935;1.2538557765727536;0.6282351629240593;1.871;0.8162162999063997
12:45.1;-0.929699675898371;1.1322751954885475;0.8946064471940418;1.871;0.94173063108752
12:45.1;-0.8459085906042827;1.005874440840777;1.1268965047506558;1.871;0.9588512532464702
12:45.1;-0.7870972687607452;0.875611479828921;1.312711271835084;1.871;0.9047093248356326
12:45.1;-0.7522860384314224;0.7443860077433904;1.443815977312468;4.9510000000000005;0.8085242429113878
12:45.1;-0.7374775894200604;0.6171566627630326;1.5171180398201454;3.1460000000000004;0.6904999030088962
12:45.1;-0.7362867136766146;0.5004650153401075;1.5348761041552736;1.2329999999999999;0.5655799592810401
12:45.1;-0.7409243513265077;0.4015022191245309;1.5036939845026005;0.983;0.44732305363832336
12:45.1;-0.7434468216687571;0.32707916984253543;1.4325529119755183;1.0859999999999999;0.34834811734743437
12:45.1;-0.7371000448386523;0.2828487594077366;1.3307604691935169;1.2209999999999999;0.27744736678626347
12:45.2;-0.7175537152810652;0.27289049251732167;1.2066584745561073;2.265;0.23628012391007336
12:45.2;-0.6838286666973269;0.29955779507557284;1.0674116405329424;2.265;0.21865522651694635
12:45.2;-0.6387363602046708;0.36343618500727637;0.9195961375367865;2.265;0.21347496090572304
12:45.2;-0.5886774360576899;0.46331050134572715;0.7699510908091931;2.176;0.20999679776959584
12:45.2;-0.5427298236450862;0.596117313450055;0.6257156539100365;0.937;0.20243818872101368
12:45.2;-0.5111190659012844;0.7569200711193214;0.4942997137611609;0.612;0.19123283432284258
12:45.2;-0.5033552906238871;0.9389644834150739;0.3823980410140726;0.875;0.1807338340614194
12:45.2;-0.5264295746906794;1.1338548288865713;0.29491007177611017;0.9690000000000001;0.1760302633412616
12:45.2;-0.5834226802530506;1.331869876978761;0.23403605961695811;1.094;0.1818561037261154
12:45.2;-0.6727481821613709;1.522435258964965;0.19873438695625278;1.561;0.203546850022018
12:45.3;-0.7881107582843203;1.694765454723855;0.18459004495958517;2.153;0.24655007247966873
12:45.3;-0.9191258256050479;1.8386376675003586;0.1841418855049061;2.153;0.31118862089982463
12:45.3;-1.052437418902458;1.9451861786292255;0.18770324417258427;2.153;0.3842635889814993
12:45.3;-1.1731517926657031;2.0075975685232437;0.1846276197082082;2.562;0.43483805071896625
12:45.3;-1.2664631561286193;2.0216490828417677;0.16488049862982865;3.1839999999999997;0.4221508082512158
12:45.3;-1.319353862825179;1.9860636941280667;0.12068136245036473;3.305;0.31622388500533594
12:45.3;-1.3221563878667393;1.9026263840358688;0.047888361225379684;3.0980000000000003;0.12046650700341494
12:45.3;-1.2696951142392014;1.7760043163289996;-0.05318372231825085;2.7510000000000003;0.119928443064172
12:45.3;-1.161788650329378;1.6132806732986291;-0.17766860938247325;2.263;0.33300270682381616
12:45.3;-1.0030474803882217;1.4232834465327733;-0.3167549536391687;1.925;0.4522059840505324
12:45.4;-0.8020574565426786;1.2158151104864103;-0.4588529523396414;1.256;0.4474520969388696
12:45.4;-0.5701678285289437;1.000895706955088;-0.5911026266089824;1.256;0.3373295791072875
12:45.4;-0.3201865957372183;0.788142483724143;-0.7009473567709781;1.256;0.17688592917366353
12:45.4;-0.06524871989343194;0.586374783741948;-0.777511264437241;1.3659999999999999;0.029747739602845668
12:45.4;0.18204582182179482;0.4034364028490384;-0.8126293152422132;1.232;0.05968267551865997
12:45.4;0.4102767538447922;0.24615005907607326;-0.8014967127454871;1.022;0.08094287024926929
12:45.4;0.6097048216827062;0.1203130886551729;-0.7429771908601177;1.082;0.05450144123141378
12:45.4;0.7726543514120437;0.030674923358542862;-0.6396648380945938;1.25;0.015160768617616395
12:45.4;0.8937645446292161;-0.019124872817384824;-0.497808438116568;1.196;0.008509105963073253
12:45.4;0.9700946062082253;-0.026639795484485335;-0.3271442074603494;1.189;0.008454427635544692
12:45.5;1.0010977920946282;0.009310829196567167;-0.14059167000463016;1.147;0.001310462063198321
12:45.5;0.9885106561503284;0.08857853737261413;0.046275910938700184;1.147;0.004051957082829974
12:45.5;0.9361948079139101;0.20958657663506164;0.21606302354105045;1.147;0.04239456090107254
12:45.5;0.8499295499075946;0.36915035482016567;0.3507446121548526;1.001;0.11004675162229094
12:45.5;0.73712731517317;0.5622265387061214;0.4332685838822852;1.095;0.17956059928534085
12:45.5;0.6064355771149047;0.7816649612844337;0.44955948823309766;1.103;0.21310443331114315
12:45.5;0.4671759157495567;1.0180907339027958;0.3908106894601965;1.0859999999999999;0.18588029983925955
12:45.5;0.32855654248076127;1.2600828607679186;0.25585225386507804;2.637;0.10592499965016451
12:45.5;0.19863254713395165;1.4947829274613997;0.053153217825475274;8.059;0.01578185692936233
12:45.5;0.083171508222866;1.7089108208469455;-0.19852497022289864;2.467;0.028216888127021132
12:45.6;-0.015129641692368929;1.8900334288944063;-0.47209724016205856;5.28;0.013499870116876181
12:45.6;-0.09659836923633297;2.0279616331876196;-0.7369897718616143;5.28;0.1443746650838426
12:45.6;-0.16369454945926107;2.1161145126424032;-0.9651772608217395;5.28;0.33433393985250454
12:45.6;-0.21977739392175052;2.1524958201711493;-1.1359627558710712;4.213;0.5373898120702328
12:45.6;-0.26809214390873387;2.1399412297823113;-1.2380412557869798;2.31;0.7102660414822921
12:45.6;-0.31124760007958874;2.0856098319506007;-1.2689353312393814;2.188;0.8237180195168301
12:45.6;-0.3511678939979557;1.9999513749437317;-1.2328704012108789;2.32;0.8658679527804896
12:45.6;-0.38932514687944847;1.8954030296383113;-1.1383035655162117;2.019;0.8399861451045683
12:45.6;-0.4270133170699871;1.7849816199077206;-0.9958323140647533;1.679;0.7590342666846694
12:45.6;-0.4654932779083092;1.6808798963570928;-0.8166555897140213;1.656;0.638982605360528
12:45.7;-0.5059411959351374;1.5931750668157774;-0.6115408391518761;1.1540000000000001;0.4929342660343841
12:45.7;-0.5492211255103622;1.5287660519279218;-0.3902455250373085;1.1540000000000001;0.32766208889319415
12:45.7;-0.5955771133128358;1.4906424946012842;-0.1613469177555521;1.1540000000000001;0.14324259218068888
12:45.7;-0.6443709685583235;1.4775573712469106;0.06758471559018131;1.1159999999999999;0.06434707481887063
12:45.7;-0.693957977821322;1.4841403090214746;0.2895801733136836;1.065;0.29824759969690284
12:45.7;-0.7417300164155411;1.5014768450650011;0.49780027195246707;1.065;0.5543954063608104
12:45.7;-0.7843166378419767;1.5181915422291847;0.6852017938070214;1.3019999999999998;0.8158991614510537
12:45.7;-0.8179308143300029;1.5220558373524735;0.8445619184404284;2.005;1.0514258494069628
12:45.7;-0.8388379186645626;1.5020280636905203;0.9690679915999371;3.4819999999999998;1.2209850603522534
12:45.7;-0.8438796775253186;1.4504101926586175;1.0534860670019632;5.147;1.289437117247916
12:45.8;-0.8309326990379089;1.364589850241881;1.0954765124497614;2.702;1.2421414574841807
12:45.8;-0.7991907063133412;1.247860023333058;1.0962945456583961;2.702;1.0933105781812056
12:45.8;-0.7492294661737675;1.1091462932494174;1.0603797533749861;1.4480000000000002;0.8811809672976016
12:45.8;-0.6828779895358399;0.961851764760517;0.9940161008083737;1.158;0.6528970104071461
12:45.8;-0.6029490551436876;0.8221769494503505;0.9037093464345065;0.847;0.4479965706792795
12:45.8;-0.5128964492355303;0.7072211035840914;0.7949487981057929;0.61;0.2883527257937453
12:45.8;-0.41647203417217843;0.6330774099916897;0.6717678519842188;0.507;0.17711766475879076
12:45.8;-0.3174364019659973;0.6130670130040086;0.5371748514566792;2.18;0.10453948330128325
12:45.8;-0.21932981007985372;0.6562404880157763;0.3941575156294907;1.785;0.0567323137447686
12:45.8;-0.12527120475190406;0.7662964514345738;0.24665396572773718;0.488;0.023677517759747566
12:45.9;-0.03776770227609478;0.9410501024718979;0.0999013463531078;0.972;0.0035506237308348485
12:45.9;0.041432610858508134;1.1724722073356793;-0.03997072003045372;0.972;0.0019417210088773307
12:45.9;0.11139436112319924;1.4471857666968198;-0.16676055573825302;0.972;0.026883191352099167
12:45.9;0.17194124070863762;1.747298476653294;-0.2750263932169109;1.2209999999999999;0.08262691307469466
12:45.9;0.22352438112054807;2.051567382454232;-0.3607637966569207;1.6880000000000002;0.1654373769200775
12:45.9;0.267052016330646;2.3369753642078734;-0.421949259045147;2.394;0.2633359937548702
12:45.9;0.30370123575456875;2.5807376005092055;-0.45897845835904166;3.264;0.35973501431987975
12:45.9;0.3347141580270354;2.762590272817706;-0.47492735009822246;4.022;0.4391549088699518
12:45.9;0.361185026759944;2.8670325055847625;-0.47547998478619236;4.311;0.49237341408688773
12:45.9;0.3838702527553952;2.885072120675776;-0.4684012847145643;4.541;0.5187513145954011
12:46.0;0.4030720780065355;2.8150487767507277;-0.46258521976609146;2.6510000000000002;0.5248804426663519
12:46.0;0.41863037121081115;2.6623508281078516;-0.46685703120759875;2.6510000000000002;0.5203312629530159
12:46.0;0.4300176020409742;2.4382287646543275;-0.48874119062446025;2.6510000000000002;0.5124359923622955
12:46.0;0.4365060745431174;2.158136877937015;-0.5333523355751453;2.148;0.5024391578905044
12:46.0;0.43736838656778837;1.8399407674604544;-0.602549163733158;1.716;0.4848905483444143
12:46.0;0.43206244997990056;1.5021481954245435;-0.6945557178320747;1.186;0.4507818227104078
12:46.0;0.4203571313810547;1.162287314427566;-0.8042458246612522;1.474;0.39293501608304854
12:46.0;0.40239593504413645;0.835589569090588;-0.9240482664483204;1.579;0.3106999986804325
12:46.0;0.3787382269457915;0.5341058486700798;-1.0451232887266781;1.379;0.21141412534299767
12:46.0;0.35040940279066135;0.2663046769260543;-1.1584075115839612;1.128;0.10809756473829449
12:46.1;0.3189447178072049;0.03712411797145024;-1.25535551377161;1.432;0.014864088844964422
12:46.1;0.2863837865634015;-0.15159775831709532;-1.3284490281716517;1.432;0.057674800622467305
12:46.1;0.2551905195960421;-0.30040552400644516;-1.3716010990694798;1.432;0.1051478204943835
12:46.1;0.22810505136356873;-0.4113250765677582;-1.3805109846201449;1.636;0.12952689554974875
12:46.1;0.20795267444675095;-0.4869083985879908;-1.3529631753409874;1.3159999999999998;0.1369928030615059
12:46.1;0.19745405859298581;-0.529386716596128;-1.2890519462744467;1.222;0.13474402729191914
12:46.1;0.1990991717586851;-0.5400966504819957;-1.1913320045445797;1.5519999999999998;0.12810726115159154
12:46.1;0.21512486358467972;-0.5192787688105689;-1.0649003040406435;1.796;0.11895977261935707
12:46.1;0.24756689609293575;-0.46621920876161543;-0.9173509537806054;1.5730000000000002;0.10588105293244375
12:46.1;0.29829991679029366;-0.37958358017924904;-0.7584659581484847;1.222;0.08588091111472486
12:46.2;0.3689859504957615;-0.25776264299735513;-0.599538233297092;0.602;0.05702255729953
12:46.2;0.4608998001577662;-0.09914382161701556;-0.4523879022122479;0.602;0.020672031475882126
12:46.2;0.5746324079590025;0.09762069981554072;-0.3282919242008754;0.602;0.01841586962410929
12:46.2;0.7096896606847295;0.3332095087141178;-0.23705749458925873;0.602;0.056058252385496436
12:46.2;0.8640357828746322;0.6070437856962272;-0.18633566223137893;0.83;0.0977344621615442
12:46.2;1.033669669111908;0.9166058004637008;-0.1811258698128034;1.008;0.17161089579058864
12:46.2;1.2123406638418996;1.256802839622752;-0.22336484800565526;1.2429999999999999;0.34033503025042183
12:46.2;1.39150626883156;1.6194867695833852;-0.3115315376350804;1.5030000000000001;0.702044417439799
12:46.2;1.560618035398228;1.9932153610142305;-0.4402948576495782;1.859;1.3696022482769163
12:46.2;1.7077865419050422;2.363361374498925;-0.6003332785514746;1.98;2.423015200560178
12:46.3;1.8208113159389805;2.712707914585174;-0.7785220249170226;3.866;3.8453766232325535
12:46.3;1.888466440945951;3.0226097680702777;-0.9586566736766431;3.866;5.4721053895275125
12:46.3;1.9018358762249918;3.274615760977032;-1.122738314023302;3.866;6.992169165346501
12:46.3;1.8554637907965805;3.4523113871586486;-1.2527061918240687;5.018;8.024383354061072
12:46.3;1.748142310863622;3.5431650908750267;-1.3324585141116396;5.526;8.253190487169284
12:46.3;1.583218539188113;3.540175548224055;-1.3499391663402154;5.795;7.56623564105422
12:46.3;1.3683319832835577;3.443036831300338;-1.2989349614776744;5.061;6.11956501262401
12:46.3;1.1145705989933525;3.258537719855135;-1.1801949821634343;4.32;4.286315149084285
12:46.3;0.8351831767048361;3.0000656140767936;-1.0016618199603369;4.1339999999999995;2.5097681931757156
12:46.3;0.5441128552665818;2.6862625974827905;-0.7778320681967448;3.345;1.1369026951040881
12:46.4;0.25463502794342163;2.3390006463012445;-0.5283433630628208;1.131;0.3146768134432455
12:46.4;-0.02169426662959046;1.9809778727201803;-0.27590186772148195;1.131;0.011857120636363646
12:46.4;-0.2756922473047015;1.633396868105832;-0.043762678004177734;1.131;0.01970698392584095
12:46.4;-0.5008462959700533;1.3141826014446918;0.14698252602932657;0.718;0.09674441133134451
12:46.4;-0.6933841642431315;1.03697380917719;0.28018789992347043;1.955;0.20146104507697515
12:46.4;-0.8522035502299414;0.8109004125416976;0.3473472557362802;8.3;0.24003508887063096
12:46.4;-0.978536016545544;0.6410241489110999;0.34946495031041613;1.465;0.2192072079549963
12:46.4;-1.0750916809097386;0.529171588910739;0.29687800334834974;2.0780000000000003;0.16889626311667733
12:46.4;-1.144722460681628;0.47482349925888406;0.20657306600267425;1.57;0.1122809565784687
12:46.4;-1.1891350557899392;0.4758608107575564;0.0981373916583511;1.321;0.05553229645595605
12:46.5;-1.208271043102864;0.5291484130019399;-0.009936564096074275;1.8430000000000002;0.006352989005704132
12:46.5;-1.200560376034644;0.6309844337041963;-0.10269594407705714;1.8430000000000002;0.07779576265107402
12:46.5;-1.1637976753354518;0.7773828504618716;-0.16996482822574066;1.8430000000000002;0.15376995973686033
12:46.5;-1.0962127723297612;0.9641153197262405;-0.20672562280635431;2.16;0.21848325164765464
12:46.5;-0.9973885284409364;1.1864823974606304;-0.212916573742119;1.702;0.25196205231326413
12:46.5;-0.8688381559526775;1.4388785091989722;-0.19279960419353043;1.59;0.241028916931886
12:46.5;-0.7141792177450874;1.714294358264911;-0.15400907782296405;1.733;0.18855537828098137
12:46.5;-0.5389278272139948;2.003931786885655;-0.10637845352760726;1.8659999999999999;0.11488602820041356
12:46.5;-0.34997581413612344;2.297072351001453;-0.06060565463440391;1.963;0.04872208370234932
12:46.5;-0.15481673811942612;2.5812650231066248;-0.02681373712687571;3.103;0.010715386905737421
12:46.6;0.039386340841959105;2.8428222499204105;-0.01318424612855107;3.1060000000000003;0.001476218497122104
12:46.6;0.22672380079784132;3.0675425962819043;-0.024986818587400626;3.1060000000000003;0.017377955439816253
12:46.6;0.4032277144169244;3.241539604293844;-0.06424327019090599;3.1060000000000003;0.08397100403517602
12:46.6;0.5671485469490409;3.352106854270299;-0.1299827165224961;3.2089999999999996;0.24711567075607477
12:46.6;0.7187826996895339;3.3886493467999634;-0.21888688610000373;3.582;0.5331433413369743
12:46.6;0.8599286657540186;3.3437337599249286;-0.32614519597552405;4.0280000000000005;0.9377889310404073
12:46.6;0.9930937577925254;3.214197977627581;-0.446344618776106;4.413;1.4247319998748968
12:46.6;1.120598369070307;3.002084645022322;-0.5741938960743359;4.276;1.9316635759561147
12:46.6;1.2437558687193535;2.7150563571522603;-0.7049285820277403;3.5789999999999997;2.380450262055306
12:46.6;1.3623108440997111;2.366018694470092;-0.8343601136540871;2.7510000000000003;2.6893536766880564
12:46.7;1.4742662212815065;1.9719287519578395;-0.9586504166416515;2.016;2.7869385933005444
12:46.7;1.5761165299073083;1.5520888084223712;-1.0739643576443267;2.016;2.627209825098528
12:46.7;1.6633766888704478;1.1264233227011105;-1.1761543266074261;2.016;2.2037207215775116
12:46.7;1.731248973764567;0.7141466091701192;-1.2605880804730594;2.147;1.5585477186041061
12:46.7;1.7753293930654066;0.332913426398134;-1.3221914068945864;2.079;0.7814560978136531
12:46.7;1.7923209189847882;-0.0017144380591037796;-1.355757123933738;2.2359999999999998;0.004166001940783019
12:46.7;1.7807224895542786;-0.27669183047241946;-1.3565519711865126;2.637;0.668388573685585
12:46.7;1.7414241192283788;-0.4819103368501609;-1.3211840883985189;3.3569999999999998;1.1087512739042518
12:46.7;1.678090281497452;-0.6106134594366615;-1.2485359214450242;3.4610000000000003;1.2793304507021392
12:46.7;1.5971603292316174;-0.6597429027074302;-1.140410460789789;3.2569999999999997;1.2016678273037176
12:46.8;1.507288874087284;-0.6301264574963272;-1.0015746206391152;1.128;0.9512781459347581
12:46.8;1.4181986884108189;-0.5264344154073601;-0.8391700106849801;1.128;0.6265147613120171
12:46.8;1.3391978137396272;-0.3569048054845589;-0.6617975722355413;1.128;0.31631682789813514
12:46.8;1.2777733911932043;-0.13289659553504693;-0.4786873499640272;0.852;0.08128672872816793
12:46.8;1.2385812108972774;0.13171837918034685;-0.29919723515961777;0.6940000000000001;0.04881220668025079
12:46.8;1.2229841112907751;0.4214214033625357;-0.13266710985849026;0.8290000000000001;0.06837552469309752
12:46.8;1.2292010757241598;0.7202840691914854;0.011518004918492626;3.926;0.01019774154164066
12:46.8;1.25300327955033;1.0135098924872643;0.12403803656321899;3.301;0.15751977499286304
12:46.8;1.2886753904048658;1.2889201275013928;0.1963977072476072;2.55;0.32621652270616
12:46.8;1.3298480063774374;1.5379209686743633;0.22236738996644775;3.054;0.4547860381590575
12:46.9;1.3699603005926009;1.7557379260507877;0.19947752650546574;2.366;0.47980155045849016
12:46.9;1.402384537037448;1.9410303662322512;0.12986303983313885;2.366;0.3534964110036838
12:46.9;1.4204115965711464;2.095101501419971;0.020272624620363684;2.366;0.06032943474345372
12:46.9;1.4173159312970043;2.2208649492935018;-0.11851353792197093;2.187;0.37304118483024046
12:46.9;1.3866455273973355;2.3217138854682218;-0.272588663092141;2.1630000000000003;0.8775703541791601
12:46.9;1.3227736015781184;2.4004847006963335;-0.42602199243129946;2.289;1.3527466923677784
12:46.9;1.221648993057153;2.458730098760906;-0.5621204938855253;2.605;1.688444222039441
12:46.9;1.0815994011453673;2.496462809921686;-0.6648238259952219;3.179;1.7951391320936674
12:46.9;0.9039733956202344;2.5123999579814367;-0.7201633935615366;3.543;1.635593849342252
12:46.9;0.6933900001370501;2.5045604982435896;-0.717641174586694;3.59;1.2462823630676607
12:47.0;0.45745450635188467;2.4709233075213612;-0.6513677722810411;2.423;0.7362637921029638
12:47.0;0.20599878996866205;2.4098775389261946;-0.5208761741566384;2.423;0.2585795263991837
12:47.0;-0.04989981195432057;2.3204139304830353;-0.33161066019199353;2.423;0.03839660767450801
12:47.0;-0.29883777174944187;2.20221850194311;-0.09508290299456654;2.056;0.06257463561642451
12:47.0;-0.5297998521216924;2.055886092935586;0.1714273252690879;2.399;0.18672003947573412
12:47.0;-0.7326823691355613;1.8834029996368122;0.4458799422308254;2.6189999999999998;0.6152858605692803
12:47.0;-0.8987514740355219;1.688872170508875;0.7034609367211917;2.316;1.0677667208989923
12:47.0;-1.0212278176399412;1.479238021222731;0.9196939432854345;3.787;1.389325553674462
12:47.0;-1.0960727288840917;1.264690211867383;1.0744557834887303;8.997;1.4894024967730484
12:47.0;-1.122707057126554;1.058501906345824;1.155852440581151;4.8580000000000005;1.373600661855485
12:47.1;-1.1041491520396616;0.8762103307408221;1.1622012165885922;1.0270000000000001;1.1243912008625265
12:47.1;-1.0463017175469693;0.7342753967810983;1.1010212826815364;1.0270000000000001;0.8458855942163537
12:47.1;-0.956673445271375;0.6485078955884831;0.9857665385382646;1.0270000000000001;0.6115796969082183
12:47.1;-0.8430952477886736;0.6324742927358896;0.8321293308829348;0.6990000000000001;0.44372137459285443
12:47.1;-0.7128036146244987;0.6959209994125904;0.6552576753893806;0.584;0.32504384870400177
12:47.1;-0.571966528862433;0.8432483215491411;0.46823870499915043;0.618;0.22583612339259657
12:47.1;-0.42556741880250276;1.0721775432900031;0.28164708634914;0.97;0.12851101115392266
12:47.1;-0.2775049254688007;1.3728661861937503;0.10376407652125566;0.833;0.03953173993302684
12:47.1;-0.13076414858613472;1.7277777619112136;-0.058998935267548694;0.457;0.013329711334479704
12:47.1;0.012432005990863668;2.1125849391030824;-0.20186146025464582;0.851;0.00530162249910329
12:47.2;0.15051136132467102;2.4982472571568013;-0.32175518335448094;4.133;0.12098464515133414
12:47.2;0.28245290358842756;2.8540839678242693;-0.41758547324700407;4.133;0.3366341506065074
12:47.2;0.4076533017320929;3.151228082660886;-0.49041740707855547;4.133;0.629994385574325
12:47.2;0.5257328884285786;3.3656767784574746;-0.5433948984232245;4.133;0.9615084588408175
12:47.2;0.6363108906926627;3.4804549961195557;-0.581333576405723;4.648;1.2874512296647476
12:47.2;0.7388278301226685;3.4868136335239805;-0.6100152673227083;4.525;1.5714938510371645
12:47.2;0.8324846898476134;3.384522325122282;-0.635221717282296;4.016;1.7897772189160324
12:47.2;0.9163114994803851;3.181309335223827;-0.6615791471162831;3.764;1.9285497408991996
12:47.2;0.9893194558857543;2.8915545730976224;-0.6914754608348148;3.217;1.9780839341877636
12:47.2;1.0506645830142836;2.534428775407505;-0.7245029752564038;2.64;1.9292315558966806
12:47.3;1.0997590342116212;2.1317332732558842;-0.7577203098181444;1.855;1.7763941340670877
12:47.3;1.1362985800645449;1.705760111790919;-0.7865750037000142;1.855;1.5245811977930999
12:47.3;1.160214888527351;1.2775259431604873;-0.8060524930412956;1.855;1.1947347289345158
12:47.3;1.1715845626386743;0.8656137147179233;-0.8117073084753755;1.746;0.8231845781970912
12:47.3;1.170529399964904;0.48561024352316257;-0.8004383209243459;1.6059999999999999;0.45498600442187376
12:47.3;1.15714113758043;0.14996075843685092;-0.7709717819628722;1.449;0.13378346641593022
12:47.3;1.1314654220810136;-0.1319339025379909;-0.7240380907461115;1.3530000000000002;0.1080834278097952
12:47.3;1.093573714973082;-0.35348449776945784;-0.6622581333120787;1.2590000000000001;0.25600340164516866
12:47.3;1.0437317086691367;-0.5106199839835737;-0.5898057627519427;1.185;0.31433713954115333
12:47.3;0.9826436709204903;-0.6015004086882468;-0.5119657334781256;1.505;0.30260275807270104
12:47.4;0.9117210113054082;-0.6262785328059675;-0.43475556354042;1.317;0.24824164322943465
12:47.4;0.833305422560285;-0.5869175477385928;-0.3647610929897606;1.317;0.17839792990424272
12:47.4;0.7507927304007821;-0.48706735730781964;-0.30916464938415356;1.317;0.11305737908301033
12:47.4;0.6686335960768213;-0.3320177138327032;-0.2757344872670561;1.317;0.06121255928903233
12:47.4;0.5921878721939721;-0.128726622288416;-0.27250904335169657;1.075;0.020773458267062367
12:47.4;0.5273930838933975;0.11412822708842818;-0.30703882261856236;0.846;0.018480801106941534
12:47.4;0.4802219999650212;0.3861555646207153;-0.3851874184591591;0.584;0.07142930800638879
12:47.4;0.45595412529374446;0.6753999238939734;-0.5095973345579352;0.305;0.15693120319731926
12:47.4;0.45834652016609057;0.9687353770021593;-0.6780403380089971;1.147;0.30106109029040046
12:47.4;0.4888569717600537;1.2526219191768402;-0.8820815361311212;4.327;0.5401452379961978
12:47.5;0.5461307530664306;1.514294478531236;-1.1067928409612888;3.8160000000000003;0.9153207607028048
12:47.5;0.6259252179248701;1.7432643980593003;-1.3322014393466997;3.8160000000000003;1.4536357946542395
12:47.5;0.7214731594202465;1.9327535074974702;-1.5363104555621747;3.8160000000000003;2.142277049692883
12:47.5;0.8241294397294818;2.080605077056125;-1.6985810005936584;3.8160000000000003;2.912536282862258
12:47.5;0.9241627573053351;2.1894181660135774;-1.8027647076433635;4.58;3.6476757631935275
12:47.5;1.011651137511066;2.265898252715975;-1.8386146012725795;4.248;4.214653575026897
12:47.5;1.0774476266698063;2.3195384307339677;-1.8023924467125874;2.612;4.504505276686162
12:47.5;1.1141143590889466;2.3608468140076466;-1.696253294843012;2.6630000000000003;4.461575885927242
12:47.5;1.1166737544594512;2.3994623695840733;-1.526880200363848;2.8680000000000003;4.091148235880353
12:47.5;1.0830159506314179;2.442504989968048;-1.3039686133771775;2.813;3.449351484026178
12:47.6;1.0138372959921078;2.493352534537199;-1.0390226640977918;1.9609999999999999;2.6264973809670384
12:47.6;0.9121199856112371;2.550904188437173;-0.7446029561719906;1.9609999999999999;1.7324905512208935
12:47.6;0.7823692733961146;2.609384333922001;-0.43396995064480054;1.9609999999999999;0.8859505765758192
12:47.6;0.6299175869601275;2.658785883822667;-0.1209984823330834;1.9609999999999999;0.20265019275711146
12:47.6;0.4604817767679818;2.686047691040657;0.179832932404731;2.492;0.2224310404845284
12:47.6;0.27996348465969473;2.676977692576511;0.45365867239628044;3.138;0.33999721541751976
12:47.6;0.09437504083666949;2.6187620592288376;0.6859740792036035;3.78;0.16953559631358495
12:47.6;-0.09024732818176236;2.502664013083617;0.8641843250340895;4.771;0.19518358322711657
12:47.6;-0.2680495325531151;2.3263003995006204;0.979886897593103;9.076;0.6110219334117367
12:47.6;-0.43368450461757746;2.0948106039296;1.031076141391471;3.1660000000000004;0.936719166359501
12:47.7;-0.5826297207841085;1.8204647349943155;1.0229152216678385;1.1159999999999999;1.084962047313129
12:47.7;-0.7113683140902586;1.5208535412626834;0.9663771849199343;1.1159999999999999;1.0455109324278182
12:47.7;-0.8174085150077324;1.2164010243573127;0.8754887654945227;1.1159999999999999;0.870495463449465
12:47.7;-0.8991780593279065;0.928018766302307;0.7645163843793531;1.089;0.6379538416333369
12:47.7;-0.955831361949698;0.6753039405177091;0.6458854116491116;0.966;0.41690397452710226
12:47.7;-0.9870148232510702;0.4752759733127237;0.5289576725366465;0.88;0.24813638788981313
12:47.7;-0.9926562052363233;0.34151372587451345;0.4195812801210198;0.938;0.14224045361463783
12:47.7;-0.9728514889340175;0.28358365252897916;0.320367023403748;1.26;0.08838438532253672
12:47.7;-0.9278882198157015;0.30670657402960977;0.23160176503896407;1.944;0.06591141128446577
12:47.7;-0.8583680528429937;0.4116524954436953;0.15246108679823883;1.338;0.05387202606711336
12:47.8;-0.7653354329468771;0.5948574195011909;0.08198612956867773;1.168;0.03732545304873371
12:47.8;-0.6503464361882931;0.8487088958498025;0.019476399356278193;1.168;0.010750092223934108
12:47.8;-0.5154945156966441;1.1618796494055075;-0.035610883556731796;1.168;0.02132887472881013
12:47.8;-0.36344687198722603;1.5196030412071866;-0.08392540305247422;1.168;0.04635157812803411
12:47.8;-0.19749425173151722;1.9039297659580117;-0.12641461989734273;1.2329999999999999;0.04753381662131953
12:47.8;-0.021559082174985814;2.2941709332870523;-0.16437104507741676;1.5719999999999998;0.008129827997606774
12:47.8;0.15987957685138288;2.6677772894458993;-0.19934661965694972;2.3680000000000003;0.08502593902194623
12:47.8;0.3419341851850184;3.001791153446201;-0.23300407667792705;3.4810000000000003;0.23915888219419307
12:47.8;0.5195037519300116;3.2747735315280506;-0.26702851215813816;4.5360000000000005;0.4542841619179331
12:47.8;0.687520222767004;3.468836708669648;-0.3031621872771227;5.031000000000001;0.7230101018551252
12:47.9;0.8412797963066241;3.5712585290497385;-0.34327136995172103;3.802;1.0313339946076532
12:47.9;0.9768596614124387;3.5752921780024525;-0.3892932404480671;3.802;1.3596294962905937
12:47.9;1.0915282042613117;3.4801775605337375;-0.4430107265666117;3.802;1.6828701468167484
12:47.9;1.1840107003805134;3.290666250916005;-0.5057239591110144;3.802;1.970393624438088
12:47.9;1.2545403083912487;3.016338989376486;-0.5779201386712597;3.515;2.186918488197018
12:47.9;1.3047188534445469;2.6707897567935848;-0.6590267658552047;3.0639999999999996;2.2964642738676457
12:47.9;1.3372395805886483;2.2706543164067186;-0.7473215163665704;2.603;2.269173647956015
12:47.9;1.3555123614809022;1.8345075478779662;-0.8400480300576655;2.292;2.0889454692699534
12:47.9;1.3632323232808323;1.3817242781774806;-0.9337159162717549;2.254;1.758757755522116
12:47.9;1.363934756906161;0.9314184590870334;-1.0244614339460425;2.174;1.3014696687233966
12:48.0;1.3605661958515813;0.5015516344552013;-1.108285429303528;1.3319999999999999;0.7562875481407945
12:48.0;1.3551045584115777;0.10827985158665254;-1.1810522510386556;1.3319999999999999;0.17329641149622452
12:48.0;1.3483003995774008;-0.23440365121450224;-1.238317046651615;1.3319999999999999;0.39136581380068675
12:48.0;1.3396385253418994;-0.5147372154286531;-1.2751989625547364;1.3130000000000002;0.8793284973528968
12:48.0;1.3275846306686232;-0.723109809462397;-1.2865218284588973;1.526;1.2350474073811384
12:48.0;1.3101038231527424;-0.852062272894926;-1.2673506905060103;2.18;1.41473095462608
12:48.0;1.2853561124093777;-0.8965644253956798;-1.2139158646573835;2.7969999999999997;1.3989221831694278
12:48.0;1.252404564278537;-0.854610397189089;-1.1247277629760595;3.01;1.2038163272077695
12:48.0;1.2117375338848988;-0.7279915664992324;-1.0015259339211908;2.699;0.8834807847489339
12:48.0;1.1654393382535662;-0.5229784695960322;-0.8497230056179724;2.1790000000000003;0.5179059013102026
12:48.1;1.1169502578864088;-0.2506322508803119;-0.6782134333682701;1.0070000000000001;0.18986161675820892
12:48.1;1.070501799979123;0.07341227185316704;-0.49866708445827074;1.0070000000000001;0.03918923345420054
12:48.1;1.0304221575204955;0.4296767011350112;-0.3245548915090207;1.0070000000000001;0.1436961567921653
12:48.1;1.0005090118354687;0.7960072396754115;-0.17010278062464065;0.861;0.13547196661852762
12:48.1;0.9835808386143245;1.1492043502284612;-0.049215930546258224;1.093;0.05563050748405254
12:48.1;0.9812281996182485;1.4672111883228403;0.02573536169871124;2.8739999999999997;0.03705040225555525
12:48.1;0.993714217367761;1.7318131304989275;0.04546868049557679;4.325;0.07824829490573194
12:48.1;1.0199240802068983;1.9314201501722998;0.005701573017463113;8.123;0.011231539635019076
12:48.1;1.0573345064556132;2.0630986402124254;-0.09122616588444397;3.17;0.19899942476351132
12:48.1;1.1021193114799357;2.133005153492919;-0.23614731157810298;4.204;0.5551412803046999
12:48.2;1.1494674454565914;2.154937768700502;-0.41466515923402947;1.946;1.0271383761295703
12:48.2;1.1939950477419652;2.147448892029407;-0.6096381205776237;1.946;1.5631385643171882
12:48.2;1.2301059556570972;2.130353577682085;-0.8033845095182335;1.946;2.105317811223264
12:48.2;1.2522999443794112;2.121445595849593;-0.9791930427282405;1.9780000000000002;2.6014086454034295
12:48.2;1.255493766933974;2.133967431324139;-1.1222889099297881;2.1719999999999997;3.006817154066602
12:48.2;1.2353665963068403;2.175075848852542;-1.2204654548546814;2.1959999999999997;3.279410263353733
12:48.2;1.1886897970330668;2.245336067896313;-1.264529529264689;2.3819999999999997;3.375039524454135
12:48.2;1.1136100844015;2.3391406070866387;-1.2486938446680604;2.7430000000000003;3.252710819400242
12:48.2;1.0098876859758616;2.445852865658727;-1.171007246985212;3.26;2.8924308651730084
12:48.2;0.8790725127616809;2.5514540732099222;-1.0337741733767867;3.391;2.318665680704663
12:48.3;0.7245371113682515;2.6405011041525372;-0.8437559515418276;3.582;1.6142241408051452
12:48.3;0.5512932362006012;2.698186511370089;-0.6119574184806829;3.582;0.910281748252115
12:48.3;0.3656436869091258;2.712209977438114;-0.3530039429787541;3.582;0.35007487716694635
12:48.3;0.1748090749076349;2.6741482458600068;-0.08425725289217993;3.235;0.03938734882733423
12:48.3;-0.013403966049313267;2.580144655361284;0.17525658458646418;2.765;0.006061103753793778
12:48.3;-0.19096027981614652;2.4309504413136787;0.40617531394770423;2.2880000000000003;0.18855266381604496
12:48.3;-0.3501066203812921;2.2315172716297957;0.5905102827089809;1.919;0.46134736051934955
12:48.3;-0.4841417812468113;1.9904161092509858;0.7138593493400415;3.435;0.6879059936879728
12:48.3;-0.5884177013813053;1.7192863653393182;0.7680122280092686;9.156;0.776966122461746
12:48.3;-0.6612310631793611;1.4322736841310122;0.7531250494691527;1.443;0.713257509575904
12:48.4;-0.704052873205579;1.1452183875392614;0.6781131943278818;0.7829999999999999;0.5467588007610594
12:48.4;-0.7208603457353392;0.8745124264898677;0.5586941686401944;0.7829999999999999;0.3522015470351085
12:48.4;-0.7169319596441401;0.6358814274066863;0.4140260721333711;0.7829999999999999;0.18874774505181685
12:48.4;-0.6976577698259169;0.44340888167705106;0.2633891787770408;0.7829999999999999;0.08147882388830324
12:48.4;-0.6676649102911307;0.30888017758464187;0.12368769658502832;0.629;0.02550792270007087
12:48.4;-0.630318258349438;0.24132977803844963;0.007865867791577387;0.6920000000000001;0.0011965130604606098
12:48.4;-0.5875761253603474;0.24666544301665125;-0.07589221270001655;0.757;0.010999416997658848
12:48.4;-0.5401423315117713;0.3273151965140686;-0.124322087735471;0.8390000000000001;0.021979746458478184
12:48.4;-0.48780802206681084;0.48190520128475994;-0.13871878184533207;0.7490000000000001;0.03260962602280329
12:48.4;-0.42985051530425294;0.7050222333432463;-0.12416189117394986;0.531;0.037627778913041005
12:48.5;-0.3653845185744577;0.9871503720581456;-0.08844171824418137;1.051;0.031899995900537575
12:48.5;-0.29363096875040323;1.3148681335423906;-0.04084177862565661;1.051;0.015768439098933655
12:48.5;-0.21412719952613615;1.6713426099885231;0.009037404093082815;1.051;0.0032343053862904855
12:48.5;-0.12690647692027376;2.0371403620933406;0.05226202271466009;1.594;0.013511107694558204
12:48.5;-0.03263927374180006;2.3914174473304697;0.08130230995782207;2.421;0.0063459809645946335
12:48.5;0.06729759370320579;2.7135198543473815;0.0905596638384235;3.551;0.016537404191848366
12:48.5;0.17085071055225057;2.9848332240059126;0.0767143626022268;4.287;0.03912132364657594
12:48.5;0.27541806437315625;3.1904980044764533;0.03881713200952566;4.012;0.03410942070229294
12:48.5;0.3780480854364575;3.320563534779642;-0.022015519650045477;3.6660000000000004;0.027636801435649547
12:48.5;0.47567284762671996;3.370363167879717;-0.10331177040363895;3.483;0.16562842256694169
12:48.6;0.5653475107725261;3.340205915783839;-0.20213043996184132;3.359;0.3816984940279843
12:48.6;0.6444741550372455;3.234669915513625;-0.31578320288428846;3.359;0.6583009782306539
12:48.6;0.7109789448458578;3.061761324928877;-0.442173004819777;3.359;0.9625433487537406
12:48.6;0.7634118642755037;2.832059044532344;-0.5797405899900104;3.096;1.2534150838874805
12:48.6;0.8009638895223941;2.557840288262435;-0.7271451067887355;2.605;1.4897295980578429
12:48.6;0.8234220088141805;2.252160800197543;-0.8828317339977989;2.205;1.6371927084206408
12:48.6;0.8310924837782242;1.927935155407495;-1.0446136726336601;1.9809999999999999;1.6737765662206494
12:48.6;0.8247303687229647;1.597135031772034;-1.209347139085841;1.8969999999999998;1.592959021861999
12:48.6;0.8055189556515546;1.2702203268025403;-1.3727240348512604;1.765;1.4045527708224206
12:48.6;0.7751313319128156;0.9558512737414103;-1.5291793195749424;1.7269999999999999;1.1329846639603105
12:48.7;0.7358711041449216;0.660862383027217;-1.6719257960718528;1.725;0.8130734505671979
12:48.7;0.6908407218443567;0.3904531680796234;-1.7931648727463658;1.725;0.48368999356018316
12:48.7;0.6440508721403354;0.1485512598375576;-1.8845406619337863;1.725;0.1803026145681574
12:48.7;0.6003857085313995;-0.061719803241861625;-1.9378937223858503;2.307;0.07180998476589069
12:48.7;0.5653738100724093;-0.23758573466472038;-1.9463060043539073;2.719;0.2614370714020312
12:48.7;0.5447693091964058;-0.3763084308173119;-1.905275991206923;2.99;0.39058402438341816
12:48.7;0.543999099896454;-0.4750877235126423;-1.8136976172419808;2.464;0.4687452412428462
12:48.7;0.5675516135260831;-0.5311786773658245;-1.6743106282344153;1.909;0.5047566274981438
12:48.7;0.6183736143888817;-0.542183943969572;-1.4934941899094576;1.726;0.5007271500888999
12:48.7;0.6973405429127584;-0.5064694034998315;-1.2805279989969505;1.256;0.4522589900270604
12:48.8;0.8028789190649125;-0.4236418069433715;-1.046572303551864;1.157;0.3559738568942709
12:48.8;0.9308091151253126;-0.29499808358317364;-0.803619523722061;1.157;0.2206633979319085
12:48.8;1.0744368259587325;-0.12381653070249779;-0.5636143647610812;1.157;0.0749793324722959
12:48.8;1.2249016182613313;0.08465732574067254;-0.3378306035073668;0.927;0.03503198472016981
12:48.8;1.3718122274809417;0.3236317059024738;-0.13645909765958825;1.236;0.06058264454825655
12:48.8;1.5042043505592027;0.5855614650796298;0.03171054525440747;2.029;0.027930778377727776
12:48.8;1.6117927788874187;0.8630941112527415;0.15962263083958533;2.6460000000000004;0.22205564783436377
12:48.8;1.6863664016579212;1.1498393090360086;0.24235388151518847;3.26;0.469936385577276
12:48.8;1.7230356760763408;1.4406835694748665;0.2775265062866312;3.798;0.6889176975685609
12:48.8;1.7209408811512041;1.7315549675716622;0.2655733636185331;3.127;0.7913830572749099
12:48.9;1.6830715111181989;2.01875248736922;0.20968380673696557;2.125;0.71244367652555
12:48.9;1.615151492175324;2.298087233146438;0.11539493161915888;2.125;0.4283181787342194
12:48.9;1.5239931701236853;2.5640870278479815;-0.010027861005979084;2.125;0.03918538227159461
12:48.9;1.4159291122272815;2.80945497212427;-0.15821058250736572;2.125;0.6293599702702376
12:48.9;1.2957337518556105;3.024950487486229;-0.32017219414881015;2.637;1.254924662393553
12:48.9;1.1661282978435679;3.1998475863193665;-0.4867143455069667;3.2710000000000004;1.8161418823969564
12:48.9;1.0277861743513999;3.32301047399766;-0.648740804497217;3.7739999999999996;2.2156731584744946
12:48.9;0.8796998846851855;3.3844292316007025;-0.7975242258741255;4.08;2.37445452605862
12:48.9;0.7197482620895116;3.3769094395182226;-0.9249324181184952;4.332;2.2480710883700974
12:48.9;0.545311241125975;3.2975729131489526;-1.0236427845669036;4.6080000000000005;1.8407181177740948
12:49.0;0.3538223087711598;3.1488518893489035;-1.0873771171755677;4.4910000000000005;1.211483866507992
12:49.0;0.1432061923603616;2.938722164030581;-1.1111602231346052;2.892;0.46762423681260407
12:49.0;-0.08777860754124327;2.6800986171936367;-1.0915670893989433;2.892;0.25679697003797863
12:49.0;-0.3391930451851006;2.389588677930794;-1.0269223263032379;2.892;0.8323532636322373
12:49.0;-0.60945946913529;2.0859303594665004;-0.9174495240669728;2.231;1.1663444141977335
12:49.0;-0.8947930539484462;1.7883271671560648;-0.7653914772065326;1.732;1.2247662214933377
12:49.0;-1.1886476726477886;1.5147640334784789;-0.5751272124222463;1.344;1.0355284758327654
12:49.0;-1.4813478981559611;1.2804235053392237;-0.35330176101073857;1.052;0.6701260579417954
12:49.0;-1.76007845859733;1.0964195092091344;-0.1089349093445055;1.2009999999999998;0.2102208842832503
12:49.0;-2.009406977268027;0.9691082459252133;0.1466214781015268;1.419;0.2855208239149208
12:49.1;-2.2124860045748975;0.9001853750076403;0.40008958013826784;3.437;0.7968374295533118
12:49.1;-2.3529072277083305;0.8875775080906069;0.6371762430730912;3.437;1.3306709229551257
12:49.1;-2.416885446919803;0.9268253896517528;0.8438766118687662;3.437;1.8903095986819867
12:49.1;-2.395285872309646;1.0124816383484867;1.007873598443561;3.945;2.444277881122189
12:49.1;-2.285117693381922;1.1391520352201598;1.1198124481607814;3.702;2.914979832138823
12:49.1;-2.090304991166987;1.302031412663982;1.1743819216801756;4.21;3.1962480552589745
12:49.1;-1.821629671372621;1.496940308884857;1.1711047022323622;4.374;3.193451313389617
12:49.1;-1.495773736714379;1.719949586879586;1.1145624030233414;2.98;2.8673850076538554
12:49.1;-1.1334925346934566;1.9667292883440795;1.013711809413599;1.942;2.259840332143054
12:49.1;-0.7571705458205945;2.231799772997448;0.8802039202265428;1.911;1.4874152812260713
12:49.2;-0.38823425251102844;2.5078871419179363;0.7261058152352928;2.583;0.7069712496446101
12:49.2;-0.04494203464347494;2.7855380165445003;0.5617632737931995;2.583;0.07032587805436775
12:49.2;0.25908651117879916;3.053046443052887;0.39443976756545074;2.583;0.3120030991807353
12:49.2;0.5154833073538054;3.296706213466347;0.22796704388132458;2.583;0.38740651555251254
12:49.2;0.7209866606746376;3.501467326879159;0.06330644904953601;3.3310000000000004;0.15981784190313328
12:49.2;0.8767562577982239;3.652103330548694;-0.10026221632686938;4.474;0.3210400627637148
12:49.2;0.9873681412945312;3.734842857965344;-0.26377729710115155;4.585;0.972722266931617
12:49.2;1.0596565094388593;3.7391658717503438;-0.42759341922223026;4.6160000000000005;1.694224095966132
12:49.2;1.1015327825140897;3.6593358102318905;-0.5910545080372932;5.044;2.382468824371946
12:49.2;1.1209098529671717;3.495292549950611;-0.7527346429668937;5.059;2.949144972851273
12:49.3;1.1248522423506737;3.252659317559671;-0.9108959856355818;2.883;3.3327508229472063
12:49.3;1.1190196943868094;2.9418429826489945;-1.063868538058707;2.883;3.502234200329599
12:49.3;1.1073903998153638;2.576565722934897;-1.2102111639381175;2.883;3.453052123240013
12:49.3;1.0922036542651323;2.1723626570791055;-1.3486173923454357;2.5989999999999998;3.1998138225679265
12:49.3;1.0740774471217998;1.745384968501706;-1.4775961705511056;2.169;2.770017966494428
12:49.3;1.0522945188110593;1.3115407177048979;-1.5950146970090522;1.835;2.201323021699833
12:49.3;1.0252567624866458;0.8858999041871349;-1.6976478734745666;1.7269999999999999;1.54193089760343
12:49.3;0.9910712975791016;0.4823143331108836;-1.7809319561113561;1.795;0.8512995300600064
12:49.3;0.9481870451687742;0.11319865677771268;-1.8391146996033463;1.892;0.19739861740230152
12:49.3;0.8959857825185152;-0.21061805045521217;-1.8658935435484736;2.306;0.35211422366695294
12:49.4;0.8352506199404104;-0.48007262708664983;-1.8554713823849711;2.925;0.7440086950304278
12:49.4;0.7684615155446877;-0.688121994173639;-1.8037930104833486;2.925;0.9538372129447895
12:49.4;0.6998730933530201;-0.8299990049225566;-1.709620695433314;2.925;0.9931083547682023
12:49.4;0.635319558642255;-0.9033474735370387;-1.575132335247368;2.273;0.9039910002395979
12:49.4;0.5817079136224038;-0.9081929070113408;-1.405881184171517;1.7180000000000002;0.7427312487937852
12:49.4;0.5462306878365845;-0.8468115750939131;-1.2101697318974063;1.27;0.5597694178968504
12:49.4;0.5354193540397681;-0.7235801804238724;-0.9980685293753475;1.072;0.3866705447035412
12:49.4;0.5542118385468426;-0.5448317748004816;-0.7803731718558834;1.057;0.23563541136669344
12:49.4;0.6052022314752942;-0.31866509960336126;-0.5677207060753418;1.058;0.10948881534323382
12:49.4;0.6881972053327867;-0.0545840413753904;-0.3699443003689493;0.723;0.013896804016705712
12:49.5;0.800138876143949;0.2371617322706751;-0.1956271432803463;1.5859999999999999;0.03712266094012215
12:49.5;0.9353685676272442;0.5465109515761474;-0.051785793088342046;1.5859999999999999;0.026472336377840834
12:49.5;1.0861260265790496;0.8645158746379912;0.05634812871534644;1.5859999999999999;0.052909382273782384
12:49.5;1.2431734214304082;1.1838822725655547;0.12545304829070025;1.5859999999999999;0.1846381552442033
12:49.5;1.3965152617166892;1.4989575238347943;0.1541780420979098;2.214;0.322743525600575
12:49.5;1.5362376764733157;1.8052745289362153;0.1431819943461034;2.675;0.39709102744127006
12:49.5;1.6534069895346861;2.098870412369825;0.09515232494306161;2.83;0.3302058772154792
12:49.5;1.7408243391415867;2.3756013244056624;0.014751512651289787;2.718;0.061004948509305504
12:49.5;1.793415940204858;2.6306679399569504;-0.09156758636669128;2.839;0.43200505073726087
12:49.5;1.8081985428480345;2.858523923791015;-0.21591542214348275;3.165;1.116019055206972
12:49.6;1.7839450797295349;3.053221040625302;-0.3495005157175969;4.037;1.9036519481357916
12:49.6;1.7207413853245244;3.209071489163221;-0.48330135816752756;4.037;2.6687814583090823
12:49.6;1.6195831345905412;3.3213598373510425;-0.6087609033183885;4.037;3.2746578380129203
12:49.6;1.482087355735764;3.386830462602536;-0.7183868784460707;3.773;3.605999404904834
12:49.6;1.3103259571073498;3.4038395652645885;-0.8062120176076304;3.595;3.5958179330450797
12:49.6;1.106754849597951;3.3722621797163685;-0.8681084761721783;3.516;3.240013070770903
12:49.6;0.8742140831784037;3.2933420581526036;-0.9019187667215931;3.5239999999999996;2.596701701585359
12:49.6;0.6159763150207395;3.1696364462480897;-0.9073454894560958;3.492;1.7715203680124039
12:49.6;0.3358069588634544;3.0050831571582606;-0.8856052953584038;3.745;0.8936889553765865
12:49.6;0.03800588262379944;2.805063600344429;-0.8389561252930402;3.659;0.08944020472248419
12:49.7;-0.27255204353059936;2.5762428338921786;-0.7702515005261958;1.933;0.5408399854085487
12:49.7;-0.590315381319587;2.3260701524380067;-0.6826296169806113;1.933;0.9373289590199746
12:49.7;-0.9088469086859864;2.062108204043873;-0.5793670272088647;1.933;1.085815306591614
12:49.7;-1.2205488522455477;1.791534494251779;-0.4638677650208933;1.742;1.0143189396855745
12:49.7;-1.5164764149022623;1.521029718784914;-0.3397224363757993;1.962;0.7836057064306533
12:49.7;-1.7864494006968443;1.2570163734082016;-0.21076778967899612;1.849;0.4732993364024674
12:49.7;-2.019626476732075;1.006071762283305;-0.08111105849802444;2.638;0.16480868121580555
12:49.7;-2.205542365891989;0.7753322977532691;0.04489413403750299;3.5239999999999996;0.07677023658076285
12:49.7;-2.335361092768999;0.5727589757877515;0.1627616100418664;2.573;0.21770977132081007
12:49.7;-2.4029635061302086;0.4071934348915128;0.26813663195247184;2.464;0.2623639087449157
12:49.8;-2.405643231032288;0.2881867042415305;0.3572058139367231;2.779;0.24764164430890145
12:49.8;-2.344459373110523;0.22561282261183124;0.4271448669071286;2.779;0.22593404719234034
12:49.8;-2.224371900938117;0.229053398491401;0.4764604791679575;2.779;0.24275658717729895
12:49.8;-2.054166967612849;0.30689378843829174;0.5051394755899264;2.886;0.3184455237592963
12:49.8;-1.8460624313700782;0.46509746357764026;0.5146060163785724;2.6010000000000004;0.4418401876092177
12:49.8;-1.6148491364161786;0.705748435763309;0.5075375736295086;2.09;0.5784290272106968
12:49.8;-1.3764911697195688;1.0256128339592248;0.48754983009741715;1.6480000000000001;0.6882970146202799
12:49.8;-1.1462998049064599;1.4150812774594133;0.4586352849628339;1.09;0.7439556860979736
12:49.8;-0.937019604022062;1.857842735857739;0.4241895167773441;1.9469999999999998;0.7384439848793489
12:49.8;-0.7572556882345312;2.3314935064833;0.38571553951908993;2.465;0.6809949484440142
12:49.9;-0.610574868955544;2.8090770684330706;0.34177904253048935;3.1210000000000004;0.5862029615115719
12:49.9;-0.49541975391710386;3.2613652322083198;0.28793786227585505;4.221;0.4652340924008062
12:49.9;-0.4057817486515365;3.6595231204072998;0.21784737198724433;4.221;0.32349630897676485
12:49.9;-0.3324377826670885;3.97770633769202;0.12505740225400364;4.221;0.16536838966477913
12:49.9;-0.2645062691157698;4.195254625780683;0.004824676283606368;5.222;0.005353804075452341
12:49.9;-0.19110146467489794;4.298364772358344;-0.1445081197292555;5.487;0.11870240937421403
12:49.9;-0.10288021013247838;4.281172810479569;-0.32077996301553596;5.492000000000001;0.14128687979157487
12:49.9;0.006735056799779623;4.146071787846184;-0.5179802907333231;5.026;0.01446409665318789
12:49.9;0.14083426098208707;3.9030931987151884;-0.7268244567186791;3.997;0.3995275877227047
12:49.9;0.29884757860031136;3.5683771654522305;-0.9357683204434238;3.245;0.9979041561186955
12:50.0;0.47681029791756013;3.16202642762589;-1.1323277893959136;2.9139999999999997;1.7071956194260567
12:50.0;0.6678661571368613;2.70583251083846;-1.3045645803057837;2.9139999999999997;2.3575229572182654
12:50.0;0.8628680859496327;2.2213715005760895;-1.4424719307153935;2.9139999999999997;2.7648589024544283
12:50.0;1.0510746572468719;1.7287556545075093;-1.5389204026676016;2.5860000000000003;2.7962972521286953
12:50.0;1.2210211472049908;1.2460163411344214;-1.5899805175185477;2.272;2.4190159197511445
12:50.0;1.3615944398861792;0.7888988346224728;-1.5947161148538151;2.161;1.7129806874887772
12:50.0;1.4632281056998293;0.3708385580653779;-1.5547283372223706;2.2880000000000003;0.8436288682668509
12:50.0;1.5190656861423395;0.0029553259492540607;-1.47373658058345;2.637;0.006616096093247565
12:50.0;1.5259296084022802;-0.30602404421593116;-1.3573199372081308;3.372;0.6338292519309902
12:50.0;1.484916445295479;-0.5499167723083008;-1.2126997263491324;3.117;0.9902668988613895
12:50.1;1.4014255358543986;-0.7252295045248766;-1.0483020175983442;1.4980000000000002;1.065447151192573
12:50.1;1.2845365453921447;-0.8311921346460156;-0.8729652163292113;1.4980000000000002;0.9320620572899276
12:50.1;1.1458939526453882;-0.8696129002489952;-0.6949699959507036;1.4980000000000002;0.692526595098764
12:50.1;0.9984099765034987;-0.8445535274430973;-0.5212351694068188;1.182;0.4395110551150005
12:50.1;0.8550192406132449;-0.7618738276192187;-0.3568920516657455;0.893;0.23248547165119832
12:50.1;0.7275710491707291;-0.6287187175006843;-0.20523884923130145;0.7170000000000001;0.09388395367373889
12:50.1;0.6258950236038694;-0.45301940068293606;-0.06799082057377286;0.639;0.01927829325860184
12:50.1;0.5570795588909616;-0.24304731571688815;0.05424880366734755;0.515;0.00734510853055091
12:50.1;0.5249912857264635;-0.007002545161221103;0.16135486860140172;0.165;0.0005931848998292545
12:50.1;0.5300646519066113;0.24741289407856545;0.2529674257545863;1.5630000000000002;0.03317536993910804
12:50.2;0.5694297076570353;0.5134371432299645;0.3278914156551953;1.5830000000000002;0.09586442044736142
12:50.2;0.6374370212310636;0.7855908071623463;0.3838804956790604;1.5830000000000002;0.19223378744411926
12:50.2;0.7264893831918293;1.0597329906782176;0.4179278033411552;1.5830000000000002;0.3217562493919111
12:50.2;0.8279329140693988;1.3327184175067175;0.42690937180247956;1.5830000000000002;0.47105241689428146
12:50.2;0.9327976246534314;1.6017189030417665;0.4083410294207039;1.6219999999999999;0.6100939970493248
12:50.2;1.0323452138591223;1.8634179393701669;0.3611182642654011;1.7209999999999999;0.694679807251834
12:50.2;1.11849009745761;2.11334151406779;0.28616410720939534;2.07;0.6764208536964001
12:50.2;1.1841695046291243;2.3455689484644147;0.1868512976367675;2.431;0.518989049667837
12:50.2;1.2236979939742283;2.552980237898035;0.06901733253770835;2.883;0.21561544708711197
12:50.2;1.2330819755977853;2.728038124059881;-0.0595275601321408;3.6239999999999997;0.2002444404323221
12:50.3;1.2102270897059346;2.863914834530961;-0.18988685223965457;3.7239999999999998;0.6581454212162924
12:50.3;1.1549837201940003;2.9556429010243774;-0.31305971655081677;3.7239999999999998;1.0686980382011269
12:50.3;1.0690359725689624;3.0009749413955986;-0.4207334116035486;3.7239999999999998;1.3497759639116027
12:50.3;0.9556800667178493;3.000763916125188;-0.505779862866577;3.7239999999999998;1.4504604486166623
12:50.3;0.819512376351802;2.958818399062522;-0.5625115505282927;3.301;1.3639714248784864
12:50.3;0.6660030222893328;2.881277766029612;-0.5868162862003491;3.0210000000000004;1.126065068331837
12:50.3;0.5009368294493866;2.7756097675054696;-0.5763072346103411;2.783;0.8013005508589548
12:50.3;0.3297499860413031;2.6493772850656274;-0.5306140171811872;2.4290000000000003;0.46356145020074113
12:50.3;0.15684626386569495;2.508965050540845;-0.4518573379871881;2.041;0.1778157104335482
12:50.3;-0.014928869756629432;2.358561864094576;-0.34516351313998583;2.245;0.012153436100346084
12:50.4;-0.18438101150507286;2.1997892031422186;-0.2188832004267427;2.633;0.08877888565178137
12:50.4;-0.3514534087985261;2.0321832794966253;-0.08418438264811438;2.633;0.060125979592520556
12:50.4;-0.5162795258201035;1.8542910153600687;0.04607679406558125;1.946;0.044110811816282326
12:50.4;-0.6782434938741554;1.664893741068463;0.15908925174103042;1.946;0.17964411567634145
12:50.4;-0.8354400387588462;1.4640361807167424;0.24423807273310655;3.367;0.29873111442769396
12:50.4;-0.9846543007907895;1.2537881991402793;0.29530388757766385;5.7589999999999995;0.36456680684021914
12:50.4;-1.1216790571641357;1.038734777391752;0.31189896093769187;1.69;0.3634019149293219
12:50.4;-1.2416645447888972;0.8261586555644113;0.29924844468346573;1.474;0.3069726188999728
12:50.4;-1.3393987453045075;0.625884123919526;0.2662992117235183;1.795;0.22324086883977806
12:50.4;-1.4096894641228865;0.4497827086658396;0.223185528453479;1.641;0.1415116649057883
12:50.5;-1.448002948946066;0.3109579084105667;0.17914550366448076;1.9180000000000001;0.08066348197880872
12:50.5;-1.4512895945235387;0.22265251184891013;0.14130257463842558;1.9180000000000001;0.045659563516795315
12:50.5;-1.4187770490265263;0.19698504458550964;0.11420131330427717;1.9180000000000001;0.03191673868109137
12:50.5;-1.3525035437097073;0.24365686511268494;0.09985636521451642;1.9180000000000001;0.03290734297128995
12:50.5;-1.2574370343230206;0.36873313108233036;0.09812890186223668;1.66;0.045498318560073664
12:50.5;-1.141122036195658;0.573573589073022;0.10729497741610743;1.5019999999999998;0.07022643628990317
12:50.5;-1.0128868105393272;0.854044913855946;0.1246333883200915;1.089;0.10781421586903847
12:50.5;-0.8827262428844559;1.200203428787133;0.14682162086457198;1.061;0.15555032235365934
12:50.5;-0.7600356768118497;1.5965804430519486;0.17002552660278858;1.2990000000000002;0.20631885205818212
12:50.5;-0.6523841842944211;2.023074014889275;0.18979995911123104;1.531;0.25050206502037786
12:50.6;-0.5644916398811867;2.4563731872178742;0.20110855045656317;3.387;0.27885754414530417
12:50.6;-0.4975506473695417;2.8717790802199743;0.19870834076920535;3.387;0.28392551364483637
12:50.6;-0.4490228732089076;3.2451607007667493;0.17783354916066402;3.387;0.2591304019046054
12:50.6;-0.4130002531712531;3.554742087574811;0.13486475253567937;3.625;0.19799620851585428
12:50.6;-0.3811191262929399;3.782590793572006;0.0677435458542025;4.12;0.0976602946537499
12:50.6;-0.343874051676877;3.9158547494401117;-0.023848210607542428;4.692;0.03211306647165648
12:50.6;-0.29207106787451564;3.9477541116677966;-0.13839102922836202;5.093;0.1595682831377471
12:50.6;-0.218141225515569;3.8781655006807587;-0.27243854637925213;5.018;0.23047967969487948
12:50.6;-0.11709379095085538;3.7135403085341743;-0.42060745519418136;4.343999999999999;0.1828937965498944
12:50.6;0.013008870467287442;3.4659798373083768;-0.5757834589884333;3.304;0.025961202555902434
12:50.7;0.17103879303177222;3.151540925733168;-0.7296390387402029;2.276;0.39330153094756615
12:50.7;0.3531025875229649;2.788157338275542;-0.8734329543168753;2.276;0.8598996090410888
12:50.7;0.5529516946056073;2.3937343316388766;-0.9989204837865863;2.276;1.322190586453151
12:50.7;0.7623806381716423;1.9848442068409198;-1.0991660382643373;2.522;1.6632655158273586
12:50.7;0.9716429558929487;1.5761020983229783;-1.1691260175625833;2.339;1.7904095227413204
12:50.7;1.1700102528209864;1.180017596869322;-1.205942065108605;1.9809999999999999;1.6649630335318548
12:50.7;1.3465723533925409;0.8070648694129823;-1.2089301219852218;1.892;1.3138304884031653
12:50.7;1.4912639877772753;0.4658136774690005;-1.1793361783043075;2.275;0.8192272469114487
12:50.7;1.5959862933890379;0.1630739970696572;-1.1199987699742244;2.593;0.2914952076958361
12:50.7;1.6556132093031066;-0.09593598631527392;-1.0350042406162618;2.7939999999999996;0.1643927107570978
12:50.8;1.6686521816587052;-0.30738536070236644;-0.9293051865816551;1.911;0.47665852187439983
12:50.8;1.6374060382490128;-0.4686014840780058;-0.8082524207408411;1.911;0.6201647269832224
12:50.8;1.567647973455342;-0.5778541450171921;-0.6770857375541557;1.911;0.6133529295856502
12:50.8;1.4679464343645434;-0.6342103163614442;-0.5404999983530663;1.581;0.5031983490245917
12:50.8;1.3487758958409142;-0.6375240371988259;-0.4023722240160988;1.402;0.34599064275650837
12:50.8;1.2215050869845436;-0.588589858537447;-0.2656782432583032;1.399;0.1910134926906513
12:50.8;1.0973483689292975;-0.48940707304040115;-0.1325984641375946;1.2309999999999999;0.07121201223834091
12:50.8;0.9863668395406325;-0.34343018057385283;-0.004778195572712636;0.996;0.0016186048714874539
12:50.8;0.8965882930134207;-0.1556663252277093;0.11632388851436017;0.8;0.01623516282667277
12:50.8;0.8333089168358507;0.06748585503551245;0.2290542044497408;0.461;0.012881221602405167
12:50.9;0.7986521239206862;0.3186988594058989;0.33117989435834927;1.167;0.08429505986116392
12:50.9;0.7914630585494882;0.5904058659654321;0.41956010756344736;1.167;0.19605390674671613
12:50.9;0.8075914043391906;0.8754914596525052;0.4900074689386695;1.167;0.3464545757537365
12:50.9;0.840564213773856;1.167723382753505;0.537511736383069;1.896;0.5275927566377048
12:50.9;0.8825672978843446;1.461810460424195;0.5569214867687508;2.47;0.7185100886584092
12:50.9;0.9255355937217734;1.7531297983880934;0.5439976418950673;2.386;0.8826818854560143
12:50.9;0.9620904128804588;2.0372218164057507;0.4965621571720445;2.303;0.9732576462465304
12:50.9;0.9861550252010819;2.3091925523268095;0.4153895299339737;2.3480000000000003;0.9459341095209441
12:50.9;0.993252369235609;2.5632354244028264;0.30456172504533274;2.457;0.7753957741617268
12:50.9;0.9805795665430839;2.792493259437837;0.17116860260917863;2.747;0.46870445100443814
12:51.0;0.9469388524773324;2.9893645518695;0.024430921375347515;3.576;0.06915771923877628
12:51.0;0.8925654764573636;3.146173668700176;-0.12549430485012078;3.576;0.35240884002617995
12:51.0;0.8188773623440728;3.255983907153403;-0.2686792067760493;3.576;0.7163663417729467
12:51.0;0.7281640404488926;3.3133288770942984;-0.39628630617153565;3.5410000000000004;0.9560989449318357
12:51.0;0.6232173048710941;3.314761184969526;-0.5010287286928323;3.431;1.0350334307345945
12:51.0;0.506906444433756;3.259238452987477;-0.5772960354778233;3.505;0.9537675078075508
12:51.0;0.38173508605961026;3.148384248786552;-0.6211097505075666;3.6830000000000003;0.7464799661792706
12:51.0;0.2494516177015516;2.986590928389646;-0.6301043610973742;3.63;0.4694340113094695
12:51.0;0.11078314971570563;2.780851389125878;-0.6036659377417711;3.2310000000000003;0.1859722563174162
12:51.0;-0.034654373130290905;2.5402162236614285;-0.5431958249470319;2.458;0.04781731165150821
12:51.1;-0.18820530049248416;2.274929417898887;-0.4522972642768938;1.77;0.19365278098430713
12:51.1;-0.35171406081627965;1.9955003796472224;-0.3366668207431539;1.77;0.23628810723956697
12:51.1;-0.526776581422995;1.7120107379736396;-0.2036505083330784;1.77;0.18366163336885624
12:51.1;-0.7138675352087898;1.4337752230185663;-0.06160160238372341;1.399;0.06305081608591842
12:51.1;-0.9115721060611562;1.1692723490710417;0.08082849416749785;1.237;0.08615315672130555
12:51.1;-1.1161074085585168;0.9262054116711009;0.21543732474510033;1.359;0.22270719733678368
12:51.1;-1.3212242098541793;0.7116046630857326;0.3352699194965749;1.4880000000000002;0.31521719384408203
12:51.1;-1.5184749407425793;0.5319300447082066;0.43542219110613517;3.005;0.3517002759878188
12:51.1;-1.697769340574547;0.3931666053170542;0.5136302098196343;1.426;0.34285135379682297
12:51.1;-1.8481684140677743;0.3009260516084988;0.5703030772581367;1.534;0.31718091348636335
12:51.2;-1.9589503919163112;0.2605293989753164;0.6078995577463008;2.775;0.31025015215561336
12:51.2;-2.0209607964107184;0.2769644723501485;0.6300044095787269;2.775;0.3526351027821263
12:51.2;-2.0280649757605573;0.3545986044666819;0.6405485654034924;2.775;0.4606498667773036
12:51.2;-1.9783584761220894;0.4966061276536906;0.6433015661466531;2.775;0.6320212358327977
12:51.2;-1.874843751925973;0.7041555019935711;0.6415398302111498;3.022;0.8469490431346152
12:51.2;-1.7254241814086149;0.9754560579740825;0.6378015773919717;2.707;1.0734681898462124
12:51.2;-1.5421413782185225;1.3048260237516371;0.6336597608341151;1.9369999999999998;1.2750667742860284
12:51.2;-1.3396688270664168;1.6820155386480644;0.6294215307514689;1.3219999999999998;1.4183030936886494
12:51.2;-1.133263752017691;2.0920368618374114;0.6237260299011659;1.68;1.478748098680507
12:51.2;-0.9365738125731714;2.5156693428381502;0.6132210668694492;2.092;1.444816304783841
12:51.3;-0.759752039894132;2.9306604776604326;0.5927063099018957;3.9330000000000003;1.3197052156395113
12:51.3;-0.6082257903238004;3.313483912589231;0.5560410840387823;3.9330000000000003;1.1206153811001245
12:51.3;-0.4822781230993844;3.6413594031124346;0.49764585202847755;3.9330000000000003;0.873939757030487
12:51.3;-0.3774321919465212;3.8942006319451874;0.41399600278514914;4.713;0.6084899505902459
12:51.3;-0.2855133940092137;4.056286399489443;0.30454643506180373;4.692;0.35270256509797593
12:51.3;-0.19617647927156362;4.117564508981087;0.1719036191346206;4.832;0.13885846756483358
12:51.3;-0.09862522378587425;4.074485606619371;0.021406414816084;4.8839999999999995;0.00860210474692462
12:51.3;0.016750311738808796;3.930244221798847;-0.1395774309718818;4.6739999999999995;0.009188775320425955
12:51.3;0.15704376941371673;3.6943473703599734;-0.30238785639812354;4.085;0.17543764373230286
12:51.3;0.32595252474812114;3.381510769968152;-0.4577549071967516;3.3989999999999996;0.5045429393815893
12:51.4;0.5233742809268419;3.0100064112397047;-0.5964697979003489;2.166;0.939654625668995
12:51.4;0.7453830051524842;2.59975787548413;-0.7100991688870184;2.166;1.3760410608973175
12:51.4;0.9844340781793784;2.1706037212094293;-0.7917162240242842;2.166;1.69175211139527
12:51.4;1.2297127161802814;1.7410639924199003;-0.8365575309995273;2.307;1.7910768106781088
12:51.4;1.467666355825197;1.3276584003225886;-0.8425121660475947;2.336;1.6416851407768966
12:51.4;1.6828396772695418;0.9445733855392298;-0.8103463966544145;1.984;1.2880987329312343
12:51.4;1.8591053308414005;0.6034265590160338;-0.7435698031597676;1.9780000000000002;0.834161539041658
12:51.4;1.9812820471696646;0.3129819952559106;-0.6479404913690876;2.594;0.4017915325347738
12:51.4;2.0369930870991637;0.07882628835750739;-0.5307281397867933;2.978;0.08521827675636329
12:51.4;2.018476055835194;-0.09685046194160184;-0.399874225183346;3.167;0.07817154760880729
12:51.5;1.923985272309355;-0.21519003144339946;-0.2631456536815525;2.331;0.10894820857167464
12:51.5;1.7585128910733412;-0.2802451247385198;-0.1273806269703351;2.331;0.06277504094585958
12:51.5;1.53375538232463;-0.29830802802699;0.0020479267016754073;2.331;0.0009369910649501905
12:51.5;1.2673918434336187;-0.27719683424173414;0.12146021948429829;1.7890000000000001;0.04267104074764371
12:51.5;0.9817397269940851;-0.22564671647791446;0.2287880710085631;1.341;0.05068258534051103
12:51.5;0.7018385015027377;-0.15279554641260013;0.32325690571324883;1.071;0.03466535854056557
12:51.5;0.4530665550685957;-0.06762381692419614;0.40492470878569503;0.889;0.01240611957966305
12:51.5;0.25843369661042087;0.0218256226046458;0.4741580449640207;0.763;0.002674477229555902
12:51.5;0.13568871113554398;0.10955503045872202;0.5311086408397293;2.487;0.007895132235463611
12:51.5;0.0945675525775874;0.19292537418673805;0.5752694475077262;6.935;0.010495492198290749
12:51.6;0.13500217155947217;0.2736491626083765;0.605241334874242;1.219;0.02235957056458013
12:51.6;0.24728169527418992;0.357745364347346;0.6188352198333337;1.219;0.05474456473373153
12:51.6;0.414305477950181;0.45422614299523084;0.6134939739110815;1.219;0.11545243664291685
12:51.6;0.6149299093865719;0.5730382289825809;0.5868686880972177;1.507;0.20679981776193535
12:51.6;0.8272517976497795;0.7229875323023032;0.5373818044756136;1.9369999999999998;0.32140415359477215
12:51.6;1.031263537872887;0.9100717960531963;0.4647011533869091;2.227;0.43613312027710976
12:51.6;1.2107074192205163;1.1363731658113072;0.37010176827835034;2.259;0.5091917208217279
12:51.6;1.3540355751178448;1.3995478889245694;0.2566884715253296;2.072;0.48643431290350053
12:51.6;1.4544813687688074;1.6928769331767552;0.12943566578614685;1.964;0.3187039982505757
12:51.6;1.5094267086129145;2.005801677606568;-0.005004604477669651;2.036;0.015151993687311986
12:51.7;1.5193846140282536;2.324866771337814;-0.13875288948611142;3.1510000000000002;0.49012610050734
12:51.7;1.486924166498227;2.634957328364996;-0.26336911820175735;3.1510000000000002;1.031875393159881
12:51.7;1.4157666730673804;2.920634504968325;-0.37061036472661874;3.1510000000000002;1.5324505083369362
12:51.7;1.310155334145803;3.167367484019698;-0.45313901730899325;3.54;1.8804106483490262
12:51.7;1.1744973199327318;3.3625843790786365;-0.5051111839605079;3.9610000000000003;1.994859006311782
12:51.7;1.0132030223975894;3.496560867264581;-0.5226381565519662;4.129;1.8515638060398403
12:51.7;0.8306049137530985;3.563125951661474;-0.5041190210999558;4.209;1.491965410467989
12:51.7;0.6308525099369618;3.560086245079927;-0.45043951340099647;4.2;1.0116373029488626
12:51.7;0.4177607045870951;3.489254851012643;-0.3650356561228377;3.935;0.5321028262283806
12:51.7;0.19469103798215143;3.3560240679267914;-0.253784354096753;3.287;0.16581960315224603
12:51.8;-0.03540533705266012;3.168536338154861;-0.12463546669993456;2.492;0.013981992652429996
12:51.8;-0.26970863862428157;2.936662273941029;0.013056337135537917;2.492;0.010341182836260098
12:51.8;-0.5050843190579721;2.6710858562014477;0.14941462403992392;2.492;0.20157879261234665
12:51.8;-0.7376707440908581;2.3827196398641606;0.2749957713457948;2.387;0.4833497741198699
12:51.8;-0.9627045846515678;2.082477842498557;0.38174606473789074;2.425;0.765328696969876
12:51.8;-1.1746471864724768;1.7812904843834354;0.46393781444645626;3.3560000000000003;0.9707378487807964
12:51.8;-1.3674995093190885;1.490219259317048;0.5189154788464793;2.536;1.0574844174887836
12:51.8;-1.5351186952030436;1.220562019912609;0.5473109686793706;2.051;1.0255007081264376
12:51.8;-1.6714360722717132;0.9838398439534008;0.5525346130878485;1.6740000000000002;0.9086019546393299
12:51.8;-1.7706534156460874;0.7915682472887645;0.5397678922119618;1.899;0.7565349105647896
12:51.9;-1.8275944411194873;0.6547573573682445;0.5149289526397394;2.191;0.6161798994361481
12:51.9;-1.8383036011539442;0.5831619410938362;0.48393963467787077;2.191;0.518797175684874
12:51.9;-1.8008008059557503;0.5843868677972024;0.4523086486358838;2.191;0.475993493637431
12:51.9;-1.7157965147970429;0.6629991080032142;0.4248529966221897;2.424;0.48330068563917356
12:51.9;-1.5871766550297959;0.8197796985550858;0.405411312294088;2.59;0.5274949288286223
12:51.9;-1.4220746376307813;1.0512137015968874;0.3965284288518369;2.394;0.5927720707192636
12:51.9;-1.2303558739610263;1.3492811379189797;0.39912331984027527;1.9409999999999998;0.6625830162620241
12:51.9;-1.023464617541962;1.7015416129243432;0.4121120430863024;1.736;0.7176797854832233
12:51.9;-0.812829421147839;2.0914402363379923;0.43204264623797817;1.564;0.7344656536094414
12:51.9;-0.6082307588587093;2.4988187943207554;0.453033413172028;1.3719999999999999;0.6885466618305123
12:52.0;-0.41655388654059294;2.90077919501697;0.467402051242486;3.862;0.5647763167853963
12:52.0;-0.24118752370626986;3.2730699056133137;0.4670811340280194;3.862;0.36872488220481253
12:52.0;-0.0821104425879037;3.5919172503808263;0.44539397274851056;3.862;0.1313617881749013
12:52.0;0.06344964889922444;3.8359945624176417;0.3984906124733996;4.39;0.09698962965000155
12:52.0;0.19997791157288095;3.988270610112534;0.3259680451432484;4.745;0.25998103882352874
12:52.0;0.3324924127070225;4.037590023153652;0.23066806701331982;5.212999999999999;0.3096645097331555
12:52.0;0.46548411867768547;3.9797884582905088;0.11797271339501655;5.1339999999999995;0.2185477929090847
12:52.0;0.6021910469251044;3.8180721885923825;-0.005040408601500084;4.412;0.01158895225816056
12:52.0;0.7442761916645099;3.5624857527351073;-0.1303789137457773;3.5989999999999998;0.3456962124485027
12:52.0;0.8918064704025799;3.228542589728817;-0.24983846388994013;3.1039999999999996;0.7193436924230651
12:52.1;1.043339226516285;2.8353500283794064;-0.3556935586170332;2.347;1.0522240336861162
12:52.1;1.1959587984424125;2.403673437578622;-0.4413844709664402;2.347;1.2688454652809704
12:52.1;1.3452196029554622;1.9543150089834358;-0.5021047075901689;2.347;1.3200246703980798
12:52.1;1.485064094750687;1.506972533538028;-0.5351596858419059;2.063;1.197661047770903
12:52.1;1.6078512589268845;1.0795022632743962;-0.5400211028769442;1.5730000000000002;0.9373033272527784
12:52.1;1.7046520834562744;0.6873940811213937;-0.5180867591667161;1.444;0.6070773574090463
12:52.1;1.7659371789007428;0.3433182730793722;-0.47224687350565625;1.766;0.28631312733922604
12:52.1;1.782682009359453;0.05671087735816351;-0.40641454819545936;2.137;0.04108747885530445
12:52.1;1.7477665079940943;-0.16655941472613933;-0.32512659972764335;2.5140000000000002;0.09464661822376241
12:52.1;1.657412167794548;-0.32435729011786263;-0.23320048861497525;2.699;0.12536711802974407
12:52.2;1.512347434151906;-0.41818335723882716;-0.13538245667785265;1.781;0.08562108152700477
12:52.2;1.3184662302502455;-0.4527672569797694;-0.03598564971711745;1.781;0.021481933664644542
12:52.2;1.0869127630499296;-0.43541437971675623;0.06140032935537679;1.781;0.02905816308680272
12:52.2;0.8336417335827306;-0.3752494345787368;0.1540438505988694;1.49;0.04818855023362177
12:52.2;0.5784782190963663;-0.28247630977814214;0.24002930132520026;1.157;0.03922232225201944
12:52.2;0.34364456700539964;-0.16768695733656672;0.31806889780108016;0.9159999999999999;0.018328628583082103
12:52.2;0.15174308571287473;-0.04117656753669936;0.3872055671824015;0.795;0.0024193608314945388
12:52.2;0.023237060751182183;0.0878322942816973;0.44644156162553117;0.732;0.0009111713152698535
12:52.2;-0.0264771852806843;0.21218022196514646;0.49434144452319817;1.986;0.0027771781277892045
12:52.2;0.009933755420559319;0.32796851536533067;0.5287027003135012;8.874;0.00172249172994832
12:52.3;0.12962852984835999;0.4355485314693267;0.5464565870802889;1.485;0.03085267431882073
12:52.3;0.31960945830982834;0.5395819400576344;0.5439554329350108;1.485;0.09380810158201842
12:52.3;0.5591659189957235;0.6478604354525439;0.5176292995766317;1.485;0.18751715396683166
12:52.3;0.8236172403601577;0.769380275808108;0.4647962930892168;1.76;0.29452972574202446
12:52.3;1.0879702838693928;0.9124147143387755;0.3843941356268303;2.253;0.38158040736584165
12:52.3;1.329843210893476;1.0829545996113168;0.27751776034308584;2.64;0.3996699283372519
12:52.3;1.5315119720431511;1.2835718710425714;0.14772813879106456;2.62;0.29040481543623947
12:52.3;1.6809991478324917;1.512749837678491;0.0011034284683266408;2.301;0.00280594266585837
12:52.3;1.7721857420600318;1.764799663563264;-0.1540127329074337;2.19;0.48168295424962393
12:52.3;1.804105105323261;2.0304621933215854;-0.3076048703307135;2.498;1.1268080743664126
12:52.4;1.7797320004821338;2.298153150674041;-0.44890394365261493;3.728;1.8360605404644166
12:52.4;1.704611458018674;2.5555950188422965;-0.5675060530951047;3.728;2.472224661868589
12:52.4;1.5856045377661927;2.7913986828598802;-0.654470465051889;3.728;2.8967218934617573
12:52.4;1.429913947453977;2.9961782930603045;-0.7031824993973403;3.728;3.0126287005992824
12:52.4;1.2444219736126254;3.16302816216934;-0.7098768315681011;3.59;2.794175832786098
12:52.4;1.0352697232055024;3.287460228708088;-0.6738114928722195;3.408;2.293255452975509
12:52.4;0.8075798653374471;3.3670289946298526;-0.5970999400334012;3.385;1.6236012102004027
12:52.4;0.56528320128756;3.400861922542825;-0.484217308804323;3.4219999999999997;0.9308836208563942
12:52.4;0.31109426020187436;3.3892260924875113;-0.3412478700939727;3.4160000000000004;0.3598011017992055
12:52.4;0.046709662228301474;3.3331647166757907;-0.17498920112413252;3.117;0.027244243374001404
12:52.5;-0.22674017760503293;3.2342046766786807;0.007950253151406145;2.819;0.00583011257730707
12:52.5;-0.5080121822435342;3.094189401891554;0.20189032910418342;2.819;0.317348563750701
12:52.5;-0.7949095621232914;2.9153600390639296;0.40245107925612794;2.819;0.9326592765047194
12:52.5;-1.0833934275693813;2.7007821255390247;0.6064047904931585;3.332;1.7743462409587734
12:52.5;-1.3668341213922435;2.4550627620734655;0.8110154918623559;2.943;2.721495127254058
12:52.5;-1.6356383500578406;2.185132140494087;1.0130572199668466;2.765;3.6207535550906362
12:52.5;-1.8774693379678973;1.900823355540724;1.2078089452127436;2.64;4.310353156443898
12:52.5;-2.0781899166004725;1.6150873736353273;1.38832182440935;2.824;4.659844302721012
12:52.5;-2.2235182656322077;1.3437788450882433;1.545223679040376;3.634;4.616999801215985
12:52.5;-2.301189796298157;1.1049391844833039;1.6673243664219362;4.372;4.239463611350116
12:52.6;-2.3031941704648853;0.91746941915479;1.743163240469969;4.602;3.683496054690561
12:52.6;-2.227538518896509;0.7992002934823702;1.763259241363321;4.602;3.1390412735653648
12:52.6;-2.079093177450486;0.7646320439553161;1.7224081224415566;4.602;2.7381832688762873
12:52.6;-1.8693093317897167;0.8227807117468963;1.621283358403069;3.997;2.4935851390840305
12:52.6;-1.6148085773384262;0.9754952778924038;1.4668607119359554;2.531;2.3106549422869893
12:52.6;-1.335066717385954;1.2164774312262934;1.2715387147846995;1.504;2.0650787278663394
12:52.6;-1.049682090081701;1.5311633245151777;1.0511271550350993;1.015;1.6894080573760215
12:52.6;-0.775859168407673;1.897523707567842;0.8221421462938832;1.676;1.2103668476382978
12:52.6;-0.5265994314562943;2.287700433425127;0.5990619623173673;2.137;0.7216909929148267
12:52.6;-0.30978483078727864;2.6703397093667673;0.39227766331798725;2.329;0.32450413975483217
12:52.7;-0.12809374381613242;3.0134936687013876;0.20728701606638833;4.605;0.08001479598162642
12:52.7;0.02040952752104536;3.287866209888351;0.045177645555983977;4.677;0.003031591506461034
12:52.7;0.14119820493804727;3.4699321070002953;-0.09609888611802263;4.677;0.047083474811496114
12:52.7;0.2419280174930608;3.5443311212415356;-0.2203081604540129;4.677;0.18890829959964917
12:52.7;0.3310147317445765;3.505135451135663;-0.33174325262021487;4.541;0.38490559687548426
12:52.7;0.4163256590956377;3.355907234695416;-0.43433425559003286;4.01;0.6068302317401997
12:52.7;0.5041275326878009;3.1086582450057154;-0.5310013436668525;3.1430000000000002;0.8321641777951423
12:52.7;0.5983856228330671;2.781936260850106;-0.6231909882720535;2.47;1.037407755080715
12:52.7;0.7004408692550486;2.3983790187092193;-0.7105985689426582;1.895;1.1937506556592157
12:52.7;0.8090256238932062;1.9821442971571288;-0.7911566554006547;1.617;1.2687031850495105
12:52.8;0.9205411100546632;1.5565893952244092;-0.8613600052216801;1.57;1.234246653252776
12:52.8;1.0295132462313716;1.1424773562521515;-0.9168787774413735;1.57;1.0784287578865093
12:52.8;1.1291703376218571;0.7568734460615243;-0.9532760798327383;1.57;0.8147069581333654
12:52.8;1.2121375390081979;0.4127446703379546;-0.9666268813781671;1.4809999999999999;0.4836066272659747
12:52.8;1.2712725027313587;0.11910974276569586;-0.9539541748157051;1.536;0.14444863861678695
12:52.8;1.3006316520973646;-0.11849444098028653;-0.9135469437780832;1.871;0.14079368122350988
12:52.8;1.2964736196638083;-0.2974225707992683;-0.8452791589482727;2.319;0.3259400806438577
12:52.8;1.2581264118070286;-0.4173043138797507;-0.7509602179538327;2.592;0.39427031943619995
12:52.8;1.188501139368037;-0.47942392547695967;-0.6345825359238149;2.283;0.36158251554888093
12:52.8;1.094049677452375;-0.4860993335787866;-0.5022472144318071;1.686;0.26710351598682847
12:52.9;0.9840677633597793;-0.44010704028399744;-0.36164791246087324;0.45;0.1566279571733192
12:52.9;0.8694478379992999;-0.344266738693096;-0.22121482802856307;0.45;0.06621445848411943
12:52.9;0.7611952005176608;-0.20131887449344288;-0.08918866714351537;0.45;0.013667535444107199
12:52.9;0.6690674712198885;-0.01416447596458863;0.027119800117325517;0.359;0.0002570140776267632
12:52.9;0.6005498669334784;0.21357345050883828;0.12178296461047633;0.308;0.015620066602405823
12:52.9;0.5602103311801166;0.47680890525017444;0.19046382649050744;0.294;0.05087541640954878
12:52.9;0.5494157393452983;0.7682824097666948;0.23047121225325934;0.32899999999999996;0.09728338481379584
12:52.9;0.5663898994260911;1.078121470384502;0.24074778466210564;0.445;0.14700953174909803
12:52.9;0.6065880045552593;1.3939018299879988;0.22185129554598892;0.782;0.18758062356678737
12:52.9;0.6633406262821047;1.7013810923064736;0.1759597306123907;1.639;0.1985873072419237
12:53.0;0.7286885524077614;1.9859352991175991;0.1068884044395618;3.468;0.15468123696126862
12:53.0;0.794289875375802;2.2344650361290985;0.020063759286437898;3.468;0.03560941990914792
12:53.0;0.8522573173118544;2.4372564574706947;-0.07760942356850015;3.468;0.16120793919397314
12:53.0;0.8958141174955818;2.589243017601408;-0.17803041287658447;3.468;0.41293806195799737
12:53.0;0.9197295178397038;2.690378211697154;-0.2723735365726076;3.446;0.6739665959439936
12:53.0;0.920552361525689;2.7451347466798577;-0.35178377078841655;3.177;0.8889717564383179
12:53.0;0.896680824060453;2.761295613875004;-0.4082732080064479;2.805;1.010884800471551
12:53.0;0.848311385616867;2.74827142496418;-0.4356921241686042;2.349;1.0157682354690374
12:53.0;0.7773091810058016;2.7152629400173076;-0.43058578446332507;2.176;0.9087938452041634
12:53.0;0.6870220033594576;2.669651637646402;-0.392766170226069;2.18;0.7203761312423074
12:53.1;0.5820295892383086;2.6159600983787663;-0.32549173506330514;2.4290000000000003;0.4955827081726972
12:53.1;0.46781458591527936;2.555548167847161;-0.23523282608427032;2.4290000000000003;0.28122618523381615
12:53.1;0.35037536790281126;2.486976660336584;-0.13109894155614005;2.4290000000000003;0.1142363876997099
12:53.1;0.2358231049802929;2.4068230775202215;-0.024053770753607245;2.537;0.01365254723652889
12:53.1;0.1299758738271792;2.310729143912745;0.07399824895276758;2.653;0.022224563026846986
12:53.1;0.03792819156425018;2.194500900433759;0.15122977209459107;2.735;0.012587375755745757
12:53.1;-0.0364129203484694;2.055086998515899;0.19700033767819825;2.427;0.0147418739487086
12:53.1;-0.09079404150682163;1.891278821691966;0.2030559663481739;1.815;0.03486813047594105
12:53.1;-0.12502326192181276;1.704073146297231;0.16485179985276738;2.1390000000000002;0.03512147538401533
12:53.1;-0.14122771188388875;1.4967541539987888;0.08291188918893021;6.756;0.017526177504958513
12:53.2;-0.14378473028470884;1.2747700513944369;-0.03632278036890315;1.649;0.006657692058974825
12:53.2;-0.13871988504927943;1.0454395633559082;-0.18102062134954447;1.649;0.026252199921155964
12:53.2;-0.13260447565865327;0.8175526070498886;-0.33607756356397994;1.649;0.03643455004047714
12:53.2;-0.13134101444740576;0.6009681766847768;-0.4859483794500227;1.649;0.03835676570714691
12:53.2;-0.13927517956959312;0.4062361327576564;-0.6170865276778164;1.786;0.03491389819399153
12:53.2;-0.15881264564843803;0.24417060893238282;-0.7194872213531976;1.317;0.02789982967113708
12:53.2;-0.19046958194936775;0.12532200813089148;-0.7873054792624398;0.7709999999999999;0.0187930058010371
12:53.2;-0.2331823609041802;0.059369039786055296;-0.818695073910657;0.8059999999999999;0.011333861394200284
12:53.2;-0.2847171593342307;0.05446143847565748;-0.8151375519506904;0.833;0.012639609330812438
12:53.2;-0.3420926890507578;0.1165175059655898;-0.7805664567420396;0.8059999999999999;0.031113212656106806
12:53.3;-0.40197661409816404;0.24850310458211947;-0.7204915579677748;0.738;0.07197165725553549
12:53.3;-0.4610151449876892;0.4497655612021374;-0.6412216523196673;0.738;0.13295649872475793
12:53.3;-0.5160528084654834;0.7155037019864356;-0.5492477481950641;0.738;0.2028029724602307
12:53.3;-0.5642263416655253;1.036450161622915;-0.4508254787427022;0.8390000000000001;0.26363935111863057
12:53.3;-0.6029562185862106;1.398862982592852;-0.35175314844171396;1.1179999999999999;0.29668729555460954
12:53.3;-0.6298822819098583;1.7849278261456623;-0.2573107349599384;1.49;0.2892930215086241
12:53.3;-0.6427873270337133;2.173627922432519;-0.17231069643572608;1.916;0.24074914193880745
12:53.3;-0.6395398559546351;2.5420814246810335;-0.10118476892877608;2.523;0.1645023915796174
12:53.3;-0.6180834243622331;2.867289200654267;-0.047999134099243904;3.233;0.08506521396326845
12:53.3;-0.5764995368803544;3.1281513070210103;-0.01630049060891941;3.907;0.029395942563789218
12:53.4;-0.513153975988892;3.3075005320400614;-0.00877169035447102;4.33;0.014887813282277776
12:53.4;-0.42690600220892744;3.393824869792558;-0.0267830735086912;4.33;0.038804500908374354
12:53.4;-0.3173382870131421;3.3823681844278095;-0.06999584540136014;4.33;0.0751303854396707
12:53.4;-0.18495680776366144;3.2754110242814;-0.13616367965391224;3.8739999999999997;0.08248925983472925
12:53.4;-0.031308633323250165;3.08168965466082;-0.22120354017043675;3.13;0.021342489868742924
12:53.4;0.14101552943836448;2.815074221225526;-0.31951637807044514;2.467;0.12683815514697638
12:53.4;0.32848228516311756;2.4927801459717522;-0.4244859956752882;1.994;0.3475836161939085
12:53.4;0.5267645434505521;2.1334769018855337;-0.5290931812746466;1.7919999999999998;0.5946160735337641
12:53.4;0.7308730733354156;1.7556256207019842;-0.6266041461344876;1.979;0.8040205264007855
12:53.4;0.9352383001866721;1.3762361755923562;-0.7112433824546741;2.298;0.9154476033528397
12:53.5;1.1337630814035344;1.010072135463881;-0.7786544922983916;1.34;0.8917014955907195
12:53.5;1.3198950708871726;0.6692444149424952;-0.8259594881701098;1.34;0.7295967807060232
12:53.5;1.48675931552988;0.3631363763469478;-0.8514537344682417;1.34;0.4596967977822694
12:53.5;1.6273927544106157;0.09860088371239357;-0.8542172824019623;1.4280000000000002;0.1370697242749724
12:53.5;1.7351486167007057;-0.11968831857314273;-0.8339269743462302;1.745;0.17318746926960174
12:53.5;1.8043336259289637;-0.28888019032346346;-0.7909662019774499;2.287;0.4122802500866825
12:53.5;1.831060489983483;-0.4076793560567425;-0.7267369318475506;2.6919999999999997;0.5424986266020542
12:53.5;1.8141694687789642;-0.4761769101092759;-0.6439644908129534;2.9160000000000004;0.5562987789995917
12:53.5;1.755956828857063;-0.4957280933387613;-0.546789564453078;2.891;0.47596781119161236
12:53.5;1.6624089905780897;-0.46880057833176514;-0.4405599401593532;2.336;0.3433452331408193
12:53.6;1.5427389765524497;-0.3987418376187386;-0.33136906693420287;1.069;0.20384319736460957
12:53.6;1.4082647878577983;-0.28949543004610967;-0.22546304938830583;1.069;0.09191817844039704
12:53.6;1.2709302282615886;-0.14536644730648499;-0.12865612734858706;1.069;0.023769298272509985
12:53.6;1.141839955168422;0.029086009741118576;-0.04586228166605923;0.8240000000000001;0.0015231582888854253
12:53.6;1.0300359289024916;0.22904671230755125;0.019217939214112335;0.621;0.004534018120199531
12:53.6;0.9415873712887659;0.4494223888266754;0.06426032141725013;0.72;0.027193068854553457
12:53.6;0.8790273425155858;0.6848851587452479;0.08833020275897589;0.79;0.053177677615064436
12:53.6;0.8411760984129217;0.9300131643863079;0.09174442192960824;0.955;0.07177210578561741
12:53.6;0.8233855438913303;1.1795114462211915;0.0758270728266629;1.604;0.07364269759531535
12:53.6;0.8182317687500426;1.4284562309559086;0.04268729266868726;2.085;0.04989326062835489
12:53.7;0.8166366546946328;1.6724562634125868;-0.004816763246872665;2.307;0.006578682682425849
12:53.7;0.8092677862084441;1.9076096191194836;-0.06287018578035747;2.307;0.09705691893497342
12:53.7;0.7879295304938767;2.130216534362866;-0.1263906336230583;2.307;0.21214168784677864
12:53.7;0.7466519388533779;2.336348580166793;-0.1888641118511785;2.299;0.3294619596611251
12:53.7;0.6823038364478461;2.521464738212784;-0.24253011724732063;2.42;0.41725004196982224
12:53.7;0.5946951044637161;2.6802539275375064;-0.2790143077308209;2.573;0.4447303607269468
12:53.7;0.48624217952718035;2.8067950312852523;-0.2903967833611419;2.781;0.39632834155663427
12:53.7;0.36134728668419874;2.8950210591406926;-0.27056276402883805;3.0610000000000004;0.2830378732010846
12:53.7;0.22565892415919997;2.9394074380408846;-0.21654549544080612;3.315;0.1436353893950166
12:53.7;0.08533154680312958;2.9357690435404757;-0.12953066052809045;3.61;0.03244920678644697
12:53.8;-0.05366378876017641;2.882015083464697;-0.015274233735841258;3.15;0.002362310677718304
12:53.8;-0.1861456117558878;2.7787008587950184;0.1161519761125428;3.15;0.060078793240663314
12:53.8;-0.30818002757366786;2.629268697875307;0.2512018751367315;3.15;0.20354589007319926
12:53.8;-0.4173126443579883;2.439938713161486;0.3741238584567612;2.9189999999999996;0.3809393762168668
12:53.8;-0.5125517160342615;2.2192290920528315;0.4685558598096549;2.511;0.532968083640945
12:53.8;-0.59415036899943;1.9770971153945178;0.5194263637415417;1.929;0.6101665034566053
12:53.8;-0.6632656329847703;1.7237867253361479;0.5151149912141239;2.338;0.5889456468896858
12:53.8;-0.7215768601961987;1.4686636192643872;0.44966038171983713;1.14;0.4765292456596903
12:53.8;-0.7709449472769778;1.2194717781207551;0.3245720346002721;4.636;0.305144972059006
12:53.8;-0.8131531030478286;0.982295800873208;0.1496045309748705;3.886;0.11949764818454334
12:53.9;-0.84968889309048;0.7620601055441696;-0.058196932818266496;2.639;0.03768332919617142
12:53.9;-0.881508812814527;0.5630983169077467;-0.2774039910716016;2.639;0.13769671921155766
12:53.9;-0.9088122715961849;0.38951230057899294;-0.48622605701867067;2.639;0.17212089225858057
12:53.9;-0.9309221923315613;0.24538718152618028;-0.666102209394178;1.699;0.15216197275890425
12:53.9;-0.9463534726898256;0.13498988365353462;-0.8037838263380543;1.409;0.10268189293515956
12:53.9;-0.9531057862851336;0.0629201381113329;-0.8918383279614271;1.179;0.05348314115630166
12:53.9;-0.9491764340397284;0.03409860336810205;-0.9281034260004923;1.364;0.030038615660226836
12:53.9;-0.9332304119375457;0.05352901819228942;-0.9146649302499938;1.775;0.045692002165421394
12:53.9;-0.9052783571602028;0.12585875968644916;-0.8567268405540192;1.8530000000000002;0.09761306697562737
12:53.9;-0.8671300065213987;0.2548190797207219;-0.7615325907800928;1.531;0.16826920860316294
12:54.0;-0.8223955659129849;0.44264177282890615;-0.637395835091419;1.074;0.23202905862898496
12:54.0;-0.7759650722309631;0.6895073100238478;-0.4929085002529892;1.074;0.2637226042477379
12:54.0;-0.7331225465345041;0.9929872295220905;-0.3364204924997998;1.074;0.24490783635258684
12:54.0;-0.6985554620804645;1.3474084137725861;-0.17584462865580158;1.074;0.16551191160111672
12:54.0;-0.6754399999544841;1.7431757697850265;-0.01874253074356489;1.202;0.02206765515294129
12:54.0;-0.6646648604380717;2.166248089218853;0.12744417419009263;1.3459999999999999;0.18349781582744423
12:54.0;-0.6642377821710418;2.5980289381542647;0.25519636827205455;1.69;0.4403946643638739
12:54.0;-0.6689801769292917;3.015896708466222;0.35690422498727287;2.329;0.7200810822837961
12:54.0;-0.6706615884655924;3.394504373880752;0.42509177309512974;2.9619999999999997;0.9677484978587038
12:54.0;-0.6586948469495073;3.707856650260378;0.4528389959612897;3.485;1.105989541564552
12:54.1;-0.6213988143804564;3.932021264285862;0.43434873231470916;5.903;1.061267430927761
12:54.1;-0.5476640626182049;4.0481114913959155;0.3656382294345232;5.903;0.8106218506036593
12:54.1;-0.428693513324065;4.044917752959581;0.24531150779631428;5.903;0.42537751450752564
12:54.1;-0.2594439771561404;3.9204961916785552;0.0752930615919192;5.132999999999999;0.07658427167120829
12:54.1;-0.03951130638980299;3.6823082913054175;-0.1386363367344471;3.9010000000000002;0.02017059035480158
12:54.1;0.22660061512876542;3.3459757591238493;-0.3866476586797078;3.033;0.293156318694196
12:54.1;0.5297234410639786;2.9330873570491147;-0.6551273528332668;2.411;1.017887829951969
12:54.1;0.856615309005332;2.468635817210064;-0.9274523546437788;2.048;1.9612568146966995
12:54.1;1.190786989098769;1.978575469723068;-1.1852572488010837;2.0540000000000003;2.7925394767668332
12:54.1;1.5135749667674239;1.487768500591388;-1.410108479967036;2.326;3.1753515944872457
12:54.2;1.8055678986209205;1.0183714810800857;-1.5854313373169848;3.778;2.9151942020325516
12:54.2;2.0484196600960165;0.5886415699118079;-1.6984250045037392;3.778;2.0479353338584865
12:54.2;2.2268359864909266;0.2122290942300927;-1.7415953250897538;3.778;0.8230768785321376
12:54.2;2.3303565889736175;-0.10192413877460577;-1.713560787499649;3.9939999999999998;0.4070042528919429
12:54.2;2.3546333063526683;-0.349085089027504;-1.6189741902776327;3.937;1.3307439692207206
12:54.2;2.302038944544509;-0.527801642588616;-1.4676267583856049;3.4530000000000003;1.7831957703883377
12:54.2;2.181487047051782;-0.6387980248171069;-1.272951557845896;2.772;1.7738956966364086
12:54.2;2.00742042227989;-0.6839668612603897;-1.050217758723091;2.092;1.4419584824261527
12:54.2;1.7980954553548232;-0.665710602602479;-0.8147439271850203;1.642;0.9752576134037644
12:54.2;1.5734389131695676;-0.5867589946398911;-0.5804437732027888;1.393;0.5358827766780203
12:54.3;1.3528093927442861;-0.45038577580732053;-0.3589014919842607;0.602;0.21867369316002916
12:54.3;1.152983446958206;-0.26081703102772935;-0.15898578319469636;0.602;0.04780984214883241
12:54.3;0.9866348351009951;-0.023647877073124376;0.013126249775401659;0.602;0.0003062592878007978
12:54.3;0.8614676465611473;0.2538378792479351;0.1536773314906622;0.47600000000000003;0.033605101618538025
12:54.3;0.7800138915193173;0.5625267097305048;0.2609515993806018;0.623;0.11449998995411803
12:54.3;0.7399919220952282;0.8915884270942114;0.33489220498219624;0.809;0.22095123862238997
12:54.3;0.7350921966769307;1.2288777393922954;0.37676638429180137;1.349;0.3403475566615894
12:54.3;0.756075855350498;1.5616057799763707;0.38888430869535073;1.913;0.4591527577952592
12:54.3;0.7920797682432581;1.8772144899643837;0.37436028166483415;2.259;0.5566376573005456
12:54.3;0.8319941034234667;2.1643419459784976;0.33692377926840644;3.0069999999999997;0.6067052991414258
12:54.4;0.865729624983665;2.4137432081730124;0.28080326838137365;3.39;0.5867802696489891
12:54.4;0.8851737007649935;2.619020280112787;0.21065743523040753;3.39;0.48836457760487517
12:54.4;0.8847023307475385;2.7770052453792924;0.13146450829480896;3.39;0.3229850293826168
12:54.4;0.8612397158549081;2.8876830166025056;0.04829018456178153;3.15;0.12009707575350294
12:54.4;0.8139482168782691;2.9536590444779613;-0.03408417140263635;2.9930000000000003;0.08194262604215567
12:54.4;0.743676469987803;2.97929901842334;-0.11162329152850753;2.85;0.2473164243157201
12:54.4;0.6523176745639931;2.9697265713501615;-0.18146644304558404;2.616;0.3515377245929187
12:54.4;0.5422147376026023;2.9298739972915393;-0.24217003644083565;2.461;0.3847163717143111
12:54.4;0.41569326413144503;2.8637665699468178;-0.2936787947272744;2.445;0.3496094727859903
12:54.4;0.2747477606191056;2.774179011511996;-0.33705066837055686;2.526;0.25689984112193626
12:54.5;0.12087549892706485;2.6627200827383004;-0.37402641070228443;2.765;0.12038324980627649
12:54.5;-0.044946752432220564;2.530287063497623;-0.40654398105526757;2.765;0.04623550958630068
12:54.5;-0.22212737372119676;2.3777269256016265;-0.4362910655585043;2.765;0.2304307201831386
12:54.5;-0.41015534420958133;2.206493712557768;-0.4643741280065958;2.75;0.42026099509807846
12:54.5;-0.6081603206173353;2.0191137765433598;-0.49113854969893544;2.4530000000000003;0.6030910683110644
12:54.5;-0.8144041319284302;1.8193398202240953;-0.5161123547091079;2.002;0.7647122528435094
12:54.5;-1.0257756276118923;1.611975007974574;-0.5380190453210166;1.652;0.8896277673271483
12:54.5;-1.2373821580671611;1.4024578186539074;-0.5548397424172281;1.386;0.962855729437303
12:54.5;-1.442372524360768;1.1963690718139735;-0.5639613782608044;1.249;0.9731773252385525
12:54.5;-1.6321363129237625;0.9990290118347489;-0.5624813630390583;1.3559999999999999;0.9171548459072697
12:54.6;-1.7969631937513961;0.8153116871501186;-0.5477282516309268;2.673;0.8024684966131331
12:54.6;-1.9271020991510666;0.6497242909108292;-0.5179713639635186;2.673;0.6485441984967321
12:54.6;-2.013987947266821;0.5066835524240999;-0.47315100637295343;2.673;0.4828291056464302
12:54.6;-2.0513406674415737;0.39082352922136;-0.4153839185732687;2.807;0.33301835490692017
12:54.6;-2.0359404127731144;0.3071526425999839;-0.34905595848438886;2.5269999999999997;0.2182802161370256
12:54.6;-1.9680267789018446;0.26094073351734226;-0.2804316211233598;1.815;0.14401239235522031
12:54.6;-1.8513741684032061;0.25732512007637803;-0.21679494250449824;2.214;0.10328221196878491
12:54.6;-1.693151007767784;0.30074381349131757;-0.16517209015411244;2.215;0.08410640311103439
12:54.6;-1.5036173431966469;0.39437142463999936;-0.13074168268646186;3.156;0.07752768854132557
12:54.6;-1.295563661049408;0.539705535027322;-0.11526761077095571;3.534;0.08059775064127062
12:54.7;-1.0833189163571915;0.7363609505237738;-0.11624182229980126;1.504;0.09272769962129843
12:54.7;-0.8813008676338464;0.9820130270986984;-0.1273942078527712;1.504;0.11025318123233359
12:54.7;-0.7023567367927861;1.2723203685749027;-0.14053661493837216;1.504;0.12558672084602976
