Time;AccX;AccY;AccZ;Acc-old;Acc-trns
53:38.5;-0.012389433350122703;-0.3325795885113765;-0.7523938889476443;0.826;0.0031002184380297683
53:38.5;-0.0065096947469708965;-0.3323300591880351;-0.7739450098202788;0.8740000000000001;0.0016743272802376633
53:38.5;-0.0007649643401697973;-0.33247127106661845;-0.7949857747161033;0.9059999999999999;0.00020218767196754326
53:38.6;0.00477756804461909;-0.3332131431315935;-0.8153215104665682;0.927;0.0012979498268017888
53:38.6;0.010056229932025264;-0.33472882973670126;-0.8349459908864417;0.943;0.0028105201134314703
53:38.6;0.015018674638236222;-0.3371251085633148;-0.8540601646032914;0.9420000000000001;0.004324253783234087
53:38.6;0.01961817872867701;-0.34042435557184664;-0.8730428437769566;0.9420000000000001;0.0058306217405154695
53:38.6;0.023806300527151356;-0.34456055245778905;-0.8923786936110106;0.925;0.007319925473608084
53:38.6;0.027528202626665752;-0.34938412323911616;-0.9125611816860966;0.935;0.008776937647273112
53:38.6;0.03072769469756364;-0.3546667918341522;-0.9339959661511994;0.9570000000000001;0.0101787748062615
53:38.6;0.03336749763528368;-0.3600991609429918;-0.9569296497710761;0.978;0.011498091460713391
53:38.6;0.035464235688831225;-0.3652792397753405;-0.981419706644803;1.023;0.01271365344602487
53:38.6;0.037128564747414154;-0.36969790526541074;-1.007348285834193;1.074;0.013827217775088713
53:38.7;0.03859473294103206;-0.37273408690620957;-1.0344701466700899;1.1179999999999999;0.014881445337626224
53:38.7;0.04022488999185559;-0.3736766144285492;-1.0624751551049314;1.163;0.015970171056042416
53:38.7;0.04248023339407791;-0.371789386805893;-1.0910406892532107;1.22;0.017231569251981774
53:38.7;0.04586096269165449;-0.36642497675687147;-1.1198515933995734;1.22;0.018818660537055425
53:38.7;0.05082716178248548;-0.35716785896640546;-1.1485758103038488;1.22;0.020851048338299566
53:38.7;0.05771783851376974;-0.3439692778331597;-1.1768000137020513;1.21;0.023363202763061038
53:38.7;0.06668356819091235;-0.32723459432994756;-1.203946429242943;1.197;0.026271520167436207
53:38.7;0.07764485388558692;-0.3078311485863285;-1.2292048873313062;1.185;0.02937984621163272
53:38.7;0.09028562375595589;-0.28699524519200936;-1.2515179288415417;1.217;0.032428762790012826
53:38.7;0.10408420038366198;-0.26614297339210685;-1.269644842336679;1.32;0.03517078546665546
53:38.8;0.11837262901792853;-0.24662873643970412;-1.2823010737856906;1.4040000000000001;0.03743561542200684
53:38.8;0.13240735777875987;-0.22952192215366685;-1.2883335926657176;1.433;0.03915296196052816
53:38.8;0.14543339800842317;-0.21546637222506188;-1.2868732140146024;1.3090000000000002;0.04032546761682594
53:38.8;0.15672872852376696;-0.20465158245234372;-1.277420140032886;1.3090000000000002;0.040972972907579196
53:38.8;0.1656262682348839;-0.19687936957906632;-1.2598592701295366;1.3090000000000002;0.04108198907228659
53:38.8;0.17152308269438044;-0.19168278706340514;-1.2344304701633801;1.2830000000000001;0.04058563281785508
53:38.8;0.17389125317786533;-0.1884551838952662;-1.2016762825744136;1.238;0.03937978268142702
53:38.8;0.17230001638001866;-0.18656027611040404;-1.1623751598687821;1.1909999999999998;0.03736378075355454
53:38.8;0.1664495902500614;-0.18540687034125247;-1.1174639596297038;1.141;0.034485940827417745
53:38.8;0.1562083553822083;-0.18448649956549978;-1.0679564918348514;1.063;0.03077672547730895
53:38.9;0.14164125568523117;-0.1833838817317616;-1.014867633231842;1.005;0.026360905939957924
53:38.9;0.123020776812643;-0.18177112386094219;-0.9591540029508043;0.982;0.021448241996454707
53:38.9;0.1008194100956803;-0.1793926980234901;-0.901680379503937;0.855;0.01630803118185339
53:38.9;0.07568886979981966;-0.17604839587495424;-0.8432159293335066;0.855;0.011235771405636958
53:38.9;0.048432957915790976;-0.1715838963788526;-0.7844597068849796;0.855;0.006519107765070558
53:38.9;0.019976192949325323;-0.16589663558173642;-0.7260873895929579;0.79;0.002406241412313009
53:38.9;-0.008676046165479687;-0.15895716199932522;-0.6687992842038207;0.7140000000000001;0.0009223542520330495
53:38.9;-0.03648793661547924;-0.15083758882570075;-0.6133472763740969;0.632;0.0033757115322968433
53:38.9;-0.0624454680170469;-0.1417350023576119;-0.5605326268765604;0.615;0.0049611109169601176
53:38.9;-0.08559599373709287;-0.13198161166627548;-0.5111804810243304;0.574;0.005774855583736173
53:39.0;-0.10506946932983019;-0.1220415121090079;-0.4660960044400038;0.475;0.005976673050969775
53:39.0;-0.12009348322366173;-0.11249845668177713;-0.4260019074752039;0.395;0.0057554269982279275
53:39.0;-0.1300241813781034;-0.10403614932691164;-0.3914655413113106;0.371;0.005295438601114361
53:39.0;-0.13440491932947132;-0.09740802317370355;-0.36284064093019386;0.371;0.00475035230363781
53:39.0;-0.13304041249783924;-0.09339471511094982;-0.34025272256998157;0.371;0.004227732430509701
53:39.0;-0.12605881444261338;-0.09275204771787386;-0.32364135637133323;0.387;0.0037840837301112125
53:39.0;-0.1139388129335683;-0.09615440674039173;-0.31285030870371927;0.4;0.0034275000594366735
53:39.0;-0.09749197441961843;-0.10413966681879547;-0.3077407783403491;0.397;0.0031244249530071543
53:39.0;-0.07780079379784305;-0.11706465704333723;-0.3082970967197844;0.371;0.0028078846337427103
53:39.0;-0.056120761500413466;-0.13508087549312361;-0.31469903390698467;0.365;0.0023856835267200786
53:39.1;-0.033760074476589;-0.15813548691756424;-0.32734822491240234;0.42200000000000004;0.0017476027781792908
53:39.1;-0.011950702855669747;-0.18599472228572514;-0.3468478883818481;0.455;0.0007709622688042027
53:39.1;0.008276847131393462;-0.21828059961721974;-0.3739358654266675;0.489;0.0006755806375477534
53:39.1;0.02619961048045161;-0.2545092165432414;-0.40936841645549926;0.489;0.0027296859324041547
53:39.1;0.041469957531650975;-0.29411904805082345;-0.45375998551195806;0.489;0.005534557930314616
53:39.1;0.054129913259868725;-0.3364845041639146;-0.5073997860263696;0.585;0.009241717304527178
53:39.1;0.06456471700429371;-0.38092268558880854;-0.5700753121808156;0.631;0.014020526515698755
53:39.1;0.07339508214583655;-0.4267040891275168;-0.640933509160346;0.654;0.020072743893801953
53:39.1;0.08132052332975502;-0.4730650170679915;-0.718412770706713;0.713;0.027637263681149434
53:39.1;0.08894486206563798;-0.5192109428257873;-0.8002830903600301;0.865;0.03695798999124832
53:39.2;0.09662404951070552;-0.5643068450883251;-0.8838211155715922;1.13;0.048190887701482575
53:39.2;0.10436884820612685;-0.6074564339682317;-0.9661082764921533;1.3259999999999998;0.06125080906334463
53:39.2;0.111816862677649;-0.647670064084224;-1.0443843536868138;1.3840000000000001;0.07563476880028489
53:39.2;0.1182687196472702;-0.6838228615963529;-1.1163551298093302;1.3840000000000001;0.09028505847768044
53:39.2;0.12277132816667619;-0.7146141719754854;-1.1803748395102263;1.3840000000000001;0.10355916082249039
53:39.2;0.12423125095008322;-0.7385496589035319;-1.2354840909077047;1.4680000000000002;0.11335683659742068
53:39.2;0.1215473658465993;-0.7539734615181293;-1.2813316991339956;1.3419999999999999;0.11742570640601345
53:39.2;0.11375675981448777;-0.7591764464670653;-1.3180266271436034;1.452;0.11382669418783987
53:39.2;0.10018991404773536;-0.7525924527745534;-1.3459716766192777;1.5119999999999998;0.1014891894241333
53:39.2;0.08062797968272707;-0.7330665764561315;-1.3657262482901682;1.646;0.08072217454637122
53:39.3;0.05544020344122515;-0.7001460841304862;-1.3779202119907732;1.705;0.053485683499716434
53:39.3;0.025659967190617805;-0.6543156186688394;-1.383209056308981;1.705;0.02322368903239583
53:39.3;-0.0070443551048167885;-0.5970881896436967;-1.3822497953707664;1.426;0.005813882573795895
53:39.3;-0.040516411564548035;-0.5309033651647397;-1.375689812010627;1.426;0.029591499523295626
53:39.3;-0.07234072719504839;-0.45887631837465526;-1.3641741607980504;1.426;0.04528437045850082
53:39.3;-0.10009423706664473;-0.38450468958309886;-1.3483763631264323;1.365;0.05189456136466622
53:39.3;-0.12158042083556839;-0.3114092466502094;-1.3290520391236482;1.382;0.050319594455468894
53:39.3;-0.13503256114555076;-0.24311487986110958;-1.3071119818584822;1.4269999999999998;0.042910427506500856
53:39.3;-0.1392777943548506;-0.18284855776619915;-1.2837028354575404;1.433;0.03269173126013077
53:39.3;-0.13384771874474272;-0.13334119911764616;-1.260265145144052;1.405;0.022492475454402725
53:39.4;-0.11902049950040176;-0.0966433854296962;-1.2385261808463686;1.3530000000000002;0.014246201899319464
53:39.4;-0.0957860992254774;-0.07398627894105327;-1.220393733805857;1.304;0.008648755943485536
53:39.4;-0.06573876069987716;-0.06572598508396936;-1.2077443288837633;1.0270000000000001;0.00521835503503278
53:39.4;-0.030917426523829384;-0.07139091509587212;-1.2021387156407575;1.0270000000000001;0.002653388669482907
53:39.4;0.006372143535372017;-0.08981608783725603;-1.2045389632422607;1.0270000000000001;0.0006893829481790817
53:39.4;0.04372415216655507;-0.11932577816828298;-1.2151149780538912;1.135;0.006339763344280858
53:39.4;0.07878092506930698;-0.15793145253888943;-1.2331927141092123;1.297;0.015343366396140977
53:39.4;0.10937184267303969;-0.20352366681427878;-1.2573354752508075;1.276;0.027987983991138318
53:39.4;0.1336491212002516;-0.25403550139376907;-1.2855090000409164;1.3;0.043645115023441435
53:39.4;0.15021345087145427;-0.3075536405136677;-1.3152836333117959;1.3659999999999999;0.06076438566405846
53:39.5;0.15821494621891755;-0.3623665508027478;-1.3440541342720467;1.429;0.07705704865758108
53:39.5;0.15741391878279212;-0.4169602332818758;-1.3692728607440692;1.475;0.0898726956521423
53:39.5;0.14818685484111654;-0.4699843594053376;-1.3886854578340038;1.609;0.0967156986705246
53:39.5;0.1314708520692839;-0.520209233655364;-1.4005441378488783;1.609;0.0957865065510352
53:39.5;0.10865925691125053;-0.5664850856319356;-1.4037623272764077;1.609;0.08640697356151529
53:39.5;0.08147550043229335;-0.6077133217927426;-1.3979739202121897;1.619;0.06921892701536839
53:39.5;0.05184482680529656;-0.6428455051729692;-1.383475297982474;1.5730000000000002;0.046108760626443805
53:39.5;0.021767943793300836;-0.6709237010739914;-1.3610512941288495;1.49;0.019877649764975504
53:39.5;-0.006805328574417551;-0.6911579227149305;-1.331711699713425;1.416;0.006263781568739391
53:39.5;-0.03210180880986663;-0.7030173668408917;-1.2963914552690288;1.368;0.02925712972709191
53:39.6;-0.052642982055247194;-0.7063064425901655;-1.255683622115305;1.375;0.046688925605780196
53:39.6;-0.06733781405921767;-0.7012027258809799;-1.2096656411833402;1.34;0.05711733754191881
53:39.6;-0.07552572621340606;-0.6882451585420065;-1.1578510343663804;1.22;0.06018534618107717
53:39.6;-0.07695349981842386;-0.6682770368087902;-1.0992706818375066;1.22;0.05653137641065859
53:39.6;-0.07169295271805211;-0.6423667354022704;-1.0326712431607337;1.22;0.04755778223853011
53:39.6;-0.06002407633396258;-0.611734254949648;-0.9568059333272636;1.165;0.035132750027580775
53:39.6;-0.042308376991971035;-0.5776968286734961;-0.8707791695193307;1.113;0.021283075242432916
53:39.6;-0.018871732117842363;-0.5416286574490069;-0.7743984071735514;1.083;0.007915490807723627
53:39.6;0.010082793177772106;-0.5049226692805399;-0.6684856303192713;1.022;0.0034032809634777757
53:39.6;0.044510687189175564;-0.46894191260323353;-0.555101496776941;0.8540000000000001;0.011586592898679485
53:39.7;0.0844963609249904;-0.4349507471559707;-0.4376397483126431;0.784;0.01608402894666687
53:39.7;0.13015914960975863;-0.4040261073825743;-0.32076019663688243;0.698;0.016868039246801882
53:39.7;0.18151318449842757;-0.3769653486182582;-0.21013956582495402;0.353;0.014378627660634975
53:39.7;0.23831061018075575;-0.35421753106207515;-0.11204557634600996;0.353;0.009458192420354757
53:39.7;0.29989697666508663;-0.3358617622128957;-0.03279127650892102;0.353;0.0033028661434546334
53:39.7;0.36510373330896106;-0.321642739026794;0.021844349620848726;0.452;0.0025652467403312544
53:39.7;0.4322034826622781;-0.3110572914930791;0.04716631990933974;0.591;0.006341042156512402
53:39.7;0.4989491779376308;-0.30347257378749476;0.040036375556571455;0.672;0.0060622035405956485
53:39.7;0.5627035121543297;-0.2982490227605411;-0.0008044310744773156;0.701;0.0001350042665807836
53:39.7;0.6206489020879539;-0.29483888894852023;-0.07464305318258303;0.7609999999999999;0.013659039244381322
53:39.8;0.6700536874201336;-0.292834782963451;-0.1789575862240421;0.87;0.03511416745702891
53:39.8;0.7085522096728682;-0.2919544870808505;-0.30978653769744624;0.955;0.06408399117439843
53:39.8;0.7343834199505154;-0.29196773112919994;-0.46221289096641793;1.234;0.09910595982165585
53:39.8;0.7465393495889786;-0.2925931320426644;-0.6308597011953084;1.234;0.1378001269860685
53:39.8;0.7448018978078306;-0.2934107360773605;-0.8102828509712087;1.234;0.17707343942015277
53:39.8;0.7296746022561945;-0.29383591716153457;-0.9951676351862287;1.321;0.21336852470956208
53:39.8;0.7022294204767376;-0.29317876169039686;-1.1803179737684026;1.344;0.24300239130574464
53:39.8;0.6638951717793696;-0.2907798938230542;-1.3605107250033577;1.3019999999999998;0.26264301399856016
53:39.8;0.6162257757081422;-0.2861848181189855;-1.530321443710936;1.412;0.26987901419069404
53:39.8;0.5606950354092898;-0.279302733088863;-1.6840320227937633;1.61;0.2637255712860576
53:39.9;0.4985590062255226;-0.2704931673004615;-1.8157124239752602;1.8330000000000002;0.24486117571528462
53:39.9;0.4308091436168432;-0.2605370349694048;-1.9195105551779024;2.089;0.21544919874107374
53:39.9;0.35821709488545184;-0.25048540904068306;-1.990103824457412;2.199;0.178568345497181
53:39.9;0.281451771497606;-0.24143167943576946;-2.0232077710949694;2.199;0.13747974767610843
53:39.9;0.20123664705674216;-0.23428513671863654;-2.016030917300135;2.199;0.09504931647325963
53:39.9;0.11850765881486454;-0.22961117033992753;-1.9676046720454428;2.062;0.05353986549459056
53:39.9;0.03452818406417172;-0.22756329684489385;-1.8789678219219892;2.039;0.01476370292971796
53:39.9;-0.04907037811533044;-0.22789683496499732;-1.7532128771005833;1.99;0.019606151313053773
53:39.9;-0.1303233910261496;-0.2300352027807019;-1.5953964057386143;1.7990000000000002;0.04782833728724838
53:39.9;-0.20702091582581075;-0.23315792706107127;-1.4122972011702657;1.499;0.06816956291500502
53:40.0;-0.276833154978317;-0.2362915115532928;-1.212010718322625;1.218;0.07928165058224436
53:40.0;-0.33748250643129646;-0.23839870557445306;-1.0034064624249575;0.98;0.08072946095931739
53:40.0;-0.3869800019994961;-0.23846677590902288;-0.7955189222052368;0.804;0.07341197648063671
53:40.0;-0.4239124667935671;-0.23559241122690275;-0.596967051336084;0.804;0.059619433838498194
53:40.0;-0.44771426328386676;-0.2290581484740489;-0.4154905914953728;0.804;0.0426096405136717
53:40.0;-0.4588383463291981;-0.21839531561327813;-0.25763917220779536;0.693;0.025817543645318287
53:40.0;-0.45877643770573867;-0.2034289025326514;-0.1285759127651087;0.607;0.011999782575033618
53:40.0;-0.44992715666427036;-0.184299290322796;-0.031929216134498783;0.562;0.0026476106944371617
53:40.0;-0.4353371272854556;-0.16145582579101445;0.03033700936876236;0.519;0.0021323190800939308
53:40.0;-0.41834854652194053;-0.1356206280161073;0.05801393278458635;0.46;0.003291518671434275
53:40.1;-0.40219330482639204;-0.10772939675207044;0.05265055310212703;0.402;0.0022812453817483615
53:40.1;-0.38958057315337447;-0.0788653558597893;0.01741779042361828;0.319;0.0005351513436366364
53:40.1;-0.3823256560469899;-0.05020410196850411;-0.043191199700377214;0.251;0.0008290255450288767
53:40.1;-0.38106331256570747;-0.022977035180147525;-0.12380025115403061;0.251;0.0010839584951999402
53:40.1;-0.385085397383243;0.0015547156736260073;-0.21866300378549985;0.251;0.00013091316929443638
53:40.1;-0.39233818674997917;0.022136372216822853;-0.3221875565061485;0.428;0.0027981809298186157
53:40.1;-0.39960240877589115;0.037590902493004515;-0.42944898458363073;0.64;0.006450931497891417
53:40.1;-0.402860682291483;0.04694464038818865;-0.5366765545980123;0.904;0.010149707425142554
53:40.1;-0.3978338794521226;0.049602459475136;-0.6416648842610911;1.163;0.01266231894365297
53:40.1;-0.3806360301185079;0.04553189017980575;-0.7440147973351653;1.335;0.012894578427612637
53:40.2;-0.34846013778680157;0.03538801923768325;-0.8450996457455953;1.4280000000000002;0.010421189143316134
53:40.2;-0.30017616189322727;0.020508528130991664;-0.9476821561293535;1.4240000000000002;0.00583409365359568
53:40.2;-0.23671389336571555;0.0027334195019075784;-1.0551691357007755;0.9329999999999999;0.0006827349202742865
53:40.2;-0.1611375696320997;-0.015944019682055468;-1.1705817394290439;0.9329999999999999;0.0030074358742720815
53:40.2;-0.07838737111057754;-0.03382713933066474;-1.2954154607401354;0.9329999999999999;0.0034349502232226222
53:40.2;0.005287015322825801;-0.049969666669134084;-1.4286197030377001;0.626;0.00037742760130196135
53:40.2;0.08315927228971627;-0.06454433128337997;-1.5659306166318376;0.888;0.008405069352418311
53:40.2;0.14904078967492698;-0.07903382759815304;-1.6997781299464805;1.288;0.020022135463692286
53:40.2;0.19830391093775637;-0.0961335582567306;-1.8199377196239392;1.839;0.03469467495395394
53:40.2;0.22869429530050123;-0.11929732642165448;-1.9149386228420173;2.602;0.05224453893514838
53:40.3;0.24076540832060458;-0.15199330984429887;-1.9739881029063526;3.239;0.07223756422840698
53:40.3;0.23787620793049;-0.1968960811474208;-1.9889437769366176;3.489;0.09315594714129642
53:40.3;0.2257834964152381;-0.25529989051877;-1.955796711818824;2.169;0.11273701570784464
53:40.3;0.21191457757373647;-0.3269244435730217;-1.8753062455464693;2.169;0.1299213205052359
53:40.3;0.20443697006496178;-0.4100654296591009;-1.7527795303676907;2.169;0.14693994951777753
53:40.3;0.21124326542498176;-0.5019072186929779;-1.5972434760715224;1.68;0.16934697258143908
53:40.3;0.23894602647245658;-0.5988498701761866;-1.420262265812651;1.368;0.20322929999231962
53:40.3;0.2919750639238437;-0.6967908419080079;-1.2345771631534035;1.1740000000000002;0.25116923072536174
53:40.3;0.37189710184501035;-0.7913400151044372;-1.0527443511775427;1.026;0.30981956557908796
53:40.3;0.4770788887337181;-0.8779624157906651;-0.8859556530420216;0.948;0.3710890225878122
53:40.4;0.6027563316470657;-0.9520716522783785;-0.7431778129580623;0.9620000000000001;0.426485382955527
53:40.4;0.7414937793065356;-1.0091256204934405;-0.6306755128254998;0.985;0.4719094926617216
53:40.4;0.8839649645826856;-1.044788346157658;-0.5519220585319194;1.73;0.5097310906276633
53:40.4;1.0199483825189253;-1.0552041217494943;-0.5078378716988609;1.73;0.5465624073104877
53:40.4;1.1393878356783285;-1.0373801592555754;-0.4972326340124929;1.73;0.5877182005742534
53:40.4;1.2333703746673934;-0.9896258994591457;-0.5173020651029578;2.051;0.6314061059204935
53:40.4;1.2949381552066863;-0.9119766482658697;-0.5640661527030111;2.174;0.6661358174490926
53:40.4;1.3196987878831816;-0.806516312728968;-0.6326953338263841;2.106;0.6734147199381878
53:40.4;1.3061899666296284;-0.6775030393645418;-0.7177201328609412;1.9809999999999999;0.6351447609948672
53:40.4;1.255946326396078;-0.5312221378368329;-0.8131658788597939;1.821;0.5425332905505152
53:40.5;1.1732429291523065;-0.3755440022753276;-0.9127001376177414;1.554;0.40213964654929163
53:40.5;1.0645295704685573;-0.21922041111540486;-1.0099008620383259;1.34;0.23567714069340231
53:40.5;0.9376190966497884;-0.07100123701046455;-1.09871850615609;1.725;0.07314401552099194
53:40.5;0.800759272632321;0.061292669162355026;-1.1741001903707982;1.725;0.05762562771963396
53:40.5;0.6617658796372388;0.17156460503149148;-1.2326115970345708;1.725;0.1399452994097181
53:40.5;0.5273637328832342;0.25595499700930235;-1.272843468781203;1.804;0.17181017134231139
53:40.5;0.4027859339695545;0.31300574709591505;-1.2954685327948645;1.6540000000000001;0.16332530422536407
53:40.5;0.2916090266263637;0.3434750324393371;-1.3029339924051286;1.305;0.1305024157553446
53:40.5;0.195782845124865;0.34984026769250953;-1.2988639151362034;1.052;0.08896272628668754
53:40.5;0.11580053010641389;0.3355980246313056;-1.2873147041879485;0.948;0.050028176491655994
53:40.6;0.05093423669095058;0.3045524220096915;-1.272066724745508;0.978;0.019732483671485883
53:40.6;-0.000530515738259136;0.2602889784200264;-1.2561098022284252;1.125;0.0001734529361354918
53:40.6;-0.04108911499536271;0.20594221910591154;-1.2413937279229181;1.295;0.010504653271540916
53:40.6;-0.07382240929858777;0.14424539267229744;-1.2288146563810274;1.295;0.013085084991460827
53:40.6;-0.10216322298228717;0.07775673737174973;-1.2183466101430893;1.295;0.009678397927356676
53:40.6;-0.12957791496357876;0.009119173403809536;-1.2092283110525728;1.101;0.0014288767445768047
53:40.6;-0.15915776865173686;-0.05876375593605457;-1.2001642452396126;1.042;0.011224786064664465
53:40.6;-0.1931796062192538;-0.12269300351166945;-1.1895563466939776;1.1540000000000001;0.028194610088283997
53:40.6;-0.2327421322536944;-0.17928543932019053;-1.175803950275914;1.3519999999999999;0.049063095284164866
53:40.6;-0.277581171178769;-0.22520988731159983;-1.1576681590108775;1.534;0.07237049540173786
53:40.7;-0.326115418544434;-0.2575170090854462;-1.1346181046135595;1.545;0.09528553159564382
53:40.7;-0.37571001190613956;-0.2740231262057583;-1.1070280986988925;1.431;0.11397212068618684
53:40.7;-0.42310063194927683;-0.27368820139070027;-1.0761283232661447;1.165;0.12461313197162542
53:40.7;-0.4648960417617765;-0.2569092737169638;-1.0437221816309203;1.165;0.12465811149465174
53:40.7;-0.49806214228710205;-0.22565268914226816;-1.01180021411051;1.165;0.11371527675957403
53:40.7;-0.5202999301293391;-0.18337216642209828;-0.9822130097397491;1.145;0.09371149486545619
53:40.7;-0.5302697271900709;-0.13469303730178153;-0.9564989471200136;1.178;0.0683166365976143
53:40.7;-0.5276528412877154;-0.08488477085098092;-0.9358713543676449;1.148;0.041917388330135676
53:40.7;-0.5130585612593479;-0.039192690041074535;-0.921316294219215;1.1059999999999999;0.018525961786447675
53:40.7;-0.487797050702842;-0.0021382871421879593;-0.9137402870061794;1.124;0.0009530769539446448
53:40.8;-0.4535614113957666;0.023088213041081277;-0.9141181487710515;1.1420000000000001;0.009572574403849492
53:40.8;-0.41208757187186895;0.035027984028196506;-0.9236024220736273;1.226;0.01333182864533154
53:40.8;-0.3648762127052271;0.03406323091837255;-0.9435519537579675;1.198;0.011727277674138415
53:40.8;-0.3130503546028378;0.022215563635272193;-0.9754267171976935;1.198;0.006783692965068138
53:40.8;-0.25737768774503883;0.002688584553338285;-1.0205014087472362;1.198;0.0007061682748232362
53:40.8;-0.19843177873069442;-0.020748463281294975;-1.0793839329066963;0.885;0.004443990389432737
53:40.8;-0.13683207112372803;-0.04444390352145985;-1.1513917456206422;0.732;0.007002017766947709
53:40.8;-0.07349046270548433;-0.06551982382118678;-1.2339366650752175;0.757;0.00594150643368003
53:40.8;-0.009789776605969896;-0.08237954338332822;-1.322150751511771;0.902;0.001066284603473904
53:40.8;0.052371789126333765;-0.09494181940602321;-1.4089732196594131;1.247;0.007005799420627655
53:40.9;0.11070766224476164;-0.1045331380110192;-1.4857852128064741;1.69;0.017194426683326137
53:40.9;0.1628351157197843;-0.11346391344975512;-1.5434862500143631;2.116;0.02851731223365832
53:40.9;0.20668438525059354;-0.12440990698062042;-1.573751016742283;2.003;0.04046678076347261
53:40.9;0.24094018104263892;-0.1397723309889537;-1.5701698925734515;2.003;0.05287825148441675
53:40.9;0.2654007655654456;-0.1611685714258801;-1.529071007601089;2.003;0.0654048842650308
53:40.9;0.28114222254911914;-0.1891360547578369;-1.4499561536941976;1.749;0.07710015816904596
53:40.9;0.2904282709728284;-0.22306634462398547;-1.3355654496376368;1.536;0.0865243041894268
53:40.9;0.2963774961313827;-0.2613385011298359;-1.1916203850887317;1.347;0.09229677890800575
53:40.9;0.30245820158416037;-0.30158349488672154;-1.0263171200831287;1.177;0.0936169544824906
53:41.0;0.311923658738471;-0.34099756947273746;-0.8496453812092174;0.9640000000000001;0.0903727089652619
53:41.0;0.3273184090994683;-0.3766400250244513;-0.6725913601594522;0.7490000000000001;0.08291787926794068
53:41.0;0.3501607468230001;-0.4056850448400503;-0.5062717137732252;0.61;0.07191841730186666
53:41.0;0.38084075459536826;-0.4256274129570811;-0.3610543749003959;0.677;0.05852556567913558
53:41.0;0.4186963200230277;-0.4344537406205638;-0.24574367865999042;0.677;0.04470180295105424
53:41.0;0.462179874162243;-0.43078303276350144;-0.1669206297184213;0.677;0.03323377183156952
53:41.0;0.5090347851364487;-0.4139685806451894;-0.12850476770585967;0.6459999999999999;0.02707909103599488
53:41.0;0.5564548792815305;-0.3841501904994774;-0.13154968753915966;0.586;0.028120356916330233
53:41.0;0.6012604707575182;-0.34224993889628236;-0.17425071377432222;0.568;0.035857548752981534
53:41.0;0.6401493901396078;-0.2899131208269049;-0.25215176916985343;0.6920000000000001;0.04679626877998591
53:41.0;0.6700570359062955;-0.22940604359333647;-0.35855867918224515;0.922;0.05511589527004492
53:41.1;0.6885944503273909;-0.1634816874565193;-0.4851700723007218;1.149;0.05461684809380751
53:41.1;0.6944592517763518;-0.09520798588432025;-0.6229183764063679;1.367;0.04118615872274016
53:41.1;0.6876768308308744;-0.027742570105921228;-0.7629654958044823;1.6569999999999998;0.01455579674374696
53:41.1;0.6695678376504305;0.035940048486187884;-0.8977142937173448;1.6569999999999998;0.02160286657199888
53:41.1;0.6424392165811456;0.09331791905268924;-1.0216174254714512;1.6569999999999998;0.061247079046692354
53:41.1;0.6090789765081048;0.14251909568671584;-1.1315768167428912;1.605;0.09822696115944649
53:41.1;0.57215427248533;0.18240512536873915;-1.226846353238343;1.53;0.12803843553127867
53:41.1;0.5336221407930197;0.2125276399274043;-1.3084801827869492;1.214;0.14839402335582252
53:41.1;0.49429311601069986;0.2329599733428155;-1.3784516572786683;0.8909999999999999;0.1587294129027932
53:41.1;0.4536777863320578;0.24403951571679272;-1.4386423794483918;0.753;0.15927973308931181
53:41.2;0.4101557057814993;0.24611091669021135;-1.4899761185028286;0.871;0.15040384644705582
53:41.2;0.36138759700572787;0.23938827997565723;-1.5319848447080648;1.139;0.13253500433172363
53:41.2;0.30482415439277033;0.22401908499445788;-1.5629844848232775;2.237;0.10673062772444662
53:41.2;0.23818306349826732;0.20033879485572836;-1.5808021309803733;2.237;0.07543162200709913
53:41.2;0.15983740902619337;0.16920553386178497;-1.5837356520277448;2.237;0.04283272322476375
53:41.2;0.06911072045134442;0.13226880267744875;-1.5713300240072772;2.147;0.014363829831794742
53:41.2;-0.033523895495104886;0.09206933372534058;-1.5446887976012884;1.79;0.004767717072388632
53:41.2;-0.14635432017008582;0.05193718560001148;-1.506259919417342;1.381;0.011449430331656074
53:41.2;-0.26645898002817253;0.01570417513643071;-1.4592079971987297;1.1340000000000001;0.006106082843628902
53:41.3;-0.38985198210265076;-0.012736475788237259;-1.4065949166890686;0.893;0.006984222469281529
53:41.3;-0.511731698561808;-0.029989840285563337;-1.3506365407861436;0.8340000000000001;0.020727883910578556
53:41.3;-0.6268347003609452;-0.033772452971623304;-1.292269440511703;1.666;0.027357015094130403
53:41.3;-0.7299275112841273;-0.0234189103941462;-1.2311464489561925;1.9780000000000002;0.021045349107717087
53:41.3;-0.8164246671481326;-6.700076018611035e-05;-1.166014603668872;1.9780000000000002;6.378225034335933e-05
53:41.3;-0.8829569012894596;0.03357251267392743;-1.0953049749923873;1.9780000000000002;0.032468214924817725
53:41.3;-0.9275984136092221;0.07375317237809542;-1.0177593737941375;1.341;0.06962830352011426
53:41.3;-0.9495839116534798;0.11635621014868484;-0.9330107724902734;0.9590000000000001;0.10308834642351623
53:41.3;-0.9486277630672622;0.1575463082359749;-0.8421364012365754;1.188;0.1258596447984945
53:41.3;-0.9241822847834109;0.19432488930649103;-0.7482191033366714;1.6;0.13437388102500986
53:41.4;-0.8750123912429949;0.22489810640960511;-0.6568342377642091;1.9380000000000002;0.1292575097049306
53:41.4;-0.7993143895312106;0.24878665760264995;-0.5762059613539224;2.062;0.11458360029730956
53:41.4;-0.6953573830088098;0.266624873117395;-0.5166986269364039;1.7409999999999999;0.09579570532864473
53:41.4;-0.5624135703016988;0.279660350765151;-0.489425035627016;1.187;0.07697910726655895
53:41.4;-0.40166683372062467;0.2890783989083083;-0.5040869033141296;1.187;0.058531146036354974
53:41.4;-0.21684141102557652;0.29537391290616577;-0.5665753587032007;1.187;0.036288752886889764
53:41.4;-0.014381578112539324;0.297995334818456;-0.6770398601248161;1.041;0.00290155126242515
53:41.4;0.19691774085781094;0.29537707714663003;-0.8289629296783443;0.444;0.048216617806804925
53:41.4;0.4068314555090708;0.28533096632773536;-1.0094792891768085;1.07;0.1171819835043362
53:41.4;0.6050132574493945;0.26566462657886575;-1.2009144983673585;2.068;0.19302373322926256
53:41.5;0.7823775452012558;0.23485171475299024;-1.3832497850062906;2.8930000000000002;0.2541620614408716
53:41.5;0.9322010183019703;0.1925716715271146;-1.5369805495568984;3.3080000000000003;0.27591184459121976
53:41.5;1.0506871240901403;0.1399601871111125;-1.6457449242477418;3.3280000000000003;0.24201397722768792
53:41.5;1.1369203826767373;0.0794833290656084;-1.6981963973675125;2.17;0.15345958397939272
53:41.5;1.1923354589225068;0.014476109652370516;-1.6888635146379756;2.17;0.029150424081453005
53:41.5;1.2199498501412862;-0.05147494221386385;-1.6180863652822903;2.17;0.10161072359596025
53:41.5;1.223606655377565;-0.11507852569263186;-1.4913310170658527;1.8090000000000002;0.20999558803784035
53:41.5;1.2073817587118125;-0.17366910871927918;-1.3181583003805493;1.577;0.27639790974743317
53:41.5;1.1752140677978486;-0.22529189970893132;-1.1110199481577234;1.3980000000000001;0.29416054079572407
53:41.5;1.1307626001600124;-0.2685882786009913;-0.8840131362378512;1.291;0.2684832585717734
53:41.6;1.0774606435355107;-0.3025754517763348;-0.6517058338590531;1.3430000000000002;0.2124646658972307
53:41.6;1.018691066572112;-0.32643784450594254;-0.42811144952211405;1.456;0.14236388859125437
53:41.6;0.9579470173243447;-0.3394239117697844;-0.22586261800893484;1.504;0.07343925822736952
53:41.6;0.8988165305921196;-0.340879952683685;-0.05560810900591897;0.721;0.017037687131382623
53:41.6;0.8447073485184022;-0.33039016920667985;0.07437493972701342;0.721;0.020756781586988467
53:41.6;0.7983968267102327;-0.3079581884104834;0.15838577043594027;0.721;0.0389427592538669
53:41.6;0.7616045682307402;-0.27416484128545343;0.19336976379379453;0.721;0.040376611346531074
53:41.6;0.7347420055016868;-0.2302557502188212;0.17891105070631766;0.684;0.03026791601878054
53:41.6;0.7168873099758071;-0.178132413772703;0.11718445950410793;0.7290000000000001;0.014964557069282102
53:41.6;0.705982594543203;-0.1202387678504622;0.012837600661039745;0.757;0.0010897386969938687
53:41.7;0.6992312906370669;-0.05935693731565926;-0.12728500484981928;0.887;0.005282865847947411
53:41.7;0.6936269076605415;0.0016503456848508341;-0.2946503713662906;1.111;0.0003372934029675171
53:41.7;0.6864825459081126;0.060095400373674085;-0.479769177057242;1.33;0.0197926103819878
53:41.7;0.6758105762698169;0.11366275614774524;-0.673042918425423;1.4240000000000002;0.051699450366133284
53:41.7;0.6604637027338263;0.160512115791535;-0.8655446591595035;1.4240000000000002;0.0917584894138814
53:41.7;0.6400639926622133;0.19928478003164252;-1.049541951818675;1.4240000000000002;0.13387433624179912
53:41.7;0.6148208613088348;0.22904010271904787;-1.218655142399983;1.2309999999999999;0.17160935152902593
53:41.7;0.585319144172764;0.2491691364714158;-1.367697562087071;1.178;0.19946975250297833
53:41.7;0.5522999726093397;0.2593478290443809;-1.4923789864687185;1.224;0.2137650811128185
53:41.7;0.5164364714930758;0.2595851734364376;-1.5890944403768448;1.5030000000000001;0.21303281047924139
53:41.8;0.47813308544841887;0.2503697260238462;-1.654948685771792;1.883;0.19811398927021284
53:41.8;0.4374086903261997;0.2328430535557171;-1.6880219157880025;2.1430000000000002;0.17192093885108728
53:41.8;0.3939114133078926;0.20889259952587513;-1.6877401030391945;2.233;0.13887599666767975
53:41.8;0.3470527483063688;0.18109009167666482;-1.6551506830795195;1.6780000000000002;0.10402260228446693
53:41.8;0.2961940697335351;0.15247437218923973;-1.5929614080538317;1.6780000000000002;0.07194133080261388
53:41.8;0.24081916559158786;0.12623305047297917;-1.5053341727941032;1.6780000000000002;0.04576116214858029
53:41.8;0.18066045093105007;0.1053429143622136;-1.397517745876603;1.376;0.026596577256541427
53:41.8;0.1157657713270939;0.0922039131247009;-1.2753986728908306;1.148;0.01361367828808795
53:41.8;0.04649810784484438;0.08829156078289695;-1.145023084806702;0.9620000000000001;0.004700766911904804
53:41.8;-0.02652428427763464;0.09386998916587848;-1.0121524079200024;0.8420000000000001;0.0025200917595709616
53:41.9;-0.10251970164621303;0.10782316805336617;-0.8819254073237971;0.755;0.009748802587724079
53:41.9;-0.18063030993374155;0.12765179770508575;-0.7586741827491568;0.7120000000000001;0.01749334526762657
53:41.9;-0.25997445242098804;0.14965649727339528;-0.6459002849685724;0.727;0.025129955791352594
53:41.9;-0.3396482291431335;0.1693021780341355;-0.546380423937479;0.753;0.031418614575855645
53:41.9;-0.41867372260750824;0.1817321681846368;-0.4623469784024734;0.753;0.03517835568403482
53:41.9;-0.4959008794879472;0.18236868781789778;-0.3956786921309198;0.753;0.035783911848121075
53:41.9;-0.5698858596498747;0.16752152227248693;-0.3480393927912015;0.66;0.03322667581884946
53:41.9;-0.6387878279454241;0.13494318640656755;-0.3209231001824203;0.6859999999999999;0.027663592076690835
53:41.9;-0.7003286588729519;0.08428458259478075;-0.3156126219078762;0.8079999999999999;0.018629637415483936
53:41.9;-0.7518378948771259;0.017393174997003734;-0.3331121977115643;0.903;0.004356057601395744
53:42.0;-0.7903757268029249;-0.061625854603962235;-0.37412160533659833;0.953;0.018222557880414183
53:42.0;-0.8129134411972965;-0.14666643349665104;-0.43906464149619046;1.053;0.052348410575183336
53:42.0;-0.8165613518861775;-0.2302477142446562;-0.5281048212749492;1.3159999999999998;0.09928971877396528
53:42.0;-0.7988491218823635;-0.30449537749604966;-0.6410221808433304;1.5030000000000001;0.15592599481852387
53:42.0;-0.7580489733836799;-0.36235189829132264;-0.7768391591439274;1.5030000000000001;0.21338255661484046
53:42.0;-0.6934841620030178;-0.39876470581266255;-0.9331960877686516;1.5030000000000001;0.2580632538459519
53:42.0;-0.6057289314091222;-0.4115680718285078;-1.105623106794803;1.25;0.2756303903342752
53:42.0;-0.49662963130284576;-0.40186848448751655;-1.2869604771439849;1.173;0.2568513111399753
53:42.0;-0.36915524977160186;-0.37385669245327735;-1.467243242899782;1.112;0.20249594295450285
53:42.0;-0.22716378238115384;-0.33404001440269154;-1.6343348759988519;1.876;0.12401626097936931
53:42.1;-0.07518020361815493;-0.28999318664989254;-1.7753532507009468;2.793;0.03870580208823045
53:42.1;0.08179540783570904;-0.24889813142436765;-1.8785519668038135;3.233;0.03824492133004658
53:42.1;0.23852478922313952;-0.21626685952799884;-1.935065966133758;3.014;0.09982039157269346
53:42.1;0.3898993494550534;-0.195192272113123;-1.9399872997851557;1.9869999999999999;0.1476433928820195
53:42.1;0.5314210495423191;-0.18625145545159114;-1.8925734657004674;1.9869999999999999;0.18732303038072165
53:42.1;0.6596455044060933;-0.1879266989385617;-1.7957888004056957;1.9869999999999999;0.22261496243625428
53:42.1;0.7724124466309408;-0.19728118791592655;-1.6555578736093342;1.819;0.2522779566732301
53:42.1;0.8688019983715336;-0.21067384089767685;-1.47999953543121;1.702;0.270890018853416
53:42.1;0.9488885658836018;-0.22439776389239038;-1.2787228523743004;1.5719999999999998;0.27227650353726407
53:42.1;1.0134147795191284;-0.23517905920694665;-1.0621809771894224;1.4040000000000001;0.2531537713742126
53:42.2;1.0634809643930963;-0.24049990403148697;-0.8410769498384795;1.306;0.21511978700030757
53:42.2;1.1002933720346983;-0.23874567875840105;-0.6258279163794923;1.287;0.16439891555449013
53:42.2;1.1249741956694241;-0.22920880563532584;-0.4260924485838621;1.217;0.10986963872612011
53:42.2;1.1384211797919788;-0.21199768417629458;-0.2503495932633568;1.047;0.06042003519919192
53:42.2;1.1412128012663365;-0.1878971932074186;-0.10552467263522455;1.047;0.022627727543191912
53:42.2;1.1335745166833568;-0.1582119718494178;0.003297649630583207;1.047;0.0005914171692820362
53:42.2;1.1154311757929707;-0.12460290288145287;0.07300990025674602;1.091;0.010147351256896699
53:42.2;1.0865573794437842;-0.08891323438536168;0.10244744123626669;1.124;0.00989737875554211
53:42.2;1.0468086750940675;-0.052983452187568086;0.09221330166413359;1.179;0.005114475904370028
53:42.2;0.996385895855877;-0.01846826268223541;0.044399303610337;1.24;0.0008170145160889664
53:42.3;0.9360597624371023;0.01332224450464924;-0.037769940029638016;1.236;0.00047100690322229855
53:42.3;0.8672697662913778;0.041541025416628866;-0.15033701776598105;1.1540000000000001;0.005416233142558822
53:42.3;0.7920238504271336;0.06587808474716408;-0.28899964627625807;1.055;0.015079138688073068
53:42.3;0.7125773713735447;0.08659091834485154;-0.44940923428551777;0.898;0.02772977618377722
53:42.3;0.6309622383476915;0.10448313088805775;-0.6272984265160112;0.898;0.04135459239570909
53:42.3;0.5485296479176236;0.12080594963973934;-0.8183783216181558;0.898;0.05423036735424559
53:42.3;0.46568401810286464;0.1370503987378031;-1.0180044507976558;0.927;0.06497126367303342
53:42.3;0.38190259215219585;0.15461285848245857;-1.2206943013165246;0.8029999999999999;0.07207839919565195
53:42.3;0.29603086070404383;0.1743539985636423;-1.4196536231335322;0.9420000000000001;0.07327423529953862
53:42.3;0.20676851388625372;0.1961360533764628;-1.6065114091352044;1.168;0.06515168507840409
53:42.4;0.11320060051863198;0.21849877762263306;-1.7714604655563988;1.4409999999999998;0.04381564476256766
53:42.4;0.015201241678762122;0.23865025687234626;-1.9039262369333045;1.935;0.006907025964419368
53:42.4;-0.0864162795685655;0.2528568067152858;-1.9937380777181057;2.447;0.04356506008360124
53:42.4;-0.19002424684600583;0.2571649928963819;-2.0326041921511626;2.907;0.09932845628222985
53:42.4;-0.29349316024339983;0.24826821696206205;-2.015569957992228;2.907;0.1468645525246878
53:42.4;-0.39454136030325976;0.2242897048731721;-1.9421225709267087;2.907;0.1718614662332808
53:42.4;-0.4909868247568334;0.18529442616220532;-1.8166874998585185;2.5839999999999996;0.16527700021334826
53:42.4;-0.5808527293397748;0.1334333889697989;-1.6483926273557032;2.117;0.1277589148225121
53:42.4;-0.6623596811572137;0.07272040923537877;-1.4501137929531591;1.5490000000000002;0.06984772833122045
53:42.4;-0.7338608165959576;0.008512958936813383;-1.236952559654222;1.0090000000000001;0.007727647119957997
53:42.5;-0.7937656267557989;-0.05319665927143824;-1.0244194323592417;0.725;0.04325680671442778
53:42.5;-0.8404942097698941;-0.10656921145096225;-0.8266643064704089;0.8190000000000001;0.07404498753112337
53:42.5;-0.8725044023603127;-0.14667708669326904;-0.6550699993410098;1.074;0.0838335027956823
53:42.5;-0.888411735083811;-0.1701224372511167;-0.5174001351933074;1.137;0.07819921985242198
53:42.5;-0.8871689343350277;-0.17541885611411628;-0.4175314379170722;1.137;0.06497881421243112
53:42.5;-0.8682239768591856;-0.1630901862532144;-0.35569389010626334;1.137;0.050365831597276145
53:42.5;-0.8315757553317362;-0.1354942495854369;-0.3291190215989992;0.846;0.0370830687458163
53:42.5;-0.7776998651407017;-0.09640565733742455;-0.33300900089412167;0.662;0.024967238853505415
53:42.5;-0.7073977373243014;-0.05041133018536047;-0.3617323344491389;0.966;0.012899686464945586
53:42.5;-0.6216840981059226;-0.0022150847467463618;-0.41009884390088314;1.415;0.0005647401310856746
53:42.6;-0.5218202926623232;0.04400702853120371;-0.4744778511732758;1.587;0.010895795740386075
53:42.6;-0.40951694381713755;0.08505580556282247;-0.5534664280116178;1.505;0.019278228356245108
53:42.6;-0.2872155104080625;0.11886868694060065;-0.6478724332723653;1.285;0.022118967776291243
53:42.6;-0.15828093958137973;0.14437721228743997;-0.7599628747685948;0.40700000000000003;0.01736679382763884
53:42.6;-0.026964710588550874;0.16113519635444992;-0.8921617755255854;0.40700000000000003;0.003876410739136025
53:42.6;0.10186975282234417;0.16886188696548132;-1.0455452733138346;0.40700000000000003;0.01798538477437756
53:42.6;0.22316240533368292;0.16706201990174435;-1.218503181885087;0.40700000000000003;0.04542818956905357
53:42.6;0.3321472161356527;0.15483456143297278;-1.4058496421738071;0.733;0.07229985058689488
53:42.6;0.42492729651777866;0.13090891674260152;-1.5985606270520316;1.1159999999999999;0.08892276765949049
53:42.6;0.4991155100183804;0.09389188638971131;-1.7842310639852996;1.7469999999999999;0.08361423615107616
53:42.7;0.5544005506292692;0.042669288470651476;-1.9482555775202084;2.428;0.046087694351363936
53:42.7;0.5928096363663878;-0.023122625641908992;-2.075610037346552;2.987;0.0284510412188817
53:42.7;0.6184832323549977;-0.10266480755685954;-2.152941299613544;3.361;0.13670415547699216
53:42.7;0.6369511136300009;-0.19369433482704154;-2.1705312137931823;3.028;0.2677867322061453
53:42.7;0.6540951979445159;-0.29252724420645954;-2.1237092838754488;2.67;0.4063519481371935
53:42.7;0.6750822310280575;-0.3943727635142356;-2.013477988604721;2.67;0.5360563895251527
53:42.7;0.7035155509234381;-0.49382420417782225;-1.8463520879881787;2.283;0.641446730982232
53:42.7;0.7409488933904331;-0.5853783474875619;-1.6335453200683854;1.895;0.7085264961760726
53:42.7;0.7867990410491106;-0.663876606018474;-1.389674272541993;1.55;0.7258789533578784
53:42.7;0.8386157233710099;-0.724807704191091;-1.1311820573602311;1.327;0.687572200982936
53:42.8;0.892614538405703;-0.7644617823609873;-0.8747153008600513;1.25;0.5968792183000854
53:42.8;0.9443517231838396;-0.7799906746288933;-0.635667802780989;1.344;0.46822371028021276
53:42.8;0.9894149352178392;-0.7694684982172035;-0.42704014091734255;1.5430000000000001;0.3251157478114966
53:42.8;1.0240113461013014;-0.7320241120169989;-0.2586951058259707;1.464;0.19391810907158438
53:42.8;1.0453589991046148;-0.6680486173040537;-0.13702475278533052;1.464;0.095691322972859
53:42.8;1.051841265317178;-0.5794157379872936;-0.064980626592051;1.464;0.039602662705286146
53:42.8;1.042944107443654;-0.46962509778260203;-0.042370816617962645;1.251;0.020752917877543436
53:42.8;1.0190312598312514;-0.34378840841128;-0.06632002056003551;0.97;0.02323396807195698
53:42.8;0.981036043297076;-0.20841445087722663;-0.13181500301802085;0.804;0.02695117078034135
53:42.8;0.9301716106040828;-0.0710002091223449;-0.23228992898690215;0.85;0.015340979498432645
53:42.9;0.8677498400432931;0.060516529063519536;-0.360228084338415;1.051;0.018916732469743326
53:42.9;0.7951288999733105;0.1783635192734157;-0.5077655346610112;1.284;0.07201231800792392
53:42.9;0.7137153044940379;0.27552146239509184;-0.6672743821870791;1.4340000000000002;0.13121542649253146
53:42.9;0.624899634999282;0.3462308636618581;-0.8318749082723892;1.499;0.1799840727640294
53:42.9;0.5298678811891366;0.3863745158625006;-0.9957844470397984;1.499;0.20386440667424555
53:42.9;0.42937393224789455;0.39370429040315563;-1.1543882316733514;1.499;0.19514512779846369
53:42.9;0.32364265307963513;0.3678954000267981;-1.303961075549089;1.22;0.1552582682861754
53:42.9;0.21251550231440364;0.31044065074155214;-1.4410878528697826;0.885;0.09507353860467399
53:42.9;0.09583133450878137;0.2244437751911866;-1.56197576511783;0.809;0.03359614076912661
53:42.9;-0.026064137310840042;0.11441684893805185;-1.6619563210979598;0.985;0.00495624702064501
53:43.0;-0.15185399118556908;-0.01381121918237967;-1.7354752993269231;1.525;0.0036397928315646654
53:43.0;-0.2790018496755383;-0.1530517322814578;-1.7767166000504362;2.316;0.07586884838309571
53:43.0;-0.40379279836781146;-0.2947005214501043;-1.7807333272427266;2.838;0.21190361229875831
53:43.0;-0.5216134944976186;-0.4288865298373825;-1.7447089742066004;2.339;0.3903140814883767
53:43.0;-0.6273574962047553;-0.5449774479198594;-1.66891670530318;2.339;0.5705954238643252
53:43.0;-0.7158512916482135;-0.6324104291047843;-1.5571175911122024;2.339;0.7049255425604175
53:43.0;-0.7822531404998526;-0.6816935506916737;-1.4163583837304063;1.926;0.7552829105806456
53:43.0;-0.8224466088714958;-0.6854500689153881;-1.2562345255491176;1.685;0.7081972952812079
53:43.0;-0.8334951149298995;-0.6394305875279159;-1.0877276687351312;1.672;0.5797178086035054
53:43.0;-0.8142094315367004;-0.5433888107549932;-0.9217949395199144;1.825;0.4078318503422268
53:43.1;-0.7657864736556136;-0.4016523289779277;-0.7679481833830475;1.9769999999999999;0.23620544130333274
53:43.1;-0.6923298345730922;-0.22320288082484482;-0.6330822366444765;1.8940000000000001;0.09783020661181152
53:43.1;-0.6009573777505154;-0.021126366835938302;-0.5207957734442229;1.555;0.006612047104128351
53:43.1;-0.5012488940208407;0.1886070187041919;-0.43137219942130073;1.01;0.04078152204069645
53:43.1;-0.40402146032425207;0.38889987363444406;-0.3624309335215817;1.01;0.05694655989472439
53:43.1;-0.3197242207773824;0.5634896109537119;-0.310078570829244;1.01;0.05586415122219516
53:43.1;-0.25688224128421405;0.6987281766012857;-0.27029593806428304;1.5130000000000001;0.04851565039219882
53:43.1;-0.22091325265991213;0.7849409852906986;-0.2403161088308863;1.86;0.04167174238301242
53:43.1;-0.21348275456604562;0.8172851787534243;-0.21977764327176752;1.931;0.03834598809251127
53:43.1;-0.23247981283235317;0.7960592503927761;-0.21141908153952196;1.75;0.039126844326789034
53:43.2;-0.2726062511575078;0.7264136917279485;-0.22108857164892445;1.396;0.04378104523050693
53:43.2;-0.3264325218355475;0.6174721621815701;-0.25694690474176357;1.068;0.05179098769221994
53:43.2;-0.38565820464785944;0.48097548980490396;-0.32791971833051686;1.026;0.06082653157292667
53:43.2;-0.44228282253395995;0.3296605823634073;-0.4416387410977203;1.04;0.06439234736925598
53:43.2;-0.48945335979804694;0.17565585923217353;-0.6022540090059617;1.04;0.051778999495888815
53:43.2;-0.521883055097697;0.02917922653680988;-0.8085681688824898;1.04;0.012312992420954462
53:43.2;-0.5358650864948451;-0.10226859958289837;-1.0529180407821372;0.685;0.05770219553198881
53:43.2;-0.5289951468165238;-0.2141770058464784;-1.321124446551737;0.506;0.14968154579759788
53:43.2;-0.4997929177787982;-0.3048444742167317;-1.5936786609166285;1.4969999999999999;0.2428114611881075
53:43.2;-0.44745429554718075;-0.37486154598803506;-1.8481014402881883;2.745;0.30998835473480707
53:43.3;-0.3718904047554614;-0.4263822686984308;-2.062084076371459;3.6710000000000003;0.32697946416969126
53:43.3;-0.27402001170791124;-0.4623370060268218;-2.216729743216577;4.01;0.2808365863089365
53:43.3;-0.1561096653250982;-0.48577077496606874;-2.2991375841240953;3.924;0.17435168011510604
53:43.3;-0.021925387609879034;-0.49945692349815735;-2.3037735089438813;2.339;0.02522813216824667
53:43.3;0.12341427657280284;-0.5058096330014614;-2.2324862643863153;2.339;0.1393610126582771
53:43.3;0.2738199828481359;-0.506976055735802;-2.093470796549356;2.339;0.2906159820957005
53:43.3;0.4227126318820999;-0.5049387139917715;-1.8996793805526964;1.85;0.4054751138996196
53:43.3;0.5635226441232625;-0.5015147495868028;-1.6670633981376748;1.5390000000000001;0.4711369851553343
53:43.3;0.6901820038621618;-0.498224047173945;-1.4128497801316107;1.354;0.4858299728816312
53:43.3;0.7975735011174725;-0.4960650539702958;-1.1539987900837754;1.262;0.4565777078248447
53:43.4;0.8818853284279529;-0.4952875066743096;-0.9059646403017478;1.278;0.39571338300476483
53:43.4;0.9408324006190774;-0.4952722163552962;-0.681806623747343;1.33;0.31770016994814576
53:43.4;0.9737162306550133;-0.4945967857871874;-0.49162712444305834;1.3219999999999998;0.23676610791278402
53:43.4;0.9812962246906631;-0.49129667270295446;-0.3422892722899649;1.054;0.16502024934408072
53:43.4;0.9654769986908801;-0.48326197198792314;-0.2373773876750262;1.054;0.11075514234299116
53:43.4;0.9288846853367491;-0.46866986659876014;-0.1773761016950808;1.054;0.07721895850685631
53:43.4;0.8744458686345662;-0.446353225378934;-0.1600393509603686;0.935;0.06246523656306303
53:43.4;0.805057748283337;-0.4160388825806909;-0.18090508195192537;0.8370000000000001;0.06059150260020353
53:43.4;0.7233957658852894;-0.3784265197118436;-0.2339073157881648;0.7909999999999999;0.06403262874010648
53:43.4;0.6318827462438662;-0.3351044962640906;-0.31204843779613883;0.838;0.06607524235182198
53:43.5;0.5328120585631687;-0.2883198436631469;-0.40810314343058457;0.981;0.06269292300978196
53:43.5;0.42855646482552856;-0.2406417350489854;-0.5153148699271431;1.169;0.05314368628568812
53:43.5;0.3217365184752154;-0.1945753282291937;-0.6280141893103621;1.26;0.03931493717362432
53:43.5;0.21521889777085804;-0.15219177095678244;-0.7420541141255673;1.129;0.024305645018345878
53:43.5;0.11189981542751683;-0.11484282463149509;-0.8549534790865194;1.129;0.01098691386673758
53:43.5;0.014362326883677723;-0.08302357927336232;-0.9656869647902234;1.129;0.0011514965170282185
53:43.5;-0.07543794943845201;-0.05642652527292738;-1.074138717092695;1.035;0.004572287738442804
53:43.5;-0.15635293453360957;-0.034196486578183145;-1.1803129508831147;0.8140000000000001;0.006310804073208233
53:43.5;-0.2280580938461306;-0.01535293035430212;-1.2834625261017742;0.7879999999999999;0.004493864390890778
53:43.5;-0.29092182519939846;0.0007151627827113726;-1.381351005949537;0.852;0.00028739900316236537
53:43.6;-0.345795501828852;0.013844512428633203;-1.4698735543807733;1.054;0.007036828738587796
53:43.6;-0.3938264549688242;0.02296167105833214;-1.5431994408783265;1.406;0.013955019077270188
53:43.6;-0.4363519408602643;0.026311897154537616;-1.5944741903811226;1.817;0.018306552638486608
53:43.6;-0.4748305489024121;0.02199533012535968;-1.6169684268770987;2.347;0.016887706660825126
53:43.6;-0.5107209636697329;0.008625651457557452;-1.6054223859146062;2.347;0.007072368881718605
53:43.6;-0.5452772214408759;-0.01409659331993347;-1.5572566301367163;2.347;0.011969932877132595
53:43.6;-0.5793135222010528;-0.04503824574163102;-1.4733475066725534;2.142;0.03844149990120849
53:43.6;-0.6130157980594235;-0.08157692354859981;-1.3581908477365738;1.806;0.06792033035056036
53:43.6;-0.6458551706876433;-0.11983623396086833;-1.219428094595766;1.419;0.09437989495646872
53:43.6;-0.6766331373027084;-0.15516801277350578;-1.0668345504281371;1.0490000000000002;0.11200890033297456
53:43.7;-0.7036651170702667;-0.18279620395165877;-0.9109668172102038;0.868;0.1171752132500054
53:43.7;-0.7250778952979337;-0.1985162355784284;-0.7617375189935247;1.005;0.10964429607174037
53:43.7;-0.7391575437153582;-0.19934730254671051;-0.6272188408981019;1.113;0.09242010818660774
53:43.7;-0.7446552347060178;-0.18405199728526325;-0.5129432978985645;1.031;0.07030158897778759
53:43.7;-0.7409700257637024;-0.15345624762958532;-0.42183189822226336;1.031;0.04796502019720348
53:43.7;-0.7281824300869321;-0.11051858187856135;-0.3546661678988354;1.031;0.028542713744152765
53:43.7;-0.7069642747488596;-0.06011335290485373;-0.31086808152753476;0.893;0.01321126953374941
53:43.7;-0.6784101206047987;-0.008517569889611437;-0.28935002636353085;0.745;0.0016719818173493467
53:43.7;-0.6438503397380706;0.037361030793902246;-0.2892707928464085;0.789;0.006958383573010416
53:43.7;-0.6047269028762636;0.07091403595973943;-0.3105860734076857;1.022;0.013319056806715468
53:43.8;-0.5625955416030226;0.08677082079074049;-0.3543089505406201;1.228;0.017296256429524568
53:43.8;-0.519237242643447;0.08157634569328913;-0.4224211425836062;1.28;0.01789269374796023
53:43.8;-0.47676798740858345;0.05445012029478127;-0.5174093187222408;1.175;0.013431984340518021
53:43.8;-0.4376055498839645;0.007021170602492884;-0.6414509966199982;0.6609999999999999;0.0019708602540836743
53:43.8;-0.4042152772865988;-0.056955627897887925;-0.7953409484861925;0.6609999999999999;0.01831060569464368
53:43.8;-0.378662605436724;-0.13226668034468664;-0.9773155510487842;0.6609999999999999;0.04894830773797169
53:43.8;-0.3620616844273966;-0.21300492171799207;-1.1819797291750658;0.382;0.09115536502009333
53:43.8;-0.3540124576334689;-0.2933063646077268;-1.3995824355383606;0.634;0.14532439233106897
53:43.8;-0.3521413769013993;-0.3679955768971719;-1.6159478328085308;0.963;0.20940497397163935
53:43.8;-0.35192888872429984;-0.4330710796427676;-1.8133816726413905;1.699;0.27637790655721817
53:43.9;-0.34701593528376073;-0.4859364473738182;-1.9726891868175032;2.926;0.3326500221876653
53:43.9;-0.3300438542075505;-0.5253242709015999;-2.076042046692287;3.8510000000000004;0.3599442677896213
53:43.9;-0.29386187679149234;-0.550981547388426;-2.1100181479133977;4.325;0.3416382534348341
53:43.9;-0.23278827894387974;-0.5633061040298522;-2.067979207301774;2.801;0.2711763023592028
53:43.9;-0.1436283489740862;-0.5631245700672731;-1.951186366914489;2.801;0.15781322604760398
53:43.9;-0.026286617672890727;-0.5516650734307839;-1.768540573220098;2.801;0.02564632995325972
53:43.9;0.11607054659311966;-0.5306387545821267;-1.5352002014568855;1.63;0.09455532970592942
53:43.9;0.27729888154576354;-0.5023156671459844;-1.2704069479708238;0.867;0.17695698172962532
53:43.9;0.4489572909485087;-0.4695176748853655;-0.9948803801671146;0.9490000000000001;0.20971420138283953
53:43.9;0.6212480655515333;-0.435479189348611;-0.7282671989630011;1.025;0.19702584785955451
53:44.0;0.7840194205679151;-0.40355486442661287;-0.48715306343186654;0.971;0.1541327209065969
53:44.0;0.927670937123648;-0.37680703091667256;-0.28393389508389333;1.0090000000000001;0.09924992537460005
53:44.0;1.0439001070775566;-0.35756674639862646;-0.12654439365764109;1.168;0.04723446210655725
53:44.0;1.126299303136729;-0.34709153983019025;-0.01882890328026992;1.476;0.0073607635666656625
53:44.0;1.170811625341143;-0.34541409419178015;0.0387370509709331;1.476;0.01566583815568128
53:44.0;1.1760113291748326;-0.3514044916737262;0.04823971547096377;1.476;0.0199353356158627
53:44.0;1.1431541700273808;-0.3630088429941926;0.013618338636411478;1.411;0.005651271064685223
53:44.0;1.0759690426605277;-0.37760947910492826;-0.05986088134903676;1.2919999999999998;0.024321243217246675
53:44.0;0.9802081000298268;-0.39244613494101;-0.16595779384224194;1.129;0.06384045831139178
53:44.0;0.8630143723937816;-0.4050179160657859;-0.2977166682836556;0.966;0.10406277751235644
53:44.1;0.7321989001271575;-0.41337637809297917;-0.4477352881824023;0.8190000000000001;0.13551770944840308
53:44.1;0.5955350035861653;-0.4162459896751834;-0.6085355310988162;0.8109999999999999;0.1508492989270489
53:44.1;0.46016355669727455;-0.4129607472896225;-0.7730814630425342;1.031;0.14690827325071948
53:44.1;0.3321596984061008;-0.4032639213185551;-0.9354161286416437;1.757;0.1252971406304695
53:44.1;0.21626032011343563;-0.3870647088717337;-1.091278940111856;1.757;0.09134740015594711
53:44.1;0.11572153881658065;-0.3642621794782746;-1.2384684390510148;1.757;0.05220513527000282
53:44.1;0.03226827522549226;-0.3347230218143186;-1.376728968405633;1.6969999999999998;0.01486995953895396
53:44.1;-0.03389021911505927;-0.2984516123690822;-1.5070868722908781;1.456;0.015243566619066775
53:44.1;-0.08396585405080609;-0.2559364662480991;-1.6307445163544296;1.265;0.035044575673017185
53:44.1;-0.12037181361263996;-0.20858153862305515;-1.7477839789738496;1.088;0.04388220326868261
53:44.2;-0.1463623345954852;-0.1590360860318593;-1.8560362545838809;0.99;0.04320275699870316
53:44.2;-0.16559312337321747;-0.11119517007557216;-1.9505152765201965;1.0190000000000001;0.03591514112451929
53:44.2;-0.1816952648818968;-0.06973028053779075;-2.0237391739777597;1.6469999999999998;0.0256400908907397
53:44.2;-0.19790896863681282;-0.03920710490427549;-2.0670256933391036;3.275;0.016038957081099238
53:44.2;-0.21676710641099606;-0.02304182349936271;-2.0724881127209493;3.275;0.01035147587123826
53:44.2;-0.23982657253592857;-0.022619311814815343;-2.035133102599344;3.275;0.011040011015506907
53:44.2;-0.26749250579590284;-0.036820857661355115;-1.9543995095471844;3.08;0.01924947389341028
53:44.2;-0.29899936358679763;-0.062060598224292204;-1.8347118532157518;2.589;0.034045058774633985
53:44.2;-0.33259429766405946;-0.09279262713842236;-1.6849419942097708;1.9369999999999998;0.052001183035766924
53:44.2;-0.3659264477270546;-0.12236082098648535;-1.51691724504295;1.24;0.06792006151820935
53:44.3;-0.3965817696061606;-0.1440256811562384;-1.3433010535392724;0.851;0.07672661517461175
53:44.3;-0.4226411430109306;-0.15200111894890947;-1.1753287688357044;1.0290000000000001;0.07550538455894995
53:44.3;-0.4431180095404767;-0.14234381463033155;-1.0209625064098797;1.1320000000000001;0.06439732016114932
53:44.3;-0.45816148569685217;-0.1135577695056305;-0.8839605151750747;1.041;0.045990517699550724
53:44.3;-0.4689813155528295;-0.06683379954104812;-0.764073764462667;1.041;0.02394897772816966
53:44.3;-0.477536098734737;-0.005933947487496658;-0.6581706740940166;1.041;0.0018650412144610093
53:44.3;-0.4860781243871359;0.06321006647556399;-0.5618229547113309;1.18;0.017262027449909567
53:44.3;-0.4966492296394293;0.1331220243201417;-0.4709098767255079;1.1079999999999999;0.03113418334348594
53:44.3;-0.5106161740496925;0.19558544514203585;-0.3829531335705767;0.9570000000000001;0.03824518161268535
53:44.3;-0.5283473381780486;0.24256260940890123;-0.2980115377478621;0.8959999999999999;0.038192356735487154
53:44.4;-0.5491281682538783;0.2671282238698565;-0.21905820188427136;0.972;0.032133128962098995
53:44.4;-0.5713590722900057;0.26429378925842895;-0.15185212536148035;1.0590000000000002;0.02293068139048115
53:44.4;-0.592996694366785;0.23159237045763614;-0.10436374696498056;1.09;0.014332639700179381
53:44.4;-0.612126838949415;0.16931848625418894;-0.08582356873055463;1.047;0.008895131408659602
53:44.4;-0.6275146321142689;0.0803969143062654;-0.10547844969518026;1.047;0.005321413112921485
53:44.4;-0.6389692022490621;-0.030038136250695974;-0.1711737443861668;1.047;0.0032854136698124113
53:44.4;-0.6473929021682117;-0.15522493923533068;-0.2878987262389624;0.995;0.02893138172875037
53:44.4;-0.6544535571156413;-0.28743491947978933;-0.4564302856334003;0.92;0.08586038154237718
53:44.4;-0.6618980740738922;-0.4186817680001388;-0.6722314670410285;0.914;0.1862919139815995
53:44.4;-0.6706108909400746;-0.5414368309149902;-0.9248292558110107;1.028;0.3357994318059134
53:44.5;-0.6796282097460077;-0.6492657733194032;-1.1979634377218602;1.038;0.5286125500876226
53:44.5;-0.6854280676912355;-0.7372834026177225;-1.4707795619961919;1.624;0.7432654202040526
53:44.5;-0.6818418226029848;-0.8023513493441249;-1.720140804863885;2.975;0.941048966077371
53:44.5;-0.660791059798711;-0.8430114690148187;-1.9237437218982676;3.8560000000000003;1.0716299856160842
53:44.5;-0.613755153881931;-0.8592335129928559;-2.0633322871348545;3.8560000000000003;1.0881168453952423
53:44.5;-0.5335699852792976;-0.8521189929269283;-2.127202859212915;3.8560000000000003;0.9671649400835967
53:44.5;-0.41605710528085316;-0.8236991048485631;-2.111450793856918;3.2319999999999998;0.7236065711058169
53:44.5;-0.26112645751480484;-0.7768827648925974;-2.0198197172791765;2.452;0.40975000849740273
53:44.5;-0.07320975484661832;-0.7154953769594542;-1.8623765767542115;1.798;0.09755359656248082
53:44.5;0.13897673457531023;-0.6442696210718395;-1.6534827702079125;1.2790000000000001;0.14805034738124564
53:44.6;0.36325977668351456;-0.5686558979690399;-1.4096165212136886;0.9990000000000001;0.2911842233117003
53:44.6;0.5852876041082807;-0.494405435548447;-1.1474992182690587;1.0070000000000001;0.3320511291137329
53:44.6;0.7900886671993338;-0.426987863399308;-0.8827606867198684;1.158;0.29780661977611805
53:44.6;0.9637348581848634;-0.370978683301586;-0.6291650233255993;1.788;0.22494228079738268
53:44.6;1.0949177689686826;-0.3295611623571636;-0.39829101071469064;1.788;0.1437202733022277
53:44.6;1.1762173782233116;-0.304239054811998;-0.19952308608801106;1.788;0.0713995884348811
53:44.6;1.2048679343699484;-0.29478897470071197;-0.040204275878687384;1.722;0.014279826391727982
53:44.6;1.1829355155754107;-0.29943169004727527;0.07420322551821772;1.57;0.026283404349494846
53:44.6;1.1169386902948073;-0.3151756539119527;0.14008022439326753;1.426;0.04931270503720338
53:44.6;1.0170024224927268;-0.33827022537907936;0.15577763696486552;1.327;0.053590877936432676
53:44.7;0.8956550324477216;-0.3646957734590953;0.12182425402228259;1.155;0.03979286983874775
53:44.7;0.7663948002331216;-0.3906155597420361;0.04103708240923267;0.897;0.01228509629158816
53:44.7;0.6421763438856285;-0.4127208796355237;-0.08164667451035389;0.643;0.021639600772094442
53:44.7;0.5339888517865788;-0.4284222011997137;-0.23969484736336516;1.015;0.054835632445365344
53:44.7;0.4497010364080267;-0.4358852335084515;-0.42576047343034934;1.015;0.08345673404932495
53:44.7;0.39331576498534776;-0.43397159500778837;-0.6324470685907077;1.015;0.10795104294479142
53:44.7;0.36471102179064224;-0.42217646563676137;-0.8527773480176385;1.146;0.13130418360271773
53:44.7;0.35986760627962244;-0.4006367436238781;-1.0802455739069963;1.196;0.15574568669810593
53:44.7;0.37152942335016814;-0.3702414753255508;-1.3085102768382906;1.2819999999999998;0.1799929186286367
53:44.7;0.39021371305211855;-0.3328338077230113;-1.5308682941347533;1.357;0.19882353423290763
53:44.8;0.4054604761056981;-0.2914313499368998;-1.739693282719218;1.4969999999999999;0.20556893247349967
53:44.8;0.40716798613731997;-0.2503096662747045;-1.926074403912516;1.6119999999999999;0.1963018104378078
53:44.8;0.38683194160274875;-0.21475281461583665;-2.079912932134151;1.781;0.1727851233339648
53:44.8;0.3385304692752468;-0.19034976157018924;-2.1906470155634525;2.875;0.14116352826411066
53:44.8;0.2595755248899098;-0.1819138760775481;-2.2485481738445885;2.875;0.10617732140499352
53:44.8;0.1508299499332298;-0.1923166281826259;-2.2462729256674203;2.875;0.065157880004801
53:44.8;0.016710998643223476;-0.22159256857018214;-2.180257153418928;2.93;0.008073564433365227
53:44.8;-0.1351302520226798;-0.2665520873432176;-2.051657193637962;2.787;0.073899154889884
53:44.8;-0.29448479596496857;-0.3209626156653554;-1.8666992637394042;2.528;0.17643782041832812
53:44.9;-0.44961177194808044;-0.3762406300653636;-1.636378068597402;2.229;0.276813340891006
53:44.9;-0.5885292525984975;-0.4225333709349119;-1.3754983489182384;1.849;0.34204964341172134
53:44.9;-0.7004051380267052;-0.45002875307918266;-1.1011430065302958;1.5730000000000002;0.3470829744678148
53:44.9;-0.7768462100063036;-0.45030663013595623;-0.8307742398755552;1.6680000000000001;0.29062061295654024
53:44.9;-0.8128982191182235;-0.4175421339675709;-0.5802906768599758;1.5590000000000002;0.1969618304471272
53:44.9;-0.8076221291117637;-0.3494048037285244;-0.3624123231874658;1.5590000000000002;0.10226806491083719
53:44.9;-0.7641817524169658;-0.24755637083366927;-0.18569729490335757;1.5590000000000002;0.03512985423580822
53:44.9;-0.6894386929796906;-0.1176982808017083;-0.054326710540774203;1.103;0.004408381611120594
53:44.9;-0.5930904367013371;0.030854419030410942;0.03139499945187379;0.581;0.0005745115635723528
53:44.9;-0.48643950102551575;0.18605485700048632;0.07401658171146054;0.342;0.0066988286717731315
53:45.0;-0.3809633810108995;0.3343669413324517;0.07765499818687632;0.6609999999999999;0.009891814847206061
53:45.0;-0.28692079390902664;0.46220140885442396;0.046716957175017323;0.9890000000000001;0.006195378393718165
53:45.0;-0.21222988943890383;0.5573503145268693;-0.015149448226410796;1.192;0.0017919736264971815
53:45.0;-0.16178977854650464;0.6102392853790229;-0.10572078533978604;1.2990000000000002;0.010437863760133444
53:45.0;-0.1373173065149904;0.6148544742221446;-0.22440642443761485;1.092;0.018946670387365312
53:45.0;-0.13765810452277707;0.5692606730524308;-0.3719914256575807;1.092;0.029150492512058816
53:45.0;-0.15943232047857603;0.47570198963241145;-0.5499562429981942;1.092;0.041709931004418346
53:45.0;-0.19783940749516352;0.3403228749010921;-0.7594492945987966;1.176;0.05113317110897449
53:45.0;-0.24746897234198603;0.17254006938290625;-1.0000155185195085;1.29;0.04269897627261626
53:45.0;-0.3029687530684969;-0.01591248352583884;-1.2682056043843413;1.068;0.006114000566027715
53:45.1;-0.35940042295860475;-0.21219749277499697;-1.556239172315369;0.741;0.11868481983180808
53:45.1;-0.41217831499439644;-0.40369705880715123;-1.8510276908471153;0.982;0.30800207371132843
53:45.1;-0.45668282047117353;-0.5792355953988815;-2.1340437322338475;1.32;0.5645120698891818
53:45.1;-0.48785668843643415;-0.7299901539289028;-2.3825645608803265;2.37;0.8485040967783728
53:45.1;-0.5001597076216515;-0.8499281153654855;-2.5725075762521175;5.078;1.0935724501966437
53:45.1;-0.48808326788222695;-0.9357368446000429;-2.6824064102805596;5.078;1.2251019416137845
53:45.1;-0.4471019260114192;-0.9863951809431201;-2.697418894135002;5.078;1.1896134828562213
53:45.1;-0.37471843950454975;-1.002662645291867;-2.612136664493051;4.609;0.981422013905543
53:45.1;-0.27127668138466804;-0.986717612221935;-2.431465087601867;3.549;0.6508387198127916
53:45.1;-0.14034094030478117;-0.9420137372525307;-2.1695233440296713;2.3369999999999997;0.28681769786141764
53:45.1;0.01145866089800011;-0.8732688713211828;-1.8470258124973744;1.475;0.0184822487750475
53:45.2;0.1751107611961125;-0.7864205503787624;-1.48790575494797;1.119;0.2049005448290717
53:45.2;0.34031212068786487;-0.6883944726521453;-1.1160243338698865;1.067;0.2614498855405377
53:45.2;0.4967489699932878;-0.5866152020471419;-0.7526482658901895;1.023;0.2193220790471385
53:45.2;0.6353366888244663;-0.4882964051082361;-0.41504070231677054;1.171;0.1287591649787582
53:45.2;0.7492221686974152;-0.399646750344115;-0.11612598884882804;1.171;0.034770931891560226
53:45.2;0.8344228361062536;-0.3251824509623041;0.13509410759075913;1.171;0.03665638962479386
53:45.2;0.8900537667948166;-0.2673097824104671;0.3327908463807217;1.185;0.07917762437336799
53:45.2;0.9181604965858372;-0.22624711663835892;0.473578199109626;1.162;0.09837695100249605
53:45.2;0.9232111922821674;-0.20027131581645274;0.5560129565448555;1.1520000000000001;0.10280274803250661
53:45.2;0.9113140823381073;-0.1862337792742232;0.5803804151941996;1.168;0.09850069318525285
53:45.3;0.8892427717064335;-0.1802640778246503;0.5486860414576569;1.1909999999999998;0.08795356489168439
53:45.3;0.8633832722342902;-0.17853857640279855;0.4646934567561753;1.1179999999999999;0.0716312046573937
53:45.3;0.838750336567172;-0.17795618208043323;0.33383887035983123;0.8959999999999999;0.04982905940291139
53:45.3;0.8182391232226581;-0.1765691555799694;0.1629115057236742;0.653;0.023536768660561282
53:45.3;0.8022508873554863;-0.1736886319141219;-0.04048112163715327;0.653;0.005640714746429535
53:45.3;0.7887452337077696;-0.16969755161550198;-0.26850128394294576;0.653;0.035938396103179296
53:45.3;0.773678095114575;-0.1656793904251902;-0.5135319885440806;0.998;0.06582582191897259
53:45.3;0.7517360868796786;-0.1629731536216445;-0.7684116137312913;1.337;0.09414025894239726
53:45.3;0.717250249615435;-0.16274945160611237;-1.026477719884199;1.588;0.11982288423180783
53:45.4;0.665141919490554;-0.165709037094895;-1.281448904991321;1.665;0.14124133292037291
53:45.4;0.5917583321786559;-0.1720004696690475;-1.5271467106904784;1.59;0.15543713240853385
53:45.4;0.4955069704323757;-0.18140143043854287;-1.7570899469624417;1.6540000000000001;0.15793721280610287
53:45.4;0.3772306300994687;-0.1936960062865692;-1.9640915422460234;1.8459999999999999;0.14351237141941384
53:45.4;0.24024857473827635;-0.20903715647454055;-2.1400880007925487;2.1830000000000003;0.10747710034529649
53:45.4;0.09001978005757866;-0.22804063769693833;-2.276406774228658;2.1830000000000003;0.04673046081076937
53:45.4;-0.06647439948626754;-0.25151187001022046;-2.364492705194913;2.1830000000000003;0.039532191223102454
53:45.4;-0.22142614331113308;-0.27992052801647743;-2.3969458491858044;2.6;0.14856683355591097
53:45.4;-0.36684218113926825;-0.3128178437322741;-2.36870237951131;2.938;0.27181992066902644
53:45.4;-0.49512941666486726;-0.348368561587617;-2.2782023294792144;3.2060000000000004;0.3929614759830919
53:45.5;-0.5996729479019222;-0.3831422748313076;-2.1283212518574937;3.2310000000000003;0.48900321302208355
53:45.5;-0.675421245941487;-0.41226599427063887;-1.926780705352626;2.9589999999999996;0.5365182752801342
53:45.5;-0.7194339254926052;-0.42995808353837206;-1.6857992406578548;2.525;0.5214622639067047
53:45.5;-0.7312942615594378;-0.4303676919891234;-1.4208996351904772;1.976;0.4471932394536897
53:45.5;-0.713274759081223;-0.4085620343320242;-1.149005180551866;1.161;0.33483962731330114
53:45.5;-0.6701920901398672;-0.3614650131575586;-0.8862059386047745;1.161;0.21468426834635979
53:45.5;-0.608970064540273;-0.2885716038258068;-0.6457638897425866;1.161;0.11348103645907061
53:45.5;-0.5379769634252426;-0.19232000434081703;-0.43688138257449743;0.847;0.04520137825678962
53:45.5;-0.4661944630515555;-0.07806487742755107;-0.2644602503332368;0.44799999999999995;0.009624611275242152
53:45.5;-0.40226988843502304;0.0463417080577793;-0.12975265349731807;0.371;0.002418832582667242
53:45.6;-0.3535427450558793;0.17128916290861013;-0.031614389158094655;0.643;0.0019145054701796027
53:45.6;-0.32518593738378193;0.2863534492144613;0.03200959887588304;0.7959999999999999;0.0029806735030147658
53:45.6;-0.3196195980743633;0.38133587671325647;0.06274400411160307;0.8290000000000001;0.007647391039427482
53:45.6;-0.3363321338192872;0.4473043273776413;0.060880531090876655;0.8440000000000001;0.00915903871304626
53:45.6;-0.3721755196174658;0.4775537468372858;0.025059142052003013;1.1540000000000001;0.00445385688932372
53:45.6;-0.4220807059632247;0.46839042137145465;-0.04747632403234669;1.1540000000000001;0.009386000881941595
53:45.6;-0.48000247261611034;0.4196322441100015;-0.1601630291049843;1.1540000000000001;0.032260760420323255
53:45.6;-0.5398537605364275;0.334728573697604;-0.3160941852900558;1.214;0.057119635153002606
53:45.6;-0.5962580259336618;0.22044219536347873;-0.5168222004597791;1.182;0.06793133135232621
53:45.6;-0.6450301210788205;0.08609401947232617;-0.7611162592872658;1.055;0.04226724870156021
53:45.7;-0.6833274688309035;-0.05755473853583445;-1.0438167358985804;0.971;0.04105199054518416
53:45.7;-0.7094508633777106;-0.19962502279411115;-1.354971624205677;1.033;0.19189669746991653
53:45.7;-0.7223608459634844;-0.3304175696628711;-1.6794990239872887;1.143;0.4008640281270384
53:45.7;-0.7210820057674967;-0.44242316385384767;-1.9976782611642565;1.224;0.6373060758030641
53:45.7;-0.7042389450063179;-0.5308240363181278;-2.286746596158391;3.798;0.8548475267787918
53:45.7;-0.6699358219705701;-0.5934140281430585;-2.5235874913417407;3.798;1.0032504778009226
53:45.7;-0.6160398657017762;-0.6300779424324734;-2.6879672308815694;3.798;1.043342896793558
53:45.7;-0.5407676314357073;-0.6421014755364334;-2.765467486792398;4.434;0.9602468984567665
53:45.7;-0.44340328727804584;-0.6315550419611469;-2.7494574153323836;4.305;0.7699404077542914
53:45.7;-0.3249624584902861;-0.6008955404719325;-2.6418168968036344;3.585;0.5158636019160834
53:45.8;-0.18861150138484004;-0.5528409048886113;-2.4523592881276084;2.6439999999999997;0.25571278314293083
53:45.8;-0.039709119360225045;-0.4904748393606841;-2.1971199132185775;1.875;0.04279181916346488
53:45.8;0.1145431877606792;-0.417438658619255;-1.895931195074895;1.337;0.09065348493107968
53:45.8;0.2657613691532932;-0.3380291451045496;-1.5698373832389205;0.998;0.141026480123113
53:45.8;0.4052450049583538;-0.25707833476457204;-1.2388326276649957;0.914;0.12906122518493512
53:45.8;0.5249362698761039;-0.17960955613066967;-0.9202219278153503;0.914;0.08676180894179833
53:45.8;0.6183284148388508;-0.11037376426063919;-0.6277140572387336;0.914;0.0428397485857715
53:45.8;0.6811831589179361;-0.053399433307726014;-0.3711960806928123;1.041;0.01350218121564805
53:45.8;0.7119827091642857;-0.011635360095989287;-0.1570166226183773;1.102;0.001300753211592357
53:45.8;0.7121012390192515;0.01329019450525158;0.011452491647803445;1.064;0.00010838596836730759
53:45.9;0.6856870939764977;0.021177430292617358;0.13318565442861496;0.932;0.0019340009592709588
53:45.9;0.6392481583779392;0.013202420378236976;0.20894382227718244;0.755;0.0017634070700034599
53:45.9;0.5809665055176992;-0.008314679048353821;0.24084625354887265;0.643;0.0011634198776005332
53:45.9;0.5198119117776879;-0.04030757516138363;0.232066316985575;0.586;0.00486233648447631
53:45.9;0.464549095173611;-0.07947066521385665;0.18660181157083555;0.449;0.006888970459926506
53:45.9;0.42274911351928196;-0.12277216368237562;0.10906879700344599;0.449;0.0056608694363316225
53:45.9;0.3999334223603767;-0.16784491892073844;0.004499509745322901;0.449;0.00030203765859981564
53:45.9;0.3989727051942561;-0.21314696592253604;-0.12185482366108837;0.40700000000000003;0.010362512465002274
53:45.9;0.4198120137032271;-0.25785082748164473;-0.2647288882294817;0.418;0.028656604362639438
53:45.9;0.4595326889385508;-0.30149790889730105;-0.41907717451540577;0.624;0.05806236505081855
53:46.0;0.5127202898393081;-0.3435180474975359;-0.5803282100637384;0.9390000000000001;0.1022124374721739
53:46.0;0.5720799622553101;-0.38276335495250685;-0.7446016944929349;1.194;0.1630463605591569
53:46.0;0.6292243834793413;-0.4172288412506315;-0.9087992105621687;1.355;0.23858756604516984
53:46.0;0.6755628381080949;-0.4441120140511295;-1.070483279103175;1.4040000000000001;0.321172358825483
53:46.0;0.703231391235803;-0.46028800423001187;-1.227508185997966;1.8230000000000002;0.39733086479142143
53:46.0;0.7059896797448377;-0.4631295732421359;-1.3774607888495358;1.8230000000000002;0.4503810523393923
53:46.0;0.679960334908557;-0.45141712159841224;-1.517082902251159;1.8230000000000002;0.4656621298030198
53:46.0;0.6240569160376801;-0.42599602518976265;-1.641908944453827;2.0;0.4364945405877951
53:46.0;0.5399901751064129;-0.3899267319305876;-1.7463051595853794;1.87;0.3676960843933088
53:46.0;0.43184826450786007;-0.3480505147135694;-1.8239570947025605;1.979;0.2741498907087907
53:46.1;0.3053731889534966;-0.30606338463376753;-1.8686971050820302;2.14;0.17465506865601219
53:46.1;0.1671518943681959;-0.26932807436508444;-1.8754699201527623;2.2969999999999997;0.08443121363710619
53:46.1;0.02393706438852235;-0.24172755401988077;-1.841224547601896;2.417;0.010653781902242233
53:46.1;-0.11780431670951116;-0.2248472250841863;-1.765556598963554;2.391;0.04676601678581894
53:46.1;-0.2521603748558619;-0.2176804778285779;-1.650973810019979;1.626;0.09062259777794196
53:46.1;-0.37396457208745587;-0.21690074261839262;-1.502743617899343;1.626;0.12189233370738954
53:46.1;-0.47896173077557763;-0.217575095672595;-1.3284034441127637;1.626;0.13843311472847383
53:46.1;-0.5639480847322953;-0.21410611741631969;-1.1370724560642633;1.361;0.1372955122086259
53:46.1;-0.6268863975281068;-0.20121584467994325;-0.9386535864327242;1.136;0.11840127153531423
53:46.1;-0.6670140247891326;-0.17483864760656204;-0.7429723071401345;1.041;0.08664530417474464
53:46.2;-0.6849400154980698;-0.13280634415760031;-0.558942863520975;1.026;0.050843890714524685
53:46.2;-0.6826866181135678;-0.07523230368004619;-0.3939033325242744;0.971;0.020230909417095468
53:46.2;-0.6636091240310296;-0.0045581266575929775;-0.2532354131641677;0.922;0.0007659901340703232
53:46.2;-0.6321367655247375;0.07472014584060845;-0.1403006921239027;0.882;0.006626871880295458
53:46.2;-0.5933104160212687;0.15659746308191416;-0.05663960081468856;0.475;0.005262436625415551
53:46.2;-0.5521532765506553;0.23429338742115896;-0.002333357203176975;0.475;0.00030185676486662585
53:46.2;-0.5129903441388661;0.30105289651031825;0.023568075897187075;0.475;0.003639788334065748
53:46.2;-0.47886999599623226;0.35089767689741586;0.022620170132690378;0.5710000000000001;0.003800966017881447
53:46.2;-0.45119665644573964;0.3792627478804555;-0.003399673760784252;0.66;0.0005817592580430867
53:46.2;-0.42961488841437595;0.3834888996899191;-0.05281191361378373;0.74;0.008700896954938999
53:46.3;-0.41214980829720255;0.3631314778341649;-0.12427657315037575;0.8190000000000001;0.018599799754369165
53:46.3;-0.3955886303025951;0.32003083641910585;-0.21693330867566205;0.823;0.02746387841167336
53:46.3;-0.37606033115141;0.2581030682290712;-0.33040020734471365;0.779;0.03206941240759225
53:46.3;-0.3497441484447208;0.18284717470657522;-0.46459215780464147;0.8240000000000001;0.029710542779136026
53:46.3;-0.3136166743660844;0.10061522376092978;-0.6193487612904934;1.032;0.019543309772520463
53:46.3;-0.26612222154466003;0.01775391321891597;-0.7939042609398614;1.032;0.0037509680572076487
53:46.3;-0.207629635745444;-0.060218783638738206;-0.9862675162913239;1.032;0.01233150406517138
53:46.3;-0.1405458333660332;-0.12924213383427824;-1.1926117647427563;1.0290000000000001;0.02166312890569312
53:46.3;-0.06900148709776925;-0.18705973046632288;-1.406809769326727;0.955;0.018158255823333847
53:46.3;0.001894704260161858;-0.2332674283517266;-1.620275231346476;1.149;0.0007161175649792958
53:46.4;0.06711367552026555;-0.2690675562875505;-1.8222598229425806;1.6969999999999998;0.03290657318890017
53:46.4;0.12281764020743303;-0.2967614203156943;-2.0006819155378803;2.3209999999999997;0.07291992883759442
53:46.4;0.16720248432817456;-0.31907828778568365;-2.1434179359181322;2.864;0.11435280957738167
53:46.4;0.20082309312939217;-0.3385079290069044;-2.2398107077797733;3.208;0.15226280082370064
53:46.4;0.22633338789440674;-0.35681714512952184;-2.2820380415126604;2.617;0.18429655544566795
53:46.4;0.24776057779304694;-0.3748585764605735;-2.2660337222006763;2.617;0.21045828415802534
53:46.4;0.269548676153162;-0.3926537317670502;-2.1918459510145345;2.617;0.23198342710122147
53:46.4;0.2956105468817499;-0.40964424442779446;-2.0634973432232053;2.272;0.24987953912597802
53:46.4;0.3285537370073882;-0.42500412974199436;-1.8884615710110706;1.932;0.2636985325432622
53:46.4;0.36917714933102036;-0.4379336354166261;-1.6768649737395256;1.653;0.27110729742406753
53:46.5;0.41630365941998354;-0.4478637772036058;-1.440542391898814;1.413;0.26858528181599156
53:46.5;0.4669778454444454;-0.4545178876326661;-1.1920870673303552;1.24;0.2530202224101854
53:46.5;0.516996686187889;-0.4578245723522165;-0.9439907247840581;1.11;0.22343673931685595
53:46.5;0.5616787396410992;-0.4577319148382248;-0.7079032212948118;1.047;0.18200070415491712
53:46.5;0.5967358284868991;-0.4540061110516942;-0.4940032636527904;1.102;0.13383621032577867
53:46.5;0.6190889104116657;-0.4460964292400019;-0.3104922780428125;1.102;0.08574969329554097
53:46.5;0.627467137800006;-0.43311897231641155;-0.16327763832401793;1.102;0.044373624457814516
53:46.5;0.6226617960600946;-0.413974664804027;-0.055918348047274205;1.077;0.014413860551118804
53:46.5;0.6073739270340577;-0.3875854059739924;0.010163363435050083;0.955;0.0023925499678792614
53:46.5;0.585670592853107;-0.3532017171422;0.03527645918481195;0.754;0.0072972833756495695
53:46.6;0.5621404031393724;-0.31070586719032434;0.020965115098315976;0.589;0.0036617737421013427
53:46.6;0.5409188560233175;-0.2608250523820318;-0.030464214996861135;0.509;0.004298049529250007
53:46.6;0.5248133667197551;-0.2051916168747506;-0.11628578935221173;0.39399999999999996;0.012522503064510433
53:46.6;0.5147513301908404;-0.14622917431535576;-0.2335072142674778;0.272;0.017576476104927147
53:46.6;0.5096859537283408;-0.08688748306964542;-0.37884396791533254;0.82;0.016777230014669922
53:46.6;0.5069485664257728;-0.030290572019775155;-0.5485741842918993;0.82;0.008423774647145556
53:46.6;0.5028938360306282;0.02060852618776213;-0.7383311560291342;0.82;0.007651990850883793
53:46.6;0.49362963105649194;0.06328309917730988;-0.9428863521645331;1.01;0.02945427318575408
53:46.6;0.47567776255162064;0.09576305130783896;-1.1559963657687793;1.157;0.05265835565451358
53:46.6;0.446494671164584;0.11665404598990985;-1.3703940120197347;1.4140000000000001;0.07137753384642288
53:46.7;0.40481886689096885;0.12509221891413078;-1.577966527332548;1.685;0.07990773627580953
53:46.7;0.3508150509971228;0.1207068938736543;-1.770109319526486;1.88;0.07495668660235516
53:46.7;0.2859993146762934;0.10366418854316323;-1.938202247099848;2.028;0.0574636009722268
53:46.7;0.21298081939482985;0.07480996089696827;-2.0741375521692347;2.109;0.03304741359314502
53:46.7;0.13511880407624266;0.035847940953381625;-2.1708401804622626;2.251;0.010514965683245434
53:46.7;0.05620668522145631;-0.010546485051733827;-2.2227510944627182;2.251;0.0013176089853341952
53:46.7;-0.01977016024682587;-0.060736771381900305;-2.2262672187006896;2.251;0.0026732475848126633
53:46.7;-0.08884416324949308;-0.11026635667768338;-2.180137187042371;2.42;0.021357762337950937
53:46.7;-0.14732074963142752;-0.15412605664419643;-2.0857957969301775;2.528;0.04736000887053597
53:46.7;-0.1921297802923638;-0.1871512333588533;-1.9475729829239563;2.496;0.07002951538340346
53:46.8;-0.22126441369931604;-0.20453259520695122;-1.7726589758882978;2.283;0.08022307306721725
53:46.8;-0.23423313808704763;-0.20238116414678492;-1.5707047175340108;1.931;0.07445827570783337
53:46.8;-0.23240144310709493;-0.17825708936731655;-1.353011530066302;1.4969999999999999;0.05605148577045422
53:46.8;-0.2190912378640474;-0.13157264212026387;-1.131380985222862;1.033;0.03261365557564843
53:46.8;-0.1993534909942111;-0.06380411563459651;-0.9168065251202794;0.209;0.011661387698762729
53:46.8;-0.1794206361504893;0.021512906040473366;-0.7182730625330784;0.209;0.002772432951183595
53:46.8;-0.1659325142095965;0.11898571404224198;-0.5419630636696029;0.209;0.010700301231756595
53:46.8;-0.16505853828577519;0.22172830214328546;-0.39108971174580187;0.19;0.014313159718187878
53:46.8;-0.18161757955374236;0.32187247119656287;-0.26638975989018404;0.5710000000000001;0.015572532438623233
53:46.8;-0.21829197060136674;0.4112230827415857;-0.16710830081737924;0.862;0.015000760220435857
53:46.9;-0.2750592483232297;0.48202400598232403;-0.0921825261436973;0.9940000000000001;0.012222035047955875
53:46.9;-0.3489690592810963;0.527757247933687;-0.04130521477016739;0.997;0.007607220658227752
53:46.9;-0.4343421450703755;0.5438706463510058;-0.015616785176371325;1.0590000000000002;0.003689089807679463
53:46.9;-0.5233891956549721;0.5283219338142533;-0.017903524862207996;1.159;0.004950646744367776
53:46.9;-0.6071671350953364;0.48183894463100685;-0.052309258202984654;1.15;0.015303427704078975
53:46.9;-0.676715867484892;0.4078445539341446;-0.12365730553249829;1.15;0.03412878333938541
53:46.9;-0.7241711031910874;0.31207727315018036;-0.23652174999020087;1.15;0.053453287101604206
53:46.9;-0.7436711390979587;0.20199036180727858;-0.3941887055442953;1.145;0.059212820856674606
53:46.9;-0.7319586520790342;0.08599791475297207;-0.5976235427702564;1.189;0.037618560000705084
53:46.9;-0.6886479693439711;-0.0273788340923529;-0.8445268033916018;1.2229999999999999;0.015923028005135155
53:47.0;-0.6161479627305092;-0.13037990187469975;-1.12854009717828;1.135;0.09065936251355111
53:47.0;-0.5192382615536455;-0.21677327830171397;-1.4386859003179866;0.9059999999999999;0.16193414036254128
53:47.0;-0.40432848851804865;-0.28241539124369613;-1.7592138456714663;0.737;0.20088214551246056
53:47.0;-0.27849276679032287;-0.3255344302859897;-2.070141402062887;0.963;0.18767691661140518
53:47.0;-0.14845087264382564;-0.34669574709016454;-2.348783465555751;3.7030000000000003;0.1208855108375681
53:47.0;-0.0197200121979586;-0.3484539679616861;-2.5722832389362975;3.7030000000000003;0.017675486715504105
53:47.0;0.1038632084379367;-0.334773064388855;-2.7206500788019525;3.7030000000000003;0.0945986480525514
53:47.0;0.22015674748693592;-0.3103518173816191;-2.7795258284364874;4.0889999999999995;0.18991401153369472
53:47.0;0.3283097978858413;-0.2799835507362694;-2.742094651366299;3.923;0.2520570228594321
53:47.0;0.42810984117933365;-0.24804543989541933;-2.6099020361268583;3.4160000000000004;0.27714730817222827
53:47.1;0.5193062578495055;-0.2181806048447241;-2.3925538103513246;2.7119999999999997;0.2710824559488399
53:47.1;0.6011146981593466;-0.19317509800553484;-2.1064100253462414;2.002;0.24459715517974
53:47.1;0.6720294393271758;-0.17495753856046922;-1.7725545674923286;1.469;0.2084109686868766
53:47.1;0.7299790536938662;-0.1646253075985197;-1.414423941281421;1.249;0.169975605431071
53:47.1;0.772768372823349;-0.16244239179651512;-1.0554654357023223;1.091;0.13249293794262026
53:47.1;0.7986666660035935;-0.16781606986871378;-0.71711770194185;1.091;0.09611464091957095
53:47.1;0.8069621075885821;-0.17929912407805054;-0.417318757883634;1.091;0.060380849118718716
53:47.1;0.7983327221449068;-0.19466837524520686;-0.16962817817958573;1.077;0.02636193788834864
53:47.1;0.7749572715801963;-0.21111115172203096;0.01709608830550201;1.055;0.0027969563270500222
53:47.1;0.7403515731820736;-0.22552531922651597;0.13860997927534602;0.948;0.023143434468503504
53:47.2;0.698952054827539;-0.2349110425457138;0.19490938543337674;0.8220000000000001;0.032002475251676106
53:47.2;0.6555038792001998;-0.23680247043341351;0.18964208966862434;0.745;0.029437181605937914
53:47.2;0.6143563247679619;-0.22965920733322143;0.12934571794285074;0.664;0.018249721905839816
53:47.2;0.5788060285561658;-0.21312195432247313;0.022533141504829768;0.5379999999999999;0.0027796043320227745
53:47.2;0.5506332494497216;-0.1880520800632918;-0.1213525888116002;0.9520000000000001;0.012565784847562628
53:47.2;0.5299243109564136;-0.15633737883652662;-0.29302952268967186;0.9520000000000001;0.02427661034832126
53:47.2;0.5151761521736223;-0.12053309092876749;-0.48432554472844525;0.9520000000000001;0.03007456956511204
53:47.2;0.5036017399466579;-0.08345039218965719;-0.6887723398361469;1.264;0.028946182912370597
53:47.2;0.49154268406210455;-0.04777864055752354;-0.9017385398629325;1.445;0.02117754712648768
53:47.2;0.4749161428933051;-0.01579146854533857;-1.1201096615085733;1.4769999999999999;0.00840040055204226
53:47.3;0.44964472958608753;0.010817477833495716;-1.3415628962578967;1.327;0.006525391301247615
53:47.3;0.41205248638314257;0.030925533291550764;-1.563523903127757;1.0190000000000001;0.019923895797683777
53:47.3;0.35924560137726685;0.04379507467372118;-1.7819958572813188;0.963;0.02803647572827689
53:47.3;0.28948321535654103;0.04879425177963893;-1.9905845230346586;1.09;0.028117239079405144
53:47.3;0.20248062975665032;0.045200076478668076;-2.1801050113090774;2.2119999999999997;0.0199526261701769
53:47.3;0.09955906061285921;0.03225158373394163;-2.3390217386666565;2.2119999999999997;0.007510452332915513
53:47.3;-0.016386266361136388;0.009471564281402764;-2.4546641741998596;2.2119999999999997;0.0003809726556816849
53:47.3;-0.14106368872343822;-0.022880988448345657;-2.5149301657752727;2.984;0.008117381327592196
53:47.3;-0.26908130846981515;-0.06339581314809563;-2.5101775351035487;3.533;0.0428201856723788
53:47.3;-0.39436562680426374;-0.10925368154294307;-2.4350244269908052;3.714;0.1049152106855374
53:47.4;-0.5106874981429543;-0.1562076931485985;-2.289703437621802;3.487;0.18265723588654367
53:47.4;-0.6122335509994364;-0.19884916121641755;-2.0806017747571888;2.929;0.2532968877559243
53:47.4;-0.6941394720595988;-0.23114746948221312;-1.8197879394495575;2.255;0.29198239521570934
53:47.4;-0.7529173661526432;-0.2471906970842445;-1.523586422869716;1.696;0.2835610203614753
53:47.4;-0.7867424398510704;-0.24200404337238807;-1.2104917030337188;1.058;0.23047138808541137
53:47.4;-0.7955904524966447;-0.21230484585802978;-0.898866629233535;1.058;0.15182550248616594
53:47.4;-0.7812287737427431;-0.15707513116807836;-0.604916847947606;1.058;0.07423032160289128
53:47.4;-0.7470653972891189;-0.07787553546209394;-0.3413073250504113;0.983;0.019856617776128134
53:47.4;-0.6978573046610818;0.021135774998159645;-0.1165302258799646;0.861;0.0017187922785774617
53:47.4;-0.6392802144727487;0.13347755025152352;0.06506804631872419;0.708;0.0055522275641148745
53:47.5;-0.5773775197028103;0.2508709069347437;0.2027476728883491;0.5710000000000001;0.029367437187189264
53:47.5;-0.5179376427997588;0.3639434324800226;0.29846858999237325;0.524;0.05626133026750153
53:47.5;-0.46588062967503063;0.4630302320219226;0.3557788570142816;0.605;0.07674748225407817
53:47.5;-0.424750732607744;0.5389943898148054;0.37868499520746124;0.725;0.0866954846275614
53:47.5;-0.39640439474564465;0.5839974257924939;0.37068762182603954;0.8170000000000001;0.08581386792415742
53:47.5;-0.38094695827365554;0.5921605046796158;0.33412568194213926;0.8170000000000001;0.07537265373612234
53:47.5;-0.37691459225254303;0.5600719336976899;0.2699059704950199;0.8170000000000001;0.05697695725964946
53:47.5;-0.38165356127170225;0.487113545330343;0.1776252566825041;0.81;0.03302206622602912
53:47.5;-0.39183536301886673;0.37558993555979886;0.056038836032237985;0.815;0.008247202926084043
53:47.5;-0.4040377811676775;0.2306477265852384;-0.09621042752681201;0.821;0.00896588780984917
53:47.6;-0.41529839042878625;0.059973035012237844;-0.27971825143831164;0.8370000000000001;0.006966859946434546
53:47.6;-0.42352618913485773;-0.12673820769654887;-0.4934272961287319;0.877;0.026485672363876115
53:47.6;-0.4276591451598579;-0.3185249700149289;-0.7338373334952125;0.8909999999999999;0.09996340697905726
53:47.6;-0.42748773202351964;-0.5040817156791637;-0.9944305725895044;0.7829999999999999;0.2142886004427031
53:47.6;-0.42314226851798253;-0.6727818271837951;-1.2654339416966436;1.6980000000000002;0.36024680771992307
53:47.6;-0.41437807698363033;-0.8156799024628291;-1.5340285398305862;1.6980000000000002;0.5185014461442939
53:47.6;-0.3999341011982974;-0.9263148953951469;-1.7850532437402766;1.6980000000000002;0.6612995984205906
53:47.6;-0.37726842055449916;-1.001146702630521;-2.0021928305129677;2.383;0.7562303048443871
53:47.6;-0.34284035419724745;-1.039560376869471;-2.169614963514467;3.033;0.7732578195053457
53:47.6;-0.29289869403404434;-1.0434937518779024;-2.2739126556652987;3.556;0.694994018832634
53:47.7;-0.2245525144660833;-1.0168253824730136;-2.3060051515698943;3.642;0.5265317621766648
53:47.7;-0.1368020182215237;-0.9646909107165099;-2.2625405022004244;3.455;0.29859123391554315
53:47.7;-0.031220421482482934;-0.8928654633078363;-2.146447670175184;2.969;0.05983359414351557
53:47.7;0.08791341841999527;-0.8072697844290699;-1.9665202676092002;2.331;0.13956364120950782
53:47.7;0.21407644904220915;-0.7135876592370278;-1.736156494436819;1.227;0.2652192803787915
53:47.7;0.3394276424489379;-0.6169683243970262;-1.471586949078982;1.227;0.308174005302233
53:47.7;0.45592467793949737;-0.5218156988832788;-1.1900416512159118;1.227;0.2831212079887219
53:47.7;0.5563418417826262;-0.43168031577642263;-0.9082358089879414;1.113;0.21812356663802138
53:47.7;0.6350293175031309;-0.34924654263484456;-0.6413146621772722;1.038;0.1422319160458957
53:47.7;0.6883901885648427;-0.2763857042010812;-0.4021941575754353;0.9890000000000001;0.07652194588136352
53:47.8;0.7150969896345292;-0.21425365098249824;-0.20118246058757436;0.9540000000000001;0.03082359548523453
53:47.8;0.7160643338761781;-0.1634283887758942;-0.04579449098774573;0.941;0.0053591113143301415
53:47.8;0.6941897725437303;-0.12408660155678261;0.05929772923903054;0.927;0.00510788562527386
53:47.8;0.6538752795895992;-0.09620709237830287;0.11220427877689415;0.879;0.007058483870648666
53:47.8;0.6003532499997487;-0.0797709288538924;0.11364133641613572;0.318;0.005442367285645777
53:47.8;0.5388900590395256;-0.07491024760023719;0.06663363209727742;0.318;0.0026898922978241626
53:47.8;0.47401592889483857;-0.08195099562533906;-0.023879994906899956;0.318;0.0009276441284400644
53:47.8;0.40895355500472974;-0.10130763180476503;-0.15149318541751025;0.225;0.006276380271669596
53:47.8;0.34534928659784503;-0.1332217578986221;-0.3088041782358147;0.39799999999999996;0.01420747469095299
53:47.8;0.28331642037583055;-0.1773868344540233;-0.4879038588939746;0.698;0.02452039051875161
53:47.9;0.22173978399129912;-0.23255227767610961;-0.6808503895302751;0.981;0.03510879370123764
53:47.9;0.15875089175345483;-0.2962298820431036;-0.8800684104692984;1.181;0.04138676410833996
53:47.9;0.09225783337545197;-0.3646217558869029;-1.078600464025687;1.295;0.03628327096663237
53:47.9;0.02043070639333023;-0.43285923580255664;-1.2701584189091888;1.361;0.011232798341157393
53:47.9;-0.05790054989561448;-0.4955879982224073;-1.4489690323744646;1.617;0.041577902119193516
53:47.9;-0.14293821773783066;-0.5478286043130579;-1.609475933104484;1.617;0.12603104996943842
53:47.9;-0.2337195742659846;-0.585895392375796;-1.7460333299725204;1.815;0.2390934610838213
53:47.9;-0.32809289743138137;-0.6080782074638814;-1.8527641730840363;1.911;0.3696378302655738
53:47.9;-0.4229182298107797;-0.6148594341973973;-1.9237230405946522;2.01;0.5002358277490104
53:47.9;-0.514464897393602;-0.6085982429213667;-1.9534125395109616;2.226;0.6116182179892319
53:48.0;-0.5988892318009703;-0.592779136342826;-1.9375916630009746;2.449;0.6878625592786209
53:48.0;-0.6726499843009441;-0.5710458249349468;-1.8742162072420419;2.6210000000000004;0.719912618963885
53:48.0;-0.7327744720830695;-0.5462878038038237;-1.7642820590107506;2.687;0.7062522652604477
53:48.0;-0.7769766150565418;-0.520008209809764;-1.612316348477593;2.571;0.6514309760892477
53:48.0;-0.8036862264416594;-0.4921064354100617;-1.4263061718810788;1.433;0.5641028987044899
53:48.0;-0.8120551429492157;-0.46108478205285464;-1.2170131626284395;1.433;0.455681697322046
53:48.0;-0.8019769237468981;-0.424568660562497;-0.996850313110064;1.433;0.3394218179842351
53:48.0;-0.774124679517835;-0.3799726343437113;-0.7786051295078428;1.1340000000000001;0.22902373530766731
53:48.0;-0.7299960436029098;-0.3251676017516088;-0.5742016144803544;0.987;0.13629884748293797
53:48.0;-0.6719495753214019;-0.259049772080349;-0.39358893704204223;0.9470000000000001;0.06851139036362731
53:48.1;-0.6032097175583528;-0.18193775211110896;-0.2438601480421681;0.9109999999999999;0.026762827015969645
53:48.1;-0.5278066053389745;-0.09574944108474732;-0.12874033730448362;0.802;0.006506174560283544
53:48.1;-0.45041205002892903;-0.003950270634403681;-0.04854392506044455;0.603;8.637175413022245e-05
53:48.1;-0.37604592204931064;0.08869860119883784;-0.0006127956173757926;0.382;2.0439642947143265e-05
53:48.1;-0.309663523558264;0.17654285264102096;0.019843111026668223;0.40399999999999997;0.0010848006914168892
53:48.1;-0.25568680844061403;0.2535291099018124;0.018658451618059662;0.40399999999999997;0.0012095163811618134
53:48.1;-0.2175830680526593;0.3137287735534275;0.001580354166452635;0.40399999999999997;0.00010787824529097912
53:48.1;-0.1975878961054961;0.35184676982412444;-0.026722322365079505;0.5379999999999999;0.0018577535677484743
53:48.1;-0.19661609137161182;0.36370330262365463;-0.06339095339429492;0.657;0.004533082118836968
53:48.1;-0.2143501202622817;0.3466900648963048;-0.10779291898968804;0.764;0.008010421344315687
53:48.2;-0.24946770392874057;0.3001787830806529;-0.16158362564453743;0.865;0.012100175552009516
53:48.2;-0.29995310862501656;0.22582132543735672;-0.22838895577149143;0.925;0.015470110585072088
53:48.2;-0.36341726848849354;0.127651953951835;-0.3131166438933891;0.8909999999999999;0.014525770562252132
53:48.2;-0.437338331003291;0.011896635337356857;-0.4209586575526203;0.873;0.002190186705956349
53:48.2;-0.5191414718583842;-0.11357080625447334;-0.5562022882478838;0.8240000000000001;0.0327933062052472
53:48.2;-0.6060757446170323;-0.2400875473907089;-0.7210060876790446;0.8240000000000001;0.10491448918661153
53:48.2;-0.6949114849546304;-0.359207804925379;-0.914307826672808;0.8240000000000001;0.22822735198723001
53:48.2;-0.7815464161367391;-0.46364063907512754;-1.1310309770574507;0.86;0.40983662964783374
53:48.2;-0.8606572136310208;-0.5479788624094225;-1.361770453454182;1.0290000000000001;0.6422408514856414
53:48.2;-0.9255785518235815;-0.6091568640559558;-1.5931542161830028;1.5630000000000002;0.8982562377677947
53:48.3;-0.9686057256810942;-0.6465791077265336;-1.809015174696414;2.372;1.1329504321743928
53:48.3;-0.9818273861228767;-0.6618692456377527;-1.9922989356805616;3.1439999999999997;1.2946782327547106
53:48.3;-0.958394446581422;-0.6582791689190456;-2.127349620653416;3.761;1.3421259418166533
53:48.3;-0.8939111578013248;-0.6399225967691662;-2.2020425566482;4.015;1.2596431003848472
53:48.3;-0.7875225158171346;-0.6110564149777781;-2.209281034290777;2.613;1.0631517331859437
53:48.3;-0.6423754774772972;-0.5755756006006132;-2.147616347438624;2.613;0.794050328877059
53:48.3;-0.4654073279427042;-0.536759469271336;-2.021057040521523;2.613;0.5048838776750085
53:48.3;-0.2666226100049198;-0.49720444970092725;-1.838310875030084;1.982;0.24369742402391933
53:48.3;-0.05802214456344642;-0.4588560998822352;-1.611677900054425;1.5019999999999998;0.04290901418808225
53:48.3;0.14769895336933705;-0.4230805154501209;-1.3557415961868169;1.272;0.08471832560248468
53:48.4;0.3385212659344075;-0.39074289007279517;-1.0860122614348267;1.187;0.14365203057187767
53:48.4;0.5043211956121917;-0.36227779230405827;-0.8176926932214498;1.17;0.14939602784410122
53:48.4;0.6377557757685687;-0.33774921299443805;-0.5646876071188393;1.153;0.12163456401316108
53:48.4;0.7347167291835034;-0.3169099493494308;-0.3388960083101179;1.1159999999999999;0.07890822171996525
53:48.4;0.7943470840166215;-0.29927525981208203;-0.14976202296794405;0.883;0.03560269058631179
53:48.4;0.8186854156594486;-0.2842197909782378;-0.004041857432376564;0.883;0.0009404860543914568
53:48.4;0.8120551822982032;-0.27109168589381566;0.09423619668909386;0.883;0.020745289062153227
53:48.4;0.7803278898251388;-0.2593250363817583;0.14363155776002431;0.804;0.029065074971737086
53:48.4;0.7301551410818018;-0.24852894963959468;0.14500296521713402;0.7070000000000001;0.026312918173825348
53:48.4;0.6682280781269494;-0.23853398090387207;0.1011180214372853;0.588;0.01611771750559019
53:48.5;0.6006139105132873;-0.22937946272853077;0.01619952781067178;0.475;0.0022317845840196557
53:48.5;0.5322229215172914;-0.22123235007170872;-0.10455385810747161;0.41;0.01231068646250168
53:48.5;0.4664571869163919;-0.2142457938242571;-0.25542262835531515;0.42100000000000004;0.025526041019992462
53:48.5;0.4050829849461644;-0.2083921953030302;-0.4305458934666664;0.55;0.03634501919573928
53:48.5;0.3483467684405884;-0.2033283766386048;-0.6241921352860298;1.06;0.044210769259489406
53:48.5;0.2953106275803798;-0.1983498702963151;-0.830897398839314;1.06;0.04866966946216293
53:48.5;0.24433135674931927;-0.19246050701543302;-1.0454389943159428;1.06;0.04916086628449825
53:48.5;0.19358137628606584;-0.1845472768224304;-1.2626362914669216;1.06;0.04510757524556381
53:48.5;0.14152020185111594;-0.17363439443954845;-1.477050829910136;1.2770000000000001;0.03629523704135813
53:48.5;0.0872442429339819;-0.1591782825149477;-1.6827311439050308;1.5019999999999998;0.023368741556380933
53:48.6;0.030650731418204034;-0.14133040165564373;-1.873144986888595;1.7690000000000001;0.008114239647415976
53:48.6;-0.027630273658879503;-0.12106276861578195;-2.0413708949438862;2.112;0.006828380390641206
53:48.6;-0.08652231429099391;-0.10007690857540445;-2.1805269455353;2.358;0.018880933667910015
53:48.6;-0.14490274969304823;-0.08050518132186002;-2.2843369796290465;2.478;0.026647755172987928
53:48.6;-0.20195095822663273;-0.06449962509040044;-2.34770722154997;2.546;0.030580673382495007
53:48.6;-0.2573090999320067;-0.05382651564508693;-2.3672139475163734;2.546;0.032786036962089156
53:48.6;-0.31102706980057276;-0.04954771683936745;-2.341449495250512;2.546;0.036083331679408435
53:48.6;-0.36335837464460674;-0.051819757632167916;-2.2712045060104966;2.4859999999999998;0.04276483421628834
53:48.6;-0.41449912378706;-0.05981293214911414;-2.1594753335894272;2.35;0.05353859346489872
53:48.6;-0.4643447238955078;-0.0717450980419915;-2.0112895340184913;2.1830000000000003;0.06700502018630583
53:48.7;-0.5123198727306177;-0.08502216931005893;-1.833350699696396;1.92;0.0798580925472601
53:48.7;-0.5573211747958731;-0.09647109122396781;-1.6335220298070172;1.665;0.08782693576611307
53:48.7;-0.5977902303432685;-0.10264389007534094;-1.42019329164466;1.4169999999999998;0.08714237114339367
53:48.7;-0.6319086624240337;-0.10016829850129769;-1.201599713292702;1.219;0.07605791602495919
53:48.7;-0.6578773939569261;-0.08612109429014426;-0.9851795300227013;0.95;0.05581743591440706
53:48.7;-0.6742170623572679;-0.05839726329707926;-0.7770747144492348;0.95;0.030595320817282102
53:48.7;-0.6800190987249616;-0.016037694000580895;-0.5818835488100215;0.95;0.006345986034499275
53:48.7;-0.6750953766481087;0.04053031563565336;-0.4027232429435372;0.885;0.011019244386816033
53:48.7;-0.6600072963450789;0.10938071211515472;-0.2415598920896771;0.753;0.01743870817402973
53:48.7;-0.6359867698309293;0.18712873566551058;-0.09968563008479021;0.6459999999999999;0.011863726410074864
53:48.8;-0.6047859347994686;0.26912783837931714;0.02178595177719504;0.61;0.0035459845874522447
53:48.8;-0.5685042143281924;0.3498106893398722;0.12150305614240046;0.625;0.024163173181000242
53:48.8;-0.5294324521478853;0.42314671845225627;0.19759734471501167;0.695;0.04426725984512143
53:48.8;-0.4899285845460898;0.48317566278946233;0.24757224239218886;0.8079999999999999;0.058605689550391415
53:48.8;-0.4523146262661524;0.5245649989663742;0.26836471392114974;0.856;0.06367447204757669
53:48.8;-0.4187758744656073;0.5431284966000389;0.2565757920131622;0.856;0.0583579358259617
53:48.8;-0.39125199066368593;0.5362396866706268;0.2088560143955626;0.856;0.04381900370309123
53:48.8;-0.37132039154949126;0.5030878962746878;0.12242100405307887;0.7859999999999999;0.022869075362361567
53:48.8;-0.3600727257236808;0.44475182943160346;-0.004342116607375847;0.706;0.0006953595950264803
53:48.8;-0.35798384762394936;0.36409034801416995;-0.17123742539750714;0.602;0.02231882294823636
53:48.9;-0.36477695429725937;0.2654649723465958;-0.3756711920266915;0.496;0.03637830925019166
53:48.9;-0.37929115731829577;0.15432006035300666;-0.6121972822002515;0.377;0.03583327475266346
53:48.9;-0.39936011609028943;0.03666181998045211;-0.8722885088945134;0.268;0.012771410428232034
53:48.9;-0.4217275365894876;-0.08150469277974737;-1.1444544060214807;0.32799999999999996;0.03933807185778527
53:48.9;-0.44205777001632257;-0.19470645331186137;-1.4148508606940933;2.106;0.12177833664689088
53:48.9;-0.45511607408509075;-0.298418950769479;-1.6684321616665965;2.106;0.22659855000941337
53:48.9;-0.4551656839658655;-0.38929409254944186;-1.89045842599231;2.106;0.3349765895092082
53:48.9;-0.43657682487360616;-0.46516736568429373;-2.068017438588905;2.708;0.41997565236677303
53:48.9;-0.3945909092160603;-0.5248874778429815;-2.191301865591993;2.989;0.4538532983577114
53:49.0;-0.326121506665192;-0.5680811462510852;-2.254513991276495;3.0469999999999997;0.417679106207379
53:49.0;-0.2304197555739423;-0.5949741601742246;-2.256292429088887;2.8819999999999997;0.3093237042789027
53:49.0;-0.10944093329861986;-0.6063225487976021;-2.199574740096587;2.476;0.14595609360372563
53:49.0;0.03217565915459062;-0.6034187047028418;-2.090916869162662;2.059;0.040595976027910666
53:49.0;0.18751438693317185;-0.5880960177535403;-1.9394249048288474;1.743;0.21387292113810735
53:49.0;0.34811318770985084;-0.5626764259518067;-1.7555402195543712;1.465;0.3438665884749037
53:49.0;0.5048880030414301;-0.529852651111199;-1.5499339410048654;1.465;0.41463251088044417
53:49.0;0.6490675488497498;-0.49253049414635275;-1.3327187149309005;1.465;0.42605092946392104
53:49.0;0.7729661880579514;-0.45365803474884464;-1.1130782419413363;1.5419999999999998;0.39031460066607676
53:49.0;0.8705172971373891;-0.41605055540184077;-0.8992737513835495;1.5859999999999999;0.325698252318318
53:49.0;0.9375709149871835;-0.38221199150476826;-0.6988780752935922;1.544;0.2504435499475833
53:49.1;0.9719719007346764;-0.35416594956368297;-0.5190514752716192;1.3980000000000001;0.1786779430728463
53:49.1;0.9734344501295853;-0.3333244765546742;-0.36669037642706737;1.1840000000000002;0.11897985356301397
53:49.1;0.9432585533080983;-0.32042439915770027;-0.24832920815691756;0.961;0.07505577856728061
53:49.1;0.8839674132034879;-0.3155485042040885;-0.1697534381576869;0.825;0.04735010652262963
53:49.1;0.7989515074550718;-0.3182272943519263;-0.13537991857382622;0.7979999999999999;0.03442009743696316
53:49.1;0.6921874527584889;-0.32759142893979026;-0.147554469719351;0.7979999999999999;0.03345866608324741
53:49.1;0.5680704072169542;-0.34252545823309244;-0.20596988333139937;0.7979999999999999;0.04007732670886676
53:49.1;0.4313577824248044;-0.3617747904286048;-0.30739027250225187;0.6629999999999999;0.04796959573028859
53:49.1;0.28717689662186063;-0.38398061819446433;-0.44578633897832326;0.679;0.04915702110576047
53:49.2;0.14102387205712044;-0.4076445724481212;-0.612877688386303;0.847;0.035232877223124
53:49.2;-0.0013151231537528304;-0.431048745316637;-0.7989764880353004;1.1320000000000001;0.00045292553759031993
53:49.2;-0.13396619079473226;-0.45218739681986825;-0.9939551077739042;1.442;0.06021163666554974
53:49.2;-0.25130108212046093;-0.4688005045437457;-1.1881360170148512;1.6769999999999998;0.13997439219406527
53:49.2;-0.3483631343451085;-0.4786015695496497;-1.3729293546341859;1.825;0.2289045886616152
53:49.2;-0.42131803463257866;-0.47972395993183947;-1.541118319259489;1.867;0.3114852187990794
53:49.2;-0.46786127644281245;-0.4712809839161894;-1.6868054619367667;1.867;0.37193069049236865
53:49.2;-0.4875299893050931;-0.45382473583404426;-1.8051505878402023;1.867;0.39939528737344127
53:49.2;-0.4818850156898833;-0.4294856071463193;-1.892094926566342;1.9080000000000001;0.39159303405086626
53:49.2;-0.45453375765975235;-0.40168598075923867;-1.9442437265773942;1.986;0.3549797050854639
53:49.3;-0.41094160347774883;-0.3744824235412722;-1.9589951384227835;2.133;0.3014705603466927
53:49.3;-0.3579629890569083;-0.35172700799031104;-1.9348994746618204;2.287;0.24361400423426643
53:49.3;-0.3030743066701073;-0.33629293268576693;-1.872134741833765;2.3609999999999998;0.1908112442780287
53:49.3;-0.25340782939850226;-0.3295600436430602;-1.772915799658339;2.255;0.1480616861642219
53:49.3;-0.21479109479622843;-0.331241483588404;-1.6416479532056043;2.033;0.11679951039381525
53:49.3;-0.19101932305340047;-0.33952342266199603;-1.484711130192779;1.199;0.09629173371542994
53:49.3;-0.1835130080959873;-0.35142501523605146;-1.309905187681366;1.199;0.0844771762355635
53:49.3;-0.19138126057093904;-0.36326705014301947;-1.1257264215220921;1.199;0.07826332187240363
53:49.3;-0.2118116007443603;-0.37115816894200543;-0.9406668579114779;0.973;0.07395109497813011
53:49.3;-0.240684055853074;-0.37144971347879246;-0.7626249964014056;0.8170000000000001;0.0681802179151993
53:49.4;-0.27331088041300794;-0.3611418624231217;-0.5984288111256945;0.8029999999999999;0.05906731759647878
53:49.4;-0.3051874272323283;-0.3382273821610024;-0.4534787233305823;0.8320000000000001;0.046809318431380316
53:49.4;-0.33263013312398576;-0.3019477148065703;-0.3315486026335675;0.852;0.03329971669007851
53:49.4;-0.3531984009992505;-0.2529299572777861;-0.23476759687425028;0.784;0.02097283566477884
53:49.4;-0.36583741209490067;-0.1931814734934505;-0.1637615598331615;0.633;0.011573522409340394
53:49.4;-0.37073348417203067;-0.12593972654606597;-0.11790108783282074;0.209;0.005504810470567983
53:49.4;-0.3689470155143802;-0.05540673159965178;-0.09560092927689223;0.209;0.0019542883703681604
53:49.4;-0.36195600587585375;0.013571198641240722;-0.09463463207816927;0.209;0.0004648620493882497
53:49.4;-0.3512552905195946;0.07581917944856885;-0.11244874702043015;0.209;0.002994722425611828
53:49.4;-0.3381040711924457;0.12612972111733775;-0.14647110430359636;0.259;0.0062462561723223954
53:49.5;-0.32344945379464257;0.159567301595902;-0.1944081793727859;0.42700000000000005;0.010033786505718482
53:49.5;-0.3080136585216728;0.1718120686668833;-0.2545158280960857;0.645;0.013469095679569774
53:49.5;-0.2925018030310359;0.15954111031374565;-0.3258051029090433;0.812;0.015204041270523235
53:49.5;-0.2778498944611647;0.12080844663772485;-0.4081250201944092;0.899;0.013699375077136592
53:49.5;-0.26540613977920163;0.05536029361536339;-0.5020673488956376;0.88;0.007376856391151977
53:49.5;-0.2569486674584365;-0.035182155801688396;-0.6086687640282262;0.7809999999999999;0.005502370527547589
53:49.5;-0.2544958881427144;-0.14731683835473594;-0.7289257300370884;0.7809999999999999;0.027328540595160104
53:49.5;-0.2599365943308653;-0.27583650020727096;-0.8631682140803175;0.7809999999999999;0.061889161343183355
53:49.5;-0.27454951426839835;-0.41417511596661694;-1.0103621439462998;0.75;0.11488987263900156
53:49.5;-0.29848597791021864;-0.5549285962215661;-1.1674428574818954;0.8690000000000001;0.19337337250751663
53:49.6;-0.3302999526838202;-0.6905368283262133;-1.328826070687767;1.1440000000000001;0.30308433986706235
53:49.6;-0.36665107453832996;-0.8140393644679775;-1.4862815769660986;1.482;0.4436080956689593
53:49.6;-0.40233288571736386;-0.9197465683311344;-1.6293457523107997;1.936;0.6029300936511861
53:49.6;-0.4307339279412285;-1.0036680865016265;-1.7463417174681959;2.471;0.7549677938056202
53:49.6;-0.44471843195675476;-1.0636170481095344;-1.8258739855702335;2.927;0.8636568471609603
53:49.6;-0.4377643963267124;-1.099023254162188;-1.8584678900979466;2.7560000000000002;0.8941335292411421
53:49.6;-0.40509709358652496;-1.1105806176171744;-1.837970333570512;2.7560000000000002;0.8268899512388908
53:49.6;-0.3445598739954938;-1.0998742486543631;-1.7624488103031943;2.7560000000000002;0.6679196890902154
53:49.6;-0.25704983572386536;-1.069087062749513;-1.6344968495139145;2.36;0.44917387894396754
53:49.6;-0.14645130105120632;-1.0208180562970794;-1.4609600085383694;1.94;0.21841371482632485
53:49.7;-0.019100042816314413;-0.957987313519431;-1.2521602401165484;1.554;0.02291152558889451
53:49.7;0.1170965471325435;-0.883773206458938;-1.0207684676555688;1.235;0.10563605299469425
53:49.7;0.25369824844964;-0.8015325850387255;-0.7805292582275795;1.081;0.15871860535305082
53:49.7;0.38273655870875584;-0.714682984014929;-0.5450443269487045;1.05;0.14908886668439253
53:49.7;0.497525277340746;-0.6265537140822811;-0.3267787519900985;1.003;0.10186553466442248
53:49.7;0.5931763114291496;-0.5402294670214711;-0.13637832983279002;0.8809999999999999;0.04370261616523234
53:49.7;0.6667919517319506;-0.45842019489386043;0.01769894409004482;0.8809999999999999;0.005410052106516557
53:49.7;0.7173697563784738;-0.38339348082676317;0.12929721680678283;0.8809999999999999;0.03556124553512167
53:49.7;0.7454924453412387;-0.3169873585975989;0.19451312898114737;0.81;0.04596572450617542
53:49.7;0.7528830724056461;-0.2606856193686251;0.2115764814763973;0.732;0.04152522529131809
53:49.8;0.7419056000664185;-0.21571175769429737;0.1807310008446008;0.6759999999999999;0.028923784724526082
53:49.8;0.715093591007606;-0.1830959872300246;0.10413671135910228;0.633;0.013634699491875598
53:49.8;0.674785013633671;-0.16368014183353807;-0.014232566732128823;0.5579999999999999;0.0015719714356492948
53:49.8;0.622919813687289;-0.15804008474284648;-0.16875108186593515;0.496;0.016612919654852985
53:49.8;0.5610234393471083;-0.16632995236037354;-0.3524180293340069;0.57;0.0328858890908731
53:49.8;0.49036192534260287;-0.1880863591956157;-0.5572714478874823;1.172;0.051397362543111294
53:49.8;0.41221654702743965;-0.2220593258208204;-0.7748860628266924;1.172;0.07093038019363777
53:49.8;0.32819505075400834;-0.2661455667025496;-0.9968245774065152;1.172;0.0870702920459207
53:49.8;0.24048264122371546;-0.31748552490545023;-1.214921025270827;1.318;0.09275892575773857
53:49.8;0.15194372042495535;-0.3727467514696105;-1.4213862187041555;1.395;0.08050238065106632
53:49.9;0.0660111653977031;-0.4285496117481353;-1.6088332054366299;1.5719999999999998;0.04551237795598975
53:49.9;-0.013659531198152892;-0.4819180088318285;-1.7703466031920143;1.8780000000000001;0.011653791726071703
53:49.9;-0.08373780425816336;-0.5306054363122725;-1.89968036419556;2.1590000000000003;0.0844060929389532
53:49.9;-0.14185872441996933;-0.5731877888084081;-1.9915936473416391;2.379;0.16193984241753176
53:49.9;-0.1871653155853997;-0.6089199286201088;-2.042254328945477;2.359;0.23275305175521246
53:49.9;-0.2205285996625334;-0.6374647752052307;-2.0496057986097385;2.2359999999999998;0.28813197260922885
53:49.9;-0.24432031286226233;-0.6586378985169604;-2.0136240900216777;2.2359999999999998;0.32402960458722474
53:49.9;-0.2618169680756323;-0.6722471891091564;-1.9364434455072463;2.2359999999999998;0.34082512451161645
53:49.9;-0.2764565871567809;-0.6780259015603376;-1.8223461917419383;2.146;0.3415891839536412
53:49.9;-0.2911535944947022;-0.6756285728438401;-1.6775986222227013;1.9809999999999999;0.3300032559700786
53:50.0;-0.30779395708792484;-0.6646655542513275;-1.510106981419629;1.754;0.3089377482986357
53:50.0;-0.32697806995198053;-0.6447569870179277;-1.3288877953695588;1.463;0.28015797908828327
53:50.0;-0.34803730884074213;-0.6155923535788681;-1.1433851996235842;1.2;0.24496925692734556
53:50.0;-0.3692978555040276;-0.5769920817035202;-0.9627071104124737;1.021;0.2051354972134739
53:50.0;-0.38852178069821997;-0.5289721595194011;-0.7948785584341208;0.922;0.1633612199269936
53:50.0;-0.4034329517365231;-0.471807414169025;-0.6462159972020535;0.8059999999999999;0.12300247038760867
53:50.0;-0.41222825630295823;-0.40608685712866577;-0.5209121308406832;0.8059999999999999;0.08720093918911975
53:50.0;-0.4139815588809457;-0.33276334702097965;-0.42088986313488086;0.76;0.0579808991051213
53:50.0;-0.4088723760583065;-0.2532059260322001;-0.3459347937618365;0.76;0.03581425164798344
53:50.0;-0.39820601183788307;-0.16925330259747987;-0.29406044088436545;0.6809999999999999;0.01981899226515506
53:50.1;-0.3842229755380532;-0.08325107828134541;-0.262025563908878;0.575;0.00838140568983627
53:50.1;-0.3697242093615611;0.0019500130317684917;-0.24591648884616174;0.466;0.0001772976797099199
53:50.1;-0.357575119512702;0.08305070945710583;-0.241716190399673;0.379;0.00717821364500058
53:50.1;-0.3501893421928635;0.1564207622584196;-0.24580043846608923;0.331;0.013464182065821156
53:50.1;-0.3491123853451602;0.2182767968283652;-0.2553319646083556;0.316;0.01945709571086441
53:50.1;-0.3548091990285455;0.2649145945642086;-0.26855575759048383;0.6809999999999999;0.025242666163071463
53:50.1;-0.36669952806262435;0.2929817752816571;-0.28500639234608915;0.6809999999999999;0.030620026206995204
53:50.1;-0.3833995259269052;0.29976676265197366;-0.305613251988757;0.6809999999999999;0.035124263897911984
53:50.1;-0.40307577438476605;0.28347743852820717;-0.3326643229148297;0.83;0.038011186289231655
53:50.1;-0.42382699615254166;0.24348939782693074;-0.3695937859137484;0.887;0.03814111039866121
53:50.2;-0.4440341256358409;0.18054345845356992;-0.4205796235866802;0.883;0.03371679876855013
53:50.2;-0.4626236310222186;0.09685941513330633;-0.4899586680897626;0.892;0.021954780560208654
53:50.2;-0.4791891752462941;-0.0038782326981819213;-0.5814950191002065;0.899;0.0010806544884243048
53:50.2;-0.49392837994051164;-0.11670777783186008;-0.6975714101020605;0.851;0.04021170178817349
53:50.2;-0.5073710675398437;-0.2357840548381476;-0.8383983395193945;0.6829999999999999;0.10029759973868052
53:50.2;-0.5199144745809756;-0.35497086119241983;-1.0013548211809318;1.011;0.18480452711885997
53:50.2;-0.5312607883723524;-0.4685412094611249;-1.1805920821203308;1.011;0.2938701149854469
53:50.2;-0.5399477954269488;-0.5718080783980509;-1.3670372547753837;1.011;0.42206798328145145
53:50.2;-0.5431904910402832;-0.6615060557049598;-1.548920836809011;1.541;0.5565641197802026
53:50.2;-0.5371631625108977;-0.7358445634523448;-1.712894837184377;2.23;0.6770535319433896
53:50.3;-0.5176954671226957;-0.7942719422795076;-1.8456567721762556;2.8810000000000002;0.7589174246111877
53:50.3;-0.4812055753572849;-0.8370668328411974;-1.935777839288135;3.161;0.7797336886901566
53:50.3;-0.4256025049287174;-0.8649105707092634;-1.9753000037487458;3.032;0.727123942042122
53:50.3;-0.3508989698717857;-0.8785799661003694;-1.9607242355138412;2.752;0.604477174505114
53:50.3;-0.25937924328131523;-0.8788247329630968;-1.8932150410987545;2.475;0.43155627512563804
53:50.3;-0.15530659508843106;-0.8663996493601005;-1.778072799855845;1.62;0.2392531721730481
53:50.3;-0.044284236724758334;-0.8421676269558304;-1.6236990925944446;1.62;0.06055545263313084
53:50.3;0.0675305976893348;-0.8071964806059908;-1.4403686408581118;1.62;0.07851515831783312
53:50.3;0.17416684206221023;-0.7628080279350316;-1.2390802573411261;1.3430000000000002;0.16461907979636076
53:50.3;0.2704347452830709;-0.7105658162621883;-1.0306135637005898;1.138;0.19804443952843784
53:50.4;0.35235775190008434;-0.6522061361659431;-0.8248044596442101;0.995;0.18954822042252248
53:50.4;0.4174370088219463;-0.5895364015887214;-0.6300382267392569;0.885;0.1550488239877354
53:50.4;0.4647395542064965;-0.524336820248522;-0.4529715411180185;0.805;0.11038013236157503
53:50.4;0.4948173426886511;-0.45829668327467477;-0.29847392918509563;0.7440000000000001;0.06768587221308736
53:50.4;0.50948565371171;-0.3930016732903344;-0.1697444452498485;0.7020000000000001;0.0339877120533524
53:50.4;0.5114984102543155;-0.3299723829111687;-0.06854040780666662;0.555;0.011568273969875146
53:50.4;0.5041602087661793;-0.2707410989450702;0.004540271066359163;0.555;0.0006197328756191496
53:50.4;0.49091849339086924;-0.2169439941080417;0.049763275500372586;0.555;0.005299879347135776
53:50.4;0.47497727487996694;-0.17039659756856895;0.06797695988837708;0.48100000000000004;0.005501682046031202
53:50.4;0.45896190201201287;-0.13311367262077545;0.06037547320671112;0.40299999999999997;0.003688585461469016
53:50.5;0.4446570385119553;-0.10723896676419535;0.028332172912388723;0.33299999999999996;0.0013510072381123046
53:50.5;0.43284423449108966;-0.09486950298875775;-0.026687468201536203;0.312;0.0010958866522884944
53:50.5;0.4232657197442216;-0.09778624704765604;-0.10314715873823643;0.341;0.0042692161588280715
53:50.5;0.4147246574409851;-0.11712921863486385;-0.19942624107749468;0.426;0.009687403886312772
53:50.5;0.40530491645974176;-0.15307638647075483;-0.31380695056435315;0.537;0.019469402886334825
53:50.5;0.3926691309889476;-0.20459771014671196;-0.444483832171944;0.866;0.035709477732332746
53:50.5;0.37438438857024686;-0.2693485088164364;-0.5895771369879583;0.866;0.05945288584944264
53:50.5;0.3482336630282494;-0.34374035809738107;-0.7470866562928186;0.866;0.08942774005952323
53:50.5;0.31248832242672997;-0.42320655925181194;-0.9147252400391258;0.987;0.12096976737248878
53:50.5;0.2661325816848274;-0.5026714786918591;-1.0896360246807535;1.128;0.14576851999599683
53:50.6;0.20904127441346704;-0.5772031488587823;-1.2680638632709333;1.409;0.15300367506053109
53:50.6;0.14210547674238094;-0.642751034643858;-1.4450814821522213;1.655;0.1319914914386776
53:50.6;0.06726783906801238;-0.6967850365008643;-1.614482127816098;1.7990000000000002;0.07567275297306807
53:50.6;-0.0125981504742814;-0.7386289332134927;-1.7689404562320663;1.9669999999999999;0.016460625013599215
53:50.6;-0.09400751651089499;-0.7693540427242874;-1.9004867526012346;2.142;0.13745282387333022
53:50.6;-0.17334795463278804;-0.7912366125651227;-2.0012453183241554;2.43;0.2744893037628628
53:50.6;-0.24740872554342125;-0.8069292563462642;-2.0643000256030017;2.43;0.4121196210363974
53:50.6;-0.3137907882996745;-0.8185956511794225;-2.084514184050198;2.43;0.5354445197506154
53:50.6;-0.3710682129415725;-0.8272561749317482;-2.0591658847981718;2.457;0.632099002114511
53:50.6;-0.4186690420407145;-0.8324913806323883;-1.9883291658208577;2.407;0.6930090041652679
53:50.7;-0.4565520162591516;-0.8325192849165186;-1.8749788917014008;2.275;0.7126576484250625
53:50.7;-0.4848237262576821;-0.8245635616217489;-1.72481402028541;2.153;0.6895254141464996
53:50.7;-0.5034463172971005;-0.8053813128206478;-1.5458095666481604;1.956;0.6267736174151438
53:50.7;-0.5121330081637938;-0.7718190093655612;-1.3475310275431824;1.7;0.5326439672861831
53:50.7;-0.5104490154524189;-0.7212975075451294;-1.1402687290226334;1.435;0.41983052909227997
53:50.7;-0.4980668662977427;-0.6521718649899956;-0.934080445122733;0.96;0.3034128646784817
53:50.7;-0.47508452514153093;-0.5639616071829551;-0.7378774128471561;0.96;0.19769907636549336
53:50.7;-0.4423027811309645;-0.4574886598045895;-0.5587209686241985;0.96;0.11305635358902434
53:50.7;-0.40137347002408325;-0.33496186898916075;-0.4014535120656927;0.7709999999999999;0.053973340222908145
53:50.7;-0.3547673251308463;-0.20000741505166503;-0.2686741453269478;0.5539999999999999;0.019064068352946405
53:50.8;-0.30555894521791716;-0.057612301757516644;-0.1609800267649634;0.336;0.0028338850112991625
53:50.8;-0.2570738474314707;0.08604592097895214;-0.07738084458047195;0.177;0.0017116763505792142
53:50.8;-0.21247447772978864;0.22388698578116725;-0.015814278751828535;0.19899999999999998;0.0007522895159998237
53:50.8;-0.17436919888343605;0.34832053595911305;0.026298543642420104;0.348;0.001597278151021865
53:50.8;-0.1445158165343302;0.4517216572045582;0.05151813524106276;0.484;0.00336315147835964
53:50.8;-0.12366983262946116;0.5269601269734863;0.06193128087739922;0.662;0.0040360040223634906
53:50.8;-0.11159908220534341;0.5679449749624451;0.058822474717019506;0.662;0.003728294207012496
53:50.8;-0.1072524373741137;0.5701384472526608;0.04249568809864016;0.662;0.002598557702285966
