Time;AccX;AccY;AccZ;Acc-old;Acc-trns
09:20.4;0.20926059015516557;-0.45849063263375983;-0.6972805730529371;0.866;0.06689990150149741
09:20.4;0.23065232787204254;-0.44411363077396004;-0.6814460728111017;0.9440000000000001;0.06980450277597185
09:20.4;0.25158725062844406;-0.4286861622115702;-0.666902210611564;0.9690000000000001;0.07192671916801509
09:20.5;0.2710830169933248;-0.4114381060228491;-0.655129918660081;0.8270000000000001;0.0730691837544284
09:20.5;0.2882881254999212;-0.39164212199950943;-0.6477508433227578;0.8270000000000001;0.07313480981799994
09:20.5;0.30252183859819604;-0.36868686757934066;-0.646416010397068;0.8270000000000001;0.0720985456289634
09:20.5;0.31327873586257754;-0.3421675976124758;-0.6526376996197266;0.7929999999999999;0.06995873621260751
09:20.5;0.3202096810686507;-0.3119797150714856;-0.6675983739033058;0.747;0.06669235992669956
09:20.5;0.3230909555937886;-0.2783933858446507;-0.6919686127944468;0.73;0.062240075298291876
09:20.5;0.3217917294891705;-0.24208707947847136;-0.7257702602938898;0.772;0.0565386790191705
09:20.5;0.316251117239876;-0.20412537580461818;-0.768317780979899;0.8;0.04959866073564643
09:20.5;0.30647723965186807;-0.16587801870737964;-0.8182504541539452;0.8290000000000001;0.04159808345267683
09:20.5;0.29257738347822493;-0.1288878185554841;-0.8736468937846128;0.8859999999999999;0.032944927949488424
09:20.6;0.27481946641516697;-0.09470362557268382;-0.9322037257458623;1.138;0.024261906905560026
09:20.6;0.253712231410842;-0.06470461454238703;-0.991449085119363;1.138;0.01627597730834374
09:20.6;0.23007866318858047;-0.03995084547270023;-1.0489430120534808;1.138;0.009641713314551246
09:20.6;0.20509021433958174;-0.021090167215183395;-1.1024177721739625;1.138;0.004768383406205329
09:20.6;0.1802316582730877;-0.008330743716513076;-1.1498469764070094;1.133;0.0017264535584980603
09:20.6;0.15717642972954285;-0.0014688553534331888;-1.1894721775467259;1.175;0.00027461277581335337
09:20.6;0.1375706139431257;4.475436674910622e-05;-1.2198254060352236;1.273;7.510325611491793e-06
09:20.6;0.12275068137082579;-0.0029839966503970266;-1.2397654098810793;1.3319999999999999;0.0004541107238783615
09:20.6;0.11345072682898841;-0.009588013409806601;-1.2485138485650826;1.319;0.0013580922761138683
09:20.6;0.10958126839776501;-0.018726523961644703;-1.245660519576311;1.249;0.0025561903657898666
09:20.7;0.1101669694779854;-0.029357041093801495;-1.2311208345114608;1.123;0.0039816617640354044
09:20.7;0.11348817662025351;-0.040493767773429085;-1.2050652571634917;1.123;0.005537954355716734
09:20.7;0.11738728456322473;-0.05125783779158842;-1.1678687174904139;1.123;0.0070270875513396
09:20.7;0.11964147872167284;-0.06092206957285316;-1.1201230040614434;1.161;0.008164359822139882
09:20.7;0.11831118562766854;-0.06895132401837464;-1.0627205899705927;1.175;0.008669369460809817
09:20.7;0.1120087900974898;-0.07503882126067295;-0.9969804322412595;1.133;0.00837962808984999
09:20.7;0.10005411089869956;-0.07913467906715284;-0.9247660117376724;1.054;0.0073220660481154755
09:20.7;0.08250366044808595;-0.08145867693339552;-0.8485473384577013;0.9540000000000001;0.005702780355076402
09:20.7;0.06006922782759919;-0.08248981615341293;-0.7713756150345717;0.85;0.003822242970634125
09:20.7;0.03396095137915386;-0.08292862759805905;-0.6967612371325228;0.763;0.0019623131213471383
09:20.8;0.005691379788677666;-0.08363028983060881;-0.6284653444884449;0.535;0.00029913174433973086
09:20.8;-0.023127859344375723;-0.0855104963738116;-0.5702337012450739;0.535;0.001127736782630081
09:20.8;-0.05096454403647908;-0.08943586458363724;-0.5255167604105442;0.535;0.002395335904935874
09:20.8;-0.07649071759079247;-0.09611924334181512;-0.49721412332843046;0.535;0.0036556325429942605
09:20.8;-0.09864420505846269;-0.10603813188629262;-0.4874524354804018;0.46299999999999997;0.005098775495460013
09:20.8;-0.11664010297937755;-0.11938562573169735;-0.4973846993843715;0.41100000000000003;0.006926157382040918
09:20.8;-0.12995596659214229;-0.1360569848723774;-0.52701104092778;0.39899999999999997;0.009318301968078037
09:20.8;-0.138310269124583;-0.15567341736836404;-0.5750513564770491;0.415;0.012381564312998106
09:20.8;-0.14163942793490922;-0.17764534361695777;-0.6389216538421507;0.466;0.01607628140258879
09:20.8;-0.1400611855923289;-0.2012748499591787;-0.7148687293159468;0.613;0.02015271716754098
09:20.9;-0.13380507365844385;-0.22588601882191714;-0.7982964294577308;1.15;0.02412826640879326
09:20.9;-0.12310803139265238;-0.25095402957307267;-0.8842548052904686;1.15;0.02731857166187758
09:20.9;-0.10810846898083237;-0.2761914866090589;-0.9679807840629312;1.15;0.028902588560710943
09:20.9;-0.08879156030043264;-0.3015575597730409;-1.045355089433679;1.15;0.027990183525683016
09:20.9;-0.06502062744348906;-0.32718085469738284;-1.113208463158233;1.226;0.023681845205818317
09:20.9;-0.03665252835138924;-0.35321450381820374;-1.169492002387609;1.335;0.01514048275888865
09:20.9;-0.0037055307603999555;-0.379661615737282;-1.2133442567959127;1.4240000000000002;0.001706990693047195
09:20.9;0.033465100747400216;-0.4062189652691485;-1.2450569494914168;1.416;0.016925501635223134
09:20.9;0.07402708406289218;-0.4321845061296676;-1.265917242682938;1.3419999999999999;0.04050094451314533
09:20.9;0.11660377699064405;-0.45646414585801487;-1.2779159973552625;1.286;0.06801764567389722
09:21.0;0.15931306139135656;-0.47770068982094505;-1.2833491304760807;1.311;0.097667950024419
09:21.0;0.19992684099765404;-0.4945185264970892;-1.284376680713866;1.311;0.1269831459240927
09:21.0;0.23611912997098705;-0.5058234294992429;-1.282622000606003;1.311;0.15318943032050245
09:21.0;0.26573845682273134;-0.5110607802691239;-1.2788839701473684;1.311;0.17368331761322145
09:21.0;0.2870602067231166;-0.5103588825079769;-1.2730056794979112;1.272;0.1865000756675174
09:21.0;0.2990108048063014;-0.5045379292094948;-1.263916179705148;1.286;0.19067729210523002
09:21.0;0.30135675572823045;-0.4950018050608805;-1.2498494332900418;1.423;0.1864427122079121
09:21.0;0.2948238620409466;-0.4835421681283698;-1.2287282304466638;1.5619999999999998;0.17516721327038914
09:21.0;0.28109348546792146;-0.4720870385887792;-1.1986582149863259;1.6059999999999999;0.15906265368090686
09:21.0;0.26263355839414726;-0.4624344286755335;-1.1584223040576562;1.514;0.14069131501773485
09:21.1;0.24235922403931423;-0.4560259808597997;-1.1078481412065335;1.19;0.12244170621895448
09:21.1;0.22317377390793466;-0.45381055377742563;-1.0479744738529582;1.19;0.10613740214140294
09:21.1;0.20749614021902862;-0.4562078875045815;-0.981031746247575;1.19;0.09286581479805038
09:21.1;0.19689507955830762;-0.4631411538424355;-0.910296104864178;1.19;0.08301009690863408
09:21.1;0.19190586726360462;-0.47410196854938563;-0.83984550627083;1.068;0.07641162123936494
09:21.1;0.1920433113773339;-0.4882285038964028;-0.7742041458907181;0.94;0.0725901693207858
09:21.1;0.19598253466725787;-0.5043859552026803;-0.7178692150567945;0.821;0.07096197344772519
09:21.1;0.2018538443201537;-0.5212412170118805;-0.6747617988044908;0.672;0.07099475461353545
09:21.1;0.20758397752724833;-0.537336007920998;-0.6476909530738257;0.604;0.0722449682546637
09:21.1;0.21121802740175238;-0.5511795183020088;-0.6379495696801304;0.624;0.0742694832328383
09:21.2;0.21117428145127976;-0.5613825373881587;-0.645160412693657;1.035;0.0764834791524765
09:21.2;0.2064090816137161;-0.566830030595634;-0.6674279680421282;1.035;0.07808831542852811
09:21.2;0.1964888427686936;-0.5668545856585382;-0.7017339280773299;1.035;0.07815954704022611
09:21.2;0.18157503861329263;-0.5613597621563873;-0.744435390316742;1.088;0.07587949570916122
09:21.2;0.16233153255031219;-0.5508594682359024;-0.7917478655767646;1.139;0.07079956813575455
09:21.2;0.13977384040869276;-0.5364255884025423;-0.8401561780721701;1.143;0.06299345221181096
09:21.2;0.1150954902625241;-0.5195535926257614;-0.8867237396590909;1.092;0.05302455044186942
09:21.2;0.08951304603934593;-0.5019679722191255;-0.9292805123376953;1.1;0.04175506594251818
09:21.2;0.06415981642371371;-0.48539865970571583;-0.966491354963794;1.094;0.030099526187786625
09:21.3;0.04003394327683605;-0.47135950471835164;-0.997828796512521;1.091;0.018829408240731843
09:21.3;0.017982154836405004;-0.4609514104008675;-1.0234809911913627;1.175;0.008483531213177072
09:21.3;-0.0013104455738332014;-0.454707430049814;-1.0442147315443562;1.175;0.0006222155419615731
09:21.3;-0.017347059337602822;-0.45249874360842857;-1.0611932509239212;1.175;0.008329860358941874
09:21.3;-0.02987018271055418;-0.4535203998679403;-1.0757369496744298;1.128;0.01457272576111969
09:21.3;-0.0389306479380957;-0.45636980124855037;-1.0890262544987745;1.06;0.019348481233198107
09:21.3;-0.04495040136137157;-0.45922211372759664;-1.1017746387195786;1.016;0.022743072638579626
09:21.3;-0.048740541998170225;-0.4600902911800868;-1.1139319105203047;1.0270000000000001;0.024979978968480167
09:21.3;-0.051447205057308244;-0.45712644198756963;-1.1244990878791359;1.1179999999999999;0.0264458321327627
09:21.3;-0.05442967185179844;-0.4488901807947806;-1.1315300232423764;1.179;0.02764661109320854
09:21.4;-0.05909689758551968;-0.43450887104843416;-1.1323531839819456;1.198;0.029076708020537877
09:21.4;-0.06672739172767776;-0.4136967190193992;-1.123986034269838;1.314;0.031027525479117024
09:21.4;-0.07828983722162731;-0.38666112246823947;-1.103663366297173;1.314;0.03340969606408799
09:21.4;-0.0942832487909409;-0.3539652722446973;-1.0693764305745161;1.314;0.035688295154413775
09:21.4;-0.11462071186542443;-0.3164113414162188;-1.02032410967955;1.3319999999999999;0.03700439364010497
09:21.4;-0.13858050091525853;-0.27497028341970614;-0.9572015661182952;1.2329999999999999;0.03647466305142364
09:21.4;-0.16484200248852732;-0.23074794854351735;-0.8822797889600061;1.067;0.033559235666660886
09:21.4;-0.19161134281481182;-0.18496492447707794;-0.7992595105158893;0.888;0.02832685807477436
09:21.4;-0.21682334174045267;-0.13893265086483295;-0.7129233369609557;0.7140000000000001;0.021475989702199102
09:21.4;-0.23838964189836298;-0.0940162266843732;-0.6286519609556195;0.589;0.01408965868769268
09:21.5;-0.2544542589724367;-0.05157864395009339;-0.5518951561831149;0.519;0.007243295892288454
09:21.5;-0.26361791426273434;-0.012904707928587429;-0.48768735307941957;0.505;0.0016590695505225882
09:21.5;-0.2651014214394732;0.020886991582388645;-0.44027164222712206;0.505;0.0024378594390629766
09:21.5;-0.25883406074792326;0.04892047926510786;-0.412853875428599;0.505;0.005227673971535147
09:21.5;-0.2454659482309146;0.07060063234176708;-0.40747043746130185;0.505;0.0070614835288075085
09:21.5;-0.22630655793788704;0.08560479747100863;-0.4249376530801644;0.47700000000000004;0.008232286157589103
09:21.5;-0.2031902394292653;0.09384155971075098;-0.46485735643616827;0.479;0.008863755495399077
09:21.5;-0.1782733667415516;0.0953994361208814;-0.5256687045065088;0.474;0.00894014157483506
09:21.5;-0.1537770962688227;0.09050439442749036;-0.604751103232225;0.52;0.008416625278143866
09:21.5;-0.13170043881060525;0.079495398487568;-0.6985937197670117;0.575;0.007313982043161153
09:21.6;-0.11353942544796736;0.06281749523553358;-0.8030521373888667;0.65;0.005727578498183624
09:21.6;-0.1000561557817114;0.04102615863581272;-0.913705758284993;1.26;0.003750688785087077
09:21.6;-0.09114000648252261;0.014795405360585621;-1.026290874175315;1.26;0.001383905357581043
09:21.6;-0.08579223520521882;-0.015076610654739633;-1.137119775311059;1.26;0.0014708145409512133
09:21.6;-0.08224988582341858;-0.047671868996220425;-1.2433722392777047;1.484;0.004875269739296767
09:21.6;-0.07824667302727695;-0.08197761422183782;-1.343193916767473;1.601;0.008615884572362372
09:21.6;-0.07138515006185718;-0.11694008401324961;-1.435588493642032;1.588;0.011983984732998174
09:21.6;-0.059565017447265604;-0.15153930597277804;-1.520105947588977;1.544;0.013721147264110688
09:21.6;-0.04137926153196828;-0.18486521251131427;-1.5963548573805018;1.4040000000000001;0.01221145373080464
09:21.6;-0.016368799223025185;-0.2161822008854119;-1.6634288385275922;1.193;0.005886280885126519
09:21.7;0.014949064433326305;-0.24498122974736128;-1.7194044865722269;1.102;0.006296872210924016
09:21.7;0.05128200588452015;-0.2710128404750309;-1.7610978552985022;1.7309999999999999;0.024475882543887623
09:21.7;0.09090792723131938;-0.29428494199022576;-1.78421108844896;1.7309999999999999;0.04773270323388305
09:21.7;0.13204298494131972;-0.31502226710613135;-1.7838617122929608;1.7309999999999999;0.0742023688795634
09:21.7;0.1731428007582093;-0.33360778455056295;-1.755369378445401;1.976;0.1013932706903339
09:21.7;0.21310370422907796;-0.35052915419144337;-1.6951556485299473;2.095;0.12662653553049136
09:21.7;0.2513657895786529;-0.3663321187029661;-1.6016288530073333;2.121;0.14748336988681898
09:21.7;0.28792714269508707;-0.38156078807321037;-1.475913957244947;2.07;0.162146427428236
09:21.7;0.3232855896272797;-0.3966658014441444;-1.3222787064920853;1.92;0.16956417848119246
09:21.7;0.35834116502895524;-0.411886829297043;-1.1481349115209767;1.682;0.1694601276000978
09:21.8;0.3942960299083884;-0.4271430228586298;-0.9635482740876637;1.368;0.16228156934535615
09:21.8;0.43256069390352164;-0.44197190132171604;-0.7802728894819232;0.711;0.14917231533256672
09:21.8;0.4746373552415761;-0.45554055424673134;-0.6104564083761392;0.711;0.13199078701331132
09:21.8;0.5219399045135998;-0.4667256282369372;-0.4652958308237515;0.711;0.11334733456999266
09:21.8;0.5755342673396663;-0.4742414339926893;-0.3539364430741198;0.675;0.09660419010736672
09:21.8;0.6358231704949219;-0.4767972618476966;-0.28276543026994627;0.664;0.08572281345391838
09:21.8;0.7022375415034854;-0.4732697615175147;-0.25509871615737206;0.711;0.08478149551509472
09:21.8;0.7730193881148967;-0.4628705603849392;-0.27119644507453605;0.8029999999999999;0.0970362352089561
09:21.8;0.845174324901023;-0.4452811415855842;-0.3285300120454298;0.898;0.12363904657262859
09:21.8;0.9146338374778041;-0.4207281137752217;-0.4222238564755298;1.024;0.16247687811397268
09:21.9;0.9766150539477559;-0.3899836555648499;-0.5456195011278956;1.186;0.20780677592701147
09:21.9;1.0261196920953923;-0.3542934419535289;-0.6909388844338402;1.671;0.2511890885901038
09:21.9;1.058484533609058;-0.3152528087555123;-0.850005085342042;1.671;0.2836383858367616
09:21.9;1.0698900724813525;-0.27466338541345625;-1.0149159290660892;1.671;0.2982428187144197
09:21.9;1.0577569235833877;-0.23439593872785705;-1.1785527711454735;1.788;0.2922032167848359
09:21.9;1.0209987150146806;-0.19626383555602867;-1.3348819793291642;1.874;0.2674904908285058
09:21.9;0.9601289570189676;-0.16189684054095188;-1.479080831497782;1.929;0.22991105283927837
09:21.9;0.877227722341307;-0.1326086882269393;-1.6075272900618196;1.9409999999999998;0.18700046278788812
09:21.9;0.7757749217923542;-0.10926588364292028;-1.7176753978484514;1.93;0.14560001301700368
09:21.9;0.6603633594430606;-0.09218155292279757;-1.8078387653600316;1.8559999999999999;0.11004914761210409
09:22.0;0.5363159717912399;-0.08107402891991129;-1.8769218168787225;1.7280000000000002;0.08161099422825344
09:22.0;0.40924242104599967;-0.07513349895198253;-1.9241607932931564;1.864;0.05916374012699584
09:22.0;0.2845837724919937;-0.07320948398641411;-1.948944520353944;1.864;0.04060476060643529
09:22.0;0.16720568243454356;-0.07406971424241358;-1.9507586943130288;1.864;0.024159906715223778
09:22.0;0.06108362890394513;-0.076639119589049;-1.9292538000224044;2.023;0.009031600135922465
09:22.0;-0.03091874739547185;-0.08014654768972161;-1.884404572356998;2.019;0.004669612687996126
09:22.0;-0.10719295268427355;-0.08415704919323577;-1.8167059262103804;1.955;0.01638858153787979
09:22.0;-0.16743953522390895;-0.08850388739896582;-1.7273375656834882;1.837;0.025597501358204194
09:22.0;-0.21260231283355382;-0.09315299407353167;-1.6182462411807714;1.6740000000000002;0.032048625629421935
09:22.0;-0.24466893640491102;-0.09804626819077895;-1.4921333236822594;1.546;0.03579460151111163
09:22.1;-0.2663587646112207;-0.10297808079051447;-1.3523638569991663;1.46;0.03709414291889588
09:22.1;-0.2807512826640603;-0.107549839292937;-1.2028182690375997;1.063;0.036318803342216266
09:22.1;-0.2909214993865223;-0.11121353154688575;-1.0477085827476624;1.063;0.03389799026998457
09:22.1;-0.2996335270601947;-0.11337286674450564;-0.8913902386571629;1.063;0.03028080446351642
09:22.1;-0.30911490345430304;-0.11349197836739398;-0.7381911089622252;0.797;0.02589726620512492
09:22.1;-0.32091638978357884;-0.11117618815213202;-0.5922440004487729;0.561;0.02113023598323457
09:22.1;-0.33585815719093004;-0.10621394551368782;-0.45730307674768667;0.415;0.016313290346018604
09:22.1;-0.35406281322683403;-0.09858458648679225;-0.33656801249972357;0.354;0.011747952260429684
09:22.1;-0.37507274344998487;-0.08844469484287233;-0.23257315983098248;0.409;0.007715194628948678
09:22.1;-0.3980406477079621;-0.07611019769994398;-0.14717993068144694;0.546;0.004458808992708888
09:22.2;-0.42196407294936694;-0.06204871942493925;-0.08165612735609615;0.684;0.0021379477031590283
09:22.2;-0.4459111337200562;-0.04688582658012262;-0.036775833810009116;0.56;0.000768869124345808
09:22.2;-0.46917513584931264;-0.03141533079800177;-0.012870169106710752;0.56;0.00018969718177461398
09:22.2;-0.49131782008014285;-0.01659562497746214;-0.009812962643300841;0.56;8.001221145601224e-05
09:22.2;-0.5121000923330679;-0.003514019000365532;-0.026982322787489757;0.537;4.8555484608191803e-05
09:22.2;-0.531325357147852;0.0066906105434968435;-0.06324923914980492;0.519;0.0002248441533229221
09:22.2;-0.5486294072112036;0.012939819041138372;-0.11702838025417402;0.426;0.0008308038103595361
09:22.2;-0.5632600305699369;0.014337391655901827;-0.18641590680457212;0.358;0.0015054351473288697
09:22.2;-0.5739079069074946;0.010269758909835048;-0.2694249348776165;0.44799999999999995;0.0015879625029719985
09:22.2;-0.5786650303169887;0.00046199990014273205;-0.3642979106023794;0.725;9.739256415465407e-05
09:22.3;-0.5751727307441724;-0.0150187968255826;-0.46983194862988276;1.016;0.004058597424495229
09:22.3;-0.5609669608406586;-0.03580638154778822;-0.5856118570550571;1.212;0.011762715147170298
09:22.3;-0.533953967478414;-0.06130615162756246;-0.7120318974525333;1.212;0.02330812413172338
09:22.3;-0.4928949338892581;-0.09077114066167101;-0.8500265827622421;1.212;0.038030729398836595
09:22.3;-0.437774045835125;-0.12336774595173529;-1.0005125906400518;1.127;0.0540348808546675
09:22.3;-0.3699654477892832;-0.15822798838813024;-1.1636271339893107;1.048;0.06811743914155546
09:22.3;-0.292168470954652;-0.19448771076300964;-1.3379059633741492;0.9490000000000001;0.07602406746396456
09:22.3;-0.2081249374182529;-0.23130454170117448;-1.5195770796143768;0.907;0.0731528102742481
09:22.3;-0.12216697970099955;-0.26785050713799113;-1.7021563025262383;1.1420000000000001;0.055698788278722954
09:22.3;-0.0386699847888354;-0.303283048072103;-1.8765042001569339;1.518;0.02200754903987983
09:22.4;0.03850801248749896;-0.3367079448751794;-2.0314238216841987;1.912;0.026339347310263564
09:22.4;0.10653569979582586;-0.36716049644306675;-2.1547532412220076;2.677;0.08428468227547395
09:22.4;0.16401223317431401;-0.39363754566432313;-2.2347734993500783;2.677;0.14428004529592625
09:22.4;0.21119213078713855;-0.41519281093708055;-2.261669004454542;2.677;0.1983154744242672
09:22.4;0.2499490081285665;-0.4310772424331656;-2.2287969382109316;2.801;0.240146917361115
09:22.4;0.28344194518820487;-0.44089500565784084;-2.133618684446532;2.7460000000000004;0.2666343542558029
09:22.4;0.31552863123341207;-0.4447443634396897;-1.9782219212701388;2.532;0.2776030518430991
09:22.4;0.3500401177078532;-0.44330472127209036;-1.769384606084253;2.229;0.27456325975742224
09:22.4;0.390073527556194;-0.437832155517399;-1.518158445820333;1.765;0.25928132171522206
09:22.4;0.4374605206320952;-0.4300485681961605;-1.2390093284330916;1.328;0.23309392115059516
09:22.5;0.49252618758643857;-0.42194123070161643;-0.9486178412822535;1.02;0.1971390142314477
09:22.5;0.5541737678488555;-0.41551222971852375;-0.6644879128864614;0.8490000000000001;0.15300895908372716
09:22.5;0.6202306632052924;-0.4125244834948034;-0.40354257053653253;0.8490000000000001;0.10325053687520865
09:22.5;0.6879098764529753;-0.41428494964967105;-0.18090034318756779;0.8490000000000001;0.05155491697831477
09:22.5;0.7542361422161733;-0.42149207542907235;-0.008972718338200847;0.9520000000000001;0.002852468047909788
09:22.5;0.8163574705025378;-0.43416005141773234;0.10309866620661993;1.018;0.03654123978498317
09:22.5;0.8717346107225088;-0.451622320113639;0.14973185785159399;1.067;0.05894865494120159
09:22.5;0.9182253316641927;-0.4726109291849144;0.12898358785833713;1.099;0.05597414694106083
09:22.5;0.9540804860588065;-0.4954018425385698;0.042448841390994044;1.099;0.020063582023928155
09:22.5;0.9778725282253286;-0.5180055995935344;-0.10499465780980966;1.1;0.05318435570606319
09:22.6;0.9883867565448756;-0.538370468271574;-0.3055705175114021;1.102;0.1625996462657195
09:22.6;0.9845157554485539;-0.5545610026401108;-0.549090360139737;1.315;0.2997890846975882
09:22.6;0.9652031349514492;-0.5648877147382713;-0.8235031788373265;1.315;0.44899978546993774
09:22.6;0.9294786238455459;-0.5679889025844788;-1.1154450167113275;1.315;0.5888808402894888
09:22.6;0.8766086218515183;-0.5628845106642216;-1.410754766829204;1.618;0.6961078995235632
09:22.6;0.8063542106120707;-0.5490217904837389;-1.6950045119324326;1.982;0.7503887225037139
09:22.6;0.7192902986904992;-0.5263208435093547;-1.9541261757582151;2.262;0.7397881568401242
09:22.6;0.6171078951531758;-0.4952157262952525;-2.1751522898834232;2.574;0.6647298775613346
09:22.6;0.5028055819689992;-0.45667458070650513;-2.3470074876322427;2.802;0.5389164052721984
09:22.6;0.38067899336844907;-0.41217236627908055;-2.461252452538033;2.897;0.3861837057821821
09:22.7;0.2560399651009703;-0.3635912114810863;-2.5126783254031317;3.05;0.2339149772642011
09:22.7;0.13464870643738425;-0.31303970088838273;-2.4996594372735044;2.616;0.10536162211840637
09:22.7;0.021940184984372595;-0.26261173154761136;-2.424209856224224;2.616;0.013967691064485142
09:22.7;-0.07775802027271747;-0.21413959286158293;-2.291754133837123;2.616;0.0381601603454121
09:22.7;-0.16178859341840993;-0.16900595060946794;-2.1106632052405185;2.3;0.057712360086786936
09:22.7;-0.22937889393168776;-0.12804939095085022;-1.8915929358804875;1.911;0.05555954172488499
09:22.7;-0.2815051026151848;-0.09156115673796554;-1.6466538046827555;1.514;0.04244239119857701
09:22.7;-0.32047728560004474;-0.059358200017631105;-1.3884808315170138;1.173;0.02641300812604393
09:22.7;-0.3493591748599671;-0.030916584976307154;-1.1293161737977615;0.903;0.012197735655234557
09:22.7;-0.3713680733428249;-0.005540370987867265;-0.8802122819957088;0.7140000000000001;0.0018110516452381023
09:22.8;-0.38939349016795743;0.017471266014956043;-0.6504204327049458;0.575;0.004424938499913369
09:22.8;-0.40571601235531546;0.03869756611192804;-0.4469833246608054;0.467;0.007017737521691277
09:22.8;-0.42192461174308;0.058530581599050474;-0.27453401920578513;0.467;0.006779752926573255
09:22.8;-0.4389626603700824;0.077159066874868;-0.13531702669207163;0.467;0.004583180829030568
09:22.8;-0.45721724166989164;0.0945729431130357;-0.02944168416134739;0.467;0.001273069616474752
09:22.8;-0.47660147325350394;0.11056987441981078;0.044672951521202216;0.451;0.0023541647031728365
09:22.8;-0.49662516856593936;0.12476328957928991;0.08974997713721457;0.435;0.0055609615106128295
09:22.8;-0.5164747380933093;0.1365941995364792;0.10909233923844981;0.51;0.00769618672206721
09:22.8;-0.5351255837518626;0.14534268074905785;0.10607386008829657;0.644;0.008250062794843775
09:22.8;-0.5514896829731296;0.1501341730216462;0.08374589212584813;0.7659999999999999;0.006933946105218672
09:22.9;-0.5645634266873502;0.14994622277663966;0.044628621032015425;0.764;0.003777998128625618
09:22.9;-0.573514873788389;0.14363725178891454;-0.009264427272098905;0.535;0.0007631859193304975
09:22.9;-0.5776713062665958;0.13002355552213105;-0.07619400848839841;0.535;0.0057229988121969945
09:22.9;-0.5764321322303335;0.10801135234251381;-0.15437599309745986;0.535;0.009611636763679628
09:22.9;-0.5691798102138629;0.0767622246108711;-0.24174313835387828;0.507;0.010562122368639192
09:22.9;-0.5552513579128214;0.0358568934233514;-0.3359224251212354;0.557;0.006688077340719388
09:22.9;-0.5339914839680225;-0.0145756674301282;-0.4344813986947987;0.774;0.0033816913718151677
09:22.9;-0.5048747242222438;-0.07378909203329807;-0.5354006149497887;1.083;0.0199459470161308
09:22.9;-0.4676642771006535;-0.14042286426343725;-0.6376316046044016;1.4069999999999998;0.04187375035544005
09:22.9;-0.4225631792674184;-0.21257525576062972;-0.7415251486522051;1.62;0.06660859090043235
09:23.0;-0.37030615241492487;-0.2879369022024425;-0.848893995350454;1.645;0.0905131579023027
09:23.0;-0.3121438367049916;-0.36397844888655567;-0.9625359011330009;0.779;0.10935719726465325
09:23.0;-0.24970690186552483;-0.4381752030204377;-1.0852187552356118;0.779;0.1187396142618494
09:23.0;-0.18480282473915163;-0.5082200828403837;-1.218377871093489;0.779;0.11443066724649009
09:23.0;-0.11923137596300484;-0.5721640391831035;-1.3609287592443668;0.779;0.0928424315769981
09:23.0;-0.0546655683553512;-0.6284606415429753;-1.5085491121968915;1.056;0.0518264433400156
09:23.0;0.007416596947604949;-0.675938789985197;-1.6536223818988005;1.463;0.00828988278504783
09:23.0;0.06578758574376517;-0.7137420377990141;-1.7858729298192408;1.879;0.08385631617520628
09:23.0;0.11954065983505169;-0.7412711814709326;-1.893571900815349;2.25;0.16779328066290747
09:23.0;0.168182249777169;-0.7581692650374974;-1.9650742774707184;2.497;0.2505678251329128
09:23.1;0.21172519120007494;-0.7643753062484235;-1.9904070411549262;2.764;0.3221225151755973
09:23.1;0.25073182883168943;-0.7602302221595043;-1.9626622331039503;2.605;0.37411072998469297
09:23.1;0.2862540280746114;-0.7465772364103138;-1.8790166427710424;2.605;0.4015660394373196
09:23.1;0.31966005434280714;-0.724797739135853;-1.7412697019710621;2.605;0.4034328351762473
09:23.1;0.352392108940019;-0.6967534203189493;-1.5558402797802775;2.101;0.3820060974285154
09:23.1;0.38571793824573664;-0.6646360629609076;-1.333200482773614;1.504;0.3417820113433089
09:23.1;0.4205274150674286;-0.6307518908273998;-1.0868018471478522;1.047;0.2882725186704998
09:23.1;0.4572047849792855;-0.5972883473411222;-0.8316716185899947;0.76;0.22711545581644021
09:23.1;0.49558668145203416;-0.5661149331555044;-0.5829412662868343;0.679;0.16354943099498737
09:23.1;0.5349967496842364;-0.5386535115307471;-0.35455642090059525;0.7509999999999999;0.10217531696207113
09:23.2;0.5743349822817941;-0.5158287138280047;-0.15833763194632167;0.8109999999999999;0.04690886540986369
09:23.2;0.6121952938272632;-0.49808584059581046;-0.003464899278859796;0.81;0.0010565372106329017
09:23.2;0.6469878261617354;-0.48545071696586467;0.10364001243336188;0.81;0.0325513280757645
09:23.2;0.6770522916469403;-0.4776078118600536;0.1591504180300053;0.81;0.05146374869700015
09:23.2;0.7007618982902206;-0.47398196547744753;0.16155296167268002;0.882;0.05365957419439181
09:23.2;0.7166240019725632;-0.4738148245126756;0.11138684964015987;0.938;0.037821079070784226
09:23.2;0.7233738272534102;-0.47622913956671714;0.011082506869845478;0.925;0.003817831580187819
09:23.2;0.7200408906545748;-0.4802779776966674;-0.13508486093810687;0.879;0.046715017272221895
09:23.2;0.7059678450973238;-0.4849829511722386;-0.32097061513249087;0.815;0.1098946795717609
09:23.2;0.6807836971875756;-0.4893717160276904;-0.5385646006770433;0.7929999999999999;0.17942618220607517
09:23.3;0.6443564947850666;-0.4925262109821697;-0.778159927977342;0.861;0.24695875127160713
09:23.3;0.5967549571916689;-0.4936481884562187;-1.0288061262680839;1.749;0.30307291399170777
09:23.3;0.5382392611333102;-0.49213802164105336;-1.2790524230388476;1.749;0.3388056448129629
09:23.3;0.46929356184741006;-0.4876704726957514;-1.5178163146286014;1.749;0.3473683723985816
09:23.3;0.3907025600880968;-0.4802454779882291;-1.7351502487628938;2.061;0.3255716855922919
09:23.3;0.30365135841519497;-0.4701971433920417;-1.9227901367697366;2.231;0.27452828709386234
09:23.3;0.20980802539516819;-0.4581556009329949;-2.0744931148839454;2.269;0.19941007386679416
09:23.3;0.1113535070868409;-0.4449701153356377;-2.1861921136529547;2.325;0.10832359563683358
09:23.3;0.010944664660781235;-0.4316148346184882;-2.2559802931331845;2.374;0.010656979346813722
09:23.3;-0.08839372520670159;-0.4191009585981092;-2.283948874776997;2.411;0.08461093012769634
09:23.4;-0.183462591483636;-0.408401731943528;-2.2719103415142676;2.443;0.17022615413595238
09:23.4;-0.2711888278560664;-0.40037155336115515;-2.223032287888735;2.0980000000000003;0.24136860339972438
09:23.4;-0.3490129888517723;-0.39563806071949936;-2.1414155703642734;2.0980000000000003;0.29569270519174023
09:23.4;-0.4152645987807934;-0.3944738060553863;-2.031683968475305;2.0980000000000003;0.3328121963776397
09:23.4;-0.46938898134584395;-0.3966794823944652;-1.8986629423751642;1.984;0.3535253024183031
09:23.4;-0.5119461932624145;-0.40151055511511047;-1.74717960596781;1.806;0.3591359133595351
09:23.4;-0.544391146397208;-0.40766842064246844;-1.5819636048830215;1.656;0.3510868895544688
09:23.4;-0.5687031502943003;-0.41336902654386415;-1.4076166346055434;1.546;0.3309085256494636
09:23.4;-0.5869648035522383;-0.4164891216100361;-1.228623915451397;1.465;0.3003548764405754
09:23.4;-0.6009954884963523;-0.4147718746404537;-1.0493722502421008;1.385;0.2615833437201878
09:23.5;-0.612111779109368;-0.4060606742486969;-0.8741230796139198;1.287;0.21726724399596262
09:23.5;-0.6210297940068648;-0.3885296500623807;-0.7068925240570104;0.802;0.17056502869262752
09:23.5;-0.6278783162055631;-0.3608897828324451;-0.5512414752865208;0.802;0.12490848997948499
09:23.5;-0.6322804823353627;-0.3225616101961286;-0.4100588096218932;0.802;0.08363125248356411
09:23.5;-0.6334786712733063;-0.2738084537241129;-0.28544506375301476;0.7390000000000001;0.04951096451878739
09:23.5;-0.6304949313111871;-0.21581660413462564;-0.17873819525232904;0.742;0.02432113411912517
09:23.5;-0.6223201624264064;-0.15070444610376607;-0.09064829928154816;0.748;0.008501579049699285
09:23.5;-0.608111705239757;-0.08145280076626805;-0.021444664649439126;0.7140000000000001;0.001062205740961356
09:23.5;-0.587365395594788;-0.011765584661336276;0.02885855033952325;0.7090000000000001;0.00019943270559609475
09:23.5;-0.5600272352972409;0.05412623487198509;0.060358697365156797;0.647;0.0018296028343033036
09:23.6;-0.5265214067486882;0.11171316768040451;0.07317632759305356;0.614;0.004304185795236527
09:23.6;-0.4876895479584632;0.15650322174374412;0.06741421938544126;0.439;0.0051453893148123726
09:23.6;-0.4446620784060117;0.18434423452570578;0.04315143566452945;0.439;0.0035371616063235647
09:23.6;-0.39870951073716626;0.19174018136353108;0.00045520680382555163;0.439;3.4799938294498335e-05
09:23.6;-0.35112529449251423;0.1761365824705969;-0.060615800533598635;0.366;0.0037488453690374597
09:23.6;-0.3031652419868674;0.13616582784589204;-0.14004144825376585;0.384;0.0057810154757359155
09:23.6;-0.25604191657045205;0.07184909973732287;-0.23790613697283355;0.512;0.004376611985715762
09:23.6;-0.21096318259013064;-0.015258034040317964;-0.3544663740891107;0.703;0.0011409859349332879
09:23.6;-0.1691960242893723;-0.12200506128417635;-0.4901483734328056;0.863;0.01011802078194954
09:23.6;-0.1321193858092516;-0.24370924947644063;-0.6453875453164398;0.9229999999999999;0.020780650511894823
09:23.7;-0.10121632752771309;-0.37437643617039196;-0.820241386093852;0.898;0.031081413390487
09:23.7;-0.07796368062896296;-0.5070933149555998;-1.0137708245559138;0.9690000000000001;0.040079288894483145
09:23.7;-0.0636137529447911;-0.6345594557293506;-1.223283853637647;0.9690000000000001;0.04937994266593732
09:23.7;-0.058911095567656634;-0.7496781580659381;-1.4436347118268167;0.9690000000000001;0.06375720545280762
09:23.7;-0.06381237800287123;-0.846123236412644;-1.6668226122912824;1.403;0.08999697965824782
09:23.7;-0.07727109622809007;-0.9188444654081853;-1.882100957386099;1.955;0.13362939214243125
09:23.7;-0.09714022475437321;-0.964494872937624;-2.0766863218818794;2.494;0.19456733472094967
09:23.7;-0.12023932374599973;-0.9817342773204063;-2.236981338127054;2.833;0.2640601348498302
09:23.7;-0.14260132092174527;-0.9713456887167695;-2.350076532954524;3.011;0.3255212699400767
09:23.7;-0.15986346352702818;-0.9361263195797813;-2.4052458380889004;3.2119999999999997;0.3599508020301043
09:23.8;-0.16773603686710148;-0.8805514297426145;-2.3951927457985613;3.194;0.3537704645573951
09:23.8;-0.16248695709610042;-0.8102378644608649;-2.3168817034148956;2.5269999999999997;0.3050246241133205
09:23.8;-0.14139299565405672;-0.7312770348318516;-2.1718841277083634;2.5269999999999997;0.224567281820789
09:23.8;-0.10310325323359382;-0.6495612289493241;-1.966273106835083;2.5269999999999997;0.13168499845534512
09:23.8;-0.04785116488894234;-0.5702321215465607;-1.7101467518245488;2.02;0.046663528187088424
09:23.8;0.02253753721957309;-0.49731457576157073;-1.4168240354337664;1.4869999999999999;0.01588011198932212
09:23.8;0.10486177684791091;-0.43353175245979847;-1.1017424644817129;0.9390000000000001;0.05008621489199279
09:23.8;0.19496495052508808;-0.3802818243485321;-0.7811556820288984;0.603;0.05791615326036514
09:23.8;0.2882870158053568;-0.33776296660891075;-0.4708061287989282;0.62;0.04584365343554349
09:23.8;0.3804399386142859;-0.30522161074293597;-0.18476089028243053;0.774;0.02145415574858438
09:23.9;0.4676931477427655;-0.28127405300307307;0.06544341852933794;0.826;0.00860907825391327
09:23.9;0.5472911667771415;-0.264243125980227;0.2712662268713025;0.924;0.0392299598646813
09:23.9;0.6175780000291876;-0.25247054600070123;0.42723141123389596;0.924;0.06661403052608933
09:23.9;0.6779432763752088;-0.24458808598074833;0.5306616407514513;0.924;0.08799264082138901
09:23.9;0.7286270932781943;-0.2397358078051918;0.5811914208721712;0.924;0.10152135780238505
09:23.9;0.7704321469448974;-0.23771242820941124;0.5801842171373337;0.892;0.1062556896894539
09:23.9;0.8043944455654227;-0.23904323235814387;0.530164731826874;0.877;0.1019427510975114
09:23.9;0.8314557077951027;-0.24495128963122706;0.4343594341414413;0.871;0.08846431275372385
09:23.9;0.8521672719697831;-0.2572189853160806;0.2964170331030865;0.858;0.06497271688823773
09:23.9;0.8664457736853161;-0.27793873501758753;0.12033655512211255;0.799;0.02897930989080889
09:24.0;0.8733996214560422;-0.30917557749622493;-0.08943374436618999;0.731;0.024150136732492312
09:24.0;0.8712517094783521;-0.35258808181508844;-0.32781139488818006;0.907;0.10070135567530024
09:24.0;0.8573896576433855;-0.40906344676762796;-0.5888852367069197;0.907;0.2065378161338147
09:24.0;0.8285691266203563;-0.4784164626311165;-0.8657401738792916;0.907;0.3431803664194414
09:24.0;0.7812784418458817;-0.5591945065014936;-1.1503205454678715;1.173;0.502559646661187
09:24.0;0.7122550936898113;-0.6486319709576119;-1.4333988937540656;1.508;0.6622179978695036
09:24.0;0.61912855763608;-0.7427952387863054;-1.7047318186362423;1.881;0.7839818621126399
09:24.0;0.5011303383990309;-0.836931145193096;-1.9534296933921749;2.306;0.8192910497662342
09:24.0;0.35974761881298795;-0.9259728371060063;-2.168513795988919;2.6260000000000003;0.7223677763056436
09:24.0;0.19913069608271222;-1.005096193305117;-2.339620384307629;2.865;0.4682645023965566
09:24.1;0.026053235398517022;-1.0702023009961694;-2.4578004433121983;2.991;0.06852896332993953
09:24.1;-0.15069063761451237;-1.1182397621662161;-2.516335028176162;3.245;0.4240232441370301
09:24.1;-0.3213793713236201;-1.147342029584644;-2.511455257682752;3.245;0.9260540711677351
09:24.1;-0.4766644308134575;-1.1568001048335372;-2.442844055646088;3.245;1.3469975588482912
09:24.1;-0.60873767788002;-1.1469074354484743;-2.313815518715939;3.0460000000000003;1.6154267909443591
09:24.1;-0.7121560668973745;-1.1187159664064426;-2.13111801005926;2.74;1.6978624913817006
09:24.1;-0.7842577382447611;-1.0737495601273055;-1.9043798372515395;2.35;1.603671407975352
09:24.1;-0.8251598388040278;-1.0137323882016576;-1.6452900136447983;2.004;1.3762707067714193
09:24.1;-0.8373735096082964;-0.9403846523857069;-1.366648471754078;1.726;1.076171707916247
09:24.1;-0.8251425276741072;-0.855308832266925;-1.0814120579193922;1.416;0.7632083894081458
09:24.2;-0.793656493280188;-0.759957194676318;-0.8018211157142274;1.109;0.48361436650444917
09:24.2;-0.7482839382273321;-0.655659226017695;-0.5386573858081882;0.675;0.26427569220928965
09:24.2;-0.6939391133932917;-0.5436999448594223;-0.3006891770416646;0.675;0.11344842012233983
09:24.2;-0.6346582140733785;-0.4254565656871051;-0.09437956815873864;0.675;0.02548432419562024
09:24.2;-0.5734171676380065;-0.30259124454187664;0.0761005433417117;0.652;0.01320428247140322
09:24.2;-0.5121744470138166;-0.1772611198617929;0.20860679146643246;0.617;0.0189391218942545
09:24.2;-0.45208060119287835;-0.05228219885596085;0.3026287256298854;0.585;0.007152862315982269
09:24.2;-0.3937734413081342;0.06880604543676987;0.3588974518158265;0.584;0.009723965152889862
09:24.2;-0.3376771284294396;0.18180095900261667;0.37907499160311503;0.603;0.023271423507721233
09:24.2;-0.2842415156090075;0.2820231598881903;0.36554594082253467;0.665;0.0293031460823986
09:24.3;-0.23408724425323843;0.36461151275749826;0.3212720483870235;0.7170000000000001;0.027420859838285416
09:24.3;-0.18805088284433946;0.4248930569198709;0.24963730450492522;0.5539999999999999;0.019946398697705703
09:24.3;-0.14714557001088518;0.4587825387612923;0.15423858576614974;0.5539999999999999;0.010412310403789867
09:24.3;-0.11246434305029807;0.4631633551471854;0.03865288345342727;0.5539999999999999;0.0020134040563915575
09:24.3;-0.08505139655416323;0.4362130387260469;-0.09374451170830149;0.5539999999999999;0.003477970894490553
09:24.3;-0.06575661517419383;0.3776544557301097;-0.23987190769964925;0.594;0.005956805939627705
09:24.3;-0.05509170497316791;0.2889205909008956;-0.3969568565089421;0.623;0.006318413077502859
09:24.3;-0.053122521365555835;0.17321291593132826;-0.5624994108229565;0.7020000000000001;0.005175842169069031
09:24.3;-0.05943370342291714;0.035425284873398334;-0.7341939420752437;0.8059999999999999;0.0015458129486127256
09:24.3;-0.07317534182019177;-0.11809310473882345;-0.90981309547896;0.981;0.007862152872306264
09:24.4;-0.09316597383798124;-0.2799487755828729;-1.0870527084984476;1.215;0.028352182955456502
09:24.4;-0.11800647790216384;-0.4422709928294943;-1.2633306153563701;1.4609999999999999;0.06593428871934862
09:24.4;-0.1461641249875598;-0.5973635342406844;-1.435539015718935;1.4609999999999999;0.1253413878775571
09:24.4;-0.17600756306787269;-0.7383229333591761;-1.5997866596622214;1.4609999999999999;0.2078929487457229
09:24.4;-0.20579950129336394;-0.859518984076792;-1.7512238387418404;1.661;0.3097714950766518
09:24.4;-0.2336777935745734;-0.9569024975282777;-1.8840782493228803;2.019;0.42129282940508
09:24.4;-0.2576714497001912;-1.0281485651246385;-1.9919999428935682;2.421;0.5277296511865167
09:24.4;-0.27578757467015935;-1.0726374100308185;-2.068707707741452;2.7089999999999996;0.6119652585265207
09:24.4;-0.28615919053914873;-1.0912811894287489;-2.1087935204149035;2.7319999999999998;0.6585343396190549
09:24.4;-0.2871956687283105;-1.0862455103725677;-2.108465212632629;2.656;0.6577673621922582
09:24.5;-0.27767701001822687;-1.060640687497678;-2.0660425052394435;2.5580000000000003;0.6084816133667205
09:24.5;-0.25678602967921194;-1.0182367705424913;-1.9821328672030196;2.0780000000000003;0.5182662542172479
09:24.5;-0.22412650395151468;-0.9632128015968133;-1.8595320557223443;2.0780000000000003;0.4014386025559238
09:24.5;-0.1797771595887703;-0.8999264613057546;-1.7029675916604403;2.0780000000000003;0.2755166946352515
09:24.5;-0.12438783058054136;-0.8326885541366459;-1.5187925791203127;1.8619999999999999;0.15731095043863577
09:24.5;-0.05928030086960434;-0.7655304128798154;-1.314655850271286;1.6030000000000002;0.059660230443256766
09:24.5;0.013503991668345126;-0.7019680711239294;-1.0991084938099187;1.247;0.0104188571643818
09:24.5;0.09126104135050804;-0.6447971356608359;-0.881114866322814;0.9279999999999999;0.051849079243526885
09:24.5;0.1708061297841265;-0.5959672836953882;-0.6694906426320865;0.7240000000000001;0.06815070972339
09:24.5;0.24875870556437762;-0.5565677159375275;-0.47233972539356717;0.6729999999999999;0.06539593782205834
09:24.6;0.32187637821252313;-0.5269213786936328;-0.29658004043863595;0.7490000000000001;0.050301026227712604
09:24.6;0.387368465775472;-0.5067571605369963;-0.14763383998433716;0.768;0.028980780232513017
09:24.6;0.44312367888312904;-0.4954151670839851;-0.02932068015813243;0.768;0.006436774527466995
09:24.6;0.48781301700727053;-0.4920434465822189;0.056058382312236546;0.768;0.01345542432391651
09:24.6;0.5208672042095068;-0.49575915862805786;0.10750321873871975;0.768;0.027759985001252468
09:24.6;0.5423576997659213;-0.5057613383296782;0.12504586591594294;0.767;0.0343005256947236
09:24.6;0.5528212131217165;-0.5213902072288461;0.1095085258545678;0.777;0.03156425202679311
09:24.6;0.5530643916046952;-0.5421318007661129;0.06234315545626942;0.773;0.01869258486531394
09:24.6;0.5439752463386673;-0.5675714567319032;-0.014424033153867552;0.7490000000000001;0.004453345562900422
09:24.6;0.5263571361980277;-0.5973081784244312;-0.11815638053096025;0.716;0.0371480614581508
09:24.7;0.5007973263121889;-0.6308515082001971;-0.24552884236872477;0.696;0.0775696199163957
09:24.7;0.46758640125331696;-0.6675262272511385;-0.392477697108528;0.963;0.12250256682299668
09:24.7;0.42670650824313544;-0.7064010541734476;-0.5542247788869318;0.963;0.16705771787849313
09:24.7;0.37789517082435287;-0.7462395980457984;-0.7253704749017326;0.963;0.20455472082346532
09:24.7;0.3207716872907702;-0.785464313505586;-0.9000305998567913;1.125;0.22676695161302632
09:24.7;0.25500154406392567;-0.8221376129444052;-1.0720256448765415;1.345;0.22474627506172923
09:24.7;0.18048081242297428;-0.8539832899575296;-1.2351440148551551;1.5490000000000002;0.19036978015316317
09:24.7;0.09753622290864444;-0.8784799157138119;-1.3834560765586166;1.6469999999999998;0.11853951490009633
09:24.7;0.007136878037731902;-0.8930566278315046;-1.5116161292855654;1.662;0.00963449133294128
09:24.7;-0.08890787748259535;-0.8954065526077436;-1.6151121467003355;1.851;0.12857697201590815
09:24.8;-0.18782657302264263;-0.8838856271279214;-1.6904855387396323;2.121;0.28064968979178667
09:24.8;-0.28593012714922594;-0.8578934674259234;-1.7355743594148707;2.352;0.42573220454368943
09:24.8;-0.3788842552679931;-0.8181030308476608;-1.7497833964312342;2.352;0.5423739859373587
09:24.8;-0.4621753711496099;-0.766461160600632;-1.7342883403842217;2.352;0.6143533849049505
09:24.8;-0.5316610749824954;-0.7059642875972683;-1.692036227539427;2.1719999999999997;0.6350782720346959
09:24.8;-0.5841022380367376;-0.6402545991061037;-1.627456638603833;1.9340000000000002;0.6086267037277855
09:24.8;-0.6175911089547571;-0.5731071429808489;-1.5459026967068241;1.6440000000000001;0.5471658841710513
09:24.8;-0.6317787935472651;-0.5079150863630448;-1.4529371172628984;1.38;0.4662329632071833
09:24.8;-0.6278345328870902;-0.44728616873615173;-1.3536312653359583;1.244;0.38012903691569744
09:24.8;-0.6081626385782679;-0.3928137566936952;-1.2520337287729046;1.187;0.2991041603507536
09:24.9;-0.5759862753108005;-0.3450214132549348;-1.1508966568139376;1.176;0.2287149289871677
09:24.9;-0.5349193453942588;-0.3034449188308481;-1.0516651916610367;1.058;0.1707047767195429
09:24.9;-0.4886032849509297;-0.2668151807557304;-0.9546810353099757;1.058;0.12445868657379275
09:24.9;-0.44043445335660103;-0.2333179919565593;-0.8595345283409961;1.058;0.0883268702667282
09:24.9;-0.39337664175829806;-0.2009113842186664;-0.7654985403523994;0.965;0.06050029345668118
09:24.9;-0.34984124960003415;-0.16767271980483953;-0.671976173201125;0.902;0.03941733867504722
09:24.9;-0.31162186891394134;-0.1321330929161728;-0.5788994172533088;0.83;0.023836508476333947
09:24.9;-0.2798823649078839;-0.09354883569325503;-0.48703100422145695;0.731;0.01275177175559637
09:24.9;-0.25520250495953983;-0.05206869708393016;-0.39813684080917444;0.613;0.0052904669956140744
09:24.9;-0.23767749525209725;-0.008777826311854312;-0.31500781842164083;0.598;0.0006571982195499745
09:25.0;-0.22704920883159155;0.03437684087822557;-0.24132003447658035;0.617;0.001883559464316207
09:25.0;-0.22282211910093083;0.07475951620714416;-0.18133273164713964;0.22699999999999998;0.0030206540305284723
09:25.0;-0.22431330243705133;0.10928764364823955;-0.13944603337120207;0.22699999999999998;0.0034184738063728023
09:25.0;-0.23062654249473058;0.13471043019419288;-0.11968062838531185;0.22699999999999998;0.003718213916748228
09:25.0;-0.2405914130000215;0.1478975047073478;-0.12516448919594514;0.23600000000000002;0.004453711702205732
09:25.0;-0.25272208117060846;0.1461243689488646;-0.1576971277037179;0.299;0.0058235743046178194
09:25.0;-0.26523626650649107;0.12734326238946056;-0.21744667066618653;0.322;0.007344489942779465
09:25.0;-0.2761576186630837;0.09041448963022208;-0.3028384756495768;0.349;0.007561467950126573
09:25.0;-0.2835024622485959;0.03526307004422737;-0.41068179127488796;0.502;0.004105654526792733
09:25.0;-0.28552319218446504;-0.037068223856523516;-0.5365330079585177;0.775;0.005678578225484549
09:25.1;-0.28095604580233674;-0.12448156963038834;-0.6752280326501113;1.168;0.023615323645173963
09:25.1;-0.26920796179934964;-0.22399383178208987;-0.8214549403799448;1.317;0.049534491033629134
09:25.1;-0.2504284879032241;-0.3319765586823426;-0.9702068837773509;1.317;0.08065949555173504
09:25.1;-0.22545423600802003;-0.44440287535767775;-1.116985953621017;1.317;0.11191362715854873
09:25.1;-0.1956522264398488;-0.5570482549593606;-1.2577207605024132;1.317;0.13707613231774102
09:25.1;-0.16269123757149492;-0.6656491315047496;-1.3884644386850886;1.209;0.15036414653604874
09:25.1;-0.12826533792520053;-0.7660697346364403;-1.5050146254279533;1.2409999999999999;0.14788302814543372
09:25.1;-0.09382072417505384;-0.8545101660156765;-1.6026425159666438;1.4869999999999999;0.1284850726650615
09:25.1;-0.06036655755446447;-0.9277325814329661;-1.6761172357715053;1.946;0.09386930700300765
09:25.1;-0.02842885369513488;-0.9832512246760582;-1.7201140524274772;2.326;0.04808184103831387
09:25.2;0.001863175728819126;-1.0194514892628743;-1.729910098805273;2.4859999999999998;0.0032858211198183687
09:25.2;0.03063490572886643;-1.0356448805833645;-1.702120900591087;2.051;0.0540029911504457
09:25.2;0.05815447919368577;-1.0320877153495862;-1.6352438796483042;2.051;0.09814819381844125
09:25.2;0.0847827282433518;-1.0099773555294564;-1.5299299174334469;2.051;0.1310058114941054
09:25.2;0.1109562886538606;-0.9714140680892307;-1.389035920011411;1.835;0.14971654176116758
09:25.2;0.1371669099705515;-0.9193062258450807;-1.2175215734149658;1.6269999999999998;0.15352751545254625
09:25.2;0.16392268915130936;-0.8572042409208047;-1.0222148971068319;1.386;0.14363675557393837
09:25.2;0.19168998451095798;-0.7890655286533962;-0.811466565851091;1.124;0.12273915358641044
09:25.2;0.22081811225798476;-0.7189723297030534;-0.5947264304262119;0.909;0.09442002451991781
09:25.2;0.25145495325240197;-0.6508382102885774;-0.38207523261477655;0.732;0.06252909215162161
09:25.3;0.28347119587595415;-0.5881416889798189;-0.18373015942478857;0.5770000000000001;0.030631717785166962
09:25.3;0.31641882663376397;-0.5337192208954874;-0.009526992423699579;0.65;0.0016089071398458993
09:25.3;0.3495399082597115;-0.48963948078173625;0.13161051516442673;0.65;0.022524947412800964
09:25.3;0.38180843251589924;-0.45716702859512576;0.232168447880124;0.65;0.040525055183562204
09:25.3;0.411963520705601;-0.43680632498992705;0.28645142407388513;0.72;0.05154643863348036
09:25.3;0.43850647047370933;-0.4284030032210378;0.29088350389686807;0.73;0.05464464459949418
09:25.3;0.4596673261099596;-0.431275042742299;0.2442139373802656;0.679;0.04841371475239212
09:25.3;0.47336980750728946;-0.44435024514952204;0.14763302421031774;0.621;0.031053424103924344
09:25.3;0.4772359323019023;-0.466292443832726;0.004791533977737734;0.607;0.0010662672872470624
09:25.3;0.4686750174609254;-0.49560632606460175;-0.17828389820387422;0.61;0.04141148142009774
09:25.4;0.445088725915039;-0.5307208349235631;-0.3934029217010551;0.653;0.09292879637351349
09:25.4;0.404194755719614;-0.5700585315924284;-0.6306000266991184;1.284;0.14529949637463882
09:25.4;0.3444335934858209;-0.6120924731480745;-0.8787210292626355;1.284;0.18525654558899207
09:25.4;0.2653856486577169;-0.655375502939435;-1.1261382037006678;1.284;0.19586612422517263
09:25.4;0.1681058648916518;-0.6985224206325619;-1.36148297040835;1.662;0.1598731121681529
09:25.4;0.05528865459203895;-0.7401460974195111;-1.5743460870469868;1.9880000000000002;0.06442488981852819
09:25.4;-0.06879379192384225;-0.778776170597259;-1.7559348989604835;2.28;0.09407415222084432
09:25.4;-0.19858227448473598;-0.8128050851786294;-1.8996194250589256;2.386;0.3066150687024686
09:25.4;-0.3276880521156535;-0.8405132253286711;-2.00124510452199;2.27;0.5511952175051574
09:25.5;-0.44942313041936666;-0.8602183708604427;-2.0591347437875416;2.23;0.7960656783264083
09:25.5;-0.5573433028303862;-0.8705480912080469;-2.0738170050989506;2.362;1.0062038757815484
09:25.5;-0.6458055285216343;-0.8707490545368902;-2.0476123572973615;2.417;1.1514431804257579
09:25.5;-0.7105435053332672;-0.8608990358145587;-1.9842143723400878;2.417;1.213756270686619
09:25.5;-0.7491884721036834;-0.8419352327825791;-1.8883391272278969;2.417;1.1911042168646724
09:25.5;-0.761604182842859;-0.8155003885013088;-1.76544206389242;2.2840000000000003;1.0964957756448304
09:25.5;-0.7499356128306864;-0.7836553225238345;-1.6214625175758792;2.016;0.9529189844300132
09:25.5;-0.7183380609443855;-0.7485222745971187;-1.4625600909821987;1.683;0.7864069179303834
09:25.5;-0.6724091645106686;-0.7119378949527692;-1.2948425192042208;1.409;0.6198586786484481
09:25.5;-0.6184120700554343;-0.6751892343801408;-1.1241191192925246;1.26;0.46937051113957434
09:25.5;-0.5624468992716218;-0.6388703604870768;-0.9557151457685513;1.189;0.34341774769055006
09:25.6;-0.5097466897350886;-0.6028565953340461;-0.7943482470286581;1.139;0.24410651592053256
09:25.6;-0.46422041579643053;-0.5663709945851301;-0.6440304745702857;0.72;0.16932912262310942
09:25.6;-0.4282724669732903;-0.5281178637603564;-0.5079645630608792;0.72;0.11489058183750046
09:25.6;-0.40284983006243064;-0.4864703893172892;-0.38845596415107764;0.72;0.07612746865550425
09:25.6;-0.38763962648090733;-0.43970529616818427;-0.28689319215671094;0.6409999999999999;0.048900140375023965
09:25.6;-0.38135217274477573;-0.3862696534398908;-0.2038155232326231;0.621;0.03002299909926865
09:25.6;-0.3820449728307827;-0.3250552182724658;-0.13904446181080396;0.619;0.017267335494276743
09:25.6;-0.38745159474775936;-0.2556531143755746;-0.09185069218162718;0.617;0.009098105613548239
09:25.6;-0.3952808956554416;-0.17856134518143302;-0.061136126581755;0.598;0.004315103266827083
09:25.6;-0.40345638267049333;-0.09531453406049953;-0.04561140886791894;0.5589999999999999;0.0017539984559849153
09:25.7;-0.41027562786985927;-0.008502672783948013;-0.043954982106530024;0.517;0.00015333429206631314
09:25.7;-0.41448347530504537;0.07834521153318744;-0.05495061470549252;0.505;0.0017844000766664375
09:25.7;-0.4152678550207939;0.1610016395508883;-0.0776001273151387;0.505;0.005188251819801661
09:25.7;-0.41220022816225266;0.2348462580462486;-0.11119457057742448;0.505;0.010764043755756472
09:25.7;-0.4051466729034846;0.2951653592801568;-0.15532105288711615;0.505;0.01857410900068013
09:25.7;-0.3941673008131475;0.3374194648434839;-0.20979919758231969;0.519;0.02790323447155988
09:25.7;-0.3794120868507834;0.3575023063556411;-0.2745677591394782;0.527;0.03724256197859186
09:25.7;-0.36102348791085337;0.35201677115758556;-0.34955887638887106;0.5579999999999999;0.04442415210673192
09:25.7;-0.33906890352853664;0.31856093761772936;-0.43460159378374463;0.606;0.04694310341190295
09:25.8;-0.3135347518512018;0.2559857551053908;-0.5293906558194581;0.708;0.04248912178226509
09:25.8;-0.2844042979865259;0.164570469675602;-0.633538979146354;0.882;0.029652506127865946
09:25.8;-0.2518099237536438;0.04606925376738572;-0.7466949173351451;1.256;0.008662180202049093
09:25.8;-0.21621186154263866;-0.09637376766161306;-0.8686458652610588;1.256;0.018100105676704652
09:25.8;-0.1785346608498769;-0.2583820282911621;-0.9992803313498879;1.256;0.04609694936947595
09:25.8;-0.14020068403080882;-0.4345064782451516;-1.1383042296286137;1.037;0.06934333711266845
09:25.8;-0.10302857713931018;-0.6183797985499623;-1.284720249378198;1.043;0.08185054301420504
09:25.8;-0.0690068935425786;-0.8029134441025809;-1.4362121466357687;1.245;0.07957557815357487
09:25.8;-0.03999853622921163;-0.9805784444067621;-1.5886418997144747;1.473;0.06230923986508403
09:25.8;-0.017453259707288723;-1.1437726617329596;-1.735840378528009;1.7530000000000001;0.034651819983034175
09:25.9;-0.0021849136985191463;-1.285256970739513;-1.8697877352212358;2.099;0.0052506922232144985
09:25.9;0.0057719629874691805;-1.3986422035318213;-1.9811871714481744;2.417;0.015993947771846304
09:25.9;0.0072351264330873495;-1.4789006200003365;-2.0603578490834367;3.003;0.022045896910398054
09:25.9;0.0038782533226259185;-1.5228429011888873;-2.098309304683287;3.003;0.012392552940148556
09:25.9;-0.0018494960434398482;-1.5294654904888223;-2.0878187888913238;3.003;0.005905897300139381
09:25.9;-0.006904095084748385;-1.5000760211763693;-2.024342669000595;2.952;0.02096544389763106
09:25.9;-0.007930549819938772;-1.4381533647735947;-1.9066524658187873;2.7439999999999998;0.021746032805751395
09:25.9;-0.0016317650524994448;-1.3489584328280821;-1.737145421226867;2.43;0.0038237753657377944
09:25.9;0.014821446943876722;-1.238957810217659;-1.5218130410904687;2.061;0.027945277264637833
09:25.9;0.04340334964526085;-1.1151544733346064;-1.2698794140967713;1.692;0.06146399165226424
09:26.0;0.08493815347311187;-0.9844347382755714;-0.9931517213227643;1.341;0.08304344274230123
09:26.0;0.13895288329098818;-0.853029223942788;-0.7051437091192959;1.0;0.08358129745678432
09:26.0;0.2037065003871401;-0.7261520593975445;-0.4200448763340978;0.647;0.062133833995261185
09:26.0;0.2763773278667096;-0.6078447093731646;-0.15164691782197515;0.647;0.025475847610507155
09:26.0;0.35333822425262223;-0.5010192313583425;0.0876072815336712;0.647;0.015509050952364444
09:26.0;0.43043549176851376;-0.40766477198696616;0.2873087422055748;0.762;0.05041503799658352
09:26.0;0.5032299566188779;-0.32915127765557217;0.43947842304665263;0.879;0.07279467122540628
09:26.0;0.5672044522130013;-0.26655131855452446;0.5387486465755612;0.972;0.08145292010748126
09:26.0;0.6179505496592357;-0.22090914432321285;0.5824013510021688;1.015;0.0795041484041238
09:26.0;0.6513397649582698;-0.1934032006014262;0.5702894007113405;1.006;0.07184003742999437
09:26.1;0.6636856334911518;-0.18536689779686213;0.5046417742496716;0.934;0.06208372938402719
09:26.1;0.651908784058437;-0.19815381451393785;0.3897495257883108;0.8320000000000001;0.05034714697687836
09:26.1;0.6137178774106543;-0.23285860719401713;0.2315437924320337;0.614;0.03308980532245008
09:26.1;0.5478155416312004;-0.28993352281818874;0.03712386947897696;0.614;0.005896387524542764
09:26.1;0.4541318423219393;-0.36876832188358616;-0.1856486019960655;0.614;0.031090466931670262
09:26.1;0.3340708163914719;-0.4673180335216577;-0.42838584414347874;0.614;0.06687844861690968
09:26.1;0.19072482340928765;-0.5818644369020345;-0.6822504041509965;0.6829999999999999;0.07571341537687827
09:26.1;0.028986105450421483;-0.7069891020801354;-0.9379940512085996;0.941;0.019222181396198305
09:26.1;-0.14450966012376454;-0.8358144483570081;-1.186087916663082;1.393;0.14325956742564191
09:26.1;-0.321639687499249;-0.9605230462047762;-1.4169911729499212;1.781;0.4377685579856348
09:26.2;-0.4932517544843634;-1.0730983963777765;-1.621523480773797;2.073;0.8582848101849796
09:26.2;-0.6498175261185348;-1.1661645494925652;-1.7912865919018621;2.281;1.3574265228840035
09:26.2;-0.7822705875793166;-1.23376382359977;-1.9191160409859949;2.975;1.8522101886606996
09:26.2;-0.882968438408669;-1.2719252242529524;-1.999561479943027;2.975;2.24564716941704
09:26.2;-0.9466297494937834;-1.2789400743874417;-2.029347470331796;2.975;2.4568959197418976
09:26.2;-0.9710604838515027;-1.2553352567460931;-2.0077168424835676;3.157;2.447419804475675
09:26.2;-0.957529548803499;-1.2035815297535293;-1.9365687451627085;3.05;2.2318274648269227
09:26.2;-0.9107065786558359;-1.1276033417369995;-1.8203347540276853;2.62;1.869330486404155
09:26.2;-0.8381082804761404;-1.032184088201345;-1.6655592768025205;1.965;1.4408454024223234
09:26.2;-0.7490899755076756;-0.9223740172835001;-1.4802095480969168;1.392;1.0227376578222802
09:26.3;-0.6535637850958055;-0.8029930213988395;-1.2728425446806686;1.089;0.6679968790547856
09:26.3;-0.5607238013078143;-0.6782843821158264;-1.0518262580272484;0.9890000000000001;0.4000412880385666
09:26.3;-0.47804307911528526;-0.5517347708475334;-0.8247882637948422;0.68;0.2175403696295813
09:26.3;-0.4106905988576828;-0.4260494254488805;-0.5983690449281792;0.68;0.10469932067043586
09:26.3;-0.3613684981579721;-0.3032643122484191;-0.3782602742012134;0.68;0.041453607399195416
09:26.3;-0.33047525914199266;-0.18496630589921048;-0.16943968055374467;0.494;0.010357303410745124
09:26.3;-0.31648943127631196;-0.07256560605516212;0.023524751629559925;0.354;0.0005402752657273444
09:26.3;-0.3164965700969741;0.0324515445327708;0.19621758596625805;0.409;0.002015312080133037
09:26.3;-0.32679916886865856;0.1283475451667107;0.34422121616878276;0.507;0.014437970316329648
09:26.3;-0.3435491266786008;0.2130655544295625;0.4630608314306877;0.621;0.033895351392825845
09:26.4;-0.363338132554379;0.28427560469253105;0.5482360198268306;0.765;0.05662629375755277
09:26.4;-0.3836775908184765;0.339521582321086;0.5953529304638614;0.882;0.07755473465799355
09:26.4;-0.403298614404984;0.3764402615490383;0.6003916344103833;0.932;0.09115015862203021
09:26.4;-0.4222190225652862;0.3930158020560114;0.560126941574978;0.932;0.09294676329220383
09:26.4;-0.4415669969425395;0.38783233386302385;0.47267401459131414;0.932;0.08094729630625835
09:26.4;-0.46319649674005375;0.36029301051586465;0.3380860395723694;0.887;0.05642198241123199
09:26.4;-0.48915493331297993;0.31078430582144345;0.1589073058549802;0.7979999999999999;0.024157355026503284
09:26.4;-0.5210832652953468;0.24076996638696968;-0.05943177440732777;0.627;0.007456381751317609
09:26.4;-0.5596546674922456;0.15279700493583165;-0.30850382029441353;0.395;0.026381259018741193
09:26.4;-0.6041718030560996;0.05039658685826443;-0.5771725995084233;0.278;0.017573864868559292
09:26.5;-0.652429113094213;-0.062127544085460056;-0.8523499896916352;0.698;0.03454899976904423
09:26.5;-0.7009070491039395;-0.18001492850899728;-1.1202179973993511;1.358;0.14134208576172133
09:26.5;-0.745297009963647;-0.29844031401660814;-1.3678008032677436;3.043;0.30423538294024627
09:26.5;-0.7812529802510785;-0.41292181916370124;-1.5846071615331876;2.89;0.5111885686283615
09:26.5;-0.8051657806148401;-0.5196556734875261;-1.7639160764406316;2.89;0.7380383016446255
09:26.5;-0.8147414571066843;-0.6157047602547397;-1.9033124565577877;2.89;0.9547780290318568
09:26.5;-0.8092560801934743;-0.6990386491906506;-2.0043203364512148;2.399;1.1338465741436945
09:26.5;-0.7894753720561533;-0.7684797315497488;-2.071253254406725;1.859;1.2566206957169426
09:26.5;-0.75731298124021;-0.8236043642089105;-2.1095951095062446;1.504;1.3158099024093315
09:26.5;-0.715359214270216;-0.8646121989836439;-2.1243520656986967;1.5030000000000001;1.3139293917955817
09:26.6;-0.6664263780321478;-0.8921637181056584;-2.1188326624746905;1.845;1.2597761888954666
09:26.6;-0.6132024751177704;-0.9072019297160064;-2.094155765676146;2.335;1.1649756457350129
09:26.6;-0.5580157904825158;-0.9107923229314505;-2.049505386535132;2.44;1.0416334403790293
09:26.6;-0.502666791139004;-0.9040152700689171;-1.9828969078630239;2.44;0.9010649491887182
09:26.6;-0.44831035924848717;-0.8879274090465648;-1.892121967897077;2.44;0.7531914208546572
09:26.6;-0.39541158131176135;-0.8635870360944002;-1.7756040828867552;2.1919999999999997;0.6063196376699224
09:26.6;-0.34379674552045314;-0.8321237646496682;-1.6330253358325368;1.969;0.4671782431535377
09:26.6;-0.2927996123791864;-0.7948226775401939;-1.4656969196885297;1.806;0.34110251560326704
09:26.6;-0.24149130661363347;-0.7531876338634417;-1.2767159378467658;1.6969999999999998;0.23221964788852972
09:26.6;-0.188966289953768;-0.7089551066471393;-1.0709613111411538;1.558;0.14347520490753307
09:26.7;-0.13462862626389374;-0.6640484335260869;-0.8549417297627984;1.3419999999999999;0.07643172940842062
09:26.7;-0.07840426795966267;-0.6204808181407991;-0.6364663282024003;1.037;0.03096303308842233
09:26.7;-0.020819380942518693;-0.580227403633521;-0.424114106412032;0.517;0.005123287950847338
09:26.7;0.03706318867706326;-0.5450944401566281;-0.2265522538911662;0.517;0.004577021157778544
09:26.7;0.09379438320343834;-0.5166140866995729;-0.0518508873633524;0.517;0.002512460652734244
09:26.7;0.1477007873194616;-0.49598046340103047;0.0930461306332187;0.551;0.006816252937550906
09:26.7;0.19701809953299726;-0.48402351712884006;0.2026343347566968;0.6;0.01932349252807584
09:26.7;0.2399987323080589;-0.48120805958379465;0.272981807092696;0.638;0.03152648444092196
09:26.7;0.2750069847732502;-0.48764844729288676;0.30173232672687456;0.6579999999999999;0.04046433540691942
09:26.7;0.30060897973304895;-0.5031338241139421;0.288008338312128;0.6609999999999999;0.04356026625529585
09:26.8;0.31566035375148677;-0.5271584736869243;0.23224048132975264;0.66;0.038645519848607444
09:26.8;0.3193925173206482;-0.5589503268038638;0.13595701870029897;0.662;0.024271665845900854
09:26.8;0.3114946851406643;-0.5974921005531398;0.00156920197712219;0.799;0.0002920529890475812
09:26.8;0.2921824474907753;-0.6415321451613755;-0.1678028203424643;0.799;0.03145370440032806
09:26.8;0.262234440494151;-0.6895844772544998;-0.3684067124593567;0.799;0.06662001719303697
09:26.8;0.22297115188189312;-0.7399246391968656;-0.5958039692373729;0.92;0.0982968405503813
09:26.8;0.1761497064239912;-0.7905998259100315;-0.8447192786597317;1.093;0.11763892415550561
09:26.8;0.12375799928454312;-0.8394756278675612;-1.1088741305963254;1.308;0.11520295618375195
09:26.8;0.06771261360115627;-0.8843301028351374;-1.380872903878889;1.535;0.08268708726618629
09:26.8;0.009499486515749493;-0.9229867920501377;-1.6521773274047176;1.8019999999999998;0.014486126555963224
09:26.9;-0.0501579412567044;-0.9534630643593162;-1.9131942042654373;2.024;0.09149611055987647
09:26.9;-0.11147390563980072;-0.9741047729338291;-2.153509347194897;2.198;0.23384368702251637
09:26.9;-0.17548478749430724;-0.98368503648362;-2.3623044730863074;2.722;0.4077851548283158
09:26.9;-0.24359789323346445;-0.9814593507372845;-2.5289628217859277;2.722;0.6046280481880084
09:26.9;-0.31692563785490885;-0.9671790009623936;-2.643808865088764;2.722;0.8103903974354116
09:26.9;-0.3956406669099395;-0.9410647261140969;-2.6989036502651182;2.971;1.0048651880380093
09:26.9;-0.4785605640616252;-0.9037434809203332;-2.6888476495083706;3.147;1.162915826123216
09:26.9;-0.5630644758094348;-0.8561626440331467;-2.6115434517312757;3.279;1.2589592098050064
09:26.9;-0.6453492467032901;-0.7995063423883364;-2.468804193567352;3.352;1.2738062257506728
09:26.9;-0.7209618114173325;-0.7351281454396736;-2.26663243851389;3.1830000000000003;1.2013136496517751
09:27.0;-0.7854836537894815;-0.6644909077751251;-2.015001109692812;2.7739999999999996;1.0517232726909782
09:27.0;-0.8352039233705365;-0.5890973146159201;-1.7270481070671533;2.21;0.8497359722568715
09:27.0;-0.867627469187364;-0.5104119065551423;-1.417741377540793;1.115;0.6278430697704019
09:27.0;-0.8817338447655786;-0.42979699084959266;-1.1022624289142002;1.115;0.4177205934190345
09:27.0;-0.8779986417184479;-0.34848977080059473;-0.7945006271742763;1.115;0.2430961737315069
09:27.0;-0.8582448971858604;-0.267628621924865;-0.5060011570186758;1.022;0.11622386070525693
09:27.0;-0.8253847188310505;-0.18830714565645804;-0.24547316268061362;0.885;0.038152872622839784
09:27.0;-0.7830814269770149;-0.11162368004212034;-0.018753808231640908;0.742;0.0016392784538891785
09:27.0;-0.7353574955329253;-0.03870699186836551;0.17092591786628966;0.638;0.004865145863509473
09:27.0;-0.6861928263401027;0.02928498409712337;0.3224884115946335;0.608;0.006480451716537111
09:27.1;-0.6391713062473876;0.09118901080989324;0.4364539671354754;0.63;0.025438893687172573
09:27.1;-0.5972201243847901;0.14587529018080053;0.5143631235256726;0.657;0.04481113989618478
09:27.1;-0.562452321666583;0.1922914046293231;0.5582594864520657;0.691;0.06037841350098781
09:27.1;-0.536095511234321;0.22950138970398445;0.5703013254218315;0.691;0.07016683243241999
09:27.1;-0.5184865427001443;0.2567103850455128;0.552534917982925;0.691;0.07354288382390833
09:27.1;-0.5091214184379743;0.27327069610758004;0.5068270716748066;0.7;0.07051381879497597
09:27.1;-0.5067522993007191;0.2786767234552198;0.43493537145862454;0.735;0.061421603764886507
09:27.1;-0.5095187969988482;0.27256295513664064;0.3386818393941126;0.742;0.0470347618575214
09:27.1;-0.5150995871276203;0.25471229280456975;0.22017493026301127;0.6990000000000001;0.028887434543996317
09:27.1;-0.5208771268529362;0.22506973163990746;0.08200277917785771;0.628;0.009613487176203002
09:27.2;-0.5241200964845023;0.18375101395176274;-0.07268673533551488;0.519;0.007000284971052479
09:27.2;-0.5221979892125891;0.13103749536032594;-0.2402877716132542;0.498;0.016442295478107567
09:27.2;-0.5128406080838126;0.06735323545675419;-0.41704315143356213;1.218;0.01440528526722882
09:27.2;-0.4944321996067197;-0.006766533620958815;-0.5994870474475451;1.218;0.0020056391311459388
09:27.2;-0.46629007933653105;-0.09068671410625807;-0.7848449262377013;1.218;0.03318819986759177
09:27.2;-0.4288518472881174;-0.18363373462156382;-0.9711912671757865;1.4069999999999998;0.07648293060248915
09:27.2;-0.3837070743527448;-0.28460506532283286;-1.1572739401862038;1.445;0.12638007397559547
09:27.2;-0.33344478047411713;-0.39224794160363907;-1.3420372630176536;1.3880000000000001;0.17552911836496193
09:27.2;-0.2813259462694409;-0.504726319433991;-1.5239337572066833;1.268;0.21638733077183564
09:27.2;-0.2308241402913957;-0.6195944319069789;-1.7001578926255048;1.06;0.24315207991146076
09:27.3;-0.18510396229660037;-0.7337178888592473;-1.866003749893739;1.062;0.2534295983094969
09:27.3;-0.14653048729450172;-0.8433062270444324;-2.014605275946462;1.439;0.24894491978055766
09:27.3;-0.11632109731547201;-0.9441048303339936;-2.137285072535475;2.865;0.23471517160848143
09:27.3;-0.09442638780146895;-1.0317329951144476;-2.2245432390702398;2.865;0.21672127534915225
09:27.3;-0.07964056384489139;-1.1020935738440427;-2.2674303547633463;2.865;0.19901543150107825
09:27.3;-0.0698610929390163;-1.1517735087880332;-2.2589075571990374;2.9;0.18176109039311816
09:27.3;-0.062412509610542885;-1.1783962848751803;-2.194912108772668;2.911;0.16142847534624194
09:27.3;-0.05439431675653663;-1.1809112806356084;-2.0750377535892683;2.8569999999999998;0.13328976428664724
09:27.3;-0.043043683410957496;-1.159785506905165;-1.9028255660986286;2.696;0.09499179267827947
09:27.3;-0.026097174986654342;-1.1170430450701228;-1.6856644434427457;2.397;0.0491399299024967
09:27.4;-0.00210759140788698;-1.0561133953954074;-1.4343016175269283;1.9780000000000002;0.0031925481696904435
09:27.4;0.02934534240770059;-0.9814952912986976;-1.1619889219435482;1.5219999999999998;0.03346797141497262
09:27.4;0.06759426475880868;-0.89829352185844;-0.8833424085983875;0.672;0.053636100675866556
09:27.4;0.11097200399896376;-0.81172422082214;-0.6130759588982958;0.672;0.05522506298874469
09:27.4;0.15700451586489078;-0.7266925521489305;-0.36484254908553704;0.672;0.04162635029488258
09:27.4;0.20265796065066832;-0.6475119741166379;-0.1503804831623135;0.625;0.019733446741278714
09:27.4;0.2446129158648045;-0.577771738212806;0.020991014648034115;0.644;0.002966669117705388
09:27.4;0.2795560433390461;-0.520312895322452;0.14260885096788642;0.6990000000000001;0.020743400633088112
09:27.4;0.3044711194364891;-0.4772626944591787;0.21052834633370762;0.726;0.030592443873828732
09:27.4;0.3168973594665705;-0.45008508883000464;0.223459777874805;0.7090000000000001;0.03187224156452404
09:27.5;0.3151222430109663;-0.43961661869021623;0.1826010210090412;0.654;0.025296262668661345
09:27.5;0.2982867828473447;-0.446073328884752;0.09138007058352124;0.599;0.012158829162418063
09:27.5;0.26639684938883146;-0.46903345493410853;-0.04488060795287092;0.563;0.005607788638324272
09:27.5;0.22025425788713984;-0.5074121562458772;-0.21935215681213718;0.698;0.024514728589212203
09:27.5;0.1613438794323439;-0.5594422623514826;-0.424079518934474;0.698;0.03827851359328301
09:27.5;0.0917213276407842;-0.6226682172447858;-0.6502825882300236;0.698;0.03713891028395421
09:27.5;0.01392383972764753;-0.6939648933088491;-0.8885672657583141;0.965;0.00858591977838463
09:27.5;-0.06910888748882062;-0.7696053693256889;-1.1291192386111677;1.285;0.06005398041582396
09:27.5;-0.15413388503799355;-0.8454024298138823;-1.361966570902087;1.611;0.17747127319964406
09:27.5;-0.23774540467068966;-0.9169318334693826;-1.5773334174600675;1.9040000000000001;0.34385289588288925
09:27.6;-0.3165612654891246;-0.9798240693837869;-1.7660425357066127;2.135;0.5477810909242735
09:27.6;-0.3874417994769048;-1.0300952407724686;-1.9199089252911055;2.267;0.7662394030433091
09:27.6;-0.44770600954390277;-1.0644782909613668;-2.0320915182376833;2.458;0.9684406174285072
09:27.6;-0.49529635133310934;-1.080711156792627;-2.0974030415348044;2.458;1.1226817349771983
09:27.6;-0.5288608761763067;-1.077737079245099;-2.1125973083039296;2.458;1.2041233749400369
09:27.6;-0.5477604726139479;-1.0557789052224662;-2.0766528992416;2.6460000000000004;1.2009573453013598
09:27.6;-0.5520356992800906;-1.016268074907972;-1.9910458861752514;2.687;1.1170091113495222
09:27.6;-0.5423674664049504;-0.9616334805601093;-1.8599448794956885;2.549;0.9700704603191337
09:27.6;-0.5200482686777453;-0.894977552175624;-1.6902059407396905;2.26;0.7866751311221475
09:27.6;-0.486955475667254;-0.8196873238581728;-1.4910549643507138;1.8619999999999999;0.595156424043704
09:27.7;-0.44549396971415334;-0.7390472198576276;-1.2734274526873286;1.431;0.41926462954501353
09:27.7;-0.3984690757944933;-0.6559270765850254;-1.049037143250989;1.072;0.2741833301464982
09:27.7;-0.34887658549757194;-0.5725997740922839;-0.8293194498257528;0.569;0.1656703716236405
09:27.7;-0.2996444251330647;-0.49070387814107835;-0.6244322933872164;0.569;0.09181445222619727
09:27.7;-0.25339380360127955;-0.41133053318121204;-0.44248876092964695;0.569;0.04611998775784543
09:27.7;-0.2122772353535644;-0.33519071616218815;-0.2891229475701036;0.495;0.02057206875149077
09:27.7;-0.17790911454935648;-0.26280632093541695;-0.16737620192998295;0.38;0.007825781417835466
09:27.7;-0.15137085103121067;-0.19467115534977675;-0.0778185392824173;0.278;0.0022931207989352123
09:27.7;-0.13326619543662357;-0.1313498368528359;-0.0188290695434041;0.222;0.00032959331655751624
09:27.7;-0.12381267220245133;-0.07351132337176784;0.012995470621446579;0.154;0.0001182800092463125
09:27.8;-0.1229660362553345;-0.021912168917891234;0.022310042357195584;0.125;6.01133506892964e-05
09:27.8;-0.13057655736149315;0.022651799596553026;0.014388255333198841;0.22399999999999998;4.255749542968269e-05
09:27.8;-0.14656525647192484;0.05941035461407161;-0.005554304689542884;0.43799999999999994;4.836407398687033e-05
09:27.8;-0.17108851729166452;0.08768780106168511;-0.03298672446147337;0.43799999999999994;0.0004948792390321056
09:27.8;-0.2046429287499196;0.10696412980123116;-0.06454020495312832;0.43799999999999994;0.0014127497696179029
09:27.8;-0.2480658099209106;0.11692106413064847;-0.09826673467783213;0.502;0.002850140014293639
09:27.8;-0.30241101086418726;0.11747325742254365;-0.13365618455054534;0.493;0.004748163559723549
09:27.8;-0.3687042072349415;0.10878621709643457;-0.1714292385825684;0.408;0.006876015776526216
09:27.8;-0.44760085850265335;0.0912769982674205;-0.21315543795219308;0.321;0.00870860669398603
09:27.8;-0.5389967181541611;0.06559159394973162;-0.2607795946628007;0.304;0.009219511527998804
09:27.9;-0.6416729778811263;0.03255747122774454;-0.3161685494827223;0.348;0.006605156056034728
09:27.9;-0.75307409677098;-0.006887075649658219;-0.38079377329867276;0.44799999999999995;0.0019749786321869678
09:27.9;-0.8692990653446475;-0.05178702354399487;-0.4556300341370344;1.176;0.020511740215346307
09:27.9;-0.9853266031817765;-0.10128364372649239;-0.5412662828393937;1.4580000000000002;0.05401700488262716
09:27.9;-1.095406189767555;-0.154719518141341;-0.6381118930981104;1.4580000000000002;0.10814766171081266
09:27.9;-1.1934962004518495;-0.2116883417065723;-0.746521626481388;1.4580000000000002;0.18860811523368937
09:27.9;-1.2736685422999368;-0.2719945726841489;-0.8667156816324869;1.715;0.30025712041713626
09:27.9;-1.3304715012264368;-0.3355243820295664;-0.9984751608123046;1.83;0.44572493146137576
09:27.9;-1.3592610862725771;-0.4020597754839191;-1.1406584680344458;1.725;0.6233746517258016
09:27.9;-1.356481837789871;-0.4710887080532608;-1.2906259075027662;1.485;0.8247399960993447
09:28.0;-1.3198726440546258;-0.5416775277625036;-1.4437351119134363;1.4480000000000002;1.032191706038933
09:28.0;-1.2486142263067286;-0.6124564253604967;-1.5931473475266322;1.672;1.2183145163436748
09:28.0;-1.143468261790105;-0.6817176036399532;-1.7301593392968837;2.6460000000000004;1.34869803540801
09:28.0;-1.0069302828836282;-0.7475756675761882;-1.845088679656034;2.6460000000000004;1.388902641396711
09:28.0;-0.8433454390542368;-0.8081289494842836;-1.928488863849801;2.6460000000000004;1.3143266095336836
09:28.0;-0.6588775774587456;-0.8615918722380863;-1.972360900602102;2.662;1.1196768685822824
09:28.0;-0.4612242281139189;-0.9064108253161791;-1.9711297951806828;2.542;0.8240478281523936
09:28.0;-0.2590472629882334;-0.9413919863710061;-1.9223018326897727;2.4290000000000003;0.4687821700085545
09:28.0;-0.06120778584462048;-0.9658476173631432;-1.8267849192707426;2.395;0.10799476404883751
09:28.0;0.1240244159302317;-0.9797297497922972;-1.688875270377857;2.316;0.2052159265212986
09:28.1;0.28962713870934015;-0.9836988702145021;-1.5159288282401642;2.1180000000000003;0.4318970506703475
09:28.1;0.43026756481601963;-0.9790861460518159;-1.3177388967875416;1.838;0.5551225628690923
09:28.1;0.5425287012267919;-0.9677454772677703;-1.1056557880177655;1.27;0.5805021232589028
09:28.1;0.6249525850175238;-0.9518353630318279;-0.8915493221433175;1.27;0.5303398711977776
09:28.1;0.677927478970059;-0.9335922157645137;-0.6867994535180441;1.27;0.43468074299351894
09:28.1;0.7034407695305068;-0.9151428618498563;-0.5014967441585515;1.179;0.3228379267394395
09:28.1;0.7047294366175291;-0.8983716814992518;-0.3439207371599584;1.135;0.217739303312845
09:28.1;0.6858699542827498;-0.88483370419523;-0.2202648482400923;1.104;0.13367451881939066
09:28.1;0.651346729837528;-0.875697046921684;-0.13456445359507402;1.057;0.0767531970513425
09:28.1;0.6056303852681811;-0.871700117980933;-0.08879664170949547;1.004;0.0468782404163983
09:28.2;0.5527945834437333;-0.8731153163275318;-0.08310425296995609;0.96;0.040110551712015545
09:28.2;0.49620249043318365;-0.8797187727492977;-0.11607684295925158;0.9279999999999999;0.05066970631112786
09:28.2;0.4382942718504767;-0.8907731090226925;-0.185023546811693;0.93;0.07223703213648058
09:28.2;0.3805010296431774;-0.9050352856087444;-0.2861939153028224;0.93;0.09855569940229317
09:28.2;0.3232987429830102;-0.9208029297919463;-0.4149323528931673;0.93;0.12352305017388396
09:28.2;0.26639725972327316;-0.9360109109011368;-0.565788296841612;1.02;0.14107973148252184
09:28.2;0.20903667042204876;-0.9483852700144655;-0.7326376068158897;1.178;0.1452434267858255
09:28.2;0.15034507426415347;-0.9556498132339976;-0.9088742231802408;1.399;0.1305845418397532
09:28.2;0.08969967659343162;-0.955760988708574;-1.0876956333389451;1.614;0.09324972553183479
09:28.2;0.02702408505681453;-0.9471279746465955;-1.2624561411197088;1.791;0.03231290194025528
09:28.3;-0.0370430395054161;-0.9287695217988188;-1.4270271121830158;1.9140000000000001;0.04909607734638731
09:28.3;-0.10114665318632346;-0.9003730199303439;-1.5760911819705412;2.065;0.14353417883060837
09:28.3;-0.16337439888281263;-0.8622511801797664;-1.7053051026947186;1.8980000000000001;0.2402259346085068
09:28.3;-0.22152324153889524;-0.8152287984856773;-1.8112983189623324;1.8980000000000001;0.32710621430757597
09:28.3;-0.2733967582226279;-0.7605193084296972;-1.8915344183710736;1.8980000000000001;0.39329448215572266
09:28.3;-0.31707106471240776;-0.699643965346626;-1.9441238802841978;1.834;0.4312783312443477
09:28.3;-0.3511101080080499;-0.6344028310906971;-1.9677015567784988;1.965;0.43829616839134594
09:28.3;-0.37474129852910615;-0.5668589502055841;-1.961460587820432;2.156;0.41666416584074367
09:28.3;-0.38799903313090345;-0.499277595145962;-1.925369423386453;2.312;0.3729810709593879
09:28.3;-0.3918232136427293;-0.4339777026636312;-1.8605024111948194;2.39;0.3163645521536727
09:28.4;-0.38807910803577156;-0.37309461956284995;-1.7693316911116548;2.295;0.25618193750026136
09:28.4;-0.3794486511543605;-0.3183065094158134;-1.6558101756750083;1.9980000000000002;0.1999903685116812
09:28.4;-0.3691514770747438;-0.2706128083777141;-1.5251411768727212;1.159;0.15235720800286903
09:28.4;-0.3605124760268525;-0.2302414735223102;-1.3832665526077623;1.159;0.11481793466094779
09:28.4;-0.35647670340748194;-0.19670501587090597;-1.2362427642548093;1.159;0.08668627673628218
09:28.4;-0.3592067998046962;-0.16896866562500815;-1.0896984950743147;1.087;0.06613891632551021
09:28.4;-0.36985191976663234;-0.1456734417363578;-0.9484589373005214;1.015;0.05110069321803351
09:28.4;-0.38850262558416876;-0.12536272029641438;-0.8163045302486256;0.8740000000000001;0.03975708848806706
09:28.4;-0.41429708468120335;-0.10667370980433917;-0.6958035437327004;0.6890000000000001;0.030750764153387365
09:28.4;-0.44562574802339205;-0.0884745184746645;-0.5881985073795901;0.562;0.02319062225991532
09:28.5;-0.4803828050141506;-0.06994999208322987;-0.49338371057641994;0.547;0.01657906102952974
09:28.5;-0.5162262056483627;-0.05065005020879898;-0.4100465846005312;0.6;0.010721440168537466
09:28.5;-0.5508247974603437;-0.03050848831438946;-0.3360265916129785;0.848;0.0056468703848418286
09:28.5;-0.5820765067363131;-0.009834188212408817;-0.2688679908065495;0.848;0.0015390675752054328
09:28.5;-0.6082723326635662;0.01071710911012398;-0.2064544356867078;0.848;0.0013458601476340273
09:28.5;-0.628177871234652;0.030175890747159345;-0.1475758497943941;0.799;0.0027974222503598704
09:28.5;-0.6410228821839027;0.04729085317735217;-0.09230792134304631;0.706;0.0027982702358364743
09:28.5;-0.6464163453486099;0.060569204126695;-0.042146312452689745;0.6409999999999999;0.0016501513503124198
09:28.5;-0.6442208676178727;0.06834051540090902;0.00010433786534802298;0.5720000000000001;4.59361914727305e-06
09:28.5;-0.6344243404297722;0.06885404793672097;0.030643610002873637;0.573;0.001338595130786636
09:28.6;-0.6170427734364056;0.06041027211575545;0.0451212784830312;0.579;0.0016819282262658202
09:28.6;-0.5920785796856196;0.04151674696711928;0.03913413350189178;0.573;0.0009619630458158651
09:28.6;-0.5595465039680017;0.011047743788767685;0.008693070416199603;0.535;5.373818300831559e-05
09:28.6;-0.5195670681436969;-0.03161600415062126;-0.04939247150738422;0.535;0.0008113520806009278
09:28.6;-0.4725132960596448;-0.08648309447750946;-0.13721494760580832;0.535;0.005607208154953315
09:28.6;-0.41918106327208016;-0.15289279165511785;-0.25552509951885133;0.602;0.016376543061720598
09:28.6;-0.3609413682074877;-0.22951534316835853;-0.40352562464290503;0.711;0.033428701118032776
09:28.6;-0.2998274433370071;-0.31442132842481757;-0.5786962855142549;0.8059999999999999;0.054554939000224956
09:28.6;-0.23851320848185892;-0.40521043002686025;-0.7766388479480286;0.8440000000000001;0.07506062226808359
09:28.6;-0.1801546349580689;-0.49916972452280334;-0.9909445347940724;0.8170000000000001;0.08911340198740356
09:28.7;-0.12809105514574168;-0.5934271994160778;-1.2131472388768045;0.8640000000000001;0.09221461668704063
09:28.7;-0.0854353505822113;-0.685075540164241;-1.4329025697014954;1.057;0.08386731304112907
09:28.7;-0.0546146867466357;-0.77125223240156;-1.6385532391841025;2.3930000000000002;0.06901864645969656
09:28.7;-0.03694544388893557;-0.8491725361993347;-1.8181180931507663;2.3930000000000002;0.057039921274973183
09:28.7;-0.03232333483329037;-0.916131773678939;-1.9605066328722647;2.3930000000000002;0.05805537341372812
09:28.7;-0.03908260351627752;-0.9695213791238012;-2.0566355976563164;2.3930000000000002;0.07792884252023875
09:28.7;-0.054046870432752976;-1.0069183724593558;-2.1002411735442785;2.537;0.11429677716064358
09:28.7;-0.07277848951153039;-1.0262888310458969;-2.08837027795573;2.551;0.1559840326424865
09:28.7;-0.09002780750305661;-1.0262915952385268;-2.0216074273290876;2.54;0.18678597789777898
09:28.7;-0.10036242081609106;-1.0066076238631747;-1.9040726238897752;2.5860000000000003;0.1923600372736071
09:28.8;-0.09890501849869657;-0.9681895038937219;-1.7431906608478493;2.62;0.16692584723608997
09:28.8;-0.08204272350224831;-0.913335825617932;-1.5491924459491377;2.489;0.11608495374785437
09:28.8;-0.04793289019525983;-0.8455397465974672;-1.3342853428443922;0.9159999999999999;0.054077469255286455
09:28.8;0.003324636566488317;-0.7691342519072236;-1.111510284909437;0.9159999999999999;0.0028422339001024552
09:28.8;0.06984969379664933;-0.6888305460292947;-0.8934878745468856;0.9159999999999999;0.04298981411710661
09:28.8;0.14837241744213026;-0.6092634196407041;-0.6913475656585377;0.631;0.062496358724852735
09:28.8;0.23474115116636;-0.5346075060040646;-0.5140195201893649;0.597;0.06450656170421622
09:28.8;0.3244681900892089;-0.46827853093290944;-0.36791125987898793;0.627;0.055900984053334296
09:28.8;0.4132351337194819;-0.41272728377447043;-0.25693275388919035;0.6890000000000001;0.04382075842136002
09:28.8;0.4972836719843544;-0.36934069873846076;-0.18281217792765633;0.7609999999999999;0.033576582360259656
09:28.9;0.5736509798352298;-0.33845535704673735;-0.1456029151085817;0.807;0.0282695699759973
09:28.9;0.6402445189868438;-0.31947189304623663;-0.14425785057373985;0.8320000000000001;0.029506519292506195
09:28.9;0.6957734979393511;-0.31104597415053997;-0.17716060908224593;0.919;0.038340664168834714
09:28.9;0.7395739815618587;-0.311323222003792;-0.24252597479405816;0.919;0.05584077015797248
09:28.9;0.7713846536676311;-0.3181809982281797;-0.33859487326345783;0.919;0.08310470508075886
09:28.9;0.7911378507990736;-0.329444039678695;-0.46357526881228744;0.97;0.12082424128364831
09:28.9;0.7988163548390944;-0.34305416992133075;-0.6153361480560184;1.018;0.1686250452397414
09:28.9;0.7943964496122958;-0.35718686501677166;-0.7909252764662036;1.028;0.22442344748563836
09:28.9;0.7778669597394877;-0.37031332294417457;-0.9860290257211637;1.034;0.28403009667779594
09:28.9;0.7492968747480896;-0.38121277598253606;-1.1945214876340657;1.0979999999999999;0.3412049592711129
09:29.0;0.7089252646988302;-0.3889523361801663;-1.4082542853956124;1.216;0.3883094143189845
09:29.0;0.6572569195957045;-0.39286535076549534;-1.6172097906601142;1.3840000000000001;0.4175853521848211
09:29.0;0.595153011600751;-0.39256038526464565;-1.8100776120389632;2.354;0.4228947596729407
09:29.0;0.5239069851683814;-0.38796980792799735;-1.9752041854948288;2.354;0.4014801852681756
09:29.0;0.44529580030400356;-0.37940834805712936;-2.101731281653478;2.354;0.35508528058635525
09:29.0;0.3615897961992283;-0.3675889324002995;-2.1806912731968686;2.625;0.28984964914042943
09:29.0;0.27548931311287383;-0.35355230030905416;-2.2059082455290087;2.6889999999999996;0.2148551992032317
09:29.0;0.18995444913293025;-0.33849501294154644;-2.17463953364817;2.655;0.1398263508417595
09:29.0;0.10792431131410979;-0.32351524924795877;-2.0878988130666625;2.465;0.0728993221131551
09:29.0;0.03196974647980651;-0.30933358334428424;-1.950399495531676;2.208;0.01928811740020148
09:29.1;-0.03603994296033208;-0.2960705591603615;-1.7701035553190598;1.9280000000000002;0.01888765290710259
09:29.1;-0.09516771346592441;-0.28315431443390576;-1.5574253619499923;1.651;0.04196817275950432
09:29.1;-0.1454723925824661;-0.269390316947975;-1.3241914677912612;0.742;0.05189354602644823
09:29.1;-0.18789070344206965;-0.2531718943865376;-1.0825128796491004;0.742;0.05149367123507187
09:29.1;-0.22397957620939513;-0.2327697628864654;-0.8437805107284442;0.742;0.04399106466089212
09:29.1;-0.2555933902119482;-0.20662890724176738;-0.6179649030751265;0.581;0.03263656986985314
09:29.1;-0.28456672174233477;-0.17361949556627992;-0.4132640423388106;0.47;0.02041785993553756
09:29.1;-0.31244948129499944;-0.13321514368965973;-0.2360175465890269;0.39399999999999996;0.009823758942687376
09:29.1;-0.34031790137626616;-0.08559289185961537;-0.09077710788869627;0.34600000000000003;0.002644227614820349
09:29.1;-0.3686666226009776;-0.03166179761295772;0.019553491657776062;0.321;0.00022824102512487274
09:29.2;-0.397376603234847;0.02697183630634784;0.09356971863436161;0.358;0.001002878063626789
09:29.2;-0.42575241034688815;0.08810155087248109;0.13123781122460004;0.449;0.0049226578084199364
09:29.2;-0.4526238417527797;0.14907915230753715;0.13377684398165854;0.552;0.009026830488867413
09:29.2;-0.47650168514185026;0.20701630469935206;0.10352279276557719;0.552;0.010211862828113476
09:29.2;-0.49576784593787326;0.25899043728538684;0.043761144223824176;0.552;0.00561889289915948
09:29.2;-0.5088785886830044;0.3022196428051558;-0.04146297380524808;0.627;0.006376719496604779
09:29.2;-0.5145669360521022;0.3342003438306115;-0.1475444934785084;0.725;0.025372997399888936
09:29.2;-0.5120294552092564;0.35282464160327676;-0.26951489980990834;0.805;0.04868964788124315
09:29.2;-0.5010686295186988;0.3564925323644442;-0.40221486125651923;0.846;0.07184652436938355
09:29.2;-0.48215261574862306;0.34421775877413385;-0.5404321180726432;0.821;0.0896930827901071
09:29.3;-0.4563652474538085;0.3157079648412038;-0.6790316248837509;0.764;0.09783361588960936
09:29.3;-0.4252493846418063;0.2713871138442483;-0.8131475048685901;0.6970000000000001;0.09384307929502846
09:29.3;-0.3905826575837546;0.21233231658951132;-0.9385160745218607;1.4880000000000002;0.07783425440689645
09:29.3;-0.3541471080193532;0.14013263112443247;-1.0519590919694657;1.4880000000000002;0.052206169320569915
09:29.3;-0.31754867692429284;0.05673066620167487;-1.1518877421599278;1.4880000000000002;0.020750967391669456
09:29.3;-0.2821125658291453;-0.03567627612068242;-1.238621869186118;1.4880000000000002;0.012466389477834895
09:29.3;-0.24884679879887206;-0.13464780927950187;-1.314394027598678;1.632;0.04404097521929736
09:29.3;-0.2184472251889046;-0.23745933761431656;-1.383029620246501;1.675;0.07174097355941189
09:29.3;-0.1913147984197489;-0.34106243102949646;-1.4493392624857884;1.619;0.09456980753481317
09:29.3;-0.16756076609010215;-0.4420884841690006;-1.5182574988510609;1.37;0.11246748262332036
09:29.4;-0.14698117092090182;-0.5369279693646347;-1.5937985359047935;1.1059999999999999;0.12577987360577478
09:29.4;-0.1289958249364545;-0.6219137438869914;-1.6779900459616337;1.047;0.13461553729740633
09:29.4;-0.11257591347787733;-0.6936142305046276;-1.7700281145732042;1.7;0.13821132771807493
09:29.4;-0.09621227964044134;-0.749191294305869;-1.8658802419442855;1.7;0.1344952643854868
09:29.4;-0.0779766605149127;-0.7867301919870895;-1.9584365770035226;1.7;0.12014341179651833
09:29.4;-0.055700082364967735;-0.8054512571231328;-2.0381850682629903;2.052;0.09144052622451668
09:29.4;-0.02725620101810106;-0.8057650642020143;-2.0943406983835287;2.4419999999999997;0.04599610846556882
09:29.4;0.00909555820251371;-0.7891869955560508;-2.116316981008421;2.759;0.015191126986768734
09:29.4;0.05437631019755054;-0.7581511795722985;-2.095328875385427;2.9819999999999998;0.08638090452751455
09:29.4;0.10864127965762158;-0.7157623913430613;-2.025831235767066;2.96;0.15753135581464717
09:29.5;0.170890131004412;-0.6655133187357546;-1.9065009225912393;2.72;0.2168256983299167
09:29.5;0.2391785374467246;-0.6109877847259424;-1.740558148100984;2.366;0.2543567517271947
09:29.5;0.3109274416532097;-0.5555733719748394;-1.5353669497910276;1.219;0.26522390406052626
09:29.5;0.38335714310686464;-0.5022138010450371;-1.3014468861741382;1.219;0.25056398740997654
09:29.5;0.453918277482;-0.45323427672487715;-1.0512036827058655;1.219;0.2162655235306652
09:29.5;0.5206017588361577;-0.41026189831589904;-0.7977018083791869;0.938;0.17037559786509784
09:29.5;0.5820813177274375;-0.3742390286496362;-0.5536391176187315;0.732;0.12060338727287483
09:29.5;0.6377118757268756;-0.34551153969181875;-0.3305366794928759;0.6970000000000001;0.07282939822906909
09:29.5;0.6874346525279436;-0.32397608618023344;-0.13814505170613578;0.772;0.03076661438772315
09:29.5;0.7316372896380274;-0.309271913927653;0.015900830013825647;0.855;0.0035979581626546103
09:29.6;0.7710010820399543;-0.3009895416469391;0.1261636500580573;0.932;0.02927794821520213
09:29.6;0.806343937668838;-0.29885410229820275;0.18925752704829485;0.9740000000000001;0.04560712625756936
09:29.6;0.8384479635235083;-0.3028418175960893;0.2035529418102112;0.909;0.05168557374615059
09:29.6;0.8678587410712595;-0.31320449166969344;0.16884274314514763;0.909;0.04589437110992901
09:29.6;0.8946615489902165;-0.330398890037573;0.08609013569335393;0.909;0.025447829392875904
09:29.6;0.9182620514005148;-0.35493439787930203;-0.04264874829720473;0.871;0.013900198962924533
09:29.6;0.9372102505272296;-0.3871600846090865;-0.21410531057799312;0.8340000000000001;0.07768819756193135
09:29.6;0.9491099597548763;-0.4270180326622409;-0.42353796090868356;0.828;0.1716544582764122
09:29.6;0.9506582158735809;-0.4737991296829224;-0.6644397546004935;0.851;0.2992776421661653
09:29.6;0.9378558193460641;-0.5259479212328924;-0.9283432646756129;0.991;0.45791767953499607
09:29.7;0.9064164955737386;-0.5809705848694847;-1.2048381502963115;1.263;0.6344693622225746
09:29.7;0.8523774087819523;-0.6355036335498434;-1.481871378536554;1.611;0.8027133369029837
09:29.7;0.7728730817764984;-0.6855909543906227;-1.74633251056148;2.51;0.9253375788666045
09:29.7;0.6669673626964717;-0.7271650992874595;-1.9848529686219962;2.51;0.9626445366653006
09:29.7;0.536356211599348;-0.7566376513986625;-2.184706402198856;2.51;0.8866135097987139
09:29.7;0.38571204509639784;-0.7714472674092975;-2.334732478497774;2.87;0.6947148322010201
09:29.7;0.2224794382463442;-0.7704373378690269;-2.426274823283607;3.323;0.41587919332677903
09:29.7;0.05604207916163394;-0.7539822157714451;-2.4540953539125403;3.485;0.1036971390836996
09:29.7;-0.10365336505774893;-0.7238169561563741;-2.4170868260717633;3.2689999999999997;0.1813445089521184
09:29.8;-0.24773146389763245;-0.6825882520390704;-2.3185257214304493;2.9410000000000003;0.3920594232245258
09:29.8;-0.36984473008994123;-0.6332380778046849;-2.165720516406994;2.61;0.5072112380953654
09:29.8;-0.46702107575945095;-0.5784016316209407;-1.96912680485943;2.219;0.5319118593804659
09:29.8;-0.5396652304004023;-0.5199934691729102;-1.741144399779595;1.284;0.4886041121127369
09:29.8;-0.5907913728955481;-0.4590632407345415;-1.4948369175828633;1.284;0.4054156206673954
09:29.8;-0.6248328172854544;-0.39588763766759155;-1.2427797279643078;1.284;0.30741845256852046
09:29.8;-0.6464404229704857;-0.3302056198086497;-0.9961599294669735;0.912;0.21263856576001822
09:29.8;-0.6595518544985748;-0.2615098709681225;-0.7641383930736746;0.586;0.13179807070345592
09:29.8;-0.6668453483706059;-0.1893368580562286;-0.553435965490687;0.519;0.06987594120430336
09:29.8;-0.669585096089626;-0.11352160810943063;-0.36815554700805775;0.632;0.027984378187504468
09:29.9;-0.6678000522801226;-0.03439651171942649;-0.20989526599339026;0.774;0.004821292648814302
09:29.9;-0.6606852309923567;0.047081074748965036;-0.0781685417749209;0.87;0.002431492739991088
09:29.9;-0.647085221286803;0.12928451560765986;0.02893970584738648;0.904;0.002421040788125217
09:29.9;-0.625928957212482;0.20996077842272173;0.11401603910777326;0.718;0.014984048412738525
09:29.9;-0.5965356328692683;0.2863451368322917;0.17960361200613;0.718;0.03067900488961092
09:29.9;-0.5587827621074226;0.3553108206370656;0.22763302108984307;0.718;0.04519461551583311
09:29.9;-0.5131700920603203;0.4135204676490619;0.25905803498608465;0.718;0.054973756532927694
09:29.9;-0.46080299818680737;0.45758135582485704;0.2737320993159508;0.687;0.05771774366449224
09:29.9;-0.40329415482239905;0.484234496164414;0.2705349653737111;0.73;0.05283248712571619
09:29.9;-0.34258756465205664;0.490596227472967;0.2476983687440169;0.779;0.04163120154700072
09:29.9;-0.2807355695242276;0.47443455908770904;0.20321416418056684;0.731;0.027066227865668136
09:30.0;-0.2196720194042177;0.43443425540820185;0.1351961380226669;0.649;0.012902179824584935
09:30.0;-0.16101479136812183;0.3703996122477474;0.04211415749819207;0.527;0.0025116806163541553
09:30.0;-0.10591690106039149;0.28335968914839343;-0.07711390943653014;0.493;0.002314387388417438
09:30.0;-0.0549825581912044;0.1755714014544191;-0.22311921682198202;0.493;0.002153851193243449
09:30.0;-0.008267761282100331;0.05044431293548156;-0.39605738811604674;0.493;0.0001651803031823968
09:30.0;0.03462270103684108;-0.0875927138449249;-0.5954552557248084;0.736;0.0018058349773251714
09:30.0;0.07435353901692394;-0.23329405026089392;-0.8198928361362476;1.023;0.014222056490247045
09:30.0;0.11162945804358114;-0.38088755030249993;-1.0665404553779783;1.163;0.04534745591778388
09:30.0;0.14697048031836052;-0.5244371244893413;-1.3305791679255936;1.1179999999999999;0.10255675258687659
09:30.0;0.1805487950415699;-0.658230882564961;-1.6045707595428942;0.995;0.19069167015887079
09:30.1;0.21213166507646583;-0.7771496914016667;-1.8779587757930092;1.163;0.3095966368765001
09:30.1;0.24114252041735496;-0.8769821036466316;-2.1370078490816566;1.617;0.4519294510263579
09:30.1;0.2668081854284348;-0.9546424792306889;-2.365493468263587;3.116;0.6025063908514465
09:30.1;0.28833241579373503;-1.0082441872112322;-2.546229249617536;3.116;0.7402129867407198
09:30.1;0.3050516170158368;-1.0370253312235902;-2.663152080562618;3.116;0.8424781849873779
09:30.1;0.3165699542476084;-1.0411948295912539;-2.703488564206699;3.556;0.8910995679649063
09:30.1;0.32288825565940427;-1.0217951009588497;-2.659627034539625;3.937;0.8774791456538202
09:30.1;0.32451612578300343;-0.9806552730716067;-2.530463704830817;3.907;0.8052908470696455
09:30.1;0.3225192239789403;-0.9204548579622425;-2.3220009666579955;3.535;0.6893193924138252
09:30.2;0.31844510445720436;-0.8448355055372667;-2.0469958382787974;2.798;0.5507109273246268
09:30.2;0.3141095021440876;-0.7584261307080156;-1.723621092526431;1.825;0.41061627817118346
09:30.2;0.31129113253359686;-0.6666511651561954;-1.3733457495682586;0.9940000000000001;0.28500027543931133
09:30.2;0.3114327349056847;-0.5752855343139154;-1.0184453566363922;0.33899999999999997;0.18246746807302155
09:30.2;0.31544259261124685;-0.48984542354393773;-0.6796412770247955;0.33899999999999997;0.10501688586310973
09:30.2;0.3236401243573675;-0.4149831522105139;-0.3743028807503719;0.33899999999999997;0.05027082288081925
09:30.2;0.3358384585325855;-0.35403855895453096;-0.11543455244360387;0.384;0.013725141031491406
09:30.2;0.35153601641816035;-0.3088125972189902;0.08858943761476856;0.488;0.009617158632464973
09:30.2;0.37017869562207806;-0.2795504710524846;0.2337452533657986;0.611;0.024188807017815495
09:30.2;0.39143455621055256;-0.26509097431435663;0.31976435193528735;0.7090000000000001;0.033180593521186415
09:30.2;0.41540936067410783;-0.26313410748287613;0.3493935361546774;0.713;0.03819163840113319
09:30.3;0.44274326032636113;-0.2705824655473892;0.32760356436101323;0.6579999999999999;0.03924643623875351
09:30.3;0.4745616904826553;-0.283923455416196;0.26078820771553646;0.634;0.03513839316525708
09:30.3;0.512287854943213;-0.29963031568824244;0.15599218302779716;0.7959999999999999;0.023944327703621447
09:30.3;0.5573452805848813;-0.31455543195764646;0.02024318431171684;0.7959999999999999;0.0035489538069415297
09:30.3;0.6107865316323666;-0.3262727602583123;-0.13990066235278684;0.7959999999999999;0.02787982475949608
09:30.3;0.6728876181486254;-0.33332146698534354;-0.3185002123876817;0.7959999999999999;0.07143573996321172
09:30.3;0.7427536476154767;-0.33532193858188325;-0.5100878193598652;0.826;0.12704328486333008
09:30.3;0.8179905575653529;-0.3329597278839795;-0.7093257453177136;0.8190000000000001;0.19319047995721622
09:30.3;0.8945100935150779;-0.3278464148746565;-0.9106142599931637;0.8290000000000001;0.2670484928469962
09:30.3;0.9665488768334202;-0.32227489313368457;-1.107789575301289;0.97;0.3450702889540471
09:30.4;1.0269849958876325;-0.31889816420796424;-1.2940309255157305;1.254;0.42379982525450743
09:30.4;1.0680036219966138;-0.32037118397722414;-1.4620598212804974;1.67;0.5002548573862885
09:30.4;1.0820815869313662;-0.32899802849609844;-1.6046501087460738;2.616;0.5712597853454467
09:30.4;1.0631440238221885;-0.34642218911110945;-1.7153649167033218;2.616;0.6317632039353189
09:30.4;1.0076488558812111;-0.3733919824201807;-1.789331810598604;2.616;0.6732325220183435
09:30.4;0.9153455157886099;-0.4096275202321209;-1.823849148663687;2.668;0.6838535401332313
09:30.4;0.789540103822797;-0.4538037545945142;-1.8187026242641744;2.439;0.6516343547237398
09:30.4;0.6368187331624033;-0.5036419167010507;-1.7761657891269442;2.082;0.5696671799890213
09:30.4;0.4662902496386192;-0.5560805169911353;-1.700707981705184;1.844;0.4409849453096398
09:30.5;0.2885011299834377;-0.6074935120478153;-1.5984702368518542;1.641;0.28015199328074075
09:30.5;0.11422991294624522;-0.6539385307582547;-1.4766011936138064;1.5619999999999998;0.11030113673351905
09:30.5;-0.046632809895375375;-0.6914354596625282;-1.3425444120654124;1.575;0.043288435932562
09:30.5;-0.18596068917186212;-0.7162762327064546;-1.2033446705835624;1.1909999999999998;0.16028457376496794
09:30.5;-0.297938670092259;-0.7253473893514877;-1.065037673178832;1.1909999999999998;0.23016426542764276
09:30.5;-0.3792723992938299;-0.7164250461696571;-0.9322186300166786;1.1909999999999998;0.25330267563701464
09:30.5;-0.4291118660547967;-0.6883972419139541;-0.807888245679553;1.1909999999999998;0.23864972329024656
09:30.5;-0.4487694022476294;-0.641381980354622;-0.6936017691713134;1.073;0.19964120608970287
09:30.5;-0.44131228583878307;-0.5767269685779098;-0.5898560248830589;1.013;0.15012820704552735
09:30.5;-0.41109893161965616;-0.49689335368591864;-0.4966088635410517;0.956;0.10144344807952989
09:30.6;-0.3633142804966971;-0.4052417119478507;-0.41382039833927503;0.893;0.06092681904483448
09:30.6;-0.3035425962168933;-0.30574863711567346;-0.34190326026216583;0.795;0.031731267208192415
09:30.6;-0.23739388363443786;-0.20268372552857897;-0.2819755936300942;0.653;0.013567502910382313
09:30.6;-0.17018177121817793;-0.1002785827418136;-0.2358455382546206;0.161;0.004024842510668
09:30.6;-0.10665031662293156;-0.002430765502980115;-0.20573140981239965;0.161;5.3334203735576486e-05
09:30.6;-0.05076451543204615;0.08750429228915582;-0.19381449187028377;0.161;0.0008609458732049981
09:30.6;-0.005585471445155692;0.1667988976574465;-0.20176305624022955;0.161;0.00018797264818220995
09:30.6;0.02677176358928493;0.2333312139133711;-0.23032810265501746;0.16699999999999998;0.0014387878172342733
09:30.6;0.04512651085703604;0.285511846246502;-0.27905796440389424;0.244;0.003595425629091214
09:30.6;0.04919783666132657;0.32221644079348716;-0.3461676517642309;0.366;0.005487571405768648
09:30.7;0.039557928085520805;0.3427526489875256;-0.4286030923829857;0.534;0.005811251304941999
09:30.7;0.017560000996996613;0.34685678750565524;-0.5223150099488125;0.6579999999999999;0.0031813191533039127
09:30.7;-0.014785446574889336;0.3347012157898077;-0.6227037758033129;0.777;0.003081578499753165
09:30.7;-0.05500197177414316;0.30690265542465456;-0.725149605779217;1.054;0.012240707496663235
09:30.7;-0.10038880774301602;0.26453632995590787;-0.8255255563413314;1.054;0.021923058514438938
09:30.7;-0.14825876499816762;0.20916005826577017;-0.920604336867268;1.054;0.028547767343987215
09:30.7;-0.19611305784658997;0.1428356533491821;-1.0083087425266988;1.27;0.028244680717935462
09:30.7;-0.24173074767062036;0.0681178626908007;-1.087796680426428;1.39;0.01791185798615565
09:30.7;-0.2831956429245256;-0.012021484118535554;-1.1593767691268617;1.4180000000000001;0.003947019284592109
09:30.7;-0.3189002226512424;-0.09434981286426442;-1.2242294372479214;1.338;0.0368348311757008
09:30.8;-0.34755114080960386;-0.17559759039160955;-1.2839208083299598;1.208;0.07835658643765898
09:30.8;-0.36817269094258603;-0.25271101515139244;-1.3397638657127366;1.089;0.12465336436226396
09:30.8;-0.3800886411701042;-0.3230840767181455;-1.3921628507876216;1.0659999999999998;0.17095841625569658
09:30.8;-0.38287405074431524;-0.3847229734542372;-1.4401188132487084;1.288;0.2121301395397829
09:30.8;-0.37629152439633784;-0.43631247027698894;-1.48104431716993;1.288;0.24315886984726703
09:30.8;-0.36023178674021994;-0.47718943712210854;-1.510950201470735;1.288;0.259730531853515
09:30.8;-0.3346655568006362;-0.507266403447099;-1.5249903642627913;1.6119999999999999;0.25888936906070736
09:30.8;-0.2996095152013819;-0.5269551554300241;-1.5183070185941745;1.9040000000000001;0.2397114943273189
09:30.8;-0.2551244451233516;-0.5371122401342721;-1.4870616291973078;2.153;0.20377274241818713
09:30.8;-0.20137362369518466;-0.5389921379386492;-1.4294510714052129;2.262;0.15515090389174457
09:30.9;-0.13874981529912347;-0.5341781664962448;-1.3464564022553096;2.089;0.09979547335039776
09:30.9;-0.06804133551678272;-0.5244721795280867;-1.242104903868814;1.734;0.044325491697493405
09:30.9;0.009420800846901134;-0.5117480171957414;-1.1231394751638382;1.37;0.0054147409411011505
09:30.9;0.09169749818479653;-0.4977943867140767;-0.9981452360087529;0.642;0.04556183638782668
09:30.9;0.1762928317994262;-0.4841799279348128;-0.8763377563506701;0.642;0.07480195674317337
09:30.9;0.2603048223116321;-0.4721626104613459;-0.7663146942858606;0.642;0.09418483046467342
09:30.9;0.3406311791421681;-0.4626459593039985;-0.6750462003388195;0.633;0.10638163687117978
09:30.9;0.41420586428420286;-0.45616970939503243;-0.6072446795750183;0.721;0.11473777018295538
09:30.9;0.47826200403174346;-0.45291643705917434;-0.5651311901642526;0.7979999999999999;0.1224146058671528
09:30.9;0.5306000087095146;-0.45271774938327813;-0.5485673036311954;0.9;0.1317724720511647
09:31.0;0.5698162437556501;-0.45505523808295384;-0.5554975517683254;1.036;0.14403933000048083
09:31.0;0.5954467678194644;-0.45906833314181594;-0.5826075273932968;1.173;0.15925620758509063
09:31.0;0.6079960172305016;-0.4635914648735354;-0.6260618154330955;1.271;0.17646288783702346
09:31.0;0.6088404585042455;-0.46723797419382834;-0.6821711572098289;1.2109999999999999;0.19405953649364674
09:31.0;0.6000225597016235;-0.4685301538188839;-0.7478649715022462;1.2109999999999999;0.2102462789385367
09:31.0;0.5839764211669454;-0.4660557897589456;-0.8209078180881016;1.2109999999999999;0.2234228624249306
09:31.0;0.5632344736333975;-0.4586248292360324;-0.8998675265725828;1.16;0.23244776321087574
09:31.0;0.5401485682501659;-0.44540538112859573;-0.9838920379880391;1.14;0.23670974359584335
09:31.0;0.5166395124449662;-0.4260247330872696;-1.0723780004602224;1.167;0.23603169589873008
09:31.0;0.493983992993616;-0.40062429856197673;-1.1646203678356146;1.176;0.23048068919734402
09:31.1;0.47265470649863434;-0.36986208012987115;-1.259517929686192;1.226;0.22018521257867152
09:31.1;0.4522424408081236;-0.33486069881323993;-1.3553831219760115;1.339;0.20525680708752728
09:31.1;0.4314988755308466;-0.2970986740443518;-1.4498791249718637;1.412;0.18587123256328736
09:31.1;0.4085302977466965;-0.25824594564771863;-1.540084164510225;1.706;0.16248087078836224
09:31.1;0.38113582397026746;-0.219965295251246;-1.6226560373652448;1.706;0.13603805284745893
09:31.1;0.34723299078632136;-0.1837290469257908;-1.6940481041308133;1.706;0.10807482514942772
09:31.1;0.30528356518540123;-0.15070266906363344;-1.7507350466168006;1.7930000000000001;0.08054615149077896
09:31.1;0.2546384943687824;-0.12171354725536428;-1.7894409081350209;1.8719999999999999;0.05546006049844096
09:31.1;0.19573836846903414;-0.09727983492645009;-1.807382971054574;1.9669999999999999;0.034415095188979734
09:31.1;0.13011872967795574;-0.07764700847927214;-1.8025276772954122;2.017;0.018211532150027975
09:31.2;0.060199562295087404;-0.06278382078415669;-1.7738178104790299;1.983;0.006704248237005958
09:31.2;-0.011102761144522652;-0.05233016991830201;-1.7213054169968438;1.909;0.0010000945883953242
09:31.2;-0.08084265215804244;-0.04554129607595114;-1.6461325160112066;1.766;0.0060605317746725085
09:31.2;-0.1464667024101404;-0.04129211197374115;-1.5503456406482923;1.27;0.00937636559514204
09:31.2;-0.2060876555296475;-0.03817646414356733;-1.4366003750586722;1.27;0.01130273788580998
09:31.2;-0.25857564178213915;-0.03468360806814524;-1.307872132122964;1.27;0.011729437007814985
09:31.2;-0.3035019967172073;-0.029400412708891332;-1.1672816657146932;1.198;0.010415752309843313
09:31.2;-0.3410023427306046;-0.02119104356966449;-1.0180631177537236;1.114;0.007356723122428884
09:31.2;-0.3716170117442435;-0.009325026615187443;-0.8636239227666197;1.02;0.0029927492508228996
09:31.2;-0.3961442790818921;0.006461242551959812;-0.7076242079390473;0.885;0.001811223793636283
09:31.3;-0.41551905652123117;0.025972981328976418;-0.5540208551030219;0.7140000000000001;0.005979141931935861
09:31.3;-0.43071314845467995;0.0486266254718027;-0.4070498473343251;0.557;0.008525303679862985
09:31.3;-0.4426511895401437;0.07356170521627359;-0.27115084259359545;0.456;0.008829261545465516
09:31.3;-0.45214689908918465;0.0997694353539157;-0.1508593716217365;0.511;0.006805332755556781
09:31.3;-0.45987046646968377;0.12620996806895723;-0.05069224449444799;0.511;0.002942189878892627
09:31.3;-0.46634824679203934;0.15189521041849144;0.024970348630236852;0.511;0.0017688012405111865
09:31.3;-0.4719822939331538;0.17592733012901673;0.07203542512006268;0.541;0.005981431618604962
09:31.3;-0.4770745887462224;0.19749868375181664;0.08693233224197047;0.5479999999999999;0.008190903724951971
09:31.3;-0.4818437464559057;0.21586844456225768;0.06697331881877008;0.586;0.006966220385323525
09:31.3;-0.48642224151440433;0.23033312167783299;0.010827970567779479;0.635;0.0012131566548211439
09:31.4;-0.4908262467483107;0.24020660920047282;-0.08097708260468793;0.645;0.009547174429253059
09:31.4;-0.49490468901315543;0.24482193126161003;-0.20568636617540012;0.563;0.024921684502723314
09:31.4;-0.4982925457107961;0.2435607895624694;-0.3582392958688483;0.479;0.043477542289840916
09:31.4;-0.5004010448445498;0.23590932282242744;-0.5315966426371488;1.1340000000000001;0.06275459646369091
09:31.4;-0.5004637340521765;0.22153124363824428;-0.7174354619451302;1.1340000000000001;0.07954088833692498
09:31.4;-0.4976295327064141;0.20034464229030477;-0.9070191967277575;1.1340000000000001;0.09042746538995614
09:31.4;-0.49107467164203733;0.17258653041815497;-1.092009786517377;1.44;0.09255096757585962
09:31.4;-0.48010583918655914;0.13884876430697463;-1.2650963455258628;1.661;0.08433398226745649
09:31.4;-0.4642347264769011;0.1000717536021686;-1.4204185562518201;1.817;0.06598807686645629
09:31.4;-0.4432100501437485;0.05749055358849856;-1.5537690799633004;1.811;0.0395906438967611
09:31.5;-0.4170012262530615;0.012538239157587446;-1.6625474001341316;1.669;0.008692564414772118
09:31.5;-0.38573865228330917;-0.033283109031182936;-1.7454860649379416;1.472;0.02240956531387382
09:31.5;-0.3496256294777179;-0.07855232884133007;-1.8022612276128847;1.274;0.049497135498374784
09:31.5;-0.3088494859856616;-0.12208142529120383;-1.8331660331599058;2.024;0.06911913197376153
09:31.5;-0.26353048087097974;-0.1630376264319926;-1.838989222387335;2.024;0.07901287828402109
09:31.5;-0.21373813805837957;-0.20100156897659907;-1.8210916161913693;2.024;0.07823719369029504
09:31.5;-0.159572646925316;-0.2359511092371651;-1.7815361720020089;2.024;0.06707722956079629
09:31.5;-0.1012777976993277;-0.26818954313477517;-1.7231213193884567;1.9;0.04680281180004965
09:31.5;-0.03934065715034746;-0.2982507041579165;-1.649248840630468;1.585;0.019351261212913785
09:31.5;0.025457766682201347;-0.32680763699943755;-1.5636403491254531;1.331;0.0130091633630174
09:31.6;0.09205362426027693;-0.35459232625668635;-1.469988406533775;1.249;0.04798263945898206
09:31.6;0.15916258491783186;-0.3823154338045518;-1.371673788687158;1.319;0.0834667789616956
09:31.6;0.22537575789326592;-0.41057330234299766;-1.2716528993123715;1.445;0.11767020004360303
09:31.6;0.28927808628692225;-0.4397428441957142;-1.1725246802809215;1.327;0.14915448250941066
09:31.6;0.3495779545994533;-0.46987745974438094;-1.076699563800448;1.327;0.17685737969914186
09:31.6;0.4052246030336444;-0.500622082132949;-0.986572819080058;1.327;0.20014048770927703
09:31.6;0.455488487579017;-0.5311671979203499;-0.904629495862859;1.27;0.21886655201489583
09:31.6;0.49999689349367565;-0.5602605666245448;-0.83343173388163;1.165;0.23346801718494334
09:31.6;0.538728729746323;-0.5862868519814152;-0.7754651062919027;1.07;0.24493032117484478
09:31.6;0.5719706503501966;-0.6074112457253628;-0.7328673256275061;0.991;0.25461379612952845
09:31.7;0.6002404224583375;-0.6217699424793164;-0.7071136249037134;0.981;0.26390290334800226
09:31.7;0.6241950274108379;-0.6276800432272724;-0.6987628139291279;1.034;0.2737716102293141
09:31.7;0.6445452993716758;-0.6238324527300082;-0.7073651935796654;1.122;0.2844232504833491
09:31.7;0.661991810907343;-0.6094274760827124;-0.7315903504926797;1.345;0.295149883550334
09:31.7;0.6771824071971957;-0.5842290723762685;-0.7695467245092414;1.345;0.3044555009579117
09:31.7;0.6906761319179704;-0.548553062756986;-0.8191705813425917;1.345;0.3103612122536056
09:31.7;0.702893026332659;-0.5032319256809218;-0.8785334299980397;1.345;0.31075327332870895
09:31.7;0.7140396103823443;-0.44958336408848476;-0.9459800628738028;1.3259999999999998;0.3036788320783729
09:31.7;0.7240141165480783;-0.38937601923579196;-1.0200978028866745;1.291;0.287579581240484
09:31.7;0.7323039265044764;-0.324772539597657;-1.0995671961798734;1.261;0.2615124918777221
09:31.8;0.7378957685985347;-0.25823814460946265;-1.182957800760095;1.265;0.22541596167153888
09:31.8;0.7392337800420293;-0.19241301683716674;-1.2685299393292173;1.308;0.18043341745630456
09:31.8;0.7342743463875658;-0.12995356121053225;-1.3540896806814975;1.357;0.1292093581310726
09:31.8;0.7206800234310906;-0.0733550755161689;-1.4369254612261946;1.641;0.07596383691519584
09:31.8;0.6961520500531629;-0.02477877874708122;-1.5138367269177515;1.641;0.026113377172981823
09:31.8;0.6588384547871823;0.014085730506265014;-1.581251454299312;1.641;0.014674362828018699
09:31.8;0.6077197310428053;0.04209775707776057;-1.6354301238798234;1.725;0.04184025162385957
09:31.8;0.542888128236788;0.058680871509330705;-1.6727658435867916;1.845;0.0532895498798606
09:31.8;0.46567150027880344;0.06379885914719242;-1.6901824637275165;1.984;0.050214155540729666
09:31.8;0.37858168351007254;0.05792695150478642;-1.685586782883012;2.057;0.036965057751093475
09:31.9;0.28509365383403057;0.04204974268039567;-1.6582757262566226;2.04;0.019879599749113897
09:31.9;0.1892900517988925;0.01769198440673418;-1.6091761060477041;1.953;0.005388996645918843
09:31.9;0.09542859772379993;-0.01305359380178883;-1.540817241522302;1.8319999999999999;0.0019193747001585988
09:31.9;0.007501249728367415;-0.04756405787781927;-1.4569976398726403;1.101;0.0005198420076063672
09:31.9;-0.0711446042092872;-0.08282962105239038;-1.3622039742413357;1.101;0.008027305382009641
09:31.9;-0.13806290145613925;-0.11568131857257609;-1.2609463695183858;1.101;0.02013895084292287
09:31.9;-0.19181431965513787;-0.14304241617131286;-1.1572009623639807;1.101;0.031750798308554935
09:31.9;-0.23193524089646433;-0.16216062764554903;-1.0540598683579772;0.9840000000000001;0.03964399720038158
09:31.9;-0.25881578211013684;-0.17081333695698425;-0.9535764349968849;0.9229999999999999;0.04215683931439494
09:31.9;-0.27353446187170777;-0.1674843482495937;-0.856756003918898;0.872;0.039250340968035355
09:32.0;-0.27768051561426077;-0.15149681945939558;-0.7636595427963344;0.7709999999999999;0.03212541195864028
09:32.0;-0.2731779405407007;-0.12307968806682658;-0.673604890331754;0.65;0.022648385311178073
09:32.0;-0.2621206184019074;-0.08334800212217305;-0.5854582237185973;0.569;0.012790640386321047
09:32.0;-0.2466336982090582;-0.034187456634333396;-0.498012079506686;0.657;0.004199127725048689
09:32.0;-0.2287772253791173;0.02194118187253444;-0.41043255680123125;0.657;0.002060224791832283
09:32.0;-0.2104934883192329;0.08222449411875479;-0.3227203088057439;0.657;0.005585552934283803
09:32.0;-0.193580466255213;0.1436811959312756;-0.2360924034400926;0.657;0.006566644102052277
09:32.0;-0.17966683204830675;0.2032824174532079;-0.15318301829261238;0.535;0.005594719913964521
09:32.0;-0.17017131619185233;0.2580274035621959;-0.0779834262969405;0.396;0.0034241635720091033
09:32.0;-0.16624403649092603;0.30500603064142173;-0.01549108126749934;0.32299999999999995;0.0007854819939631355
09:32.1;-0.1687032579636484;0.3414635028624511;0.02889220718665612;0.409;0.0016643646434601844
09:32.1;-0.17799009010737332;0.36486992380886224;0.050103548627596695;0.519;0.0032538863132124955
09:32.1;-0.19416098688013417;0.37299929364979867;0.04415166047189194;0.581;0.0031975476234596726
09:32.1;-0.21692593426361806;0.3640292315988023;0.00868655790594827;0.493;0.0006859547291607604
09:32.1;-0.24572131482247236;0.336671643108479;-0.05669695385159971;0.493;0.004690391512483329
09:32.1;-0.2797866325703305;0.29033206446007503;-0.15044624980695237;0.493;0.012220903928114226
09:32.1;-0.318211501989953;0.22527822016289872;-0.269300834858937;0.48700000000000004;0.019305132180224067
09:32.1;-0.3599420712043092;0.1427850302003129;-0.40877156929015235;0.682;0.021008544813017827
09:32.1;-0.40376557916936034;0.04521784610574092;-0.5637945998295725;1.01;0.01029342906433604
09:32.1;-0.4483058102339452;-0.06398107066322652;-0.7294367689550375;1.3230000000000002;0.020922497373673847
09:32.2;-0.4920552013414436;-0.18042696838588504;-0.9014668158277082;1.56;0.08003224938151972
09:32.2;-0.533446601777599;-0.2990563950645057;-1.076606477183351;1.618;0.17175169631090625
09:32.2;-0.5709409912919441;-0.41451084631938595;-1.252343895783055;1.5030000000000001;0.29638125114077674
09:32.2;-0.6030926187848661;-0.5216091577897796;-1.4263176610002493;1.3530000000000002;0.44868905995504405
09:32.2;-0.6285636348354097;-0.615844987401731;-1.5954412318967608;1.3530000000000002;0.6175917331038995
09:32.2;-0.6460944445324224;-0.6938118966209087;-1.7550727248038849;1.3530000000000002;0.7867429611882707
09:32.2;-0.6544676068001238;-0.7534642028441076;-1.8985649920029952;1.662;0.9362164077758509
09:32.2;-0.652508570377692;-0.7941791999452291;-2.017429798500249;2.056;1.045449742581233
09:32.2;-0.6391509127312942;-0.8166463119729805;-2.1021629401112576;2.5069999999999997;1.0972454636501945
09:32.2;-0.6135698593654676;-0.8226344308457498;-2.14357673271311;2.909;1.0819568342475538
09:32.3;-0.5753585259828853;-0.8146920440059193;-2.1343379449266555;3.15;1.0004495972662422
09:32.3;-0.5246945775372464;-0.7958303874368446;-2.070350130240242;3.1260000000000003;0.8645117332251476
09:32.3;-0.46243722575403984;-0.7692288020702315;-1.951651372072121;2.9;0.6942414908672689
09:32.3;-0.3901161279672075;-0.737986236608265;-1.7826185071332925;1.581;0.5132164620272485
09:32.3;-0.309821842464632;-0.7049298442898636;-1.571481743031735;1.581;0.3432157977951798
09:32.3;-0.22405504439634172;-0.6724850456523471;-1.3293856689533925;1.581;0.2003034132787551
09:32.3;-0.13559521637432448;-0.6426065619113361;-1.0693060353883048;1.157;0.09317331393907188
09:32.3;-0.0474051466836844;-0.6167625097328064;-0.8050014968285835;0.8079999999999999;0.023536406144370105
09:32.3;0.03745253608606944;-0.5959605569681752;-0.5500451366160007;0.619;0.012277136305991643
09:32.3;0.11591153263379506;-0.5808092179897514;-0.3169773188522406;0.6;0.02133970130886722
09:32.4;0.18501591383299057;-0.5716085121497814;-0.11665830744342581;0.645;0.01233739426655523
09:32.4;0.24204384102039272;-0.5684568506653042;0.04212007054980407;0.693;0.005795362827356865
09:32.4;0.28463125669521655;-0.5713519562762491;0.1527625918110513;0.742;0.024842959257739324
09:32.4;0.3108888919385872;-0.5802604957733488;0.21079377482737402;0.7240000000000001;0.03802646817344422
09:32.4;0.3195057190147606;-0.5951364243954366;0.213672512001509;0.7240000000000001;0.04062971943802091
09:32.4;0.3098292218616158;-0.6158806683972963;0.16061471608950553;0.7240000000000001;0.030648151309052636
09:32.4;0.2819137470776829;-0.6422492883662196;0.05252387536733098;0.696;0.00950991527849626
09:32.4;0.2365340739132482;-0.6737277756217839;-0.10792356905453662;0.6759999999999999;0.017198654148421484
09:32.4;0.1751683152274825;-0.709395799226677;-0.31605187325030076;0.669;0.03927376472597752
09:32.4;0.09995748049873658;-0.7478121651904526;-0.5648820915517327;0.6829999999999999;0.042224608665978096
09:32.5;0.013645902665359665;-0.7869523825270813;-0.8448582845933279;0.757;0.009072659058248844
09:32.5;-0.08049916594706616;-0.8242271699473604;-1.1437488941701754;0.9079999999999999;0.07588728132173507
09:32.5;-0.1787937570570476;-0.8565982056621229;-1.446881910420989;1.168;0.22159634746964071
09:32.5;-0.2772732997843114;-0.8807902216957969;-1.7378337000488462;2.4419999999999997;0.42441307053420096
09:32.5;-0.37185444613931157;-0.8935816245232676;-1.9995597822359987;2.4419999999999997;0.664418323563579
09:32.5;-0.4585054409231541;-0.8921459530879444;-2.2157720342326273;2.4419999999999997;0.9063699120144916
09:32.5;-0.5334128921370459;-0.8744175544557403;-2.372300262123307;2.807;1.1065015652119374
09:32.5;-0.5931657115443362;-0.8394572508513133;-2.4582869031196974;3.09;1.2240726387177574
09:32.5;-0.635004165840664;-0.7877772117115516;-2.4671716797640038;3.31;1.2341824296047261
09:32.5;-0.6571660426403555;-0.7215453917451385;-2.397401505015227;3.44;1.1367881695321167
09:32.6;-0.6593014505937477;-0.6445613286394233;-2.252736502189571;3.227;0.9573233972490496
09:32.6;-0.6428470602271085;-0.5619226676281311;-2.0420191830994363;2.753;0.7376392735051805
09:32.6;-0.6111897199602098;-0.4793933771709492;-1.7783482394971526;2.17;0.5210565746907504
09:32.6;-0.5694620981961116;-0.4025926710778719;-1.477735705423888;0.722;0.33878756039795355
09:32.6;-0.5239350221739866;-0.3361911223213057;-1.1574898854842175;0.722;0.20388293427668322
09:32.6;-0.48114816467402327;-0.28330078746768883;-0.8346675165012447;0.722;0.1137732403298983
09:32.6;-0.4470112169681456;-0.2451821378671322;-0.5248687562724247;0.366;0.05752517785602791
09:32.6;-0.42605670255787204;-0.22129263211141426;-0.241439984453455;0.23;0.022763736548438135
09:32.6;-0.42094040233671787;-0.2096130597995015;0.005006314791446415;0.38799999999999996;0.00044173021176868623
09:32.6;-0.4322449086651051;-0.20713326335624696;0.2068524362572235;0.573;0.01851997406862553
09:32.7;-0.4586036738440325;-0.21036512153169537;0.359562665439427;0.789;0.034688526820356155
09:32.7;-0.497097246887391;-0.2157777391421585;0.4616099205924492;0.9940000000000001;0.04951344337074431
09:32.7;-0.5438157508041072;-0.220102844139992;0.514233403985368;1.0759999999999998;0.0615513696100752
09:32.7;-0.5944622816051691;-0.2205109922207513;0.5210059388782963;0.885;0.0682963070965679
09:32.7;-0.6448881003968222;-0.2146941873855435;0.4872215740371712;0.885;0.06745764263912984
09:32.7;-0.6914881245949867;-0.2009040611510511;0.41918791358586105;0.885;0.0582347471407834
09:32.7;-0.7314317913556655;-0.177986241268914;0.3235467172503738;0.804;0.04212086315133897
09:32.7;-0.7627469736073914;-0.14542731537787834;0.20670871844438718;0.7929999999999999;0.022929008463108316
09:32.7;-0.7842996751185908;-0.10340726339975012;0.07443612519104816;0.8540000000000001;0.00603693969731694
09:32.7;-0.7957115829615449;-0.052840013338384006;-0.06840615813484209;0.907;0.0028761650102604344
09:32.8;-0.7972361535625547;0.0046136918533412384;-0.21790856676890138;0.909;0.000801511714531348
09:32.8;-0.7895917283232036;0.06657401790332647;-0.37098571039808825;0.8340000000000001;0.01950134386979626
09:32.8;-0.7737481351763318;0.13002602795340382;-0.5251060286868338;0.726;0.05282955051315211
09:32.8;-0.750684685575312;0.19147736158202883;-0.6779809923908556;0.9209999999999999;0.09745239323930079
09:32.8;-0.7211671375980532;0.24719138222943976;-0.827320624131744;0.9209999999999999;0.1474833878693618
09:32.8;-0.6856060813731248;0.2934674264102372;-0.9707166990981859;0.9209999999999999;0.19531116271091203
09:32.8;-0.6440431744468752;0.32692786618845915;-1.105671017143824;1.245;0.232805291592546
09:32.8;-0.5962697644077627;0.34479033408684095;-1.229778667706189;1.551;0.25282779979455333
