Time;AccX;AccY;AccZ;Acc-old;Acc-trns
17:43.8;-0.008317575077899802;-0.36379279240147266;-0.9630823381427438;1.038;0.0029141656754790427
17:43.8;-0.01245185181442079;-0.3292438353444182;-0.9089120462777148;1.054;0.003726262579229977
17:43.8;-0.01689841670611775;-0.2960527351606716;-0.8546682256032747;0.9940000000000001;0.004275753416887833
17:43.8;-0.022092730458069768;-0.26559520981586626;-0.8009621140908283;0.934;0.004699824124479478
17:43.8;-0.02856107005956724;-0.238939827085585;-0.7488782633514748;0.872;0.005110627702116327
17:43.8;-0.036869624311676646;-0.21677233547447838;-0.700000300832448;0.799;0.005594622603423685
17:43.8;-0.047533169442296304;-0.19938680304010384;-0.6563326036015107;0.728;0.006220383517119253
17:43.9;-0.0609106992198487;-0.1867356372402861;-0.620127382493215;0.6509999999999999;0.007053451778542618
17:43.9;-0.07712028010596389;-0.17851619540431546;-0.5936403027709573;0.5710000000000001;0.008172776051337467
17:43.9;-0.09599511674220945;-0.17426948667635642;-0.5788494887573865;0.511;0.009683584511235436
17:43.9;-0.11708342149915808;-0.17347511565890933;-0.5771818737430324;0.484;0.011723175718322154
17:43.9;-0.13967910231566008;-0.1756357437701059;-0.5892954460070416;0.491;0.014456974812766862
17:43.9;-0.16286684583817748;-0.18034690458717534;-0.6149626073040023;0.5529999999999999;0.018063008558535758
17:43.9;-0.18557234979173604;-0.18734486607814457;-0.653084850323858;0.691;0.02270516555241108
17:43.9;-0.2066195640784126;-0.19652141728801675;-0.7018398999521877;0.8190000000000001;0.028498328150039606
17:44.0;-0.22480435141906263;-0.2078949715615498;-0.7589247055942886;0.934;0.03546887299576691
17:44.0;-0.23899106497860875;-0.22153570246891474;-0.8218297384124136;0.934;0.04351181943841077
17:44.0;-0.24822552924040325;-0.23745718815203806;-0.8880814806961601;1.01;0.05234613005794354
17:44.0;-0.2518454753083777;-0.2554990641327356;-0.9554182491944295;1.11;0.06147761328235626
17:44.0;-0.24956433235873549;-0.2752269886070278;-1.0218927900694377;1.179;0.07019058622000182
17:44.0;-0.24150305743265105;-0.29587195919937936;-1.0859033785283316;1.197;0.07759212128321885
17:44.0;-0.22814875991733655;-0.3163279580121386;-1.1461539828881708;1.162;0.08271773964347973
17:44.0;-0.2102346636286369;-0.3352242424882776;-1.2015548120474315;1.138;0.08468048358588767
17:44.0;-0.18856001891408963;-0.35108060239384975;-1.2510988015784485;1.173;0.08282244669099828
17:44.0;-0.16379107811386892;-0.3625364939462181;-1.2937678895991673;1.3230000000000002;0.07682425192755021
17:44.1;-0.13629929393005247;-0.3686172067033836;-1.3285137923775774;1.528;0.06674754201828845
17:44.1;-0.10609169082501879;-0.36897127664564205;-1.35431779011014;1.506;0.05301448088949009
17:44.1;-0.07286021124268445;-0.36400798433604287;-1.3702883713352394;1.506;0.0363423752245121
17:44.1;-0.03613255255317057;-0.3548957239837253;-1.375741799629577;1.4369999999999998;0.017641533857472427
17:44.1;0.0045229474410907605;-0.34342678894248974;-1.3702372918086962;1.3730000000000002;0.0021283913889405303
17:44.1;0.04928780394386118;-0.3317810116047713;-1.3535768275484759;1.3459999999999999;0.022134713553915893
17:44.1;0.0979161309416984;-0.3222317334639794;-1.3257993297082065;1.3319999999999999;0.04183120230369472
17:44.1;0.14961492176546526;-0.3168459018335528;-1.2871933706404728;1.2930000000000001;0.061019240597311335
17:44.1;0.2029992564511003;-0.3172307858902462;-1.2383347782465373;1.271;0.07974580463017031
17:44.1;0.25613087546169044;-0.32436245279395687;-1.1801418254773672;1.29;0.09804528477393118
17:44.2;0.3066359475839123;-0.33850207211913413;-1.1139345930950852;1.204;0.1156229616245055
17:44.2;0.3518849665384198;-0.35918521699032024;-1.0414823695041258;1.204;0.13163491264981114
17:44.2;0.3892110594876582;-0.3852677414960546;-0.9650234683723435;1.145;0.144705718642569
17:44.2;0.41614540735082;-0.4150211651502866;-0.8872444545169694;1.135;0.1532352372060983
17:44.2;0.4306513661234356;-0.4462746588729169;-0.8112083156066433;1.12;0.15590514583921572
17:44.2;0.4313320969543685;-0.47659294541471614;-0.7402264447483015;1.068;0.15216822776858807
17:44.2;0.4175774253922624;-0.5034678578951792;-0.6776784062850619;1.016;0.14247294760890541
17:44.2;0.38961917948260316;-0.5244983871421478;-0.6267926422791779;0.946;0.12808797927582374
17:44.2;0.34848119274393474;-0.5375426443501912;-0.5904072961239489;0.868;0.11059716223002078
17:44.2;0.2958308427008122;-0.5408377067406471;-0.5707328914251081;0.7959999999999999;0.09131525053743725
17:44.3;0.23375863081653087;-0.5330916650765093;-0.5691406829370611;0.7140000000000001;0.07092333970015799
17:44.3;0.1645340399563442;-0.513555408124967;-0.5860020151299605;0.7140000000000001;0.04951561505270836
17:44.3;0.09040310054996677;-0.4820823803434553;-0.6206006271725734;0.7140000000000001;0.027046856358620513
17:44.3;0.01348124252696597;-0.439180417448827;-0.6711337833680886;0.746;0.0039735802614868365
17:44.3;-0.06424945588062958;-0.38604870229949395;-0.7348148385272639;0.794;0.018225920376028562
17:44.3;-0.14087033524853934;-0.32458272150863815;-0.8080840581534727;0.8859999999999999;0.03694889753166717
17:44.3;-0.2144277243138628;-0.2573297140543192;-0.8869180304974852;0.993;0.048938917395485865
17:44.3;-0.2828477741903023;-0.18738387746266572;-0.9672049522012374;1.123;0.051262938636408656
17:44.3;-0.34390493797054417;-0.11821631445717852;-1.0451336232433504;1.275;0.0424900896098226
17:44.3;-0.39528234211269336;-0.05343685150924488;-1.1175318482301604;1.406;0.023605227187339543
17:44.4;-0.43474827821902556;0.0035099781961333704;-1.1820877911413492;1.396;0.0018038151127386611
17:44.4;-0.4604350110862242;0.04969181981638796;-1.237409210729095;1.396;0.028311741594738402
17:44.4;-0.4711545218934167;0.08302244058674328;-1.2829262159170491;1.396;0.050183452852697916
17:44.4;-0.46666335056297104;0.1025130015465772;-1.3186940971808783;1.4069999999999998;0.06308508706261631
17:44.4;-0.44781445119236085;0.1083875600626067;-1.3451681068303607;1.537;0.06529111813874024
17:44.4;-0.4165704580032398;0.10203156323325557;-1.3629990160234178;1.5419999999999998;0.05793200381932902
17:44.4;-0.37586891629348307;0.08576882568330979;-1.3728576659932168;1.3880000000000001;0.044257959685428505
17:44.4;-0.32934090326339566;0.06250948541844015;-1.3752720083500274;1.265;0.02831262910354639
17:44.4;-0.2809090390061776;0.03534835156142291;-1.370478567071919;1.227;0.013608401924372755
17:44.4;-0.23432437964388636;0.007189703456366332;-1.358329059082941;1.258;0.0022884079387775437
17:44.5;-0.19272859032919556;-0.01954749397400866;-1.3383005388804956;1.327;0.005041861200354646
17:44.5;-0.1583311618290172;-0.043109046212809164;-1.3096233258276468;1.327;0.008938841046014506
17:44.5;-0.1322625193375409;-0.06245736200655317;-1.271498612266008;1.327;0.010503555112034307
17:44.5;-0.11461721801720194;-0.07720836481978391;-1.2233565596535727;1.3019999999999998;0.010825981305421773
17:44.5;-0.10466061488830362;-0.08748072031957549;-1.1651078143243965;1.276;0.010667477791018738
17:44.5;-0.10114271700486435;-0.09368857447909336;-1.097352034544856;1.239;0.010398416771834954
17:44.5;-0.10264242429330286;-0.09631070537934897;-1.0215155362979174;1.159;0.010098257502745234
17:44.5;-0.10786323382297063;-0.09567360561326353;-0.9398972121569313;1.061;0.00969942388731869
17:44.5;-0.11582289880940547;-0.09179469692548776;-0.8556121565601966;0.938;0.00909680675312828
17:44.5;-0.1259167099166668;-0.08433304573731423;-0.77243598323053;0.82;0.008202451094429911
17:44.6;-0.13787509072208565;-0.07266937215704432;-0.6945661591534885;0.617;0.006959064133835222
17:44.6;-0.15166497995210115;-0.05609133108776363;-0.6263300985368092;0.617;0.00532824689683631
17:44.6;-0.16738696729775634;-0.03402881242666212;-0.5718804093118379;0.55;0.0032574192096126815
17:44.6;-0.18520116864219852;-0.006283600119879153;-0.5349139858306922;0.528;0.0006224954984562033
17:44.6;-0.20529045202762577;0.02678974779164064;-0.5184347256409004;0.527;0.002851224798401963
17:44.6;-0.22784818717977082;0.0641834552290099;-0.5245673660699072;0.536;0.007671317183552849
17:44.6;-0.25306342508834223;0.10423354533996608;-0.5544279200960975;0.599;0.014624532235089312
17:44.6;-0.2810759891492867;0.14471377095123372;-0.6080545280157283;0.644;0.024732962276613642
17:44.6;-0.3118890576454835;0.18301325218715414;-0.684396660489507;0.72;0.03906524555433087
17:44.6;-0.345251147389947;0.21637879044593047;-0.7813550919908558;0.8009999999999999;0.05837115220636421
17:44.7;-0.38054050055123095;0.24219849997516538;-0.8958615019685633;1.21;0.08256827436188785
17:44.7;-0.41668628225653026;0.25829141797206795;-1.0239761883210396;1.21;0.11020696370274968
17:44.7;-0.45214070803418394;0.26314781726474934;-1.1609684249111532;1.21;0.13813183792363487
17:44.7;-0.4848975512155947;0.2560580337272989;-1.301357997918868;1.318;0.16157909920064914
17:44.7;-0.5125504988246349;0.2370890326733893;-1.438947848232707;1.35;0.17486108923609645
17:44.7;-0.5323874643748706;0.20690704820682887;-1.566922297462682;1.3940000000000001;0.17260388498969945
17:44.7;-0.5415211901409784;0.16649451243091376;-1.678087147556877;1.5859999999999999;0.15129685159692474
17:44.7;-0.5370710597864888;0.11686335804617509;-1.765295310863469;1.8330000000000002;0.11079686700609981
17:44.7;-0.5164182405479284;0.058883708782934016;-1.8220496062492177;2.0709999999999997;0.05540601644186643
17:44.7;-0.47753094009261204;-0.0067061482622002054;-1.8432132253664912;2.235;0.005902693653983764
17:44.8;-0.4193123935727885;-0.07913135926939745;-1.8257086028729255;2.306;0.060578398364625016
17:44.8;-0.3418975565824754;-0.15733989817634836;-1.7690656300705;2.306;0.09516534071438026
17:44.8;-0.2468290460692643;-0.23979386482629347;-1.6756923895284948;2.109;0.09918103348581955
17:44.8;-0.13706725286951288;-0.3243785205546834;-1.5507814181938424;1.784;0.06895033584855452
17:44.8;-0.016824327121730667;-0.4084690549370158;-1.4018316131170063;1.422;0.00963369104190929
17:44.8;0.10874952081509769;-0.48913976063194375;-1.2378523132491905;1.1740000000000002;0.06584596264358546
17:44.8;0.23397218856208754;-0.5634608840252537;-1.0683931515032752;1.068;0.14085073099098225
17:44.8;0.3530691866772397;-0.6288124275676783;-0.9025776685620018;1.041;0.20038514239824198
17:44.8;0.46059855708137815;-0.6831454921798713;-0.7483016163099616;1.053;0.2354574646548147
17:44.8;0.5518273617531306;-0.7251395371999109;-0.6117057280097205;1.084;0.24477517120444006
17:44.9;0.6230374278617994;-0.7542367569329274;-0.496967338226408;1.158;0.23353376298557044
17:44.9;0.6717435268841379;-0.7705707231974331;-0.4063876716123702;1.158;0.2103567823630487
17:44.9;0.6968073771312843;-0.7748302750624505;-0.34069669632601896;1.158;0.18394468511196183
17:44.9;0.6984365379692075;-0.7681029207256318;-0.29947256546416445;1.136;0.1606583900174707
17:44.9;0.6780733663891438;-0.751728859480823;-0.28158015440499806;1.101;0.14352909700826377
17:44.9;0.6381942064217045;-0.7271804007527735;-0.2855565313268975;1.061;0.13252173720205496
17:44.9;0.5820447024374963;-0.6959705741646168;-0.30989364643073825;1.002;0.12553357324047645
17:44.9;0.5133388537035671;-0.6595880201744898;-0.3531854051450495;0.956;0.1195858085703236
17:44.9;0.4359514398213059;-0.6194507376321002;-0.41412153720571293;0.8640000000000001;0.11183370373719775
17:44.9;0.35363336930987865;-0.5768701394817136;-0.4913323346366349;0.731;0.10023205720224594
17:45.0;0.26977692073756104;-0.5330214723767717;-0.583121923561981;0.6579999999999999;0.08385111997651619
17:45.0;0.18725642554779698;-0.48892616974010644;-0.6871639810361562;0.6579999999999999;0.06291300067463092
17:45.0;0.10836569723361592;-0.4454571893799848;-0.8002542746479473;0.6579999999999999;0.03863009754863785
17:45.0;0.03485396552934937;-0.4033699369089883;-0.9182150414182256;0.759;0.012909223719024407
17:45.0;-0.03196959601486056;-0.3633438595995046;-1.03603092301047;0.991;0.012034490036829486
17:45.0;-0.09111444607060715;-0.326007554096798;-1.148252984950482;1.33;0.03410770403129386
17:45.0;-0.14182308877354524;-0.29191902512373785;-1.2496281114445682;1.6;0.05173567576330694
17:45.0;-0.1835575559914241;-0.2614846500040999;-1.3358222315545492;1.831;0.0641161052294691
17:45.0;-0.2160596595724512;-0.23483132964493114;-1.4040507305346774;1.98;0.07123813224901852
17:45.0;-0.23944228390828748;-0.21168904057032206;-1.4534320174585345;1.8940000000000001;0.07367055538490239
17:45.0;-0.2542426962518241;-0.191367848496817;-1.4849405157423368;1.6230000000000002;0.07224811436014385
17:45.1;-0.26138521454382707;-0.17289379100933971;-1.5009452594516994;1.254;0.0678305390367382
17:45.1;-0.2620555822131277;-0.15529054887595384;-1.5044562918703603;1.254;0.061223480503581
17:45.1;-0.2575466132382731;-0.13789581856305358;-1.4983023413948706;1.17;0.05321160990786942
17:45.1;-0.24914690673995946;-0.12056433506997662;-1.4844670022914064;1.206;0.04459076294320842
17:45.1;-0.23810034599986168;-0.10367168368618782;-1.4637265318444437;1.2690000000000001;0.03613101177880516
17:45.1;-0.22560595832238753;-0.08793514183822695;-1.4356299455506476;1.351;0.028481020236262748
17:45.1;-0.2128050481677259;-0.07413489767953016;-1.3987854736583265;1.48;0.022067631952036197
17:45.1;-0.2007257423820657;-0.06283708783606771;-1.351364713397088;1.568;0.01704479165065916
17:45.1;-0.19020040988902082;-0.054204074081510185;-1.2916985974808455;1.633;0.013316943792885942
17:45.2;-0.18180461098941614;-0.04793500332353015;-1.2188249540682567;1.3459999999999999;0.010621821355324357
17:45.2;-0.1758603122373533;-0.04332653216564909;-1.132874730893747;1.3459999999999999;0.008631845521345641
17:45.2;-0.17250524616678525;-0.03940600611734534;-1.0352469800351702;1.3459999999999999;0.007037342689975087
17:45.2;-0.1717940798392064;-0.035083319073812506;-0.9285708426992505;1.094;0.005596595378448954
17:45.2;-0.17379388998404183;-0.029287610156995814;-0.8164616992005594;0.799;0.004155796333661463
17:45.2;-0.17865306009853624;-0.02107941137485445;-0.7030965070348669;0.528;0.002647792083049748
17:45.2;-0.18663816160894098;-0.009739371547430653;-0.592689739970126;0.386;0.0010773549001269105
17:45.2;-0.19814327957308522;0.005167279469174609;-0.48899846415391923;0.33799999999999997;0.0005006667990470619
17:45.2;-0.21367926398810916;0.02375205880065999;-0.3949750591625345;0.304;0.0020046257820851613
17:45.2;-0.23384730847025495;0.04578721197247444;-0.3126308894765316;0.298;0.0033474065500968342
17:45.3;-0.25929858540690787;0.07070767790638662;-0.24311332333009214;0.409;0.00445733712398413
17:45.3;-0.29068050077369273;0.09762989325692782;-0.18695292280045;0.409;0.005305556862221347
17:45.3;-0.3285680431205573;0.12538714171196932;-0.14440804602109888;0.409;0.00594935268577156
17:45.3;-0.37338092343246304;0.15258035778273565;-0.11582365917232125;0.444;0.00659854276498687
17:45.3;-0.42529594685984295;0.17764625780380183;-0.10193387912803642;0.525;0.007701332229162672
17:45.3;-0.48416727535648746;0.1989442998413492;-0.10406266075838913;0.622;0.010023556868192628
17:45.3;-0.5494563106856901;0.2148547114899343;-0.12419723250762053;0.7090000000000001;0.014661890305355479
17:45.3;-0.6201584537816737;0.2238722672326873;-0.16491829632534122;0.73;0.022896642615939728
17:45.3;-0.6947146802165365;0.2246846931014504;-0.2291747384443516;0.69;0.03577228706070862
17:45.3;-0.7709207063525209;0.21623565058912872;-0.31989957980038497;0.67;0.053327432855493746
17:45.4;-0.8458847363359466;0.1977787389152683;-0.4394865846719311;0.7340000000000001;0.07352523385890135
17:45.4;-0.9161038858737839;0.16892696643533384;-0.5891753431013682;1.2009999999999998;0.09117762423433351
17:45.4;-0.9776945226250053;0.1296965234404711;-0.7684058715462154;1.2009999999999998;0.09743661584403535
17:45.4;-1.0267332421214563;0.08053615344437932;-0.9742023619461551;1.393;0.08055596127615336
17:45.4;-1.0596068103844147;0.022322320805044097;-1.2006617243748197;1.3769999999999998;0.028399111467646725
17:45.4;-1.0732747871361479;-0.04370437731448805;-1.4386697849872705;1.261;0.06748340487525499
17:45.4;-1.0654038039297897;-0.11606520060740022;-1.6760111205247616;1.4040000000000001;0.2072493443661686
17:45.4;-1.0344047948922395;-0.19319035424559594;-1.89802716049057;1.8780000000000001;0.3792961082555101
17:45.4;-0.9794509467662901;-0.2735195081492989;-2.0888814570468726;2.54;0.5596091306683435
17:45.4;-0.9005356491403427;-0.35552287889811307;-2.2333199829350474;3.1239999999999997;0.7150220183126013
17:45.5;-0.7985669414275529;-0.4376790150496741;-2.3186296581166554;3.487;0.8103981459073113
17:45.5;-0.6754546773899862;-0.5184706059152775;-2.336391416140999;3.252;0.8182122079783364
17:45.5;-0.534156483158695;-0.5964175752922066;-2.28365853377842;3.252;0.7275286539294188
17:45.5;-0.37866887292298607;-0.6701197954909535;-2.163347216130668;2.819;0.5489569444271197
17:45.5;-0.2139428843814847;-0.738282934212648;-1.9838119215465033;2.29;0.31334384771991697
17:45.5;-0.045691204724940246;-0.7997278401451172;-1.7577251812939538;1.778;0.064228207026528
17:45.5;0.11992814471883934;-0.8533930484407087;-1.5004916630758975;1.3319999999999999;0.15356908719613882
17:45.5;0.2767287231085583;-0.8983316195997396;-1.2284978713962806;1.0959999999999999;0.3053973988829635
17:45.5;0.4189637336174944;-0.9337020984185223;-0.9575066585274843;1.156;0.37456446098872026
17:45.5;0.541784194850575;-0.958760570757483;-0.7014446182911552;1.253;0.3643593211552868
17:45.6;0.6416194475614503;-0.9728604733955316;-0.4717187483060043;1.2990000000000002;0.29444976711035203
17:45.6;0.7164162490779911;-0.9754611515188674;-0.2770608153088128;1.2990000000000002;0.19362013268449307
17:45.6;0.7656992309994526;-0.9661497231003943;-0.12377068102857286;1.2990000000000002;0.09156308678941377
17:45.6;0.7904566292782141;-0.9446881484219734;-0.016158063809482433;1.288;0.01206579193261011
17:45.6;0.792888555220199;-0.9110925958119359;0.043016952179951023;1.245;0.031075226522705595
17:45.6;0.7760680163162219;-0.8657364147086059;0.05225241124141672;1.202;0.03510684541191178
17:45.6;0.7435611936892652;-0.8094532965298834;0.01123367335377841;1.155;0.0067613015181446304
17:45.6;0.6990420627736245;-0.7436092723264451;-0.07902805203537634;1.087;0.04107990045554401
17:45.6;0.6459244690481184;-0.6701109023814805;-0.21592987319076715;0.982;0.09346330846575197
17:45.6;0.5870282897367951;-0.5913222928666755;-0.3950103036117322;0.83;0.13711712775431403
17:45.7;0.5243009872846289;-0.5098806389803655;-0.6098151951776575;0.86;0.16302245862935758
17:45.7;0.4586346438546435;-0.4284392999155089;-0.8519764425577182;0.86;0.16741090511280327
17:45.7;0.3898384796421504;-0.349415932954067;-1.1114823887209526;0.86;0.1514014361628237
17:45.7;0.3168175440980915;-0.2748307289496319;-1.37707416698306;1.271;0.11990349551034153
17:45.7;0.23796050591899875;-0.2062663670735215;-1.6367567794279558;1.66;0.08033734066003456
17:45.7;0.15168320193191004;-0.14491920525903607;-1.8784532969629297;1.9880000000000002;0.0412918017303656
17:45.7;0.0570370444814747;-0.09169185507551048;-2.0907801269021458;2.327;0.01093442968351127
17:45.7;-0.04572798969418248;-0.047294880298477136;-2.26385204448639;2.603;0.004896032361296544
17:45.7;-0.15476585261865883;-0.012345737216693995;-2.3900006401203564;2.798;0.004566570749325689
17:45.7;-0.2665230962056055;0.01254767645255604;-2.464296609970982;2.801;0.008241213041567882
17:45.8;-0.3760075557224935;0.026749501664727317;-2.4847941605829935;2.63;0.024992096287416127
17:45.8;-0.4774440402395423;0.029644573702195594;-2.4524733875878235;2.63;0.03471138874740566
17:45.8;-0.5651919501409227;0.02079461612967842;-2.370926280324602;2.5789999999999997;0.027865377179362785
17:45.8;-0.6347071247878905;0.00018199167744640225;-2.2458704166209906;2.563;0.00025942366821980306
17:45.8;-0.6833228815159818;-0.03152251153060604;-2.0845683489226046;2.4090000000000003;0.044901713576162364
17:45.8;-0.7106691941072253;-0.07275880409177186;-1.8952092831491665;2.066;0.09799642156207733
17:45.8;-0.7186312039326679;-0.12102869086202372;-1.6862980351991612;1.679;0.1466657611978329
17:45.8;-0.7108760972341838;-0.1730378084664934;-1.4660973678511098;1.429;0.18034235297606221
17:45.8;-0.6921030228579903;-0.2249983566825972;-1.2421711233184196;1.274;0.19343342482796214
17:45.8;-0.6672266813801906;-0.2730080842150903;-1.0210591844431094;1.109;0.1859943827954775
17:45.9;-0.6406749042761607;-0.31340778473903225;-0.8080845221815064;0.9259999999999999;0.16225731342990346
17:45.9;-0.6159013347525409;-0.34304813460482037;-0.6072753325150998;0.698;0.12830744232155097
17:45.9;-0.5951369624309043;-0.3594442951385352;-0.42139772269573494;0.698;0.09014480497083584
17:45.9;-0.5793564294715503;-0.3608366117380366;-0.2521126867540783;0.657;0.05270491627702835
17:45.9;-0.5684161088570916;-0.3461944514828842;-0.10025694196719151;0.645;0.019728811985416404
17:45.9;-0.5613161303796035;-0.31520114445251857;0.03379327726145529;0.6709999999999999;0.005978959613067058
17:45.9;-0.5565354006428229;-0.26824843562754036;0.14974074018952738;0.6940000000000001;0.0223547577566231
17:45.9;-0.5523870618624406;-0.20645045016306832;0.2470307133077063;0.703;0.028171520286417742
17:45.9;-0.5473463966383127;-0.1316652280710168;0.3246123095560151;0.72;0.023393669159064386
17:45.9;-0.540312880978503;-0.04649758764420932;0.3808360247757305;0.745;0.009567836960382433
17:46.0;-0.5307795087409036;0.04574299588059288;0.41349922043596976;0.7020000000000001;0.010039531531258219
17:46.0;-0.5188956313260462;0.14113909023858043;0.42002472280025643;0.7020000000000001;0.0307611226906416
17:46.0;-0.5054230169864962;0.23530179336026757;0.39774945468377015;0.7020000000000001;0.047303126448019435
17:46.0;-0.4915926678295352;0.32352994282500525;0.3443061168969924;0.687;0.05476014836020914
17:46.0;-0.47887374930128845;0.40100323365125506;0.2580764086418888;0.72;0.04955839261651396
17:46.0;-0.46867847062503876;0.46303909760413453;0.13866337916992463;0.757;0.030092235138959852
17:46.0;-0.46204927814012786;0.5054226628568653;-0.012711560922481893;0.752;0.0029685330661822136
17:46.0;-0.459390465413608;0.524779507671171;-0.19300097769223973;0.753;0.04652842523861295
17:46.0;-0.460304145959603;0.5189318901387866;-0.39740506163632305;0.7979999999999999;0.09492675635466598
17:46.0;-0.46357559814735066;0.48716861278015405;-0.6197657607415539;0.932;0.13996757778969524
17:46.1;-0.4673288133690451;0.43036721638755804;-0.8532457668001263;1.932;0.1716073488231544
17:46.1;-0.46932904208185966;0.3509415255110689;-1.0911382552392122;1.932;0.1797181631569854
17:46.1;-0.46734941127755203;0.2526363724804824;-1.3275226969310079;1.932;0.1567398878927676
17:46.1;-0.45948839894483806;0.14021131977570858;-1.5574807509984103;1.849;0.10034143693362378
17:46.1;-0.4443559649243649;0.019035145592910693;-1.7767762500557418;1.5719999999999998;0.015028649563971397
17:46.1;-0.4211105511008987;-0.10539203078208625;-1.981144617887926;1.36;0.08792655848861483
17:46.1;-0.3893880525667391;-0.22792912565809426;-2.165491778012957;1.383;0.19219362837059087
17:46.1;-0.3491958391807638;-0.34419278214934745;-2.323355308751393;1.723;0.27924567163931735
17:46.1;-0.30082970891019273;-0.450776104149953;-2.446924085179636;2.262;0.3318196531761951
17:46.1;-0.24482103653119186;-0.5452810016743137;-2.5277314314381645;2.784;0.33744269245897207
17:46.2;-0.18189020549908244;-0.6262422226449281;-2.557889867060633;3.405;0.2913623964150369
17:46.2;-0.11289903781821621;-0.6930313849489643;-2.531534636459057;3.405;0.19807379255317326
17:46.2;-0.03882331962935631;-0.7457682691155102;-2.4460722601030938;3.2230000000000003;0.07082161907087611
17:46.2;0.03923581595840143;-0.785214575844183;-2.302912596340711;2.83;0.0709493623721531
17:46.2;0.12000915457920014;-0.8126267842747328;-2.1075511385286165;2.421;0.2055339791406412
17:46.2;0.20201324849034571;-0.829570115178679;-1.8690607631847076;2.042;0.31322496643227693
17:46.2;0.2835345395791845;-0.8377131053626535;-1.5991666496029162;1.6880000000000002;0.3798350215195022
17:46.2;0.3626732953139934;-0.8386307043032896;-1.3111034726394473;1.37;0.39877075907320103
17:46.2;0.43746244211077145;-0.8336486512863459;-1.0184261303021949;1.1159999999999999;0.37140979985064115
17:46.2;0.5060516917190384;-0.8237622825303065;-0.733906008034015;1.053;0.30594067965744287
17:46.3;0.566919352318438;-0.8096495547180299;-0.46862104800864973;1.117;0.2150998733085098
17:46.3;0.6190550760527286;-0.7917664306608847;-0.23133924731390879;1.117;0.1133902445188182
17:46.3;0.662059377856505;-0.7704818612040624;-0.02827091839568161;1.131;0.01442112952524266
17:46.3;0.6961313874360144;-0.7462041090777332;0.13679936954690688;1.102;0.07106126722843638
17:46.3;0.7219484710135324;-0.7194689053436316;0.26206845530704087;1.067;0.13612345977223222
17:46.3;0.740462387267097;-0.690982452058821;0.34707308720771046;1.028;0.17757873587105805
17:46.3;0.7526447764033004;-0.6616247088463018;0.39198167645906357;0.976;0.19519448082857394
17:46.3;0.7592175162489855;-0.6324202548401018;0.39695148918862927;0.94;0.1905940882358121
17:46.3;0.760404590133835;-0.6044805582283693;0.3616735372204888;0.919;0.16624316583830048
17:46.3;0.7557403125089681;-0.5789172207135661;0.28519936854445843;0.879;0.1247778841176477
17:46.4;0.7439630240069405;-0.5567248428046615;0.16609852402981154;0.7709999999999999;0.06879513474884065
17:46.4;0.7230169621587257;-0.5386395531277216;0.002939344588441815;0.7709999999999999;0.0011447146210948856
17:46.4;0.6901804297018068;-0.5249927924603397;-0.20497170955924168;0.716;0.07426939822231628
17:46.4;0.6423309022992807;-0.5155890878822972;-0.45670769370173203;0.695;0.15125190779376796
17:46.4;0.5763422922751542;-0.5096383476043833;-0.7488478989150631;0.737;0.2199561979201564
17:46.4;0.48958883153131005;-0.5057729296433234;-1.0747800670848067;0.865;0.26613787600807065
17:46.4;0.38051026087360734;-0.5021740549140263;-1.4243293740059437;1.128;0.2721642475995302
17:46.4;0.24917629284944756;-0.49681408486428136;-1.7838250502437045;1.473;0.2208273589717415
17:46.4;0.09776812737216106;-0.4877948394466703;-2.13666679169818;1.847;0.1018993229777769
17:46.4;-0.06913763467100612;-0.47373285046496816;-2.464411209912139;2.372;0.0807162904560165
17:46.5;-0.2446220776193394;-0.45410867937276844;-2.7483436228565314;3.8160000000000003;0.3052997750168891
17:46.5;-0.4199035038576019;-0.4294757710029094;-2.9713706363086243;3.8160000000000003;0.5358521700991458
17:46.5;-0.5851940432382859;-0.40144647957770746;-3.1198872744109876;3.8160000000000003;0.7329366742506539
17:46.5;-0.7307828282176378;-0.3724296844291569;-3.1852205053207814;4.081;0.8669062335251257
17:46.5;-0.848207970185914;-0.3451511377810244;-3.1644088306329645;4.051;0.9264121583293025
17:46.5;-0.9313847400573099;-0.3220463373285357;-3.06027129169585;3.815;0.9179254488730536
17:46.5;-0.9774835157041625;-0.30467149713021247;-2.8808207504585943;3.387;0.8579411633264512
17:46.5;-0.9873206484177729;-0.29328470271784385;-2.638147519853033;2.7910000000000004;0.7639179378005327
17:46.5;-0.9651300878785088;-0.28669334143046843;-2.346979709584619;2.231;0.649400765657378
17:46.5;-0.9177646838640171;-0.2823855923699441;-2.0231665264857916;1.86;0.5243309664591024
17:46.6;-0.8535335274643825;-0.27689628964244983;-1.6823031493667608;1.168;0.3975959752276503
17:46.6;-0.7809542260565189;-0.2663126297939758;-1.338653234728346;1.168;0.27841038723213857
17:46.6;-0.7076714383967528;-0.24681267685149152;-1.0044589028908693;1.168;0.17544108419637106
17:46.6;-0.6396929674459875;-0.21515028726293747;-0.689638395857287;0.851;0.0949150191135813
17:46.6;-0.5809817986364763;-0.16903567021155808;-0.40176671808656184;0.569;0.03945616254602888
17:46.6;-0.5333706540825576;-0.10738990476522609;-0.1462014358977449;0.449;0.008374217037983828
17:46.6;-0.4967415779102322;-0.03046919497736529;0.07371781990685089;0.484;0.001115742498436511
17:46.6;-0.4694079378678301;0.060134390486393914;0.2563936891610024;0.562;0.007237368304193535
17:46.6;-0.4486294433719305;0.16160246558032662;0.4016091135319352;0.633;0.029116509798662992
17:46.6;-0.4311818790381301;0.27009519267177184;0.5101109177524596;0.7090000000000001;0.05940759537303207
17:46.7;-0.4139008214718975;0.38103395675140334;0.5832122659909527;0.92;0.09197856260007688
17:46.7;-0.39413335137491456;0.48942906037468853;0.62249071291462;0.92;0.12007865511982733
17:46.7;-0.37006315544107155;0.5901978768411731;0.6296214499028424;0.92;0.1375159285305389
17:46.7;-0.3409020337377042;0.6784262192509013;0.6063445972879306;0.997;0.14023348538234975
17:46.7;-0.30694947009170964;0.7495699332440258;0.554546586098543;1.069;0.12759013054931204
17:46.7;-0.2695235393928867;0.7996266087186221;0.47641927126404104;1.112;0.10267702082222491
17:46.7;-0.23077658970407713;0.825298983453597;0.37463002744639334;1.09;0.0713519169768965
17:46.7;-0.19342484224229956;0.8241483659592742;0.2524127691300549;1.003;0.040237313296712734
17:46.7;-0.1604338979170146;0.7947256884176148;0.11349802657221919;0.877;0.014471105072427945
17:46.7;-0.13471031631199024;0.7366695425624372;-0.03816032648210739;0.757;0.00378691582668385
17:46.8;-0.11885022761992682;0.6507689249745265;-0.19884229375475856;0.972;0.015379265300048532
17:46.8;-0.1149782248269941;0.5390014478894082;-0.36559878731204165;0.972;0.022657410728351476
17:46.8;-0.1246713956629471;0.40456372911935673;-0.5366860730896809;0.972;0.027069117091176254
17:46.8;-0.14893041798761064;0.2518895353927726;-0.7117227861499533;1.1340000000000001;0.026699578416244284
17:46.8;-0.1881532254774828;0.0866098440026791;-0.8914993705772734;1.2209999999999999;0.014527803766650525
17:46.8;-0.2420717473996376;-0.08461223251286068;-1.0774660229813886;1.22;0.022068907951251927
17:46.8;-0.3096183330494423;-0.25441708930807194;-1.2709566042596725;1.173;0.10011604158275521
17:46.8;-0.3887138222710113;-0.41525409938166663;-1.4722330555294558;1.1079999999999999;0.23764051070756365
17:46.8;-0.47601993250681274;-0.5600101836012161;-1.6795017792415168;1.1840000000000002;0.4477148827638478
17:46.8;-0.5667547725118903;-0.682677364943083;-1.888129580030489;1.413;0.7305374519063542
17:46.9;-0.654702788288038;-0.7789486627577579;-2.0903122867858914;2.185;1.0660171703829509
17:46.9;-0.7325247705935442;-0.8466274837896818;-2.2753703819839863;2.185;1.411129199471675
17:46.9;-0.7923860531332305;-0.885769334561663;-2.430681238384378;2.721;1.706025320457399
17:46.9;-0.8268269995051406;-0.8985395735027877;-2.543110373352338;3.2739999999999996;1.8893702306811
17:46.9;-0.829741247384866;-0.8888345366647719;-2.600722479980962;3.6430000000000002;1.9180397915647025
17:46.9;-0.7972907562975171;-0.8617479756300471;-2.594492421379598;3.7460000000000004;1.7825815502739384
17:46.9;-0.7285737020615584;-0.822968163132792;-2.5197033514838854;3.6;1.510796394094756
17:46.9;-0.6258990567639817;-0.7781793435819305;-2.3767691786612275;3.265;1.1576332774068858
17:46.9;-0.49460417487741587;-0.7325295422657485;-2.171339353888401;2.8080000000000003;0.7867026727352002
17:46.9;-0.3424405608167651;-0.6902169789697403;-1.9136755585787477;2.2569999999999997;0.4523130814227026
17:47.0;-0.178626208698158;-0.6542327784268296;-1.61741199485601;0.953;0.18901581336482784
17:47.0;-0.012732288993140033;-0.6262738828520554;-1.2979517680503019;0.953;0.010349737688049278
17:47.0;0.1463736149486511;-0.6068116829713228;-0.9708773612605596;0.953;0.08623451133791837
17:47.0;0.29133334913916975;-0.5952816105302666;-0.6507195877985078;0.8959999999999999;0.11285129522107859
17:47.0;0.4167774970410465;-0.590352498296397;-0.3502113081473338;0.9079999999999999;0.08616796426179739
17:47.0;0.5195073951789786;-0.5902337877062757;-0.07995308520324361;0.914;0.02451607988534591
17:47.0;0.5984361010958038;-0.5929796322275378;0.15162768196077211;0.975;0.05380666277374606
17:47.0;0.6543388802182876;-0.5967565594249374;0.33811577288065464;1.002;0.1320277914860707
17:47.0;0.6894663887063534;-0.6000529572913921;0.47482422629077004;1.038;0.19644254365410835
17:47.0;0.7070769886429333;-0.6018158178435901;0.5584639529740433;1.0659999999999998;0.23764323080173488
17:47.1;0.7109399305710636;-0.6015031635333571;0.5868375769035448;0.935;0.2509508889533887
17:47.1;0.70485372515815;-0.5990479897319023;0.5586220675768461;0.935;0.23587325613250826
17:47.1;0.6922180052098923;-0.5947446533737243;0.4732955714496289;0.935;0.19485245361374898
17:47.1;0.6756884524986946;-0.5890805255285192;0.33124040239892566;0.845;0.13184524332378644
17:47.1;0.6569306787600782;-0.5825363818653044;0.13401482521175886;0.768;0.0512856001806174
17:47.1;0.636478078286029;-0.5753791882072717;-0.11525224752858129;0.703;0.04220724474099838
17:47.1;0.6136959940565189;-0.5674800550212914;-0.4114159782144418;0.639;0.14327982586195406
17:47.1;0.5868569913377217;-0.558200991250641;-0.7469122532136092;0.66;0.24467661879564134
17:47.1;0.5533384545328882;-0.5463970334655409;-1.1115048729782657;0.812;0.33605515100915834
17:47.1;0.509962530716374;-0.5305707355175304;-1.4922979453826428;1.08;0.403772838391012
17:47.2;0.4534944982183402;-0.5091880964146204;-1.8741078148186663;2.439;0.43275773248009836
17:47.2;0.3812758374234668;-0.48111296321968927;-2.2402042575709733;2.439;0.41093578374555756
17:47.2;0.2918978424389168;-0.44605557216157377;-2.573304500699537;2.439;0.3350510887212269
17:47.2;0.18576871613632193;-0.4049020441136439;-2.856672520538262;3.031;0.21487357329009546
17:47.2;0.06542276044283679;-0.3598132444142363;-3.0752750744571036;3.4760000000000004;0.07239190050346193
17:47.2;-0.06455112263614683;-0.31402645248791616;-3.2169942600147587;3.803;0.06521091871264388
17:47.2;-0.1980185523764667;-0.2713550187843202;-3.273796476659191;3.9960000000000004;0.17591197988478702
17:47.2;-0.32817679497574137;-0.23547683903477806;-3.242643457517681;4.019;0.2505851124152537
17:47.2;-0.4485870366003198;-0.20919555922864183;-3.1259258990287107;3.8989999999999996;0.2933444385528215
17:47.2;-0.5540822238359088;-0.1938777717431108;-2.931286225946978;3.4419999999999997;0.31489115670293477
17:47.3;-0.6413241576622334;-0.18920087001220506;-2.6708238430346394;2.3209999999999997;0.32407533089703344
17:47.3;-0.7089262983154132;-0.19323501345520946;-2.359827782347318;2.3209999999999997;0.3232713514032574
17:47.3;-0.757216081188643;-0.20278302022873962;-2.0153054397770136;1.929;0.30945128672704586
17:47.3;-0.7877986025233524;-0.21385665060165035;-1.654571027120846;1.6159999999999999;0.27875545952939784
17:47.3;-0.8030738240934069;-0.22218239840471796;-1.2940316124920799;1.32;0.23089259620424651
17:47.3;-0.8057991544965298;-0.22366882565031593;-0.94819968680478;1.047;0.17089606874752217
17:47.3;-0.7987336403829233;-0.21480098173500808;-0.6289362769225836;0.846;0.10790582350226986
17:47.3;-0.7843681672803906;-0.1929490127996179;-0.34494238082182216;0.768;0.05220463666118338
17:47.3;-0.764736438697907;-0.1565851063554652;-0.10152983941605062;0.778;0.012157826324380233
17:47.3;-0.7413038462041309;-0.10539964395207738;0.09929589757285921;0.782;0.007758302396404809
17:47.4;-0.7149335499930244;-0.04030904020500763;0.2584323447084721;0.685;0.0074475770174470685
17:47.4;-0.6859284360072326;0.03663371384826632;0.37899796827686466;0.685;0.009523501137730093
17:47.4;-0.6541470591911189;0.12239020411987758;0.46547004353475574;0.685;0.037266086571681574
17:47.4;-0.6191883196611736;0.21311490410754255;0.5227715784777467;0.7040000000000001;0.06898402754356106
17:47.4;-0.5806287870652614;0.3043572113477;0.5554302822586259;0.76;0.09815483880543116
17:47.4;-0.5382813306904412;0.39130382095251326;0.5669054870856876;0.841;0.11940817659937863
17:47.4;-0.492430260259505;0.46906263063230297;0.5591490034938916;0.91;0.12915259092505266
17:47.4;-0.443990930257608;0.5329627276353932;0.5324360429396959;0.914;0.12599066947923165
17:47.4;-0.394546185476694;0.5788357333320778;0.48547026593569775;0.882;0.11087045196892659
17:47.4;-0.3462322569607339;0.6032551532541865;0.4157337360573453;0.867;0.08683280599615575
17:47.5;-0.30148144095996865;0.6037293660242422;0.3200224285734128;0.7020000000000001;0.058248306046428576
17:47.5;-0.26267349781508254;0.5788552400552341;0.19509154689465133;0.7020000000000001;0.02966365617259152
17:47.5;-0.23178571315933233;0.5284370521792047;0.03833690580656712;0.7020000000000001;0.004695663666347858
17:47.5;-0.21013243999201323;0.45356406887813466;-0.1515589270280785;0.555;0.01444485770773781
17:47.5;-0.19824508118366327;0.3566295449767548;-0.37409418671085715;0.47200000000000003;0.026448478863515784
17:47.5;-0.19589999247106368;0.24127280786959035;-0.6265970475121742;0.695;0.029616323273850803
17:47.5;-0.2022721581981299;0.11223077698143206;-0.9040763103846893;1.044;0.020523582308928836
17:47.5;-0.2161577507927637;-0.02491711895617889;-1.1992355525336598;1.25;0.006459116732007816
17:47.5;-0.2361723552888339;-0.1641302101055712;-1.5025896422928695;1.278;0.058244909793601064
17:47.5;-0.26083330454698833;-0.2994126097872704;-1.802664546902871;1.256;0.14078229731536226
17:47.6;-0.2884966554230649;-0.42538797826682007;-2.0863490612700786;2.345;0.25604303459659444
17:47.6;-0.31720862055761156;-0.5378259502109093;-2.339503044362196;2.345;0.3991263028371097
17:47.6;-0.3445835169626756;-0.6339841683477194;-2.5478494381968044;2.345;0.5566044479963572
17:47.6;-0.3678058101676433;-0.7126825630027076;-2.69809034625928;2.9360000000000004;0.7072471509698641
17:47.6;-0.38379605255579413;-0.7741233162532456;-2.779178689326037;3.405;0.8257091989586791
17:47.6;-0.3895134029506027;-0.8195493711447764;-2.78364541838305;3.6839999999999997;0.8886105015213563
17:47.6;-0.3823190167667675;-0.8508582782441739;-2.7087678756679203;3.705;0.8811602947549754
17:47.6;-0.3603173932358441;-0.8702581924315724;-2.557292231443908;3.451;0.8018879854273997
17:47.6;-0.32261702300069245;-0.8799986064761623;-2.337484849139933;2.998;0.6636178640644879
17:47.6;-0.2694724914908607;-0.8821702887557417;-2.062436713880504;2.458;0.490283745946412
17:47.7;-0.2022788302999924;-0.8785647823298355;-1.7487113012621875;1.359;0.3107723277277636
17:47.7;-0.12341311747758366;-0.8705933557675405;-1.4145819873158352;1.359;0.1519864233417407
17:47.7;-0.035965394390293955;-0.859262769552673;-1.0782054757163018;1.025;0.0333205648593289
17:47.7;0.05657027572501366;-0.8451941349487229;-0.7560469342987007;0.87;0.03614877019624115
17:47.7;0.1505883732096424;-0.828668390357155;-0.461734506034708;0.8240000000000001;0.057618844658935874
17:47.7;0.2426217868923463;-0.8096890370404596;-0.20540118542448754;0.856;0.04035069335865494
17:47.7;0.3295418148680398;-0.7880602058314768;0.006488700623517492;0.882;0.0016851077035520052
17:47.7;0.40871048182465225;-0.7634797778921945;0.17088404950396777;0.925;0.053323032681985905
17:47.7;0.4780889740929936;-0.7356431083550583;0.2875719132077375;0.965;0.10113986403522372
17:47.7;0.5363010172862537;-0.7043460734591457;0.3584200740328959;0.996;0.13539014202884286
17:47.8;0.5826445140401296;-0.6695715832515996;0.38657293354188416;0.927;0.15081068705853473
17:47.8;0.6170431745693828;-0.6315485361358805;0.37571704486948054;0.927;0.14641419477295758
17:47.8;0.6399338980832178;-0.5907858812180588;0.3295043194264244;0.927;0.12457369199043336
17:47.8;0.6520950509457856;-0.548090152513388;0.25118542630699847;0.9059999999999999;0.08977539849455023
17:47.8;0.6544306137546282;-0.5045630204047953;0.14346674148519592;0.843;0.04737293139087302
17:47.8;0.6477306371603881;-0.4615632930207257;0.008572514119198456;0.743;0.0025629132808887485
17:47.8;0.6324334355715789;-0.4206228206281469;-0.15152637541911046;0.652;0.04030843051453419
17:47.8;0.6084251729403243;-0.38332155164456094;-0.33477352548941836;0.6;0.07807671230529635
17:47.8;0.5749225395398887;-0.3511384114037392;-0.5386538534180415;0.599;0.10874203254091641
17:47.8;0.5304826758672857;-0.32529696084663473;-0.7598744140318527;0.695;0.13112727403595478
17:47.9;0.4731674802844239;-0.3066239082297823;-0.9941772957621142;1.204;0.14423967814000668
17:47.9;0.4008615986294288;-0.29544141148838277;-1.2363159939264716;1.204;0.14641828352058464
17:47.9;0.31171272255458593;-0.2915185484049825;-1.480163742977564;1.51;0.13450253912073357
17:47.9;0.20463803779225645;-0.29410372090630277;-1.718898411055432;1.7719999999999998;0.1034515714487943
17:47.9;0.07982569833692539;-0.3020465279846425;-1.9452324000829582;1.959;0.04690164434260795
17:47.9;-0.06085009136743419;-0.31400281357867305;-2.151678498755529;2.1519999999999997;0.04111233601956839
17:47.9;-0.21359454818772525;-0.3286962056125463;-2.330848363885616;2.394;0.1636435435342203
17:47.9;-0.3727428608562798;-0.34517135832787577;-2.475785801846219;2.6180000000000003;0.3185349963731714
17:47.9;-0.5311839499385329;-0.3629367913569045;-2.580332670162694;2.759;0.497452526116313
17:47.9;-0.681171989384924;-0.3819072996412785;-2.6395028098678783;2.9619999999999997;0.6866522840455035
17:48.0;-0.8154068799353029;-0.40213668540565534;-2.649821241678311;3.174;0.8688896871274567
17:48.0;-0.9281220375290089;-0.42343576224481405;-2.6095914133517395;3.174;1.0255695883308988
17:48.0;-1.0158568848693277;-0.44502741890805275;-2.5190743218962135;3.0069999999999997;1.1388336175676168
17:48.0;-1.0776805896984454;-0.46536889278421345;-2.380578975387904;2.765;1.1939056414419176
17:48.0;-1.1148409762014062;-0.48219631127568047;-2.198464224460957;2.556;1.18183326379822
17:48.0;-1.13002062841056;-0.49276222286000665;-1.9790414144017376;2.37;1.1019925532975776
17:48.0;-1.126487302927641;-0.49417809372090044;-1.7303533314434012;2.1630000000000003;0.9632623464110492
17:48.0;-1.107398081342468;-0.48376127694804105;-1.461799069485455;1.883;0.7831096033493005
17:48.0;-1.0753960244314527;-0.45931672173812776;-1.1835903647061365;1.605;0.5846313555115608
17:48.0;-1.0325007894306821;-0.41933113587809967;-0.9060651865861334;1.392;0.3922897374839198
17:48.1;-0.9802039044971519;-0.36309406641184533;-0.6389362298129385;1.067;0.2274013793939247
17:48.1;-0.9196562692107219;-0.2907752194937101;-0.3905973277420251;1.067;0.1044509022349443
17:48.1;-0.8518628802360401;-0.20348175814224692;-0.16762249674563148;0.9279999999999999;0.02905544163396861
17:48.1;-0.7778424207044049;-0.10329909290077821;0.025457305776504593;0.807;0.002045505121562936
17:48.1;-0.6987439954639767;0.006704264016428079;0.18610215370286828;0.7190000000000001;0.0008718074915220418
17:48.1;-0.6159359069539865;0.12253761136614169;0.31350001497315905;0.6859999999999999;0.0236615123176403
17:48.1;-0.531086661080086;0.23943752011925434;0.40817369461172925;0.706;0.051904213190665065
17:48.1;-0.4462418079273039;0.35211004965447723;0.4715383775098424;0.741;0.07409104527015059
17:48.1;-0.3638739527216056;0.45504793708974367;0.5054847442992616;0.784;0.08369821023651051
17:48.1;-0.28686668323213815;0.5428890131166523;0.5120489751900945;0.826;0.07974485376258539
17:48.2;-0.21839690096431585;0.6107777201933058;0.49320779949012833;0.897;0.0657899556867949
17:48.2;-0.16170694401392582;0.6546935030711287;0.4508043661612827;0.882;0.04772597556873281
17:48.2;-0.11979866299478094;0.6717122841581323;0.3865773898642581;0.882;0.031107972851127076
17:48.2;-0.09510788948006547;0.6601753555476991;0.302246765714124;0.836;0.018977435092593222
17:48.2;-0.0892126868173256;0.619756267694582;0.1996079095274266;0.7559999999999999;0.011036345632592004
17:48.2;-0.10261562730442053;0.5514307566904294;0.08059678097328668;0.606;0.004560602138870748
17:48.2;-0.13464153372947302;0.4573626487342617;-0.052695298875537894;0.47200000000000003;0.0032449769524630617
17:48.2;-0.18348940294958035;0.3407256269976658;-0.1980507334079845;0.494;0.012382041119174342
17:48.2;-0.24644477873602413;0.20548524910502133;-0.35316131572096643;0.6779999999999999;0.017884359814267375
17:48.2;-0.3202015012035126;0.056159596265352205;-0.5156161314955097;0.858;0.009272008836056047
17:48.3;-0.4011896031576254;-0.10243344691517742;-0.6827982682127473;0.9440000000000001;0.02805975455098611
17:48.3;-0.48579500303289636;-0.26542942472411973;-0.8516846809916118;0.9440000000000001;0.10981987495183132
17:48.3;-0.570404387170422;-0.4281408810416814;-1.0185964019681828;0.9520000000000001;0.24875492811131
17:48.3;-0.6512983342721778;-0.586221166132535;-1.1789957933897122;1.087;0.45014633446700497
17:48.3;-0.7245065336237589;-0.7357584348347085;-1.3274503898854217;1.351;0.7076130852250396
17:48.3;-0.7857816145761978;-0.8733038462276544;-1.4578603230271068;1.682;1.0004218130065223
17:48.3;-0.8308041333408532;-0.9958503621967978;-1.5639776888734462;2.093;1.2939672586099185
17:48.3;-0.8556164266674919;-1.1008065453900278;-1.6401530323391553;2.455;1.544807923310967
17:48.3;-0.857172799008704;-1.1860294058306071;-1.6821607349191663;2.693;1.710138677020853
17:48.3;-0.8338535481480348;-1.2499553829272039;-1.6879132102711574;2.7960000000000003;1.759277726888788
17:48.4;-0.785821920972815;-1.2918064132830196;-1.6578916305441085;2.589;1.6829751947121623
17:48.4;-0.7151633978625165;-1.3117918949602232;-1.5951969728249942;2.589;1.496526939655799
17:48.4;-0.6257939516212051;-1.3112109355831212;-1.5052261668742761;2.329;1.2351101292927682
17:48.4;-0.5231432636368093;-1.2923867463189653;-1.3950512116161193;1.975;0.9431988957374335
17:48.4;-0.41362944168288396;-1.2584204206875982;-1.272610156951526;1.578;0.6624187029417725
17:48.4;-0.30397260911982615;-1.2128117473962752;-1.145838950950636;1.3;0.4224267651140334
17:48.4;-0.20044488079879633;-1.1590376954274264;-1.0218901985150028;1.188;0.23740877307132802
17:48.4;-0.10819126776036066;-1.1001875374272028;-0.9065713630842613;1.185;0.10790980984923704
17:48.4;-0.030750151785527653;-1.038726211381967;-0.8040772422951077;1.199;0.025683022080808048
17:48.4;0.03014845777075109;-0.9764130400630894;-0.7170085848998791;1.216;0.021106830734473836
17:48.5;0.07449958856417899;-0.9143622308916884;-0.6465995931653248;1.102;0.04404611211261655
17:48.5;0.10371210403881763;-0.8532060478681369;-0.5930542559040555;1.102;0.05247806306629104
17:48.5;0.12016639947665173;-0.7933138394971779;-0.555911299817716;1.102;0.05299483950863382
17:48.5;0.12673957781093648;-0.7350219272511831;-0.5343864692029358;1.07;0.049781502975588116
17:48.5;0.12636613117759335;-0.6788308235585461;-0.5276556211951331;1.031;0.04526294551000777
17:48.5;0.12166580990968005;-0.6255303356611516;-0.5350486362139195;0.98;0.04072022686845184
17:48.5;0.11464789936760975;-0.576225984429551;-0.5561348870779134;0.915;0.036739993922128136
17:48.5;0.10649205139856807;-0.5322586239027449;-0.5906965267737492;0.847;0.03348145456493998
17:48.5;0.09740540197990831;-0.49502734697051604;-0.6386023843913706;0.7809999999999999;0.030792345441111403
17:48.5;0.08656212797562916;-0.46574195765399523;-0.699611666886022;0.721;0.02820527457115325
17:48.6;0.07214094904439008;-0.4451472270472652;-0.7731486421159499;0.823;0.02482838786181232
17:48.6;0.05148282185977741;-0.43327734181142796;-0.8580877013744511;0.823;0.019140796192032027
17:48.6;0.021390240858284268;-0.4293065722542352;-0.9525745233869871;0.823;0.008747464206991015
17:48.6;-0.021422635219247414;-0.4315490882781056;-1.0539050332467603;0.919;0.009743266347126557
17:48.6;-0.07974494678109728;-0.43762888258765603;-1.1584982697903679;1.071;0.04043007424413479
17:48.6;-0.1552047331082134;-0.4448012520281983;-1.2620062429431227;1.35;0.08712292860753061
17:48.6;-0.24763346165730665;-0.4503669749436304;-1.3595789919361685;1.594;0.1516283155920038
17:48.6;-0.3546168476971105;-0.45208942855197615;-1.4462548099706152;1.74;0.23186144229121558
17:48.6;-0.47140436624820514;-0.4485187517042599;-1.5174024875801126;1.8259999999999998;0.32083001914805404
17:48.6;-0.5913051437620648;-0.4391500843501402;-1.569127546818237;1.919;0.40745802349869953
17:48.7;-0.7065775175041155;-0.42439118662555403;-1.5985694043091072;2.214;0.47935544778973654
17:48.7;-0.8096341438077628;-0.4053781276335842;-1.6040513088349742;2.214;0.526462429117896
17:48.7;-0.8942257192494928;-0.38372215539895116;-1.5850891926970287;2.214;0.5438983444062551
17:48.7;-0.9562687772611479;-0.36126333188222765;-1.5422970226050645;2.0580000000000003;0.5328094013158037
17:48.7;-0.9941525073533112;-0.3398634142387258;-1.4772305703089428;1.83;0.49912085281868745
17:48.7;-1.008552815636819;-0.3212350279892754;-1.3922079009950068;1.653;0.4510509850904237
17:48.7;-1.0018981382062593;-0.3067917711829715;-1.2901459794183874;1.551;0.3965574649241162
17:48.7;-0.9776769897602957;-0.2975054019568906;-1.1744389527283274;1.469;0.3416022297837185
17:48.7;-0.9397695779218718;-0.2937672509344224;-1.0488679451959888;1.368;0.2895646713280966
17:48.7;-0.8919326397979578;-0.2952697492136713;-0.9175009710195245;1.2429999999999999;0.24163372263037655
17:48.8;-0.8374949144124535;-0.3009381455033339;-0.7845410688949804;1.0270000000000001;0.1977311543147353
17:48.8;-0.7792601031287171;-0.3089369945377343;-0.6541132638570007;1.0270000000000001;0.1574727147408547
17:48.8;-0.7195752166499437;-0.316755184180391;-0.5300194775317355;0.977;0.12080690504708916
17:48.8;-0.6604989433423547;-0.3213635449651505;-0.4154975632360406;0.961;0.08819362989220184
17:48.8;-0.6039866340121663;-0.31945671268088327;-0.31299959274467626;0.892;0.06039251540234584
17:48.8;-0.5519983090433848;-0.3078134982863573;-0.22399788390374592;0.737;0.03806004729300533
17:48.8;-0.5064579431852112;-0.28379348695285894;-0.14884893633486168;0.742;0.021393978088158364
17:48.8;-0.4690627146366839;-0.2459124718500851;-0.08676996183142491;0.87;0.010008773801831513
17:48.8;-0.4410317398480547;-0.1943414638397009;-0.03598739332032673;0.7170000000000001;0.0030845066131670327
17:48.8;-0.422933685462114;-0.13113367566516565;0.005909434021134373;0.389;0.0003277422263689636
17:48.9;-0.41469735507465266;-0.06006596957986654;0.0414311032375078;0.601;0.0010320155835150337
17:48.9;-0.4158049736159335;0.013846267849843477;0.07254855349040405;0.601;0.0004176871995479519
17:48.9;-0.4255702722523901;0.08497149530285734;0.1000673739629401;0.601;0.0036185705719149986
17:48.9;-0.44338217668298907;0.14764299319366309;0.12313019149007981;0.6509999999999999;0.008060382049082241
17:48.9;-0.4688423793694687;0.19662264165086274;0.13893383817979996;0.639;0.012807619644589222
17:48.9;-0.5017820401667762;0.22745140832852986;0.14272145541373524;0.634;0.016288946953507553
17:48.9;-0.5421762439430622;0.2367094007809139;0.1280915160490406;0.62;0.016439036375410193
17:48.9;-0.5899900504393365;0.22220170837555628;0.08763792222353209;0.588;0.011489050910826012
17:48.9;-0.6449968982437165;0.1830803282865703;0.013890139870117509;0.6;0.001640234444150545
17:48.9;-0.7066119603580575;0.1199079789318624;-0.09952804862920946;0.674;0.008432853515347042
17:49.0;-0.773774647906255;0.03466325731912924;-0.25664671798486594;0.935;0.006883662708803326
17:49.0;-0.8448843657522443;-0.06932130060099863;-0.45796350360947297;0.935;0.02682222771762761
17:49.0;-0.9177518330154262;-0.1875055868536884;-0.6995015995710046;0.986;0.12037275068683678
17:49.0;-0.989515688922638;-0.31439914920561585;-0.9723005112277211;0.9109999999999999;0.3024854996942841
17:49.0;-1.0565153847581412;-0.4439497889915248;-1.262524267297949;1.012;0.5921741072668594
17:49.0;-1.114185222487795;-0.5700403375126251;-1.5523306624943165;1.565;0.9859325813143179
17:49.0;-1.157096318858732;-0.687004491393556;-1.8215327314267553;2.405;1.4479916845733996
17:49.0;-1.1792750011458615;-0.7900441902017642;-2.04989501377943;3.2569999999999997;1.90984488128107
17:49.0;-1.174841806415562;-0.8754769739448577;-2.2196956865816135;3.8989999999999996;2.2830612273508395
17:49.0;-1.1388775697412399;-0.9408285127194748;-2.318045380536179;4.1930000000000005;2.4837589447953645
17:49.1;-1.0683104412388083;-0.9848425451957682;-2.3384661104870714;3.49;2.46034129106755
17:49.1;-0.9625962052690961;-1.007467741289151;-2.281423314840526;3.49;2.212489253155242
17:49.1;-0.8240350328312274;-1.0098237155317842;-2.1537930362485693;2.7739999999999996;1.792236054654577
17:49.1;-0.657673525385286;-0.9941057153391096;-1.9674831509880457;2.124;1.2863346021534097
17:49.1;-0.4708339079734346;-0.9633889067840665;-1.7375419407112491;1.555;0.7881423588861852
17:49.1;-0.2723780767831458;-0.921324993086435;-1.4801272835715362;1.171;0.37143606162009973
17:49.1;-0.07184105615573758;-0.871762659843907;-1.2106944222046778;0.965;0.07582379425941019
17:49.1;0.12144449733186476;-0.8183527642129459;-0.9426616404410221;0.8740000000000001;0.09368589932953611
17:49.1;0.2991398725373594;-0.7642107891258606;-0.6866568121368717;0.932;0.15697381092437482
17:49.1;0.4545384542749379;-0.7116999795205987;-0.4503041459392103;1.01;0.14567114356267918
17:49.2;0.5829963417115778;-0.6623684967533217;-0.23842877351541497;1.067;0.09207127619154491
17:49.2;0.6821171488351767;-0.6170324232565375;-0.05354574087147536;1.067;0.02253678105713354
17:49.2;0.7516783234876712;-0.5759626038825353;0.10346988890242861;1.067;0.04479610930691298
17:49.2;0.7933215656761154;-0.5391194275831357;0.23261571427495176;1.033;0.09948859382231212
17:49.2;0.8100623816803337;-0.5063830330949971;0.3339933464289191;0.976;0.13700468720056375
17:49.2;0.8056917832007707;-0.47773786872677904;0.40714465398284055;0.8809999999999999;0.1567138351589483
17:49.2;0.7841473699674798;-0.4533855508345409;0.45058290317355426;0.813;0.16019172364070713
17:49.2;0.7489272313226306;-0.43377756705252685;0.46158074787940695;0.76;0.14995273699615697
17:49.2;0.7026085690841639;-0.4195746247187221;0.4362517060896725;0.706;0.12860557497149916
17:49.2;0.646514490314473;-0.41154705168164724;0.3699368538687253;0.637;0.09842951760994986
17:49.3;0.5805557534180563;-0.41043286633173176;0.25787935526549216;0.5329999999999999;0.06144727665448265
17:49.3;0.5032674880750762;-0.41677295435125666;0.09613492905411615;0.5329999999999999;0.020164135808793223
17:49.3;0.41205737211532134;-0.4307466951911747;-0.11737184916898165;0.511;0.020832605481656212
17:49.3;0.30366572795472163;-0.4520320758803121;-0.3817743261354415;0.456;0.052404882568331326
17:49.3;0.17480960685562114;-0.4797118989108546;-0.6923368683199711;0.39399999999999996;0.05805815711645035
17:49.3;0.022959094655754863;-0.512246933831457;-1.0398566370727036;0.501;0.012229468822511197
17:49.3;-0.152820516322675;-0.5475372912433168;-1.4105663853900219;0.878;0.1180290457494919
17:49.3;-0.3510467898983077;-0.5830878586323179;-1.7866621850248652;1.391;0.36571388550382455
17:49.3;-0.567143556950768;-0.6162767156104798;-2.1474977878640273;1.985;0.7505877757967813
17:49.3;-0.7930999415930062;-0.6446915466049389;-2.4713931503661066;2.7539999999999996;1.2636352495642298
17:49.4;-1.0177088818334907;-0.6664503268001735;-2.7379011962610127;4.448;1.856988103557375
17:49.4;-1.2275427325705173;-0.6803995993996699;-2.9302215269160636;4.448;2.447378403235347
17:49.4;-1.4085547830220633;-0.6861331279948275;-3.037275772127533;4.448;2.935393695007062
17:49.4;-1.547976401100146;-0.68385901459927;-3.054949000207778;4.649;3.2339617294746934
17:49.4;-1.636180199629888;-0.6741875794922221;-2.986234417701251;4.5280000000000005;3.2940923964243707
17:49.4;-1.6682162491070334;-0.6579111581308972;-2.8403229193373076;4.021;3.117362576145227
17:49.4;-1.6446822034611;-0.6358301061477644;-2.6309014019463164;3.221;2.751234780498994
17:49.4;-1.5716461346647757;-0.6086456605516393;-2.374066483278288;2.408;2.270974070174891
17:49.4;-1.4596019338795037;-0.5769011624741757;-2.0863148494215005;1.899;1.7567731830285567
17:49.4;-1.321742484212404;-0.5409394336092662;-1.7829840287998096;1.681;1.2748026115627815
17:49.5;-1.1720017898687642;-0.500860674131455;-1.4773093131245925;1.439;0.8671947586601719
17:49.5;-1.0232876037874257;-0.4564921898983769;-1.1800468106444617;1.439;0.5512267693148367
17:49.5;-0.8861637281659298;-0.40739709982590666;-0.8994864811683408;1.196;0.32473308870092
17:49.5;-0.7680595518602857;-0.3529429210149004;-0.6416530285645614;0.895;0.17394006125480016
17:49.5;-0.672966583166052;-0.29243139351449093;-0.4105352010809715;0.639;0.0807919135679572
17:49.5;-0.6015413576990386;-0.22527491255138793;-0.2082675840959951;0.529;0.0282227936676648
17:49.5;-0.5515331084318239;-0.15119624440668578;-0.03527429871309012;0.569;0.0029415144100316953
17:49.5;-0.5184534725683264;-0.0704218231786914;0.10956912106336095;0.628;0.004000416685840248
17:49.5;-0.49639736559064673;0.016165801653069033;0.22869871266312083;0.6859999999999999;0.0018352297210444892
17:49.5;-0.47892189687691894;0.10695034441758475;0.3255191742422614;0.75;0.016673372643659014
17:49.6;-0.45989801751111087;0.19960167844062254;0.40395598707133906;0.847;0.037081711918402115
17:49.6;-0.43425979463816533;0.2911888154486671;0.4679293974852739;0.847;0.059170418751896915
17:49.6;-0.3985856311224715;0.3783500192381366;0.5207960328404203;0.84;0.07853858386361405
17:49.6;-0.35146115540522255;0.4574762786601974;0.5648171360560399;0.81;0.09081420312454382
17:49.6;-0.2936000273821606;0.5248854614780557;0.6007177802764692;0.768;0.09257444604172312
17:49.6;-0.22773175976941132;0.5769876254398691;0.6273950266590737;0.743;0.08243870725508122
17:49.6;-0.1582945202494198;0.6104526052461879;0.6418144383298964;0.753;0.062019364999499504
17:49.6;-0.09098719133716546;0.6223953125994102;0.6391104283730449;0.757;0.03619282445022068
17:49.6;-0.03223594160243261;0.6105926084022855;0.6128862883837459;0.77;0.01206345777118635
17:49.6;0.011380045376443201;0.5737341289027567;0.5556994356161515;0.778;0.0036282285329792925
17:49.7;0.033713344592804326;0.5116906105989575;0.45971605644348834;0.6629999999999999;0.007930470610773057
17:49.7;0.029622306181866016;0.42576506204975867;0.3175240209599573;0.6629999999999999;0.004004658367674064
17:49.7;-0.004487198115544989;0.31888057381769663;0.1230917675735947;0.6629999999999999;0.00017612958653414243
17:49.7;-0.07017796669388264;0.19564941977844752;-0.12716708518084122;0.5379999999999999;0.0017460394911012543
17:49.7;-0.16658280643039008;0.06225943457614095;-0.4333177867139635;0.306;0.004494091007215614
17:49.7;-0.29011874225104495;-0.07387775207222048;-0.7909585117936915;0.19399999999999998;0.016952867294594706
17:49.7;-0.4343462255909912;-0.20473176332431536;-1.190564885319202;0.425;0.10587034983048337
17:49.7;-0.5900207203575125;-0.32246663213989485;-1.6172913704283198;0.937;0.30770908196513197
17:49.7;-0.7454212626547561;-0.420352937355422;-2.0513953154199767;1.6130000000000002;0.6427842436723024
17:49.7;-0.8870874119719248;-0.493607012982918;-2.4694136808392977;2.3369999999999997;1.0812885090888005
17:49.8;-1.0010735260941954;-0.5399537617866648;-2.8461044596461753;4.476;1.5384145665473128
17:49.8;-1.0746440261429266;-0.559772098773601;-3.1569333241584308;4.476;1.8990713680961913
17:49.8;-1.0980582882428802;-0.5558346402230702;-3.380635577766687;4.476;2.063333175325088
17:49.8;-1.0659800360785636;-0.5327721639051979;-3.501348458017653;4.531000000000001;1.9885015390872482
17:49.8;-0.9781991834283187;-0.4963887214206675;-3.510047253088416;4.465;1.7043632618104672
17:49.8;-0.8395959094874735;-0.4529012522118699;-3.4052649424726846;4.381;1.2948657474191292
17:49.8;-0.6594393246978227;-0.4081846433428786;-3.1931274093512045;3.898;0.8595037019048519
17:49.8;-0.4501953535319798;-0.36713841969728894;-2.8866960745989436;3.208;0.47712470473961527
17:49.8;-0.22605150380661065;-0.3332700226432855;-2.504639707389611;2.477;0.18869001235692856
17:49.8;-0.0013619082780541312;-0.30852638112251785;-2.0693709415596824;1.805;0.0008695178684795669
17:49.9;0.21080231810776748;-0.2933602522170684;-1.6049024021616776;1.047;0.0992488034889104
17:49.9;0.39983255790734534;-0.28698674533058033;-1.134752305610816;1.047;0.1302090193746057
17:49.9;0.5583642626227463;-0.28775231717883193;-0.6802306565765855;0.992;0.10929307480464333
17:49.9;0.6826035430931551;-0.29352887779497544;-0.25932268289399174;1.01;0.051958891651208275
17:49.9;0.7722268841732455;-0.3020691115520142;0.11380162022625179;1.002;0.02654603609109529
17:49.9;0.8299395886806751;-0.31129065293920954;0.4287628618283213;0.995;0.11077193001712625
17:49.9;0.8607970535368273;-0.3194796174754193;0.6786022247963338;1.02;0.18662043897985583
17:49.9;0.8713917988971033;-0.32541693019233064;0.8592550956180283;1.105;0.2436552247140714
17:49.9;0.8690013712299429;-0.32843527269339157;0.9690337981950656;1.25;0.2765726169251727
17:49.9;0.8607818314173701;-0.3284142935136892;1.0082035952549948;1.36;0.2850121564556622
17:50.0;0.8530777355833278;-0.32572115247867056;0.9786421964593277;1.087;0.2719308672145868
17:50.0;0.8508939505948087;-0.3211037505093481;0.8835411364313117;1.087;0.24140573801024934
17:50.0;0.8575386047673987;-0.31554456962184074;0.7271515550500726;1.087;0.196761139063208
17:50.0;0.8744206910320231;-0.3100825550906184;0.5146156173481004;0.9329999999999999;0.13953421756870876
17:50.0;0.9009831515967012;-0.3056113987781384;0.2518990367584567;0.852;0.06936058144984368
17:50.0;0.9347599687874091;-0.3026717727122594;-0.05419915019634511;0.845;0.015334319328195841
17:50.0;0.9715499750827192;-0.3012724770904861;-0.39598631294243497;0.929;0.11590569575460771
17:50.0;1.0057029260799193;-0.30078922970435107;-0.7647871150951066;1.093;0.23135162679714893
17:50.0;1.0305192807359709;-0.29998736773230095;-1.150860654475592;1.324;0.35578024649469403
17:50.0;1.0387723578990888;-0.2971954052981166;-1.5433762177469161;1.5659999999999998;0.4764685932002516
17:50.1;1.0233632956535754;-0.29062788222540537;-1.930499166822883;2.5069999999999997;0.5741650223624962
17:50.1;0.9780987927007702;-0.27881575418180593;-2.2996016361988976;2.5069999999999997;0.6271228733334334
17:50.1;0.898532050659279;-0.2610507075908199;-2.6375644235525018;2.5069999999999997;0.6186735141863834
17:50.1;0.7827583013471126;-0.23772036827144669;-2.9311585393726185;2.89;0.5454229217911437
17:50.1;0.6320299010399154;-0.21043161957607662;-3.167590231941146;3.3089999999999997;0.42128657303291756
17:50.1;0.4510339597648427;-0.1818652957964992;-3.3353253779588132;3.685;0.27358815064646236
17:50.1;0.24767429356355783;-0.15535946052043997;-3.425194546178585;4.081;0.13179650122120865
17:50.1;0.03228608881287411;-0.13429295893824772;-3.4315987735328655;4.371;0.01487870674266748
17:50.1;-0.18361315943422649;-0.12141658741133336;-3.353505921062271;4.386;0.07476199868832617
17:50.1;-0.3887681130761736;-0.11830683711397968;-3.1949106873231896;4.015;0.1469464851824219
17:50.2;-0.5734963203495409;-0.1250783095232791;-2.9645541119099668;2.7119999999999997;0.2126532481197756
17:50.2;-0.7305973780140511;-0.1404027648083467;-2.674948166991895;2.7119999999999997;0.2743905437376629
17:50.2;-0.8557352784670651;-0.16178245090623256;-2.3410075051910573;2.208;0.324095986576423
17:50.2;-0.9473260287291412;-0.18596251863213414;-1.9786659787648055;1.91;0.34857591515307496
17:50.2;-1.0060744022332269;-0.20936181752260635;-1.6037235898324091;1.714;0.3377980176657705
17:50.2;-1.034340470419259;-0.22843233070436114;-1.2309968012398782;1.511;0.2908559904232315
17:50.2;-1.035486532334581;-0.23990733996577687;-0.8737404829481099;1.2590000000000001;0.21705532684167012
17:50.2;-1.0132982343984498;-0.24095267443437196;-0.5432590882202759;1.0;0.13264046551257946
17:50.2;-0.9715312250197741;-0.22926708417297612;-0.24861731500745182;0.852;0.055377053349250756
17:50.2;-0.913612100794946;-0.2031750653776748;0.003602414903817289;0.8690000000000001;0.0006686917760820262
17:50.3;-0.842500773900794;-0.16173284185893375;0.2094918483764287;0.9470000000000001;0.028545368567772872
17:50.3;-0.7606977439918364;-0.10484499229855707;0.3679063292706083;0.9470000000000001;0.029342497730886152
17:50.3;-0.6703658596434824;-0.03337376170772378;0.4803801958285147;0.9470000000000001;0.010747368600005346
17:50.3;-0.5735289087777332;0.05078825140466478;0.5508234711507507;0.9059999999999999;0.016044678228219415
17:50.3;-0.4723012545697044;0.1447192968354087;0.5850143944507199;0.821;0.03998638056826739
17:50.3;-0.36910361501637085;0.2445742415404341;0.5899429493413596;0.753;0.053256059500941255
17:50.3;-0.2668334847105023;0.34579997917977284;0.5730643330059023;0.726;0.05287722678271946
17:50.3;-0.16896777697679452;0.4434349002257502;0.5415175518854669;0.7170000000000001;0.04057385744577086
17:50.3;-0.07957280174265881;0.5324470172964102;0.5013692567572953;0.71;0.021242163555263788
17:50.3;-0.00319584301135229;0.6080619713536677;0.4569481627302943;0.696;0.0008879739310979225
17:50.4;0.055373417376725916;0.6660445317739051;0.41033610772480783;0.727;0.01513367240165247
17:50.4;0.09145238409900257;0.7029190981660768;0.36107981332026035;0.727;0.02321152016525675
17:50.4;0.10087364716114756;0.7161349456252701;0.3061796976799937;0.727;0.02211815921693
17:50.4;0.08039211058592173;0.7041925529017754;0.24038874883084915;0.752;0.013608773805183298
17:50.4;0.028054335674413337;0.6667456482821947;0.15681495753391353;0.754;0.002933240438554459
17:50.4;-0.05648477777640203;0.604679558252922;0.04778109937084037;0.7240000000000001;0.0016319725500609714
17:50.4;-0.17171209766789225;0.520146804906976;-0.09413285267663477;0.669;0.008407522705890484
17:50.4;-0.3140970250783801;0.41652738990461363;-0.27495927259700426;0.588;0.0359729254922875
17:50.4;-0.4780552173159616;0.2982793288589993;-0.49823330479258215;0.519;0.07104507457163238
17:50.4;-0.6560766547620478;0.17065255750923058;-0.7640215181488712;0.488;0.0855407347166228
17:50.5;-0.8390626814919865;0.039260130497414475;-1.0682029564324511;1.4140000000000001;0.03518843240812186
17:50.5;-1.0168797216449073;-0.090449954086516;-1.402088622340249;1.4140000000000001;0.12895951842881725
17:50.5;-1.1790571692391465;-0.21371596787845376;-1.7524293601839027;1.4140000000000001;0.44158301049213716
17:50.5;-1.3155198951954636;-0.3268596136008049;-2.1018765239970194;1.9480000000000002;0.9037865688809474
17:50.5;-1.4173027002521583;-0.42749879360007276;-2.430011701555379;2.7239999999999998;1.472332412609306
17:50.5;-1.47725104434709;-0.5145599942940331;-2.7150260904374326;3.445;2.0637844267356087
17:50.5;-1.4906819685673698;-0.5880784309935687;-2.9359521667187902;4.178999999999999;2.5737669806448165
17:50.5;-1.455903934066882;-0.6488139735780775;-3.0751371856139307;4.695;2.9048078480902113
17:50.5;-1.374456234140356;-0.6978037449253662;-3.1205170353366105;4.824;2.992890096104872
17:50.5;-1.250963414696506;-0.7360183057542183;-3.0672337483744747;4.5889999999999995;2.8241001809323723
17:50.6;-1.0925980309458623;-0.7642215860707761;-2.918252893410779;3.259;2.4367032291401096
17:50.6;-0.9082616430079936;-0.7830143764367343;-2.6838844964369555;3.259;1.9087301400806707
17:50.6;-0.707661187803666;-0.7929647021796722;-2.3804002814451053;2.572;1.3357624344836458
17:50.6;-0.5004322258575292;-0.7947306372768151;-2.0280940019406204;1.9080000000000001;0.8065908759498158
17:50.6;-0.29538695105532675;-0.7891284589596081;-1.6491112807836688;1.35;0.3844049527534521
17:50.6;-0.09992818238653577;-0.7771413633444125;-1.265320137494798;1.002;0.09826264107021032
17:50.6;0.08032430885082831;-0.759881076061293;-0.8964720668805252;0.833;0.054717895839608885
17:50.6;0.24166113330025213;-0.7385174369045432;-0.558856203272266;0.755;0.09973960352711785
17:50.6;0.3821799257451653;-0.7141938340881596;-0.2645474971191201;0.746;0.07220838390843926
17:50.6;0.501520911017038;-0.6879505965709647;-0.021230664061746916;0.7759999999999999;0.007325037894402903
17:50.7;0.6005322925667298;-0.6606768934023355;0.16751032854817333;0.96;0.06646103101347683
17:50.7;0.680932112409895;-0.633102058691361;0.3015831891436425;0.96;0.13001236874209834
17:50.7;0.7449867491892576;-0.6058248426345612;0.3835890220036383;0.96;0.1731258010481041
17:50.7;0.7952024603749072;-0.5793683201086581;0.41793657370786685;0.997;0.19254969603913275
17:50.7;0.8340376040400369;-0.554240512493801;0.4099572025827306;1.026;0.18950576250784412
17:50.7;0.8636545524138348;-0.5309774708939538;0.365102902879097;1.032;0.16742929445437796
17:50.7;0.88572062426003;-0.5101473463285718;0.28829606262291363;1.015;0.13026600681551734
17:50.7;0.9012550027995381;-0.49230118549375257;0.18347741775318155;0.975;0.08140689481556328
17:50.7;0.910520039687833;-0.4778693130461404;0.053373832618397274;0.937;0.02322346620743898
17:50.7;0.9129654040885716;-0.46701899329408925;-0.10051548661590182;0.92;0.042857007547186236
17:50.8;0.907241433450206;-0.45950388306154794;-0.27773232108823037;1.065;0.11578131706730134
17:50.8;0.8912967731133317;-0.45454367733896417;-0.47849108761899933;1.065;0.19385267949690024
17:50.8;0.8625641549024294;-0.45077153994568064;-0.7031384755161917;1.065;0.27339386076564026
17:50.8;0.818224249797002;-0.44627754438233264;-0.9514683930223725;1.172;0.34743354471987925
17:50.8;0.755530584551618;-0.4387628292338745;-1.2219712496181108;1.287;0.4050819257161419
17:50.8;0.6721819252166549;-0.4258075584069564;-1.5111282923043117;1.431;0.4325153580027496
17:50.8;0.5667343904125685;-0.40524037685955494;-1.8128494425333788;1.617;0.4163456342849417
17:50.8;0.4390361676047919;-0.3755648180816997;-2.118141751384362;1.778;0.349253061263942
17:50.8;0.29063230479065866;-0.33635654487023886;-2.41511185386778;2.03;0.23609186244435862
17:50.8;0.12503977511206874;-0.28852296538725625;-2.689417607859417;2.414;0.09702570676901634
17:50.9;-0.052228996666008755;-0.23433130374715117;-2.9252387919647562;3.365;0.035801672528615575
17:50.9;-0.23397436813791533;-0.17716090064483803;-3.106703437655558;3.365;0.12877630527028358
17:50.9;-0.411935250576098;-0.12100453658329562;-3.2195418614092897;3.6839999999999997;0.16048139340466178
17:50.9;-0.577639911547395;-0.06980299725446179;-3.252674337255941;4.008;0.13115107271428486
17:50.9;-0.723356392231096;-0.026734921655494546;-3.1994960381436237;4.146;0.0618746586648698
17:50.9;-0.8429898578642842;0.006391654454307646;-3.0586950561869735;3.928;0.016480554465058216
17:50.9;-0.9327513485791015;0.029504087125554752;-2.834486371175334;3.488;0.0780049998973321
17:50.9;-0.9914528118180558;0.04430115553964072;-2.5362269493430913;2.932;0.11139744143827905
17:50.9;-1.0203747934184928;0.0539668723620677;-2.1774973992886144;2.3609999999999998;0.11990702169609124
17:50.9;-1.0227602892457108;0.06264860293562106;-1.7748286617891447;1.8430000000000002;0.1137212648744641
17:51.0;-1.0030656465831047;0.07482216250765582;-1.3462861545288145;0.966;0.10104085027459932
17:51.0;-0.9661361455838087;0.09465989060486325;-0.9101192907592259;0.966;0.08323436074170833
17:51.0;-0.9164773956903519;0.12549056217619814;-0.48364790858863205;0.655;0.055623989811824995
17:51.0;-0.8577604625334516;0.1694093855704744;-0.08246521974223654;0.564;0.011983241504045524
17:51.0;-0.7926335452954226;0.2270652827561672;0.28007599813842526;0.7609999999999999;0.05040795493518897
17:51.0;-0.7228420324608636;0.29762146068187467;0.593174963248569;1.04;0.12761168823646496
17:51.0;-0.6495965479345923;0.37885911362212604;0.8487484442858704;1.3259999999999998;0.20888172167274927
17:51.0;-0.574075958349532;0.46737961356929625;1.0414730433372303;1.5519999999999998;0.27943908987518445
17:51.0;-0.4979196727777744;0.5588599215905623;1.1687112452720054;1.653;0.32521418030373284
17:51.0;-0.42356268664696095;0.6483273448453338;1.230320985674002;1.661;0.3378550895718296
17:51.1;-0.3543033136020734;0.7304384070572335;1.2283522495941703;1.374;0.3178935675966468
17:51.1;-0.2940771109150138;0.7997610020293129;1.1666567294341867;1.374;0.2743876352308219
17:51.1;-0.24701969936666682;0.8510622583664318;1.0504620802919693;1.374;0.22083774310806428
17:51.1;-0.2169570827812668;0.879607306294874;0.8859558865991847;1.281;0.1690731946871834
17:51.1;-0.20692931342640924;0.8814792243419496;0.679884714070358;1.157;0.12401361706894308
17:51.1;-0.21880275960115306;0.8539173692594162;0.4391528195107087;1.038;0.08205108306130983
17:51.1;-0.2530116294236263;0.7956368954392886;0.17043816168361592;1.002;0.034310120156030355
17:51.1;-0.308462481634988;0.7070669202633245;-0.12010307069123503;1.005;0.026194914119327402
17:51.1;-0.3826146145070191;0.5904489925860887;-0.4269516610490124;1.048;0.09645453417746154
17:51.1;-0.4717288161341707;0.449761747331868;-0.745095077812106;1.187;0.15808352681424553
17:51.2;-0.5712567850366856;0.2904688922180501;-1.069635582488201;1.4709999999999999;0.1774871196629728
17:51.2;-0.6763055960390516;0.11912382639459065;-1.395168589991913;1.4709999999999999;0.11240051632780625
17:51.2;-0.782067315704739;-0.057108070579220106;-1.7150174214648026;1.514;0.07659671770264287
17:51.2;-0.8840994912248139;-0.23095378376279557;-2.0204916743121033;1.548;0.4125563609681191
17:51.2;-0.9783941994118669;-0.3955333825470321;-2.3004262229218826;1.6880000000000002;0.8902363474344799
17:51.2;-1.0612522368566866;-0.544827306387944;-2.5412899243867844;2.147;1.469371795161624
17:51.2;-1.1290594610873816;-0.674053946032037;-2.7280677637094746;2.838;2.0761877465852505
17:51.2;-1.1781171256391025;-0.7798942277742961;-2.8459185996756453;3.569;2.6148492077438967
17:51.2;-1.2046650089999347;-0.8605386843597974;-2.882361430412505;4.141;2.98803122722418
17:51.2;-1.2051507963560548;-0.9155908230278368;-2.8295455975751524;4.49;3.1221913779085115
17:51.3;-1.1766923157150244;-0.945890058695322;-2.6860919610604097;4.163;2.9896782744138037
17:51.3;-1.1176021873155129;-0.9533034355443276;-2.458073707337531;4.163;2.6188661524799226
17:51.3;-1.0278173391346066;-0.9405085714717719;-2.1588889670112144;3.267;2.0869353941153648
17:51.3;-0.9091049951590024;-0.9107781207039313;-1.8079879692624994;2.1790000000000003;1.4970012723706572
17:51.3;-0.7649984510482395;-0.8677739697226433;-1.4286383706248105;1.321;0.9483955001940079
17:51.3;-0.6005162606970094;-0.8153539093268775;-1.045142786452002;0.948;0.5117366914074235
17:51.3;-0.42178248371305577;-0.7573853318282148;-0.6800697899918002;0.9129999999999999;0.21724956368584777
17:51.3;-0.23565893267261373;-0.697560407201182;-0.35202269015370596;0.899;0.057867721995913196
17:51.3;-0.04943445360650647;-0.6392189506424283;-0.07427423582495568;0.79;0.002347024225810888
17:51.3;0.12946317964771675;-0.5851985425663849;0.14565126560983968;0.68;0.01103478225298611
17:51.4;0.29380607696516686;-0.537735402462822;0.30557056938773863;0.8370000000000001;0.048277072575163366
17:51.4;0.4369873046633378;-0.49843226332206964;0.4076495305014135;0.8370000000000001;0.08878956183222059
17:51.4;0.553459441112389;-0.46829388829459295;0.4571009637298792;0.8370000000000001;0.1184721928256782
17:51.4;0.6390795593873201;-0.44781319162812144;0.4608125660551795;0.9229999999999999;0.13187914517220997
17:51.4;0.6913006560977313;-0.43708033556469994;0.4260753436710539;0.977;0.1287403364744059
17:51.4;0.7092131991447651;-0.4358871472833822;0.35952436218093264;0.975;0.1111422533391743
17:51.4;0.6934501643449155;-0.4438054782586545;0.2663760370444017;0.915;0.08197908519412311
17:51.4;0.6459620862604482;-0.4602267197987803;0.1500275747178303;0.835;0.04460154947172541
17:51.4;0.5696827100078395;-0.48435987883971654;0.012051010481117697;0.7559999999999999;0.00332525277669595
17:51.4;0.46812461173577546;-0.5151963050850893;-0.14743600350237288;0.682;0.03555803594332562
17:51.5;0.34495211101442275;-0.5514573542019232;-0.32909610425587965;0.644;0.06260276007999076
17:51.5;0.2035933197479418;-0.5915440803391366;-0.5335062977173831;0.644;0.0642525231823357
17:51.5;0.0469785079864074;-0.6335068368503407;-0.760220718620829;0.644;0.022625085408098534
17:51.5;-0.12251799645046282;-0.6750535645608938;-1.0068861622876208;0.84;0.08327573861255931
17:51.5;-0.3029170460930198;-0.7136191221178374;-1.2685501644852488;1.083;0.2742191863958474
17:51.5;-0.49229095498327446;-0.7465149087737386;-1.5373018037814368;1.334;0.564962313561604
17:51.5;-0.6882829293449657;-0.7711634627736893;-1.8023483359327794;1.6159999999999999;0.9566480114605099
17:51.5;-0.887557927602243;-0.7854010485619034;-2.05057488822067;2.04;1.4294330485592655
17:51.5;-1.0853204316539162;-0.7878019352602036;-2.267574959882489;2.544;1.938816355879047
17:51.5;-1.275108750411947;-0.7779384182168356;-2.439067032147555;3.0839999999999996;2.4194473826760587
17:51.6;-1.4490785285743026;-0.7564646250501977;-2.5525221538134653;3.998;2.7980151728623444
17:51.6;-1.5988359388191435;-0.724956053292295;-2.5987365341653375;3.998;3.0121585940796187
17:51.6;-1.7166124604151405;-0.6855578061377592;-2.5730378674259264;3.998;3.028046350949645
17:51.6;-1.796418651491388;-0.6405870304202612;-2.4758669474589445;3.772;2.849134811758326
17:51.6;-1.834902649583153;-0.5922118639220433;-2.312626932324829;3.4019999999999997;2.513018642048339
17:51.6;-1.8317993835818698;-0.5422478399753221;-2.092878300673668;2.9789999999999996;2.0788335364855475
17:51.6;-1.7899330060268088;-0.492059759582453;-1.829104546379846;2.536;1.6109911540821789
17:51.6;-1.7147832849079847;-0.4425384837801839;-1.5353324932336099;2.13;1.165098723209774
17:51.6;-1.6137026496633164;-0.3941195506923237;-1.225852861297408;1.7990000000000002;0.7796323227248246
17:51.6;-1.4949367378106084;-0.34681763209852784;-0.9141847315330851;1.5119999999999998;0.47397774129920145
17:51.7;-1.366625448030096;-0.3002607267658225;-0.6123185931708428;0.9520000000000001;0.25126123032846065
17:51.7;-1.2359484195945025;-0.2537225324743083;-0.3302189218332305;0.9520000000000001;0.10355267905069986
17:51.7;-1.1085371157555015;-0.20617075969861665;-0.0755774293330098;0.9520000000000001;0.017273065732363087
17:51.7;-0.9882056320380468;-0.15635400998480029;0.14619615066807523;0.888;0.02258875455848199
17:51.7;-0.8769725046535348;-0.10293186097288778;0.33181829977655736;0.865;0.029952710968829444
17:51.7;-0.7752974448078894;-0.04463474250942075;0.4799201140474134;0.905;0.016607732402750135
17:51.7;-0.682454959290978;0.019561877732312126;0.5908471681697012;0.98;0.007887869058343228
17:51.7;-0.5969838845836638;0.09026145245595042;0.66646918248875;1.056;0.03591244698119001
17:51.7;-0.5171610768073994;0.1674830762098418;0.7099580666158287;1.089;0.06149353481758607
17:51.7;-0.44144666730746945;0.25052971784088085;0.7254859451967614;1.05;0.08023548738307776
17:51.8;-0.36885050144662174;0.3379061357388869;0.7178121209705732;0.7829999999999999;0.08946583993343066
17:51.8;-0.29918873763561826;0.42729284947783885;0.6917709979154961;0.7829999999999999;0.08843684019614106
17:51.8;-0.23323005138752192;0.5155645475337864;0.6517266212994536;0.7829999999999999;0.07836696267477072
17:51.8;-0.1727431227554557;0.5988418802592319;0.6010798763014908;0.718;0.062179198545291116
17:51.8;-0.12044296205839108;0.6725922248728811;0.5418855854116208;0.6890000000000001;0.04389760929168468
17:51.8;-0.07982530596713985;0.7318147900482467;0.47460280223516293;0.7;0.027725033038579962
17:51.8;-0.05489473814741205;0.7713340775393459;0.39799818056724934;0.75;0.016852111481104763
17:51.8;-0.04981356579594351;0.7861973517905001;0.30923412469601574;0.8420000000000001;0.012110626789400376
17:51.8;-0.06850543183455743;0.7721437490226379;0.2041772522223339;0.9470000000000001;0.010800168297704325
17:51.8;-0.11424044396692376;0.7260869498759356;0.0779539714928565;0.9640000000000001;0.006466164654550243
17:51.9;-0.18921547834508132;0.646536107107256;-0.07424249512959835;0.787;0.009082428823335084
17:51.9;-0.2941366229168629;0.5338864599378077;-0.256131432930141;0.787;0.04022174309270207
17:51.9;-0.4278211172412838;0.3905399843229149;-0.4692094045187809;0.621;0.07839609495443876
17:51.9;-0.586858752216047;0.22084184245942565;-0.71166561613594;0.556;0.09223397614794808
17:51.9;-0.7653893098791384;0.03083010500030201;-0.9775681115084013;0.47;0.023067706781411772
17:51.9;-0.9550575224163115;-0.17218805047161628;-1.2565709802909897;0.616;0.20664246046792828
17:51.9;-1.1452167243949027;-0.380189067291788;-1.5343645680701685;1.367;0.6680606118328137
17:51.9;-1.3234673024918966;-0.5850323323357748;-1.7939624834982868;2.396;1.3890134180226614
17:51.9;-1.4765942908635543;-0.7790055378375218;-2.0176932354498422;3.3960000000000004;2.320902348146223
17:51.9;-1.5918713753334037;-0.9552458309016786;-2.189520411418288;4.0360000000000005;3.3294471271524664
17:52.0;-1.6585506688950793;-1.10803505891732;-2.297182679834341;4.08;4.221606782456574
17:52.0;-1.6692453606810658;-1.23300949886698;-2.333714561392625;4.08;4.803240541704433
17:52.0;-1.6209130080766907;-1.327301647443513;-2.298132085333439;4.08;4.944294456485109
17:52.0;-1.515250283648083;-1.3895981554327395;-2.1952770677586853;3.5439999999999996;4.622351244016717
17:52.0;-1.3584438797984573;-1.4201081193863692;-2.034916449912862;2.905;3.9256329887053814
17:52.0;-1.1603480758771867;-1.4204565425497426;-1.8302595062007052;2.303;3.016677673659309
17:52.0;-0.9332682325324155;-1.3935118959344126;-1.596151901854042;1.841;2.0758280845316097
17:52.0;-0.6905915045891935;-1.3431451679760071;-1.347278813007435;1.535;1.24968819044649
17:52.0;-0.44549694390760275;-1.27392190396981;-1.0966916205516464;1.3559999999999999;0.6224035474813655
17:52.0;-0.20990999114869077;-1.190745147346512;-0.8548650472822192;1.192;0.21367292301778107
17:52.1;0.0062246886046985785;-1.0984886127759597;-0.6293407526698954;1.047;0.004303274448577745
17:52.1;0.19535471568408364;-1.001676585031325;-0.4248784207785011;1.047;0.08314116300743972
17:52.1;0.3524597870749451;-0.9042661713392172;-0.24395642900445189;0.976;0.07775317394194126
17:52.1;0.47498020738090774;-0.8095610983143134;-0.0874451154863029;0.9840000000000001;0.033624876611942314
17:52.1;0.562597486321965;-0.7202473438728924;0.04469782324136217;0.98;0.018111975687183087
17:52.1;0.6169147284997416;-0.6385123970347166;0.15280720438505188;0.973;0.060191934737588354
17:52.1;0.6410597559130361;-0.5661988958612484;0.2370093129060264;0.9620000000000001;0.08602663653763055
17:52.1;0.6392215352265834;-0.5049435757863576;0.2968534853693496;0.867;0.0958156392462586
17:52.1;0.6161356152628306;-0.45626012194505344;0.33108912069842245;0.777;0.09307514816833014
17:52.1;0.5765482085108652;-0.42153867025017266;0.33761458567232144;0.691;0.08205295933827646
17:52.2;0.524703453586014;-0.40195343748413564;0.3136283784105384;0.479;0.06614621868865829
17:52.2;0.46391181298753187;-0.398292480964023;0.2559918166933293;0.479;0.04730027020674712
17:52.2;0.3962641714957156;-0.4107460092218798;0.16177236526538255;0.479;0.026330705457058796
17:52.2;0.32254012153929695;-0.43869951085622466;0.028900221936708718;0.414;0.004089329197261394
17:52.2;0.24232076923391366;-0.4805714886438153;-0.14314745676626692;0.349;0.016669872452521804
17:52.2;0.1542878645525409;-0.5337287858018673;-0.35272552801768925;0.344;0.02904619755350777
17:52.2;0.056688593550222245;-0.5945149620782255;-0.5955524859632694;0.45899999999999996;0.020071439143491396
17:52.2;-0.05205472226624585;-0.6584282296563307;-0.8644741801235131;0.74;0.02962924620489831
17:52.2;-0.17263521457536404;-0.7204717237447045;-1.1495204166504362;1.032;0.14297595922074965
17:52.2;-0.3041477034678111;-0.7756641644090767;-1.4382970530583876;1.385;0.33931796970658157
17:52.3;-0.44352003309077875;-0.8196454866795946;-1.7167393990855526;2.283;0.6240848889843806
17:52.3;-0.5852648764467097;-0.8492559936893167;-1.9702062606242003;2.283;0.9792707370295094
17:52.3;-0.7217062950641938;-0.8629403566567291;-2.184807527776516;2.8489999999999998;1.3606751608686096
17:52.3;-0.843764044888423;-0.8608585374171464;-2.348786723293406;3.405;1.7060682043121829
17:52.3;-0.9422465428680578;-0.8446704150239022;-2.4537463071405905;3.7260000000000004;1.952906697194439
17:52.3;-1.0094215858361684;-0.8170590913775446;-2.4954815603689977;3.753;2.058166094257328
17:52.3;-1.0404818659352266;-0.7811263924364753;-2.47422217625104;3.483;2.0109187450987567
17:52.3;-1.034497162934655;-0.7398123586545678;-2.3942250511932586;2.9139999999999997;1.8323813232821675
17:52.3;-0.9945792077072827;-0.6954601974614472;-2.2628550672935326;2.2769999999999997;1.5651947921501972
17:52.3;-0.9272333617424448;-0.6495853158255556;-2.0894215195006365;1.8840000000000001;1.2584944693739226
17:52.4;-0.8411280444132517;-0.6028383549552653;-1.8840553637535367;1.724;0.9553371135759285
17:52.4;-0.7456565931169137;-0.5551077130185215;-1.656829109856744;1.656;0.6857942513502411
17:52.4;-0.6496429873279171;-0.5057006437242068;-1.4171860718851965;1.564;0.4655808797858826
17:52.4;-0.5604030307246763;-0.4535601972651734;-1.1736235375480388;1.347;0.29830753384606107
17:52.4;-0.4832146352065093;-0.3974939229609917;-0.9335163367628474;1.044;0.17930503927698285
17:52.4;-0.4211467209428514;-0.33639752047275445;-0.7029865269686693;0.7290000000000001;0.09959400825342894
17:52.4;-0.3751623532570055;-0.26945635018842373;-0.4867928544695379;0.519;0.04920983048219575
17:52.4;-0.34442105992473854;-0.19630786670290565;-0.2882786474119736;0.44;0.019491258359999302
17:52.4;-0.3267202382498835;-0.1171516623901585;-0.1094366270636621;0.425;0.004188776534655557
17:52.4;-0.3190183782955481;-0.03279844935966027;0.04888284369707192;0.436;0.0005114762556446856
17:52.5;-0.3179788371682598;0.05534500910848581;0.18664566057270457;0.5529999999999999;0.0032846914293988994
17:52.5;-0.3204729082387784;0.14534274002658637;0.3042446026628237;0.5529999999999999;0.014171230021924554
17:52.5;-0.3239897897298014;0.23481429569119985;0.40209634794365107;0.5529999999999999;0.030590458487542146
17:52.5;-0.3269181577066169;0.3210047718739333;0.48026699485379715;0.614;0.05040031759631989
17:52.5;-0.3286842119458591;0.4008400686956214;0.5381775036134749;0.6859999999999999;0.07090477959334943
17:52.5;-0.3297475427334006;0.47099248829331347;0.5744431437024723;0.732;0.08921596942415988
17:52.5;-0.3314678711236342;0.5279766298800571;0.586878144510763;0.7490000000000001;0.10270795334311902
17:52.5;-0.3358673602383315;0.5682841996582554;0.5726640156955383;0.779;0.109303300633977
17:52.5;-0.34532667639859743;0.5885670664817504;0.5286550809479534;0.82;0.10744803973510601
17:52.6;-0.36226265671108737;0.5858788999152474;0.4517774214826835;0.847;0.09588616463092091
17:52.6;-0.3888333315202584;0.5579738574225693;0.33946672038732006;0.8009999999999999;0.07365030379726076
17:52.6;-0.42670045153389596;0.5036381717217437;0.19009441467352994;0.8009999999999999;0.04085179066599204
17:52.6;-0.47685941196182996;0.4230081022702603;0.0033480384439833135;0.7509999999999999;0.0006753508968808163
17:52.6;-0.5395334518573583;0.31781604076787534;-0.219457993270408;0.764;0.03763098562995169
17:52.6;-0.614122135976509;0.19150871347571705;-0.4751620153053232;0.9229999999999999;0.05588368116242868
17:52.6;-0.6991819909552693;0.04919266680932968;-0.7586307308750859;1.122;0.026092820806880367
17:52.6;-0.7924021044923418;-0.10262062943765099;-1.06271230566938;1.2930000000000001;0.0864163669196292
17:52.6;-0.8905394065472403;-0.2564708444553384;-1.3782447276493444;1.4169999999999998;0.3147875035627594
17:52.6;-0.9893108404254014;-0.4045715235282691;-1.6941311430221822;1.463;0.6780708973583757
17:52.7;-1.0832983883770833;-0.5395345300016471;-1.9975598111993356;1.5430000000000001;1.1675275396956661
17:52.7;-1.1659844821054541;-0.6551086308159957;-2.2745011588865545;3.0669999999999997;1.7373697440590476
17:52.7;-1.230043737513079;-0.7468192375315973;-2.510566070357151;3.0669999999999997;2.306257022448012
17:52.7;-1.26793538693805;-0.8123836631695592;-2.692142856225621;3.0669999999999997;2.773041733718186
17:52.7;-1.2727373584416368;-0.8518124327162279;-2.8076129698520282;3.6260000000000003;3.0438272911013575
17:52.7;-1.2391143525181225;-0.8671842569825515;-2.84848657192752;3.9389999999999996;3.0608140687529795
17:52.7;-1.1642749567813593;-0.8621562986245795;-2.8103595129453356;3.884;2.8210023087852454
17:52.7;-1.0487104245673682;-0.8413243131177396;-2.693570037452955;3.675;2.3765518677240243
17:52.7;-0.8964968395654447;-0.8095731895101246;-2.503422958165043;3.341;1.8169338283941203
17:52.7;-0.7150389297398603;-0.7715360836273606;-2.249909058312789;2.8489999999999998;1.2412260842997027
17:52.8;-0.5142875997027369;-0.7312159394877514;-1.9469191813480977;2.269;0.7321492580951378
17:52.8;-0.30559463929429537;-0.691764185922306;-1.6110167330077532;1.1540000000000001;0.3405680140416813
17:52.8;-0.10043759281101991;-0.6553902627191414;-1.2599278349531995;1.1540000000000001;0.08293578330410306
17:52.8;0.09075421725021728;-0.6233807230188836;-0.9110035677630535;0.888;0.05153950717919852
17:52.8;0.2595132357128191;-0.5962108369646336;-0.5799010384316275;0.836;0.0897249582218643
17:52.8;0.39992671303808464;-0.5737242303205167;-0.27962249755442675;0.9329999999999999;0.06415872372691551
17:52.8;0.5089128033618877;-0.5553453601338738;-0.01996358860395025;0.9940000000000001;0.0056421566063646405
17:52.8;0.5862046975057722;-0.5402870060278872;0.19261321716005408;0.978;0.06100422333087704
17:52.8;0.6340816623986422;-0.5277244677808627;0.3547090021243007;0.968;0.11869287094787853
17:52.8;0.6569005669978835;-0.5169244408731666;0.4654196188890608;0.955;0.1580415897410853
17:52.9;0.6604845434920389;-0.5073291103093764;0.5256133859919244;0.935;0.1761241290473334
17:52.9;0.6514185411123709;-0.49860025873839936;0.5372052026171198;0.757;0.1744828816266166
17:52.9;0.6363011438645322;-0.49062868602267645;0.5025481707291214;0.757;0.15688930435384502
17:52.9;0.6210127425387967;-0.4835145724728873;0.4240253191026748;0.757;0.12732153587487377
17:52.9;0.6100612919543684;-0.4775226830249914;0.3038819990181466;0.705;0.08852632808048272
17:52.9;0.6060482591507346;-0.4730124137875039;0.1442911424912732;0.615;0.04136370372786348
17:52.9;0.6092837702035789;-0.47034171114003104;-0.05239862660568965;0.5489999999999999;0.015015956747118616
17:52.9;0.6175895905554714;-0.469749403809792;-0.28330221301134745;0.5589999999999999;0.08218946849989982
17:52.9;0.6263447757384685;-0.4712293681011614;-0.5445928110604503;0.672;0.16073768617074263
17:52.9;0.6288299719435214;-0.4744175857340462;-0.8311062239111398;0.8490000000000001;0.24794225517890628
17:53.0;0.6169074627795177;-0.47852043779806797;-1.1359956181251716;1.02;0.3353491203954441
17:53.0;0.582034420041047;-0.4823208020949071;-1.4504775777545766;1.485;0.407188666183067
17:53.0;0.5165419760139246;-0.48429960473293465;-1.7637239865887857;1.485;0.4412150881558966
17:53.0;0.4150332134593741;-0.4828921582523318;-2.0629767289425356;1.939;0.4134541303929387
17:53.0;0.2756869542183154;-0.47685504449434224;-2.333987733047108;2.377;0.3068323637436142
17:53.0;0.10121126135553866;-0.46565636901500224;-2.5618844687765283;2.8289999999999997;0.12074076566226905
17:53.0;-0.10082446851580695;-0.4497501975018042;-2.732483816038757;3.4010000000000002;0.1239067319209379
17:53.0;-0.31849164159380505;-0.4306005542437547;-2.8339187556794534;3.889;0.38865120566612343
17:53.0;-0.536879310346205;-0.4103985364472374;-2.8582609894718836;4.056;0.6297734580085524
17:53.0;-0.7401391159477547;-0.3915369824720245;-2.8027245165642407;3.9960000000000004;0.8122066836470963
17:53.1;-0.9137723902874667;-0.37600889736422044;-2.6701106605652605;3.759;0.9174141070817208
17:53.1;-1.046643006866014;-0.36491761502836756;-2.468390523304172;2.785;0.9427732994671463
17:53.1;-1.1322891939645952;-0.3582189677219231;-2.209600332505845;2.785;0.8962303922369187
17:53.1;-1.1693378131419034;-0.3547153705524522;-1.9084022096463227;2.2359999999999998;0.7915710679358117
17:53.1;-1.1610752585662607;-0.3522520460687866;-1.5806445138127774;1.7719999999999998;0.6464695944784148
17:53.1;-1.1144007741330448;-0.34804005892827716;-1.2421025774641052;1.367;0.48175707528125067
17:53.1;-1.038462433816107;-0.33903010539205247;-0.9074524015617328;1.024;0.3194867927734819
17:53.1;-0.9432671855049761;-0.3222725855917709;-0.5894894088578575;0.752;0.17919838714843483
17:53.1;-0.8384859872446461;-0.29521878412294417;-0.29860053353600696;0.594;0.07391462462822851
17:53.1;-0.732581999168368;-0.2559397698394651;-0.04249274502578767;0.56;0.007967256615922623
17:53.2;-0.6323042372017581;-0.20326043862926724;0.17383061835443436;0.5770000000000001;0.022341134626731058
17:53.2;-0.5425206277690522;-0.13682280548984074;0.3478751512332084;0.684;0.0258224922025883
17:53.2;-0.46631718471547273;-0.057104617035501105;0.47929094682572754;0.684;0.012762973559396137
17:53.2;-0.40526737591485995;0.03457578120297309;0.5693910674176842;0.684;0.007978555958541016
17:53.2;-0.3597761754140288;0.13605212617175125;0.6206053979071204;0.6990000000000001;0.03037758764544931
17:53.2;-0.32941983198588004;0.2443160894914444;0.6359297613877912;0.6859999999999999;0.05118125845280993
17:53.2;-0.3132265648246778;0.3555696512720434;0.6184312547145396;0.662;0.06887707624432404
17:53.2;-0.3098692277539083;0.46534606037124615;0.5708581036860892;0.6579999999999999;0.08231569737163912
17:53.2;-0.3177653774873179;0.5687029810206912;0.49538829894873554;0.705;0.08952365923571493
17:53.2;-0.33510219190026;0.6604838025351343;0.3935365718241844;0.753;0.0871012801991387
17:53.3;-0.35982241231087475;0.735640949012328;0.26621427553833094;0.807;0.07046694558757151
17:53.3;-0.3896184031510422;0.789608231665194;0.11390940502648832;1.014;0.035043761238328704
17:53.3;-0.4219765375868964;0.818692189042067;-0.06305420405320729;1.014;0.021783266217110017
17:53.3;-0.4542930921745379;0.8204297293718955;-0.264207829616234;1.109;0.0984743688199478
17:53.3;-0.4840592144011834;0.7938506489214882;-0.48860191242533024;1.205;0.18775540939871962
17:53.3;-0.5090943960368791;0.7395979561042343;-0.7344704971784587;1.335;0.27654663231572796
17:53.3;-0.5277877808968741;0.6598826387414466;-0.9989160229427192;1.465;0.34790046819915366
17:53.3;-0.5392852234231865;0.5582737784104677;-1.2776147419254131;1.506;0.3846499363467988
17:53.3;-0.5435546931038603;0.4393527025815572;-1.5645425766964443;1.4169999999999998;0.37363189136998487
17:53.3;-0.5412862043659271;0.30828491739001146;-1.8517666545756473;1.3119999999999998;0.3090049919826523
17:53.4;-0.5336315303465344;0.17037481031890325;-2.1294301370598125;1.412;0.19360218928492362
17:53.4;-0.5218453974695701;0.03066831495446482;-2.38610628990076;2.841;0.03818752902724431
17:53.4;-0.5069248648378093;-0.10633529787437351;-2.6096051057311316;2.841;0.14066817058817063
17:53.4;-0.48933682332538686;-0.23682167116649766;-2.7881007998461156;2.841;0.32310063441291137
17:53.4;-0.46888582421792185;-0.3576580045871982;-2.9113218935430116;3.2560000000000002;0.4882309182255395
17:53.4;-0.4447377697653295;-0.46630927860466004;-2.971616430979383;3.4789999999999996;0.6162697094070501
17:53.4;-0.41559561800820827;-0.5607506513567766;-2.9648047859245694;3.549;0.6909344537604544
17:53.4;-0.38000768793849127;-0.6394268096961053;-2.8907301091554523;3.5389999999999997;0.7024101363930374
17:53.4;-0.3367602897780783;-0.701271187674795;-2.75339493061257;3.333;0.6502425408220235
17:53.4;-0.28526936984283563;-0.7457705104468296;-2.56061194891902;2.949;0.5447586272887871
17:53.5;-0.22586408820825432;-0.7730470825077533;-2.3231784666836424;2.491;0.40563526432796154
17:53.5;-0.15987333413524749;-0.7839272221474713;-2.0536824289851836;1.625;0.2573860857429345
17:53.5;-0.0894907012295265;-0.7799642322787209;-1.765152167891098;1.625;0.12320682008193631
17:53.5;-0.017471094392591712;-0.7633893335106988;-1.4698224246126812;1.358;0.01960338487615248
17:53.5;0.0532511084974682;-0.7369771615650482;-1.1782374973761787;1.149;0.0462397547804847
17:53.5;0.11994555272839355;-0.7038326779961563;-0.8987724290703324;0.987;0.07587580613000557
17:53.5;0.1804177660805204;-0.6671278596473693;-0.6375367828835398;0.841;0.07673502255744208
17:53.5;0.23325018612058795;-0.6298316977156307;-0.3985804388648181;0.722;0.05855479888741982
17:53.5;0.277928912754291;-0.5944802461663974;-0.1843089659325257;0.688;0.03045212607368988
17:53.5;0.314851887407432;-0.5630225804803779;0.003987580680369685;0.6509999999999999;0.0007068733315485675
17:53.6;0.3452270188249779;-0.5367563681498008;0.16557959923207466;0.6579999999999999;0.03068236349497861
17:53.6;0.37087371047233175;-0.5163438204761606;0.29978078677219977;0.6459999999999999;0.057407525602725454
17:53.6;0.3939466332140996;-0.5018866539223632;0.4055078151835646;0.6459999999999999;0.08017560928493607
17:53.6;0.41661116943670895;-0.49303828607649564;0.48094668464433854;0.6459999999999999;0.09878897733352271
17:53.6;0.44070817778050864;-0.4891352986003457;0.5233678073548188;0.675;0.1128202661013107
17:53.6;0.46744392271045687;-0.4893321390042972;0.5291457721511319;0.722;0.1210343352263625
17:53.6;0.49713355549123994;-0.49272153013201375;0.4940291174476982;0.777;0.12101164490636096
17:53.6;0.5290203742479667;-0.4984210606911058;0.41366463008088294;0.807;0.1090729783402244
17:53.6;0.5611887182101692;-0.5056097298363629;0.2843269799394084;0.809;0.08067564133889016
17:53.6;0.5905847949411267;-0.5135091100770042;0.10375881966726293;0.785;0.03146700701572674
17:53.7;0.6131566655149945;-0.5213181446631395;-0.12800056957833106;0.7440000000000001;0.04091534305806656
17:53.7;0.6241196370155943;-0.5281236476410278;-0.4079248352731487;0.701;0.13445705919870082
17:53.7;0.6183449476250931;-0.5328196269179603;-0.7295541799139884;0.701;0.24036353403411423
17:53.7;0.5908612873983009;-0.5340758430522186;-1.0828657998616766;0.888;0.34171426479849853
17:53.7;0.5374536756913694;-0.5303933345409888;-1.4545174549123328;1.3030000000000002;0.41462743249832523
17:53.7;0.45533440523972535;-0.5202679268918177;-1.8285086088724278;1.896;0.4331661688894465
17:53.7;0.3438284765338663;-0.5024514076686973;-2.187249881646858;2.5469999999999997;0.37786295097101313
17:53.7;0.20496011847839463;-0.4762570294066048;-2.5129381938360877;3.089;0.2452971878684509
17:53.7;0.043778995690596345;-0.4418184066441949;-2.7890506561946977;3.465;0.05394683892074518
17:53.7;-0.13174089042101234;-0.40020213020649154;-3.0017332400568946;3.552;0.15826033653485683
17:53.8;-0.3113492737710722;-0.35330279688464833;-3.14088788775637;3.593;0.3454994555449712
17:53.8;-0.48372402416326904;-0.3035136011001139;-3.2008416110184306;3.7760000000000002;0.46993738829361753
17:53.8;-0.6380595321050416;-0.253253054957202;-3.180566904554033;3.7760000000000002;0.5139494782904601
17:53.8;-0.7656866085185615;-0.20448970294539126;-3.083475200656633;3.6910000000000003;0.48279521318277
17:53.8;-0.8613282735451367;-0.15839517730001046;-2.91682965418358;3.395;0.3979437831817399
17:53.8;-0.923712006768265;-0.1151918912279521;-2.690853902598562;2.8960000000000004;0.2863179765615076
17:53.8;-0.9554333088443676;-0.07419900964008631;-2.417660898699342;2.363;0.17139331276042646
17:53.8;-0.962141350281896;-0.034038339348416255;-2.110161077737181;1.9409999999999998;0.06910712912666923
17:53.8;-0.9512788200400712;0.007063704771352895;-1.7810994326416356;1.6480000000000001;0.011968191572826678
17:53.8;-0.9306942616771104;0.05094740829137907;-1.4423158017930005;1.406;0.06838951030786035
17:53.9;-0.90741635431131;0.09921838455052433;-1.1042480690525867;1.148;0.09941808705599867
17:53.9;-0.8867740939732873;0.15300307675820024;-0.7756432683083686;0.7090000000000001;0.105238630801519
17:53.9;-0.8719300369410743;0.21277151745219267;-0.4634407480210403;0.7090000000000001;0.08597839748456094
17:53.9;-0.8638082676983868;0.278232069928475;-0.1728274766077745;0.706;0.04153721095777601
17:53.9;-0.8613559009673042;0.3483080578786785;0.09252669637656438;0.866;0.02775960046543806
17:53.9;-0.8620594145249354;0.42120753734860467;0.33008192556153293;1.101;0.11985470225991623
17:53.9;-0.8626186929882548;0.49458080627654794;0.5379476603698403;1.3019999999999998;0.22950711109407032
17:53.9;-0.8596592243967641;0.5657300966297641;0.7143765693297469;1.41;0.34742639748703347
17:53.9;-0.8503569033051002;0.6318134231810212;0.8573147090670264;1.433;0.4606068212111388
17:53.9;-0.8328758965842512;0.6899885497366596;0.9641002587618629;1.3980000000000001;0.5540441542301048
17:54.0;-0.8065731646386539;0.7374757907044864;1.031387198348451;1.411;0.6134981724956706
17:54.0;-0.7719847295717032;0.7715632274397443;1.0553220516070223;1.4509999999999998;0.6285867813225249
17:54.0;-0.7306580699854338;0.7896091471689423;1.0319367191379833;1.4509999999999998;0.5953596840701824
17:54.0;-0.6849144418155145;0.789098457088634;0.9576701517752255;1.432;0.517587130847349
17:54.0;-0.6376056877263525;0.7677864376439009;0.829924313973271;1.349;0.4062852979528269
17:54.0;-0.5918876769451906;0.7239283027539307;0.6475903616036822;1.245;0.27748226482445915
17:54.0;-0.5509998551515369;0.6565598736853523;0.4115151118791191;1.127;0.14887151560532536
17:54.0;-0.5180337458517186;0.565773272104825;0.12488874558024045;0.982;0.03660359841274104
17:54.0;-0.4956827115365148;0.4529249937339682;-0.20647895311865447;0.841;0.04635598870788733
17:54.0;-0.4859763461090526;0.32071797422490356;-0.5740465199668088;0.79;0.08947166513160502
17:54.1;-0.49000944814197583;0.17311011065098658;-0.9666475158882445;0.993;0.08199644565221553
17:54.1;-0.5076807409492341;0.015027253794494192;-1.3708361863364753;1.715;0.010458174162071489
17:54.1;-0.5374710211021465;-0.14808044245904617;-1.7714239339880633;1.715;0.14098576491244394
17:54.1;-0.5763165495579029;-0.3107231288154905;-2.1521119103898014;1.715;0.3853891852562976
17:54.1;-0.6196517790128538;-0.4677684271842169;-2.4961813280333778;2.249;0.7235269895966044
17:54.1;-0.6616874207347868;-0.6146930647126524;-2.78732467993607;2.864;1.133701579788418
17:54.1;-0.6959542602039104;-0.7476949708606251;-3.010723201252294;3.4989999999999997;1.566664442002172
17:54.1;-0.7160772037511237;-0.8636927236893053;-3.1543379521746577;3.9530000000000003;1.9508655082008024
17:54.1;-0.7166571968815647;-0.9602668188881455;-3.2102104103088105;4.206;2.2092094272654386
17:54.1;-0.6940792920923614;-1.0356231537084422;-3.175491437118011;4.314;2.282557805900178
17:54.2;-0.647073080653331;-1.0886306989416648;-3.052946473719933;4.111000000000001;2.1505676068610153
17:54.2;-0.5769132367266551;-1.1189214256751532;-2.8507842668230086;3.022;1.8402399171633153
17:54.2;-0.4872345279559702;-1.1269983193348312;-2.581817865260297;3.022;1.417708447378029
17:54.2;-0.3835234050065666;-1.1142908474091888;-2.2621462511124646;2.443;0.9667431757442368
17:54.2;-0.27239934463278154;-1.0831124227021365;-1.9096267230202775;1.932;0.5634145766362666
17:54.2;-0.16080333818169443;-1.0365024501597895;-1.54236345408833;1.535;0.2570704273005034
17:54.2;-0.0552021591155208;-0.9779682995614616;-1.1773709882495231;1.22;0.06356150505752235
17:54.2;0.03909283606147763;-0.9111698331754419;-0.8295307209347537;0.973;0.02954806089714847
17:54.2;0.11842000744471254;-0.8396042432405665;-0.5109064351120142;0.818;0.05079735293865905
17:54.2;0.18103966722687323;-0.7663482623126521;-0.23042295887547362;0.753;0.03196875098461728
17:54.3;0.22717871616181093;-0.6938982490588483;0.006131135675017666;0.754;0.0009665055655222857
17:54.3;0.25886056218261677;-0.6241220346503725;0.1958376728288903;0.726;0.03163964815695256
17:54.3;0.27954876043140836;-0.5583100563933953;0.3381883168004805;0.726;0.05278270238282134
17:54.3;0.2936496143987177;-0.49729572877114775;0.4344962503986572;0.698;0.06344979115675999
17:54.3;0.3059299047706764;-0.4416077283334172;0.4872464350783209;0.649;0.06582748563199141
17:54.3;0.32090631734434377;-0.3916183079063681;0.49945368624177405;0.574;0.06276773772376544
17:54.3;0.34225934275171277;-0.3476607281599709;0.47409627594296183;0.488;0.05641277860716313
17:54.3;0.37232137038295754;-0.31010090808346713;0.4136873390108897;0.41700000000000004;0.04776317979181364
17:54.3;0.41168512020768616;-0.27935777756425195;0.3200403306164597;0.38;0.03680701919695939
17:54.3;0.45897424396647113;-0.2558725929119335;0.19426823705227383;0.353;0.02281465386977223
17:54.4;0.5108136146568095;-0.24003160254482242;0.03702002637006677;0.349;0.004539077651009772
17:54.4;0.5620277648867231;-0.23205154557670582;-0.15108754466447397;0.523;0.019704748659967387
17:54.4;0.6060729816260545;-0.23184590262105026;-0.3689174538501276;0.523;0.05183863431325431
17:54.4;0.6356751231179275;-0.23889897202322002;-0.614228059821842;0.715;0.0932779835916145
17:54.4;0.643620230415979;-0.25217921182565906;-0.8831529675362789;0.978;0.14334247605823305
17:54.4;0.6236315712101893;-0.2701236261189934;-1.1698389040449442;1.264;0.19706827917036818
17:54.4;0.5712488924318694;-0.29072299560873127;-1.4663079853421452;1.534;0.24351737615856345
17:54.4;0.4846041565280485;-0.31172410080458096;-1.7625705099322144;1.808;0.26625882750894925
17:54.4;0.36497763604963174;-0.3309304745292898;-2.0469912677107533;2.048;0.24724015432331792
17:54.4;0.21702017618511493;-0.3465385038091102;-2.30691056252186;2.3480000000000003;0.17349316315738264
17:54.5;0.04853373901540992;-0.35741420520447026;-2.5295179555808724;2.7430000000000003;0.04387865696741738
17:54.5;-0.13026902576496024;-0.3632157495137007;-2.7029407438076896;3.4419999999999997;0.1278917004790395
17:54.5;-0.30799053282969596;-0.36431364986148496;-2.817420629556316;3.4419999999999997;0.31612911882828365
17:54.5;-0.4735288808738898;-0.36154687424133264;-2.8663552379836488;3.4419999999999997;0.4907282911735796
17:54.5;-0.6174833586533622;-0.35591583874569765;-2.8469765611237996;3.503;0.6256860388601323
17:54.5;-0.7332487232445892;-0.3483006827510511;-2.760547519592435;3.347;0.7050190769666661
17:54.5;-0.8176854625473154;-0.3392427222459199;-2.6120867500727987;3.017;0.7245767799072853
17:54.5;-0.8712816967525902;-0.3287990936076454;-2.4097167169022775;2.58;0.690327529539945
17:54.5;-0.8977544221969549;-0.31647909460526197;-2.1637832492627838;2.166;0.6147751932014571
17:54.5;-0.9031520211068705;-0.30126977275666705;-1.8859159677392952;1.814;0.513143409712691
17:54.6;-0.8946516538322252;-0.2817469938013467;-1.5881721769911605;1.5;0.40032327724356487
17:54.6;-0.8793122949235176;-0.25625396591733574;-1.282346174780462;1.23;0.2889475535946111
17:54.6;-0.8630272331350182;-0.22312275694107203;-0.9794657302688331;1.03;0.1886069157388413
17:54.6;-0.8498445426826252;-0.18091586187138756;-0.6894560693808593;0.8690000000000001;0.10600411742096089
17:54.6;-0.841723849184676;-0.1286664662033187;-0.4209318135138132;0.885;0.045587602866709806
17:54.6;-0.8386928629396434;-0.06609600645556851;-0.18108254519523986;0.885;0.010038174878737751
17:54.6;-0.8392808655959229;0.00621012155480255;0.024364519572143133;0.977;0.00012698875785871467
17:54.6;-0.8410733042515411;0.08668504910487004;0.1911238206252695;1.03;0.013934547383514694
17:54.6;-0.8412563411471689;0.1727370440646579;0.31631166847635117;1.032;0.0459651886978203
17:54.6;-0.8370679638585651;0.26079673806461023;0.39842152152880955;1.048;0.08697724870247928
17:54.7;-0.8261187485129585;0.34647289767155004;0.4373127925260998;1.091;0.12517105954513308
17:54.7;-0.80658510158098;0.4248304716087591;0.4341809101922225;1.064;0.14877726826366533
17:54.7;-0.777303530983711;0.49077784887966625;0.3914752624903238;1.064;0.14934129648058625
17:54.7;-0.7378023001128099;0.5395077762154002;0.31275465676476893;1.064;0.12449201558903233
17:54.7;-0.6882974969885128;0.5669220451422325;0.2024868859241487;1.0070000000000001;0.07901261523647359
17:54.7;-0.6296614162959446;0.5699985249540243;0.06579302037596105;0.965;0.023613514936408796
17:54.7;-0.5633597325848554;0.5470851405096091;-0.0918649592747751;0.9279999999999999;0.02831330761175508
17:54.7;-0.49135719324671845;0.4981009668530212;-0.26502992084549487;0.9259999999999999;0.06486487864407238
17:54.7;-0.4159978539466989;0.424614715074876;-0.44857608903280755;0.951;0.07923594666229017
17:54.7;-0.3398663851630712;0.3297760237543571;-0.6379563326975201;1.028;0.07150200867628861
17:54.8;-0.2656329865097056;0.21808785018463675;-0.8293222481504509;1.103;0.04804373831780378
17:54.8;-0.1958817226484743;0.09502658109460399;-1.0194864781573387;1.173;0.018976691129869907
17:54.8;-0.1329301218061918;-0.03344582629437845;-1.2057174185021236;1.173;0.005360568717039648
17:54.8;-0.07866428368037194;-0.16138806999692995;-1.385390259412227;1.173;0.017588190064760794
17:54.8;-0.0344152471527252;-0.2833155630726135;-1.5555684662646807;1.3130000000000002;0.015167376079257658
17:54.8;-0.0008824295066178552;-0.3945345382788031;-1.7126342830158825;1.4709999999999999;0.0005962517724881576
17:54.8;0.02190228857009613;-0.4913824862369158;-1.8520934706017236;1.7;0.01993297264204888
17:54.8;0.034566624366157706;-0.5713707428429572;-1.96864142747248;1.9280000000000002;0.03888137265450766
17:54.8;0.038336573447045705;-0.6332110388544173;-2.0565135553641443;2.164;0.049922157550094146
17:54.8;0.03492680181447303;-0.6767301497533877;-2.1100721319106532;2.377;0.049873706736355154
17:54.9;0.026405877728462514;-0.7027105866176825;-2.124522049411348;2.529;0.03942197218315924
17:54.9;0.01505836458477599;-0.7127041432721128;-2.0966172069451865;2.395;0.022501228871636105
17:54.9;0.0032484225251826456;-0.7088451135778727;-2.0252328761319296;2.395;0.004663358805672263
17:54.9;-0.00672518949078653;-0.6936641101394366;-1.9117273480503936;2.395;0.008918251252427862
17:54.9;-0.012794464113803377;-0.6698917149686724;-1.7600570648458103;2.1180000000000003;0.015085282790250775
17:54.9;-0.013306893143108827;-0.6402473546257857;-1.5766222350248251;1.814;0.01343235339555614
17:54.9;-0.007202195436032623;-0.6072277172777402;-1.3698381444801657;1.508;0.005990812736283223
17:54.9;0.005872439512465265;-0.5729283296732208;-1.149473826089223;1.167;0.0038673896998692907
17:54.9;0.025560540726403364;-0.5389346730783257;-0.9258469361705437;0.855;0.012753968972328587
17:54.9;0.05092249499444428;-0.5063012296252877;-0.7089870483391918;0.6679999999999999;0.018279190457076884
17:55.0;0.08065509849059584;-0.475610971460291;-0.5078811826744412;0.588;0.01948255058509348
17:55.0;0.11333980572748908;-0.44708818333051287;-0.329898502303154;0.516;0.016716909806364522
17:55.0;0.14765444014381407;-0.42073122724566714;-0.18046002925110224;0.516;0.011210688406510136
17:55.0;0.18250458028889438;-0.3964382100613461;-0.06298117903863634;0.516;0.004556800985448818
17:55.0;0.21706060226766666;-0.3741078254457242;0.02093177233686589;0.49700000000000005;0.001699745104063667
17:55.0;0.2507106403503022;-0.3537024171132951;0.07110012962397724;0.485;0.006304943314251569
17:55.0;0.28294951477683955;-0.33526524608105274;0.0883051234658539;0.461;0.008376901175277073
17:55.0;0.3132225685389379;-0.31889401820057;0.073832701703165;0.436;0.00737476489946327
17:55.0;0.34074394843842426;-0.30468353489119837;0.02911206359714487;0.42200000000000004;0.0030223873889023128
17:55.0;0.3643180692312433;-0.2926563637037;-0.044490914451734594;0.413;0.004743621359919669
17:55.1;0.3822059307171662;-0.2827008032246229;-0.14568720783581335;0.406;0.01574149167775331
17:55.1;0.3920842368799592;-0.27453129513935154;-0.27307947140440675;0.42100000000000004;0.029394108639504965
17:55.1;0.39113687423580057;-0.2676798779309534;-0.42481560313410915;0.46399999999999997;0.04447796881437017
17:55.1;0.3762960575947191;-0.26152169795812275;-0.5981612911183164;0.46399999999999997;0.058864803774279904
17:55.1;0.3446252963401253;-0.25533544609027237;-0.7891006761440023;0.594;0.0694369564311789
17:55.1;0.293816724183198;-0.24839911837212603;-0.9920819184895497;0.828;0.07240592345199863
17:55.1;0.22275482087347287;-0.240117539359245;-1.2000036390999407;1.167;0.06418500200803112
17:55.1;0.1320671845526492;-0.23016564003105508;-1.4044862233458388;1.455;0.04269262848631633
17:55.1;0.024546282646201397;-0.2186126691428552;-1.5964071365709251;1.7519999999999998;0.008566525620548783
17:55.1;-0.0946981716795897;-0.2059812397393191;-1.7666277003644355;2.065;0.0344599226078604
17:55.2;-0.21849141410133252;-0.19320394099011012;-1.9068047673032629;2.3;0.08049271670564435
17:55.2;-0.33832426067534427;-0.18146814100787584;-2.0101565361090383;2.533;0.12341371057776228
17:55.2;-0.44548373429410354;-0.17198032431097018;-2.0720493151114296;2.533;0.15874889191896632
17:55.2;-0.5323127747061717;-0.1657201882585037;-2.090311602714051;2.533;0.18439678208981117
17:55.2;-0.5932616807245954;-0.16326205476892364;-2.065250019336223;2.3480000000000003;0.20003417104032833
17:55.2;-0.6255189941790311;-0.16470550476855836;-1.99940516905626;2.14;0.20599156005351926
17:55.2;-0.6291799008898615;-0.16970791186339232;-1.8971339176939321;1.945;0.20256990249850748
17:55.2;-0.607001651537763;-0.1775824063756022;-1.7641327277833814;1.801;0.19016083091618835
17:55.2;-0.5638366177331292;-0.18741987965599044;-1.6070035778575489;1.689;0.16981880309038444
17:55.2;-0.5058674404475206;-0.1982004352113057;-1.4329072497491662;1.5930000000000002;0.14366779001252433
17:55.3;-0.43978376423711707;-0.20887282774273103;-1.2492799358906066;1.469;0.1147574537579488
17:55.3;-0.37202336447251716;-0.2184001630131674;-1.0635500219900285;0.7929999999999999;0.08641340040915557
17:55.3;-0.30816349751468664;-0.225787771889399;-0.8828177636049632;0.7929999999999999;0.06142606226588585
17:55.3;-0.2525099332191892;-0.23011298513953574;-0.7135342847476154;0.7929999999999999;0.041460490796393294
17:55.3;-0.20789666369518905;-0.2305686544787836;-0.5612478310990966;0.596;0.026903108352986545
17:55.3;-0.17567760109147346;-0.22652258324334004;-0.43043492294647423;0.46299999999999997;0.017129133661717193
17:55.3;-0.1558706265049702;-0.21758640665746445;-0.32438550047437575;0.374;0.01100164114161157
17:55.3;-0.14740821694830253;-0.20368033980546718;-0.24512499891077827;0.34299999999999997;0.007359671137708136
17:55.3;-0.14844897800919402;-0.18507868871479904;-0.19338773420289082;0.331;0.005313278140124834
17:55.3;-0.15670453620599192;-0.1624259865695116;-0.16866088602391158;0.32799999999999996;0.00429290679259124
17:55.4;-0.16973874071914025;-0.13672065101484404;-0.1693073833586657;0.32799999999999996;0.00392908108297424
17:55.4;-0.18520514475012095;-0.1092683447929042;-0.19276527221392342;0.37799999999999995;0.00390100230529747
17:55.4;-0.20100630560313457;-0.08161052691223683;-0.2358062682578228;0.37799999999999995;0.0038682203809007726
17:55.4;-0.2153803256494607;-0.05543508782670736;-0.2948168306461446;0.37799999999999995;0.0035200030704021427
17:55.4;-0.22693541235385115;-0.03247274637236479;-0.36606264980898495;0.457;0.002697594768288813
17:55.4;-0.2346563755566716;-0.014377466834896987;-0.4459196948556716;0.532;0.0015044279280691758
17:55.4;-0.23790324027968876;-0.0025921024054958944;-0.5310735602814273;0.633;0.00032749689949214075
17:55.4;-0.23641529526492777;0.0017872504550476118;-0.6186857728364774;0.7509999999999999;0.0002614153685080891
17:55.4;-0.23032058468873878;-0.0018728964311603333;-0.7065160673865232;0.86;0.0003047674346013839
17:55.4;-0.22013378429867675;-0.013664335178801727;-0.7929857147296484;0.9329999999999999;0.002385286607744873
17:55.5;-0.20671680743927864;-0.03310633313800893;-0.8771671160060488;0.9940000000000001;0.006003012007786551
17:55.5;-0.19118406827440204;-0.0591755232149544;-0.9586890747640228;1.069;0.010846049535476212
17:55.5;-0.17475483772184058;-0.09040330033152047;-1.0375552429019357;1.069;0.01639172735715414
17:55.5;-0.15857684575856196;-0.12502481666392878;-1.1138838327879061;1.069;0.022083906613954932
17:55.5;-0.14355266039302172;-0.16114616735543763;-1.187594429256035;1.028;0.027472575658564983
17:55.5;-0.13019322591558866;-0.19690419077128654;-1.2580944282277928;1.046;0.03225199519885926
17:55.5;-0.11852150075552866;-0.23060849251336657;-1.324040504029805;1.107;0.03618876061518228
17:55.5;-0.10805831735873453;-0.2608608000389581;-1.3832516087939701;1.229;0.03899134411265016
17:55.5;-0.09791627365272376;-0.2866506976525071;-1.4328224965270884;1.412;0.04021612963848254
17:55.5;-0.08698849242731635;-0.3074295432051461;-1.4694383278588234;1.6280000000000001;0.03929694305783387
17:55.6;-0.07417084011083358;-0.323154318678255;-1.4898374527649434;1.706;0.03570935864560121
17:55.6;-0.058539911525107395;-0.33427732064088767;-1.491330383810407;1.722;0.02918319521676939
17:55.6;-0.0394415331197927;-0.3416611629096787;-1.4722739285119233;1.722;0.019839833548971612
17:55.6;-0.016499973340882854;-0.34642711207913324;-1.4324179834956223;1.722;0.008187755788646243
17:55.6;0.010410237651432511;-0.3497703249430356;-1.3730703828473505;1.5619999999999998;0.0049996131764172514
17:55.6;0.04119624875602091;-0.3527774308568026;-1.2970538062086499;1.392;0.018850221487198244
17:55.6;0.07556872349513932;-0.3562718782224322;-1.208464225986114;1.262;0.03253549571517372
17:55.6;0.11304889853424284;-0.36070417752483797;-1.1122777845801222;1.127;0.04535558476221074
17:55.6;0.15296317787860805;-0.3660961601178125;-1.0138730962248483;0.9620000000000001;0.056776114795673086
17:55.6;0.1944382832221757;-0.37204096716186746;-0.918534966561099;0.855;0.06644590732370086
17:55.7;0.23641638304235274;-0.37775653833724615;-0.8309980071240443;0.795;0.07421463246039034
17:55.7;0.2777054939179811;-0.382186273152427;-0.7550804605091482;0.79;0.0801406366490864
17:55.7;0.3170639580272534;-0.38413322759284446;-0.6934452114490657;0.79;0.08445802191449402
17:55.7;0.3532960339408218;-0.38240793462032757;-0.6475062966454669;0.79;0.08748017700213238
17:55.7;0.3853297598333704;-0.37597038115878056;-0.6174769821359672;0.825;0.08945548144038873
17:55.7;0.4122665671979213;-0.36405239503291054;-0.602532520788701;0.847;0.09043207622181024
17:55.7;0.43341191156105513;-0.3462513667449037;-0.6010462470212709;0.845;0.09019868977748405
17:55.7;0.4482972664948623;-0.322589121767211;-0.6108583962729457;0.883;0.0883397887905989
17:55.7;0.45669305282272465;-0.29353418522634717;-0.6295474451974261;0.9109999999999999;0.08439399734553683
17:55.7;0.45860460933362623;-0.259988434291594;-0.6546826525610708;0.91;0.07805905285610291
17:55.8;0.45424512085688257;-0.22323532743429386;-0.6840403375817138;0.919;0.06936412424462153
17:55.8;0.44398696017387185;-0.1848438088739166;-0.7157697987888006;0.9329999999999999;0.058741968210730314
17:55.8;0.428300410237891;-0.14653329542994753;-0.7484972374008121;0.9329999999999999;0.046975889122325774
17:55.8;0.40769389756507024;-0.11002589572855409;-0.781354966234402;0.9329999999999999;0.03504915085114286
17:55.8;0.3826694446291092;-0.07691681409863832;-0.813927128409228;0.894;0.023956898748885413
17:55.8;0.3536998915044107;-0.04857555613853336;-0.8461204229457041;0.84;0.014537337926800857
17:55.8;0.3212293234255291;-0.026073277567974933;-0.8779917475186697;0.789;0.007353621033835512
17:55.8;0.28570021098867004;-0.010131096596629984;-0.9095823918068763;0.8320000000000001;0.002632746607313462
17:55.8;0.24761025593671399;-0.0010909793027682932;-0.9408117148681212;0.945;0.0002541486792759249
17:55.8;0.20759009907929;0.0010852117370541618;-0.971464365146086;0.985;0.00021885072668278494
17:55.9;0.16647656838249278;-0.0032156794493993783;-1.0012703134177887;1.033;0.0005360153233429997
17:55.9;0.125349821778799;-0.013318342486836509;-1.0300476619817898;1.193;0.0017196149822113946
17:55.9;0.08551198896106046;-0.028335200676990257;-1.0578625841797238;1.193;0.0025632003723696233
17:55.9;0.04839953462176526;-0.04724290688063656;-1.085151880309075;1.2429999999999999;0.002481237436912429
17:55.9;0.015433689734400572;-0.06894847764545466;-1.112755587627668;1.24;0.0011841159487604635
17:55.9;-0.01217089729778298;-0.09234182545933078;-1.1418263749021909;1.228;0.0012832791077830553
17:55.9;-0.03359997013661229;-0.11634001324210601;-1.1736106501250239;1.149;0.004587668642690892
17:55.9;-0.0485897096133411;-0.139936419052459;-1.2091272921587446;1.04;0.008221424708212865
17:55.9;-0.0574990013108335;-0.1622628586308091;-1.2488065913671584;0.997;0.011651305955746588
17:55.9;-0.06129105444649031;-0.18265103128469867;-1.29218580284303;1.042;0.01446585763917896
17:56.0;-0.061430897335245704;-0.20066342502927115;-1.3377654400851215;1.112;0.016490546637786974
17:56.0;-0.05971924326110887;-0.21607309848584189;-1.3830946883476756;1.55;0.017847069262207835
17:56.0;-0.05809126879444631;-0.22879735328354311;-1.4250775443580994;1.55;0.01894088883443113
17:56.0;-0.05841028236731455;-0.23880907286195435;-1.460407760515016;1.55;0.020371089664346028
17:56.0;-0.062280465701668626;-0.24605184124116006;-1.4860099759224414;1.663;0.022771948636511895
17:56.0;-0.07089393773316144;-0.2503786857183083;-1.4994010695930562;1.7;0.02661486521959454
17:56.0;-0.08492286916079064;-0.25152867184542343;-1.498931351992797;1.652;0.03201797783922241
17:56.0;-0.10446775520078418;-0.24915017844542206;-1.48388345055461;1.5619999999999998;0.03862275564990593
17:56.0;-0.1290707485614945;-0.24286993188744047;-1.4544246747014788;1.466;0.04559243773714267
17:56.0;-0.1577947762129694;-0.23239435832250852;-1.4114417641353727;1.39;0.05175843860679768
17:56.1;-0.18935864996939594;-0.2176224644384672;-1.356312609335401;1.35;0.05589187409276476
17:56.1;-0.22230692613131617;-0.19875167135701255;-1.2906722402587363;1.182;0.0570268985067624
17:56.1;-0.25518025588189147;-0.17636401971869453;-1.216221443556857;1.182;0.05473557864926452
17:56.1;-0.2866459439275191;-0.15148125521547404;-1.1346175044946127;1.182;0.04926677966225789
17:56.1;-0.31556166084334847;-0.12557306927815268;-1.047468043270633;1.0859999999999999;0.04150701717895727
17:56.1;-0.3409729672297708;-0.10050094574530191;-0.9564169367237036;1.024;0.03277459666195597
17:56.1;-0.36206839145447633;-0.07838841597783638;-0.8632879986962241;0.9890000000000001;0.02450181207904715
17:56.1;-0.378124379659858;-0.06142783627116414;-0.7702475698501424;0.9390000000000001;0.01789081950723791
17:56.1;-0.3884704390884505;-0.051654612959756666;-0.6799455284531046;0.904;0.013643984278779619
17:56.1;-0.3924967486187197;-0.05072801467669986;-0.595589469347511;0.836;0.01185853226765717
