Time;AccX;AccY;AccZ;Acc-old;Acc-trns
03:45.9;-0.2775065247101858;-0.03326127716975615;-1.3616999599252968;1.3969999999999998;0.01256879215787051
03:45.9;-0.22468324579503768;-0.09476427099886953;-1.3046195123859443;1.3969999999999998;0.027777885590452994
03:45.9;-0.17263462984117103;-0.1561693803808101;-1.2448805411075468;1.4569999999999999;0.033562282111545
03:45.9;-0.12198594800550984;-0.21660382044980336;-1.1806788153363605;1.492;0.031196630488735565
03:45.9;-0.07336184769907927;-0.2749564971204574;-1.1112746439119665;1.4480000000000002;0.022415872744826076
03:45.9;-0.027348824971125476;-0.32988531990277126;-1.0372461556527415;1.3;0.009358009792283939
03:45.9;0.01554323729969961;-0.379876387866508;-0.9604992257842316;1.123;0.005671276170572121
03:46.0;0.05490234664889171;-0.4233417702368061;-0.8840249081460372;0.953;0.020546910579022755
03:46.0;0.09041954530319093;-0.45874427787105876;-0.8114594951596362;0.8290000000000001;0.033658892757651424
03:46.0;0.1218950556579032;-0.48473692338626645;-0.7465465410208215;0.767;0.04411122104270422
03:46.0;0.14926050650602257;-0.5003014994245905;-0.6926120587448312;0.767;0.051720982248180836
03:46.0;0.1726147422716875;-0.5048685275290467;-0.6521466968625876;0.757;0.05683311779747245
03:46.0;0.1922559699237658;-0.4984026506900285;-0.6265516509712398;0.7609999999999999;0.06003673370742491
03:46.0;0.20869149757199618;-0.48144372657957807;-0.6160656545345736;0.779;0.06189809529665588
03:46.0;0.22261115857289304;-0.45509994460621156;-0.6198631445427025;0.805;0.06279853720886906
03:46.0;0.23481730261017422;-0.42099295123213487;-0.6362945638824055;0.8640000000000001;0.0629018085214737
03:46.0;0.24611606038382888;-0.38115809604565265;-0.663218586426648;0.9390000000000001;0.06221595791746133
03:46.1;0.2571885582151761;-0.3379049234709642;-0.698356013140865;0.966;0.06069082491847158
03:46.1;0.26846927207602245;-0.29364307501861076;-0.7395885397425577;0.96;0.05830482840769474
03:46.1;0.28005839502402224;-0.2506823214854534;-0.7851414656421536;0.889;0.05512139725647086
03:46.1;0.29168671086441594;-0.21102948998141127;-0.8336258486191649;0.889;0.05131342048825396
03:46.1;0.3027393257334737;-0.1762221727599257;-0.8839579154329748;0.889;0.04715860829076235
03:46.1;0.3123365537231694;-0.1472378446066892;-0.9352023257649837;0.92;0.043007861008462135
03:46.1;0.3194674364066746;-0.12449355841279942;-0.9863925384328797;0.9790000000000001;0.039230446920343706
03:46.1;0.3231628211295705;-0.10792875588172005;-1.0363735583137343;1.022;0.03614721861260328
03:46.1;0.3226755061672543;-0.0971520289726788;-1.0837032677971223;1.02;0.03397255872110816
03:46.1;0.3176208359324488;-0.09161819482541048;-1.1266457395946734;1.067;0.03278521935189126
03:46.2;0.3080409691668137;-0.09078610221506633;-1.1632855538625029;1.276;0.0325322564093789
03:46.2;0.29438376063521837;-0.09420971597275202;-1.191762080084373;1.626;0.0330521036620614
03:46.2;0.2774121416815269;-0.10153665213842841;-1.210557755516719;1.31;0.034098385734550346
03:46.2;0.2580739984319631;-0.11241748401410706;-1.2187254844041824;1.31;0.03535769981949909
03:46.2;0.23736681979561386;-0.12636255568509913;-1.2159724119315063;1.31;0.03647221454461382
03:46.2;0.2162232999468767;-0.1426074819843275;-1.2026016589343134;1.126;0.03708229473237353
03:46.2;0.19542804379510956;-0.16004476970678955;-1.1793689426345024;0.988;0.036887401060538845
03:46.2;0.17556528877995534;-0.17725453735809868;-1.1473278472504758;1.046;0.035704548935058915
03:46.2;0.15699639347728825;-0.19263649434079133;-1.1077377775982806;1.226;0.033501573775200716
03:46.3;0.13986394958675505;-0.2046086929514314;-1.0620705818487928;1.314;0.030393677338343108
03:46.3;0.1241130009408385;-0.2118091499522715;-1.0120753972262755;1.212;0.026605710520615455
03:46.3;0.10951662504667889;-0.21323760164576905;-0.9598095052030374;1.053;0.022414491329788275
03:46.3;0.095700039249884;-0.2083069649825918;-0.9075652251850126;0.8109999999999999;0.018092298900875763
03:46.3;0.08216993024468172;-0.19681485162070078;-0.8576959594489065;0.8109999999999999;0.013870884311860048
03:46.3;0.06836056561207186;-0.17887079472476505;-0.8124035864247419;0.8109999999999999;0.00993383440071554
03:46.3;0.05370070679487422;-0.1548139950779507;-0.7735522228286594;0.727;0.006431019971370366
03:46.3;0.03769573073183155;-0.12514003721098846;-0.7425370672256101;0.6709999999999999;0.0035027293764491275
03:46.3;0.020015642516278666;-0.09044511569323971;-0.7202102224135072;0.667;0.0013038088834333515
03:46.3;0.000577061693945211;-0.05139886124314206;-0.7068635691218412;0.7040000000000001;2.096579536994971e-05
03:46.4;-0.02039851706014055;-0.00875790886061607;-0.702267581645726;0.7340000000000001;0.0001254589470400954
03:46.4;-0.04236977705271467;0.03657857915088334;-0.7057513813386199;0.722;0.0010937920122047334
03:46.4;-0.0645130119145935;0.08348917875251069;-0.7162987186055327;0.695;0.003858084022405005
03:46.4;-0.08580240068328895;0.13055904508351163;-0.7326412050793791;0.773;0.00820725155184423
03:46.4;-0.10511084454008006;0.1760473994105601;-0.753345548758031;0.773;0.013940275799664652
03:46.4;-0.12131078196422512;0.21790295989352082;-0.7768989627593706;0.773;0.020536530444848555
03:46.4;-0.13336702013777002;0.253821271559166;-0.801797012316125;0.777;0.027141940667042317
03:46.4;-0.14042718251823616;0.2813429485372533;-0.8266428906315348;0.8059999999999999;0.032659170654859494
03:46.4;-0.1419216469529751;0.29799867457780493;-0.8502741530152153;0.934;0.035960187889169104
03:46.4;-0.1376799500808466;0.30149839595758404;-0.8719254489176914;1.109;0.036193873102861915
03:46.5;-0.1280535374722013;0.28994807001416995;-0.8914038610854806;1.235;0.033096823467443436
03:46.5;-0.11400989172198189;0.2620678846383606;-0.9092112400718849;1.266;0.027165714517468586
03:46.5;-0.09714356814710758;0.21737715064732754;-0.9265281439722927;1.2309999999999999;0.01956530214244937
03:46.5;-0.07955260322613414;0.1563044367980901;-0.9450008241183935;0.789;0.011750541724151494
03:46.5;-0.06356577647165663;0.08019473590454776;-0.9663442770488208;0.789;0.004926075875065053
03:46.5;-0.051363443433110154;-0.008779447981048566;-0.9918571786631868;0.789;0.0004472707340741852
03:46.5;-0.04456934680921185;-0.1077762254825968;-1.02198346475841;0.764;0.004909113895393683
03:46.5;-0.04388901603910629;-0.21349550575467774;-1.0560305897514337;0.953;0.00989512033548416
03:46.5;-0.04887035073228209;-0.3224247283193077;-1.0921058370596495;1.036;0.01720832211259652
03:46.5;-0.05786950579833594;-0.4310711419095283;-1.1272915676877284;1.128;0.02812127334818466
03:46.6;-0.06826931656274245;-0.5361335114892672;-1.1580394257319;1.3430000000000002;0.04238594346512578
03:46.6;-0.07691172182271537;-0.6346167403191442;-1.1807163535228578;1.585;0.05763013494370594
03:46.6;-0.08063455665666767;-0.7239264779615142;-1.1921940607079824;1.805;0.06959252879903365
03:46.6;-0.07679006197215837;-0.8019568699802755;-1.1903536760084474;1.598;0.0733047383046233
03:46.6;-0.06365126961147048;-0.8671486135925324;-1.1743993113834998;1.598;0.06482109940708275
03:46.6;-0.04065320578637304;-0.9184930941409729;-1.1449428980872887;1.598;0.04275181147340064
03:46.6;-0.008449510655490556;-0.9554837729168685;-1.1038897050887988;1.507;0.008912110382069393
03:46.6;0.03121529424384464;-0.9780409255202895;-1.0541700348685823;1.444;0.03218363751388885
03:46.6;0.0757983161646713;-0.9864416638718351;-0.9993523794620186;1.358;0.0747221941288798
03:46.6;0.12236441232872326;-0.9812694138723245;-0.9431845371715252;1.294;0.11325048305150753
03:46.7;0.16802682239160782;-0.9633725615757159;-0.8891381443513015;1.1540000000000001;0.14392695229931635
03:46.7;0.2103387031312859;-0.9338172890757301;-0.8400495738982342;1.117;0.16500078794029602
03:46.7;0.24756489558343833;-0.8938386750791464;-0.797943355876646;1.166;0.17657136206901602
03:46.7;0.2787846428820823;-0.8448087226621935;-0.7640892532023115;1.284;0.17995807019825896
03:46.7;0.3038152487604386;-0.7882295446276988;-0.7392734519348645;1.284;0.17703836389703662
03:46.7;0.3229995424179344;-0.7257400899623109;-0.7241766042701043;1.284;0.16975692955124444
03:46.7;0.33693132580704516;-0.6591135885066214;-0.719708132022395;1.2329999999999999;0.15982991409030148
03:46.7;0.3461851237225444;-0.5902203699693698;-0.72717911074573;1.135;0.1485812439744171
03:46.7;0.3510951339517375;-0.5209409709544348;-0.7482605743851907;1.022;0.136856739317044
03:46.7;0.35161667973455046;-0.4530385067080182;-0.7847252584667167;0.895;0.12500351278506813
03:46.8;0.3472947063524325;-0.3880196633954562;-0.8380140671476924;0.768;0.11292840834759987
03:46.8;0.3373463265392194;-0.3270175740248856;-0.9087147537426216;0.708;0.10024775532855695
03:46.8;0.32084209447756296;-0.2707232594524938;-0.9960776161014671;0.7020000000000001;0.08651872160555345
03:46.8;0.2969542618639068;-0.2193835576954375;-1.0976984266789338;1.122;0.07151163035800333
03:46.8;0.26523166089198563;-0.17287226670555106;-1.209452186902173;1.122;0.0554548322017297
03:46.8;0.2258538597514844;-0.1308247898753606;-1.3256822842803964;1.122;0.03917031060872572
03:46.8;0.17981302564902868;-0.09280912885423914;-1.4396054443136088;1.402;0.024024553524848044
03:46.8;0.1289792707410497;-0.0584977805965264;-1.5439025238917354;1.6880000000000002;0.011648746212200231
03:46.8;0.07602421063326471;-0.0278098545136974;-1.631457988548439;1.916;0.003449264758495275
03:46.8;0.024197482294734823;-0.0010026030419249864;-1.6961537759256846;1.992;4.114948670327632e-05
03:46.9;-0.023035203535778488;0.021303889756019087;-1.733579114779728;2.093;0.0008507356381469277
03:46.9;-0.0624685667698631;0.03818814274180976;-1.7415286257903124;2.3409999999999997;0.004154518494065527
03:46.9;-0.09168844073153341;0.048594089035937975;-1.720187620818211;2.384;0.007664323901860907
03:46.9;-0.10953941018779002;0.051598771119816464;-1.6719247624811147;1.295;0.009449884202656612
03:46.9;-0.11638777681627466;0.046723222356845985;-1.6006976436177218;1.295;0.00870461295563724
03:46.9;-0.11409439688636856;0.03418070964928902;-1.5112479160682644;1.295;0.005893606110742939
03:46.9;-0.10570599027609963;0.014960204045157948;-1.4083637057899399;1.215;0.002227162680342802
03:46.9;-0.09493696837692318;-0.009293420421567148;-1.2963967175177304;1.212;0.0011437967718015449
03:46.9;-0.08555260503581141;-0.03655362752451524;-1.179053623830446;1.15;0.003687204946210245
03:46.9;-0.08079165009420247;-0.06473452209987976;-1.0593907756134164;1.092;0.005540623141080785
03:47.0;-0.08294841847033818;-0.09195898056076984;-0.9399317861579963;1.042;0.007169660556469537
03:47.0;-0.09316829433541857;-0.11671814175610079;-0.8228386577064437;0.9640000000000001;0.00894790153708973
03:47.0;-0.11144438394234092;-0.1379176231290572;-0.71007372752768;0.845;0.01091393582928825
03:47.0;-0.13676808387382208;-0.1548361228144708;-0.6035015121663503;0.539;0.012780134161085595
03:47.0;-0.1673751480502473;-0.16703386174318768;-0.5049146706759625;0.539;0.014116059677038231
03:47.0;-0.20102771066409034;-0.17424884845049596;-0.41601455218322697;0.539;0.014572510135581687
03:47.0;-0.2352852282816926;-0.17631267237943454;-0.33838803837852033;0.48100000000000004;0.014037610664800753
03:47.0;-0.2677443979832893;-0.17310622274599063;-0.2734881925395132;0.433;0.012675691297091571
03:47.0;-0.29624984324458736;-0.16456234438336786;-0.2225984190496452;0.405;0.01085202212493931
03:47.0;-0.3190800453731944;-0.15070984849790667;-0.18677224370662499;0.435;0.008981598030799806
03:47.1;-0.33510495530830364;-0.13174328286599946;-0.16676734731130002;0.483;0.007362415984503156
03:47.1;-0.3439019874654063;-0.10809796149665991;-0.16300076562699745;0.489;0.006059570381607732
03:47.1;-0.3458099093933863;-0.08051002636661775;-0.17554033098415098;0.48100000000000004;0.0048872473055851726
03:47.1;-0.3419034036457357;-0.050044188162744634;-0.2041292077564652;0.45899999999999996;0.00349270754683531
03:47.1;-0.3338874015011231;-0.01807980630374307;-0.2482250751782545;0.45899999999999996;0.0014984403407277598
03:47.1;-0.32392816555773307;0.0137397141430905;-0.3070278101523145;0.45899999999999996;0.0013664826561810585
03:47.1;-0.3144430925487672;0.043581661836452075;-0.3794778155026011;0.47600000000000003;0.005200345968419751
03:47.1;-0.30786428763095813;0.06951758640949779;-0.4642310510478884;0.48100000000000004;0.009935464699469905
03:47.1;-0.30638812573764207;0.08963734487633562;-0.5596377181992194;0.519;0.015369788490470142
03:47.1;-0.3117328013029177;0.10218065442948658;-0.6637564396483299;0.639;0.021142674788898922
03:47.2;-0.32493792499883367;0.10567708695869484;-0.7744272061888785;0.85;0.02659266347463898
03:47.2;-0.34624007017496616;0.09908552049977983;-0.889403196690853;1.125;0.030513091281875838
03:47.2;-0.37504306214005334;0.08192221603586936;-1.0065012712612635;1.3519999999999999;0.030924106150014605
03:47.2;-0.4099794919313253;0.05435635542968905;-1.1236914936410942;1.351;0.025041454802681763
03:47.2;-0.4490364355740599;0.017242936956012422;-1.2390450105554114;1.351;0.009593562414040132
03:47.2;-0.4896992868418995;-0.027932449737029172;-1.3505155068192443;1.351;0.018473027326956146
03:47.2;-0.5290695023025692;-0.07921002199610103;-1.455610245671565;1.214;0.06100114199683615
03:47.2;-0.5639435088955506;-0.13440941075753746;-1.5510670469681873;1.234;0.11756981926231759
03:47.2;-0.5908801829363098;-0.19143918138991858;-1.6326814524060633;1.365;0.18468503769934044
03:47.2;-0.6063046658354888;-0.24857398864835697;-1.6954192627482363;1.64;0.2555192974098696
03:47.3;-0.6066853935954664;-0.3046054479285987;-1.7338843454382067;2.006;0.32042126537615784
03:47.3;-0.5887889572510683;-0.35882900762097586;-1.7430925427415886;2.272;0.3682711051761862
03:47.3;-0.5499881471743826;-0.4109047329920954;-1.719375733444292;2.41;0.38856642064833463
03:47.3;-0.48858551277566387;-0.4606727097324379;-1.6611744911717232;2.005;0.37389385223475496
03:47.3;-0.4041110995184619;-0.5079948915584351;-1.5695226849872077;2.005;0.32220162119026585
03:47.3;-0.29755105879695737;-0.5526533586811794;-1.4481514379690856;2.005;0.238137776101876
03:47.3;-0.17146026756054977;-0.5943022608913118;-1.3032349234407143;1.618;0.1327986282540002
03:47.3;-0.029912598271659475;-0.6324674240717669;-1.1428190169867372;1.2329999999999999;0.021620700393470416
03:47.3;0.12173332177556294;-0.6665897925206641;-0.9759928357382615;0.985;0.07919809979975624
03:47.3;0.27722654711141015;-0.6960971147518132;-0.811932859384352;0.915;0.15668404228870925
03:47.4;0.4299089735283517;-0.7204759403282097;-0.659007556697551;0.95;0.2041203890250554
03:47.4;0.5732218046396532;-0.7393169840067165;-0.5241179016554013;1.038;0.22211729651603812
03:47.4;0.7011786582703937;-0.7523194658350885;-0.4123786942532221;1.1179999999999999;0.21753403084115852
03:47.4;0.8087683336167323;-0.7592582104213441;-0.32715290785730566;1.3219999999999998;0.2008928224342505
03:47.4;0.8922570794639896;-0.7599347221542998;-0.2703596574764633;1.3219999999999998;0.18331929497697189
03:47.4;0.9493621584234537;-0.7541428581730772;-0.2429088149467682;1.3219999999999998;0.17391170569087788
03:47.4;0.9792830930634945;-0.7416754645122303;-0.2451018955669761;1.3719999999999999;0.17802001731353062
03:47.4;0.9826036505677727;-0.7223802235028208;-0.27688495005093583;1.37;0.19653666018451918
03:47.4;0.9610925413348799;-0.696248595307734;-0.3379088282937978;1.328;0.22611484577241356
03:47.4;0.9174262200981269;-0.6635035789277434;-0.427411614516568;1.235;0.2601721090160786
03:47.5;0.8548526398562942;-0.6246497117059338;-0.5439815635207403;1.0959999999999999;0.29047715476539226
03:47.5;0.7768250327275183;-0.5804628098721902;-0.6852856756405084;0.96;0.30900767457436723
03:47.5;0.6866543533249065;-0.5319191093576038;-0.8478566577301005;0.9109999999999999;0.30967504211839847
03:47.5;0.5872421389174137;-0.48008306215241864;-1.0270175640555734;1.3359999999999999;0.28954193113831367
03:47.5;0.48094966934512834;-0.42598579585562363;-1.216973560681546;1.3359999999999999;0.2493307777377566
03:47.5;0.3696325806223754;-0.3705308582148247;-1.411024324907109;1.3359999999999999;0.19325428284760413
03:47.5;0.2548281511998705;-0.3144531655832529;-1.6018242208912246;1.594;0.1283566077099286
03:47.5;0.13803960765877435;-0.2583349227497194;-1.7816712082326969;1.791;0.06353519949798676
03:47.5;0.021038958603204126;-0.20267195255790665;-1.942850738195641;1.979;0.008284328797706868
03:47.5;-0.09388686042251608;-0.14798962657131415;-2.0780387518550865;2.162;0.028872855207225115
03:47.6;-0.20380679472814453;-0.09500275510461383;-2.1807286357020494;2.3209999999999997;0.04222371927320365
03:47.6;-0.30517857552003624;-0.04478534924043919;-2.245634208250215;2.369;0.030692270856349454
03:47.6;-0.39407606775470155;0.0011186261120650167;-2.2690269598576345;2.352;0.0010002410403006157
03:47.6;-0.4666274876937337;0.0407271959914195;-2.2489840471815468;2.4530000000000003;0.0427406579757901
03:47.6;-0.5196292170922557;0.07184414608796456;-2.1855487939855345;2.4530000000000003;0.08159160123605282
03:47.6;-0.5512007451883207;0.09243951790973653;-2.080816418403566;2.4530000000000003;0.10602327955335576
03:47.6;-0.5612833833918165;0.10108418702922363;-1.9389387725483613;2.449;0.11000932580741424
03:47.6;-0.5518309168116785;0.09733342297272359;-1.7660075199117133;2.23;0.09485507544104706
03:47.6;-0.5266367201267924;0.08197211812086648;-1.5697604196093962;1.788;0.0677658154913164
03:47.6;-0.49082512172589743;0.05704279889363726;-1.3590835129338021;1.339;0.03805167280599821
03:47.7;-0.4501175683035991;0.025622288515563755;-1.1433424083753523;0.986;0.013186216245984532
03:47.7;-0.4100521136201381;-0.00859906447449202;-0.9316328319101242;0.743;0.0032849975142523005
03:47.7;-0.3753353485079504;-0.041816402412983046;-0.7320634449933424;0.552;0.011489863128463033
03:47.7;-0.3494364994090787;-0.07056786036702878;-0.5511711666526639;0.396;0.01359132213579959
03:47.7;-0.3344403635710128;-0.0920744164219756;-0.3935442498819461;0.396;0.012118566017399749
03:47.7;-0.331103668971652;-0.10443555066557424;-0.26170278897669863;0.396;0.009049419168878562
03:47.7;-0.3390348571889749;-0.1066878806355598;-0.15624356744347412;0.39;0.005651472074679329
03:47.7;-0.3569362548566914;-0.09875090896554406;-0.07619592932311438;0.401;0.0026857373239492516
03:47.7;-0.38287612269337423;-0.0812948218994582;-0.019494383000469913;0.418;0.0006067791671128019
03:47.7;-0.4145719948103284;-0.055571299518578636;0.016526817119233612;0.47;0.00038074984513631916
03:47.8;-0.44966900676899196;-0.02324071276426285;0.03468891148691684;0.581;0.0003625209174904364
03:47.8;-0.4859909525675231;0.013786835913911452;0.037619155934839894;0.685;0.0002520587847824504
03:47.8;-0.5217260019916606;0.053487796056417236;0.027519300257314958;0.747;0.0007679528772548141
03:47.8;-0.5554978087833476;0.09383230613727107;0.006056503500774393;0.565;0.00031568701087271716
03:47.8;-0.5862928915319804;0.13286107761853636;-0.025637475810754345;0.565;0.0019970441346649037
03:47.8;-0.6132676685750976;0.16873719379118088;-0.06689527116393452;0.565;0.0069223939328227095
03:47.8;-0.6355032245179347;0.19978303124612945;-0.1174228517105224;0.506;0.014908329406099078
03:47.8;-0.6517831479841397;0.22451823418538772;-0.17723642895482106;0.504;0.025936283009514997
03:47.8;-0.6604579903465526;0.24171414907743247;-0.246656304359331;0.58;0.03937671588748136
03:47.8;-0.6594494517139725;0.2504664960915217;-0.3263630800006742;0.7070000000000001;0.05390538780896797
03:47.9;-0.64642788425656;0.2502696376953799;-0.41749498570007715;0.9690000000000001;0.06754287000261934
03:47.9;-0.61915900149542;0.24106702876452635;-0.5217275612085424;1.235;0.07787244057700929
03:47.9;-0.5759690371158297;0.2232576808945131;-0.6412283908079718;1.4969999999999999;0.08245524552977679
03:47.9;-0.516236097132024;0.1976512491824409;-0.7783508328361;1.124;0.0794188010951077
03:47.9;-0.4407936070864582;0.16537729269721313;-0.9349797021623188;1.124;0.06815745225199825
03:47.9;-0.35213717835601693;0.12776187408689157;-1.1115809715874183;1.124;0.05000970093176573
03:47.9;-0.2543500352406736;0.0861826265435352;-1.3061509889037741;0.6679999999999999;0.028631553413050934
03:47.9;-0.1527013577667381;0.04191132389882379;-1.5133312571817275;0.496;0.009685193024733908
03:47.9;-0.05294291146180325;-0.004030711406237876;-1.7239726435683884;0.863;0.0003678916196183384
03:47.9;0.03957640525267151;-0.050955926171578445;-1.9254026093412162;1.544;0.0038828677626566895
03:48.0;0.12079055500534007;-0.09849397203985442;-2.102511168676373;2.354;0.025013872978678516
03:48.0;0.18859440953848425;-0.14648728945834605;-2.2395340969257425;2.9930000000000003;0.06187090049010711
03:48.0;0.24316150214154314;-0.19485849955222465;-2.3221855144917516;3.361;0.11002999249271934
03:48.0;0.2868117938280745;-0.24350926498776249;-2.339688196330751;2.986;0.16340693332277673
03:48.0;0.3234454004687481;-0.29226597433891865;-2.2863159638696717;2.986;0.21613021529274534
03:48.0;0.35768501886659154;-0.34084540344781245;-2.1622447030617233;2.986;0.26361069989067115
03:48.0;0.3939413600010119;-0.3888125998399026;-1.9736705303567326;2.501;0.3023058606035556
03:48.0;0.43558994003473345;-0.43553394744046753;-1.7322243908740167;1.933;0.32862757501282935
03:48.0;0.4843844491762034;-0.480150332608041;-1.4537654592786873;1.3869999999999998;0.33811292441114005
03:48.0;0.5401815792654754;-0.5215880000919686;-1.1567337823642485;0.9890000000000001;0.3259123222528138
03:48.1;0.6009961966323386;-0.55860373735227;-0.8603290304438718;0.8190000000000001;0.28882856223303405
03:48.1;0.6633429999132859;-0.5898503129241558;-0.5827913014370472;0.877;0.2280305452229677
03:48.1;0.7227813871031992;-0.6139512623763906;-0.3400006758247094;1.003;0.15087616521055186
03:48.1;0.7745687091806561;-0.6295800686965078;-0.14452127368224577;1.222;0.0704762357295876
03:48.1;0.814322864891455;-0.6355424056926459;-0.005116103725902048;1.222;0.00264777150343795
03:48.1;0.8385927203185747;-0.6308635404435954;0.0733292625136177;1.222;0.038793935035648895
03:48.1;0.8452531258678115;-0.6148849513349621;0.08958909986608106;1.237;0.04656244991002162
03:48.1;0.8336839179232164;-0.5873698927103854;0.045708237064940954;1.2109999999999999;0.022382447620344716
03:48.1;0.8047311593840715;-0.5486061012630431;-0.053459941136909876;1.121;0.023601517475571678
03:48.1;0.7604698158152401;-0.49948179475348187;-0.20072417985040408;0.98;0.07624323876618015
03:48.2;0.7038054124395837;-0.44150829610033215;-0.3870121070445524;0.8640000000000001;0.12025856639706532
03:48.2;0.637975115437197;-0.37677149198632587;-0.6018327876125016;0.797;0.14466305034685137
03:48.2;0.5660247343294135;-0.3078065061212813;-0.8337943949027836;0.846;0.14526874216732882
03:48.2;0.49034205462159447;-0.23739987023339645;-1.0712221814480478;1.5919999999999999;0.12469791059383949
03:48.2;0.4123272078249262;-0.16834186446962082;-1.3028574600383702;1.5919999999999999;0.09043385203667921
03:48.2;0.3322769873679496;-0.10318071209589626;-1.5185203742144202;1.5919999999999999;0.05206182743500195
03:48.2;0.24953313936424296;-0.04403888437907447;-1.7095976631746257;1.848;0.018787044091008304
03:48.2;0.16289125114564815;0.0074739848746467495;-1.8693101281083073;1.95;0.002275785535113409
03:48.2;0.07120846706428811;0.05024323172142321;-1.9928091196872284;1.992;0.007129759897097611
03:48.2;-0.025910151959512403;0.08353413357001448;-2.0771701601577206;2.1069999999999998;0.004495789902093755
03:48.3;-0.12752901601068894;0.1068248677875366;-2.121339596148879;2.241;0.02889958266215769
03:48.3;-0.23111178385951042;0.11968157506414318;-2.126072341848271;2.338;0.05880678318988063
03:48.3;-0.33270536234264286;0.12176966270884108;-2.09385178984546;2.463;0.0848290964644354
03:48.3;-0.4275651363921977;0.11302343168675971;-2.028727767332081;2.141;0.09803802384914968
03:48.3;-0.511038071978951;0.09390266997192405;-1.9360132938894679;2.141;0.09290509505465643
03:48.3;-0.579421382082322;0.0656118403930063;-1.8218591734883087;2.141;0.06926144391810854
03:48.3;-0.6305454366169065;0.03016578495643931;-1.6927863151824607;1.871;0.03219831591517235
03:48.3;-0.6639684468676146;-0.009751856250830289;-1.555233511630913;1.649;0.010070020110363256
03:48.3;-0.6808191182234477;-0.05109895497315861;-1.4151342945482694;1.4609999999999999;0.04923131282833135
03:48.3;-0.6834090447343556;-0.09084211016115942;-1.2775356275342793;1.286;0.07931237529107754
03:48.4;-0.6747536170361013;-0.12626249920844848;-1.146289833049714;1.17;0.0976593980694297
03:48.4;-0.658108895861319;-0.15513689254593674;-1.0238546446647043;1.077;0.10453245597905032
03:48.4;-0.6365829543767635;-0.17579454562045516;-0.9112243884193207;0.977;0.1019731268331774
03:48.4;-0.6128443850720965;-0.18708722205065054;-0.8079985196654512;0.799;0.09264135594212092
03:48.4;-0.5889353186042983;-0.1883189083340011;-0.7125859162009204;0.799;0.07903123386319572
03:48.4;-0.5661906940713758;-0.1791756510356884;-0.6225455100384049;0.799;0.06315573930586041
03:48.4;-0.5452597360149605;-0.15968120845178724;-0.5350538532146015;0.799;0.04658592633567034
03:48.4;-0.5262166326327083;-0.13018674500653946;-0.4474583210471157;0.836;0.030653772404120493
03:48.4;-0.5087356753722517;-0.09138905654948215;-0.35784274403014654;0.8540000000000001;0.01663713739721084
03:48.4;-0.49229223197409205;-0.04436543043106266;-0.2655206324121396;0.769;0.0057991715497705786
03:48.5;-0.47634197318177995;0.009386664383864995;-0.17138128970298577;0.643;0.000766290688298373
03:48.5;-0.4604405161735073;0.06791719475822589;-0.07804172132595945;0.518;0.002440507302637825
03:48.5;-0.44429551146053814;0.12881909344470008;0.010207992399204278;0.436;0.0005842416340185968
03:48.5;-0.42777325012819817;0.18928167183368524;0.08765011926767662;0.495;0.007096998248077379
03:48.5;-0.4108908329755706;0.24622078096361583;0.1475397184187897;0.495;0.014926572920379568
03:48.5;-0.39381179077610284;0.2964733027772435;0.18261137659855342;0.495;0.021320733256210166
03:48.5;-0.37684385081492805;0.33702717572487567;0.1856502555279955;0.545;0.023578811220867527
03:48.5;-0.36042636818719304;0.36527156354654133;0.150110117699662;0.614;0.019762522838579044
03:48.5;-0.34509336507481875;0.3792607514120699;0.070772879418158;0.6679999999999999;0.009262780569590663
03:48.5;-0.33140206995509947;0.3779662317409764;-0.055573748759986615;0.6629999999999999;0.006961100612806768
03:48.6;-0.31982635775379537;0.36146632556661257;-0.22949726885973346;0.632;0.02653136645539018
03:48.6;-0.31063195323629167;0.33101681189323856;-0.4484086758679862;0.56;0.04610735252737919
03:48.6;-0.3037719480101506;0.2889592118825377;-0.7062893731069596;0.474;0.06199645860500856
03:48.6;-0.2988515160493381;0.23845110226122468;-0.9937586954631185;1.435;0.07081670885707655
03:48.6;-0.29518608952653225;0.18305019465245537;-1.2984972466443099;1.435;0.07016283290930111
03:48.6;-0.2919185918406953;0.12623583094501512;-1.6059030143194921;1.435;0.05917846715178884
03:48.6;-0.2881195214061167;0.07096244723370705;-1.8998184621138732;1.6159999999999999;0.03884305437303985
03:48.6;-0.28281547811085406;0.019303068426876773;-2.1632953223293803;1.785;0.011809875941658294
03:48.6;-0.27495591377272477;-0.027783408685312212;-2.3795053141065075;2.144;0.018177546793570348
03:48.6;-0.2633770329192768;-0.07051490224948384;-2.5329115222827;2.68;0.047041247308107006
03:48.7;-0.246825352844192;-0.11013657237041166;-2.6107029441069236;3.2710000000000004;0.07097064984084853
03:48.7;-0.22406773462311735;-0.14857021558854253;-2.6043309285181304;3.7260000000000004;0.08669763397039515
03:48.7;-0.19405776637311034;-0.18794644252296297;-2.5108295945233152;3.886;0.09157614911152077
03:48.7;-0.1560779646262721;-0.23015371883499525;-2.333545257856508;2.253;0.0838254353727903
03:48.7;-0.10978424503581463;-0.2765246817082275;-2.0820465254383365;2.253;0.06320687963199433
03:48.7;-0.05515693193722702;-0.32769060933998867;-1.771288787171591;2.253;0.032014997351410494
03:48.7;0.007569814968702847;-0.3835486725717766;-1.4202956648724983;1.541;0.004123675756829375
03:48.7;0.07793847302870602;-0.44328361675497857;-1.0505559178511354;0.9159999999999999;0.0362954969404067
03:48.7;0.15524201994156112;-0.5054296020964787;-0.6842349340192153;0.512;0.05368774990181423
03:48.7;0.23844916380755699;-0.5679804670514452;-0.3423480685932246;0.644;0.046365728344737026
03:48.8;0.32610256344127164;-0.6285533085228204;-0.04313059997341105;0.953;0.008840601790386753
03:48.8;0.41622904235923947;-0.6845988276911582;0.19916209646363922;1.149;0.05675122234902627
03:48.8;0.5063073910335951;-0.7336361258819395;0.37487090054950184;1.189;0.13924406892762087
03:48.8;0.5933235418286499;-0.7734758646412849;0.47893437994796695;1.12;0.21979325508514455
03:48.8;0.6739098131465312;-0.8023952999805051;0.5103881142994036;1.12;0.27598832373492105
03:48.8;0.7445350400156521;-0.8192442170226786;0.47159441878167324;1.12;0.2876518575183741
03:48.8;0.8017131448920214;-0.823481675428711;0.3674551676390834;1.156;0.24259246263596854
03:48.8;0.8422253106014156;-0.8151566378830915;0.20477235335233;1.212;0.14058554847512175
03:48.8;0.86336368568145;-0.7948470703350492;-0.008187832401152522;1.26;0.0056188352702812965
03:48.8;0.8631833429543462;-0.7635676459439574;-0.2619391828404204;1.271;0.17264382025644368
03:48.9;0.8407217281957284;-0.7226536433214441;-0.5458883215140758;1.196;0.3316547881321259
03:48.9;0.7961398047732694;-0.6736316711627234;-0.8484304939069031;1.155;0.4550175051481752
03:48.9;0.7307567621636295;-0.6180931896766297;-1.1571817920911778;1.276;0.5226709862342487
03:48.9;0.6469751563248235;-0.557587550723906;-1.4594787682066408;2.278;0.5265000955638777
03:48.9;0.5481181910024715;-0.4935477335421726;-1.7431425836504029;2.278;0.4715592736924732
03:48.9;0.43822106625248236;-0.42725921107534054;-1.9973113023305227;2.278;0.37396455850264915
03:48.9;0.3218130341143502;-0.3598751680901947;-2.213081075097549;2.375;0.2563024957081656
03:48.9;0.20369496409485788;-0.29246849408127357;-2.3838415717528316;2.467;0.142015834550081
03:48.9;0.08870137304600081;-0.2261107241354304;-2.5053635877013893;2.488;0.05024840312208959
03:48.9;-0.01854930017159683;-0.1619821248313737;-2.5757451466987824;2.5580000000000003;0.007739225677816222
03:49.0;-0.11390620609762597;-0.1015121789148249;-2.5952936268613063;2.6910000000000003;0.03000903548204815
03:49.0;-0.19394826865568343;-0.04650158536629869;-2.5663838446836476;2.8539999999999996;0.023145964316540868
03:49.0;-0.2562725115294556;0.0008819694170313292;-2.4932813697750325;2.9189999999999996;0.0005635427188314753
03:49.0;-0.29978443837413465;0.038331397950023646;-2.3818688085035458;2.1959999999999997;0.027370427494754927
03:49.0;-0.3249074437822315;0.06383442764384871;-2.2392263593712505;2.1959999999999997;0.04644218326897518
03:49.0;-0.33361332794280724;0.0761690228004591;-2.073111864457604;2.1959999999999997;0.05267984803942065
03:49.0;-0.32922024851993087;0.07528653821648829;-1.8914498227916068;1.8730000000000002;0.04688119692760347
03:49.0;-0.3159681987197152;0.06247857441459556;-1.7018966964867148;1.605;0.03359755559331808
03:49.0;-0.2984429610244831;0.04030500865443415;-1.5114859484116596;1.4409999999999998;0.018181280747891177
03:49.0;-0.280972971770582;0.012316505478999637;-1.3263480735949487;1.334;0.0045899669692189395
03:49.1;-0.26713937017878847;-0.017354110497564943;-1.151505179922003;1.193;0.005338339033748046
03:49.1;-0.25949177573403026;-0.04443837869876396;-0.9907211352010112;0.955;0.011424395555276114
03:49.1;-0.2594790511088132;-0.06493921119037242;-0.8463817767728196;0.7;0.014261841782852168
03:49.1;-0.2675416643317135;-0.07545615597013418;-0.7194119604794925;0.5760000000000001;0.014523248052501048
03:49.1;-0.2832941254927755;-0.07341933950784314;-0.6092817230829662;0.5760000000000001;0.012672613590086262
03:49.1;-0.30573646030699764;-0.05724384367180923;-0.5141642417838348;0.5760000000000001;0.008998660973763044
03:49.1;-0.33345479749082474;-0.026422475334902426;-0.43126615081957365;0.613;0.0037997571761599585
03:49.1;-0.364794092762541;0.018432389012849375;-0.35728880659608114;0.625;0.002402419449219951
03:49.1;-0.398000913817746;0.07559619568672243;-0.28894024248061506;0.59;0.008693447639031605
03:49.1;-0.4313395421352854;0.14228914734497533;-0.22341471908995233;0.5539999999999999;0.013712064011117742
03:49.2;-0.4631886366578563;0.2147812350203367;-0.15877887458944304;0.588;0.015795993670538775
03:49.2;-0.492126748479965;0.2885445684938528;-0.09423292833818263;0.6679999999999999;0.013381122967289182
03:49.2;-0.5170036851464586;0.3584573799860964;-0.030234698710457766;0.7020000000000001;0.005603208846312789
03:49.2;-0.5369775175322865;0.4190689457030334;0.031517662970898946;0.716;0.007092438676339298
03:49.2;-0.5514974375363082;0.46492661217407155;0.0882293543628952;0.716;0.022622521299554346
03:49.2;-0.5602387417554181;0.49094490569482857;0.13622942072890398;0.716;0.037469405783858066
03:49.2;-0.56302219434585;0.4927872018937175;0.17120630845305218;0.716;0.04750121283771528
03:49.2;-0.5597512633259352;0.4672443800958198;0.1884293502812553;0.778;0.04928193136755508
03:49.2;-0.550386112177409;0.4126036989243128;0.18296648616297334;0.7959999999999999;0.04155010556458698
03:49.2;-0.534962921821092;0.3289800348855311;0.14991776417448602;0.7490000000000001;0.026384345245146937
03:49.3;-0.5136641468102168;0.21854854895465933;0.08467654555653836;0.72;0.009505835909513635
03:49.3;-0.48693873030369345;0.08560405331928349;-0.016767626044894006;0.758;0.0006989405340928505
03:49.3;-0.45564896320347853;-0.06361637963137468;-0.1574542224107636;0.867;0.0045640842009736764
03:49.3;-0.4211865596855124;-0.22137930600895506;-0.3389583855213234;0.8170000000000001;0.031605153811365874
03:49.3;-0.38548581109243707;-0.37913458923247967;-0.5607469045822443;0.8170000000000001;0.08195372345541684
03:49.3;-0.35088851789309755;-0.528307930576132;-0.8194219522553068;0.8170000000000001;0.1519021362711243
03:49.3;-0.3198572840357885;-0.6610629891736604;-1.1079939721409395;0.87;0.23428068545582745
03:49.3;-0.2945633809126733;-0.7709592415909934;-1.4154068678488534;1.1340000000000001;0.32143374866749297
03:49.3;-0.2764120427266067;-0.8534875346942731;-1.7265683754265873;1.575;0.4073220538494537
03:49.3;-0.26561711104810537;-0.9064355718494843;-2.023094066651993;2.166;0.4870898341830109
03:49.4;-0.2609542168083163;-0.9299890295929569;-2.284826738232544;2.886;0.5544921690343708
03:49.4;-0.2597801079665169;-0.9264999630080764;-2.491960680301682;3.5260000000000002;0.5997806972585112
03:49.4;-0.25832951407622123;-0.8999540852746781;-2.627372417423582;3.925;0.6108238922989337
03:49.4;-0.2522276693483166;-0.855272161970544;-2.67865909191965;3.233;0.577849189792284
03:49.4;-0.23710900436426863;-0.7976208060120349;-2.639495404830808;3.233;0.49918948786855566
03:49.4;-0.20921997154020788;-0.7318752870340297;-2.510182117960427;3.233;0.384366432512955
03:49.4;-0.16590603199819295;-0.6623042715361237;-2.2974707526322122;2.763;0.25244671503888605
03:49.4;-0.10592606892187043;-0.5924670621257974;-2.0137928575667967;2.156;0.1263810218252435
03:49.4;-0.029581147720184612;-0.5252540487393493;-1.6760115927501509;1.595;0.026041227232018002
03:49.4;0.061325092843169116;-0.462982296387172;-1.3038644518554272;1.114;0.03701988319161618
03:49.5;0.16366162621344046;-0.40748364974687706;-0.9183200006858165;0.733;0.06124224362308308
03:49.5;0.27324240160481295;-0.36016741567428406;-0.540048513442948;0.495;0.05314779955879422
03:49.5;0.38515899249887503;-0.32207103080572713;-0.18812782058830124;0.478;0.02333698406189984
03:49.5;0.4941430876610043;-0.29391764748342625;0.12096745491995972;1.001;0.01756899547335114
03:49.5;0.5949285135265684;-0.2761864039554613;0.37407314175379575;1.001;0.061464394375695286
03:49.5;0.6825742238920466;-0.2691824401292837;0.5617130019282052;1.001;0.10320745911468926
03:49.5;0.752718658778945;-0.27308271132591533;0.6781411734657792;1.095;0.13939493742938752
03:49.5;0.8017698634355691;-0.28793689459893773;0.721111794582068;1.1440000000000001;0.16647523767968822
03:49.5;0.8270561560367411;-0.3136151826753298;0.6914878038942894;1.145;0.17935628620356572
03:49.5;0.8269457998548437;-0.3497084493102284;0.5927935945271471;1.091;0.17142994008025697
03:49.6;0.8009172962534201;-0.39539888099401865;0.4307861627409667;1.023;0.13642213859819433
03:49.6;0.7495523068106057;-0.44933097784573656;0.21309493732248752;0.909;0.0717697507278411
03:49.6;0.6744327632702454;-0.5095216502494007;-0.051048910403351196;0.787;0.017542350298519648
03:49.6;0.57794929855766;-0.5733477570034619;-0.3510108595699791;0.8540000000000001;0.11631304132195407
03:49.6;0.4630716458303334;-0.6376310281473491;-0.6749145686159869;0.8540000000000001;0.19928124827827898
03:49.6;0.3331726823797475;-0.6988102741108927;-1.009793766517654;0.8540000000000001;0.2351047222289833
03:49.6;0.1919867471116874;-0.7531784232043697;-1.341782928266279;1.198;0.19402218104250005
03:49.6;0.04370992316284101;-0.7971765579951251;-1.6564580085925666;1.655;0.05771849430929476
03:49.6;-0.10682583377467755;-0.8277455040521088;-1.939445865453284;2.1519999999999997;0.17149473190215056
03:49.6;-0.25401068574249;-0.8427122537407257;-2.1773208948653737;2.677;0.4660727763889281
03:49.7;-0.39146903542121786;-0.8411442858173382;-2.3586788628116224;3.068;0.7766703570174721
03:49.7;-0.51234675506419;-0.8235658442596455;-2.4751992664016402;3.363;1.0444135182379255
03:49.7;-0.609944895507676;-0.7919282877274554;-2.5224797672277517;3.535;1.2184400025557354
03:49.7;-0.6786552147162079;-0.7492850424380162;-2.5004437973166644;2.903;1.2714911770862076
03:49.7;-0.7150010149265368;-0.6992306216305574;-2.4132201926648817;2.903;1.206490893230118
03:49.7;-0.7184788891367068;-0.6452662484188065;-2.2685592916244404;2.903;1.0517271755447553
03:49.7;-0.691916017683552;-0.5902734792234579;-2.076955641533628;2.335;0.8482695482884117
03:49.7;-0.6412024256353988;-0.5361998166161024;-1.850622187808442;1.784;0.6362672686455202
03:49.7;-0.5744420724832044;-0.4839669487725896;-1.602416112000997;1.358;0.4454892689641775
03:49.7;-0.5007167649536891;-0.433564578242546;-1.3448356747059713;1.14;0.2919544824269106
03:49.8;-0.4287420665854205;-0.3842767134564481;-1.0892165132111193;1.043;0.17945451174215227
03:49.8;-0.3656988239036213;-0.33497753513580547;-0.8451950239624926;0.9179999999999999;0.10353714319423703
03:49.8;-0.3164533603894818;-0.2844308890089142;-0.6204190893700791;0.7509999999999999;0.05584337044924534
03:49.8;-0.28326498628238195;-0.2315390860468449;-0.42043587518361725;0.33399999999999996;0.027575092442884534
03:49.8;-0.26595419746184185;-0.17551628093415786;-0.248702036226899;0.33399999999999996;0.01160923487983351
03:49.8;-0.26240424257565587;-0.115997390917746;-0.10671661032918102;0.33399999999999996;0.0032482623293789772
03:49.8;-0.2692358797142989;-0.05310701616981939;0.005703688882279325;0.40399999999999997;8.155313583759318e-05
03:49.8;-0.28253009896702985;0.012503352966983405;0.09002998167064183;0.48100000000000004;0.00031803753206306707
03:49.8;-0.29851552632903805;0.07965643710321228;0.14857284459092934;0.525;0.0035328666106871497
03:49.8;-0.31415059688219776;0.14668961486374948;0.1840409988218971;0.5529999999999999;0.008481093265662076
03:49.9;-0.32753974803201846;0.21152742321398715;0.19914634869559056;0.5920000000000001;0.013797583711551908
03:49.9;-0.3381447994112746;0.27178126245377515;0.19628836426449925;0.611;0.018039179498852302
03:49.9;-0.34677480476107003;0.3248760958828663;0.17735510074342387;0.619;0.01998062075518739
03:49.9;-0.35535694819589064;0.3682021943228924;0.14367395138593023;0.517;0.018798760718820955
03:49.9;-0.3665228803051226;0.3992829030380403;0.09611725054357578;0.517;0.014066405874629552
03:49.9;-0.3830881607804181;0.41594374682976437;0.0353199340897992;0.517;0.005627988671289759
03:49.9;-0.40752401424632784;0.41647149165941066;-0.038071302305271885;0.517;0.006461542675224573
03:49.9;-0.44150376347287784;0.3997607269525021;-0.12320338525695118;0.494;0.021744888105839497
03:49.9;-0.48558069751362176;0.36544687644903495;-0.21894672995402517;0.51;0.03885296188826427
03:49.9;-0.5390412189868078;0.31401517617136515;-0.3239925492788551;0.662;0.054841286801246406
03:50.0;-0.5999590101495998;0.24686578109590424;-0.4371121815819696;0.9490000000000001;0.06474040094523857
03:50.0;-0.6654389829475642;0.16631473062700836;-0.5575002293510669;1.28;0.06169983553049253
03:50.0;-0.731999201226875;0.0755180425995395;-0.6850507660174819;1.504;0.03786902190197576
03:50.0;-0.7960124014860359;-0.021684320951274923;-0.8203880089713614;1.479;0.014160707902266851
03:50.0;-0.854113402509317;-0.120996117679356;-0.9645321947256286;1.479;0.09967900650178682
03:50.0;-0.903471475922503;-0.21794312896411894;-1.1182179452470387;1.479;0.22018315223481366
03:50.0;-0.9418488024692324;-0.30818601892036324;-1.2810130653377498;1.2670000000000001;0.3718327870964405
03:50.0;-0.9674341102218759;-0.38787123632702253;-1.450448201879811;1.1159999999999999;0.544265986587806
03:50.0;-0.9785343179325403;-0.4540118378897445;-1.6213881093759648;1.262;0.7203278759066818
03:50.0;-0.973284123127592;-0.5048312693867574;-1.785873594687156;1.6269999999999998;0.8774787386787105
03:50.1;-0.949548743103082;-0.5399543686894006;-1.9335918381610337;2.169;0.991377656886296
03:50.1;-0.9051225418858294;-0.560353382793005;-2.052965741786222;2.707;1.0412405703485044
03:50.1;-0.8381906112626452;-0.5680516634064822;-2.1326538791094585;3.002;1.0154323724313032
03:50.1;-0.7478951676822819;-0.5656921987482454;-2.163128921937616;2.844;0.915173257053638
03:50.1;-0.6348152355333311;-0.5561174233833853;-2.1380173877269164;2.844;0.7547881548484703
03:50.1;-0.5012381713850881;-0.5420597208656962;-2.055000107348413;2.844;0.5583456319828921
03:50.1;-0.3511860755863929;-0.5259640368069407;-1.9161910286674462;2.43;0.3539420324519885
03:50.1;-0.19019142383154716;-0.5099162903059208;-1.7279825649065055;1.975;0.16758269585288235
03:50.1;-0.024839132710729933;-0.4956367413571816;-1.5004060230706124;1.5490000000000002;0.018471778818192484
03:50.1;0.13785308552481845;-0.4844967632945144;-1.246132525259365;1.196;0.08322841096776142
03:50.2;0.2911025437732368;-0.4775305056549113;-0.979295132020273;0.993;0.13613215408596663
03:50.2;0.4289707456115368;-0.4754368548127553;-0.7143103354294071;0.922;0.1456825229455416
03:50.2;0.5468391162456822;-0.4785845851675226;-0.46482775027603224;0.943;0.12164949953117538
03:50.2;0.6417068228115429;-0.487033973547432;-0.24287573937229578;0.965;0.07590668922552457
03:50.2;0.7122931208697088;-0.5005750973153654;-0.05823366012095121;0.965;0.020763572465612192
03:50.2;0.7589566788033144;-0.5187682581180052;0.08194644148654344;0.965;0.03226416880948076
03:50.2;0.7834725945465979;-0.5409686795857583;0.17326337037375839;0.9990000000000001;0.07343493070322261
03:50.2;0.7887216317242015;-0.5663284196837614;0.2139699424502864;0.9940000000000001;0.09557512573635601
03:50.2;0.7783426958135908;-0.5937825295256199;0.2047073409709838;0.9620000000000001;0.09460883328631886
03:50.2;0.7563868500074971;-0.6220346444892878;0.1481056711835694;0.9420000000000001;0.06968354431817805
03:50.3;0.7269965732669448;-0.6495575056221042;0.048280789497610554;0.938;0.022799447998866473
03:50.3;0.6941213639032735;-0.6746167282794774;-0.08972124926702227;0.971;0.04201340006081162
03:50.3;0.6612721553407315;-0.695315941191101;-0.2604641128039552;1.034;0.11975959433074966
03:50.3;0.6313129441311732;-0.7096557461972649;-0.4585783893563235;1.275;0.20544993219634422
03:50.3;0.6062907038659117;-0.7156014228983566;-0.6790667555906904;1.275;0.29462159371246194
03:50.3;0.5873129475807467;-0.7111622922366599;-0.9173828311842182;1.275;0.38316771077741235
03:50.3;0.5744856529230181;-0.6944922744963065;-1.1692482385247456;1.383;0.466501807211977
03:50.3;0.5669180223666225;-0.6640229159815002;-1.4302619173907276;1.506;0.5384171763184278
03:50.3;0.5627968342623332;-0.6186408169672174;-1.69542202104779;1.641;0.5902935478877469
03:50.3;0.559539464832359;-0.5579201476902357;-1.9586821917941468;1.7690000000000001;0.6114581569019868
03:50.4;0.5540401909612913;-0.4824052056091485;-2.2126446293529027;1.973;0.5913776726809958
03:50.4;0.543014434447526;-0.3938973202658332;-2.4484904060461385;2.195;0.5237123399914358
03:50.4;0.5234143569306415;-0.2956425858594841;-2.6562499829607864;2.4619999999999997;0.4110376156917624
03:50.4;0.49284788269901986;-0.19228184510079604;-2.8254852267227593;3.41;0.2677590860264289
03:50.4;0.44991334697566865;-0.08947803648557501;-2.9463414052228685;3.41;0.11861193510674699
03:50.4;0.39438322688772637;0.006723037882795247;-3.010759064918112;3.41;0.007982887283101453
03:50.4;0.3272080766698283;0.09064220641498212;-3.0135569399473137;3.5810000000000004;0.08937866948986188
03:50.4;0.2503385093562532;0.15769089362750566;-2.9531775752822993;3.596;0.11657994287673544
03:50.4;0.16639489641108637;0.20498120026730998;-2.8319976776277236;3.4160000000000004;0.09659328284479958
03:50.5;0.07826347170547233;0.23172979349529385;-2.656148589537419;2.963;0.04817185274723592
03:50.5;-0.011270730184547871;0.23936360965821388;-2.43483677792578;2.369;0.006568709137267122
03:50.5;-0.0997644389004102;0.2312899598973106;-2.179257707547766;1.8419999999999999;0.050285310461056124
03:50.5;-0.185204304973264;0.21237735015028572;-1.9013088041392576;1.466;0.0747845585549804
03:50.5;-0.2659802508739529;0.18826435372879105;-1.6123567091924151;0.992;0.08073811732721434
03:50.5;-0.34080425144839355;0.16464299726585177;-1.3222862797292263;0.992;0.07419484965835771
03:50.5;-0.40861568129875475;0.1466403721170569;-1.0389775535330046;0.992;0.062255073242969965
03:50.5;-0.46849347826366095;0.13836674034343038;-0.7682357369338207;0.861;0.04980004846396354
03:50.5;-0.5195976781030865;0.14264457838589867;-0.514071349570026;0.745;0.03810183321835037
03:50.5;-0.5611678363086068;0.16090097042538695;-0.27916287900268993;0.67;0.02520630013608007
03:50.6;-0.5925924001861405;0.19319335222064024;-0.0653531679253365;0.684;0.007481951697964968
03:50.6;-0.6135390858044871;0.2383350055914826;0.1259213250195039;0.752;0.018413203549597766
03:50.6;-0.6241136878195154;0.2940847001318394;0.29333500189883227;0.83;0.05383937702663029
03:50.6;-0.6249980549747953;0.35736655767475556;0.43555148946461275;0.903;0.09728190755388917
03:50.6;-0.6175159780538646;0.42449595678462176;0.5512789132055003;1.1540000000000001;0.1445084151648253
03:50.6;-0.6035983426847314;0.49139739662139886;0.6394489444791958;1.1540000000000001;0.1896648119538672
03:50.6;-0.5856568565794545;0.5538031875018841;0.6994108368359225;1.1540000000000001;0.22684595539341088
03:50.6;-0.5663988918540779;0.6074294168872196;0.7310268466475105;1.1540000000000001;0.25150784834777706
03:50.6;-0.5486118548958606;0.6481439976841273;0.7346151874797843;1.113;0.2612140869585468
03:50.6;-0.5349367237621656;0.6721502314883516;0.7107551879159619;1.058;0.2555576020608383
03:50.7;-0.5276543626859124;0.6761946946306528;0.660005017007702;0.976;0.23548786328067695
03:50.7;-0.5285150471389176;0.6577857126774882;0.5825995757106309;0.907;0.2025405368049711
03:50.7;-0.5386405656682915;0.6153961684052142;0.4782086089270355;0.868;0.15851531777651265
03:50.7;-0.5585197643979671;0.5486226647538182;0.3458330758314432;0.843;0.10596899576931286
03:50.7;-0.5881006895124005;0.45827773315285575;0.18389840831662782;0.9159999999999999;0.04956309463222504
03:50.7;-0.6269480329021645;0.3464074594505358;-0.009415763779308979;0.9159999999999999;0.0020449106369992425
03:50.7;-0.674393242639505;0.21624873057075772;-0.23558212063246245;0.9159999999999999;0.03435651495910478
03:50.7;-0.7295940108137453;0.07213787257678649;-0.4948782138712132;0.985;0.026046113323948943
03:50.7;-0.7914535198887575;-0.08065144322786982;-0.7853737002077227;0.9620000000000001;0.05013187085460776
03:50.7;-0.8583922820536617;-0.23618344347526393;-1.101924820823395;0.8540000000000001;0.2234020839415905
03:50.7;-0.9280015468580688;-0.3882674035083719;-1.435407431809956;0.835;0.5171956006335415
03:50.8;-0.996665860382521;-0.5309656774313927;-1.7724498436845864;1.235;0.9379722397231706
03:50.8;-1.0593200738146542;-0.6591169662796881;-2.0959006252520758;1.875;1.4633910017250435
03:50.8;-1.1095407125296068;-0.7687519219201933;-2.386145438662563;2.675;2.035290324308931
03:50.8;-1.1401023770200307;-0.8572973219173989;-2.6231726346302016;4.148;2.563906546461357
03:50.8;-1.1439535565697752;-0.923548381564546;-2.789034658776621;4.148;2.9466052319754175
03:50.8;-1.11537092445967;-0.967480380455773;-2.8701821667554643;4.148;3.0972121018639758
03:50.8;-1.0509776713839385;-0.9900079582457542;-2.8591929677549093;4.168;2.9749224017299056
03:50.8;-0.9503957273851596;-0.9927760313336813;-2.7556451650318303;3.923;2.6000341538004323
03:50.8;-0.8164328200380043;-0.9780141564261234;-2.5660987161135886;3.3760000000000003;2.048985831025156
03:50.9;-0.6548018419459332;-0.9484388225680102;-2.3032611590684255;2.665;1.4304161309364105
03:50.9;-0.47344789413167027;-0.907165263479079;-1.9844950654395608;1.996;0.8523316678795559
03:50.9;-0.2816237962264281;-0.8575954110982494;-1.6299181136670644;1.494;0.3936566416109732
03:50.9;-0.08888101821568337;-0.8032664465401619;-1.2603994178137066;1.145;0.08998639247099412
03:50.9;0.09587364265769037;-0.7476621264691962;-0.8957307972383756;0.8170000000000001;0.06420696127365046
03:50.9;0.2651379145154968;-0.6940098232590627;-0.5531846482995759;0.8170000000000001;0.10179057623015089
03:50.9;0.4133052992123228;-0.645106166226655;-0.24659830898151722;0.8170000000000001;0.06574947068486423
03:50.9;0.5368530193648808;-0.6032106889795564;0.013977538930615862;0.8809999999999999;0.004526423024507425
03:50.9;0.6342619632360937;-0.5700147795617787;0.22216173206007583;0.9159999999999999;0.08032006227881598
03:50.9;0.705750048118643;-0.5466621473183633;0.3748292130556866;0.9690000000000001;0.1446116730197179
03:51.0;0.7529009166353813;-0.5337904828064908;0.4715496658800933;1.014;0.1895117288872232
03:51.0;0.7782515877694232;-0.5315743072239764;0.5139608253429717;1.013;0.2126248474890932
03:51.0;0.784886300206903;-0.5397608427812927;0.5051162984370752;0.9940000000000001;0.21399296983449584
03:51.0;0.7760667561133698;-0.5576990306384411;0.4488391843666013;0.9790000000000001;0.19426284035614563
03:51.0;0.7549110321226381;-0.5843648596714255;0.34912808087428104;0.935;0.1540155763359326
03:51.0;0.7241237043548554;-0.6183806853379177;0.2096929299656143;0.935;0.09389716255651756
03:51.0;0.6857820335339603;-0.658016716606829;0.0337213667540831;0.935;0.015216970492749043
03:51.0;0.6411856659046109;-0.701164244125034;-0.1760525886032162;0.9009999999999999;0.07914910004711147
03:51.0;0.590773662605761;-0.7452882606628451;-0.416988499268781;0.899;0.18359864992845623
03:51.0;0.5341170272637082;-0.7873888667640261;-0.6859703498450433;0.932;0.2884901817561851
03:51.1;0.4700120502452473;-0.8240139473979365;-0.9787321278898782;0.977;0.3790595127387539
03:51.1;0.3967082864766125;-0.8513694540579081;-1.2891896673925174;1.071;0.4354177732448011
03:51.1;0.3122900620409482;-0.865568874529776;-1.6089157016839701;1.215;0.43490368250572853
03:51.1;0.2152019088943248;-0.8630477465608183;-1.926922121009496;1.464;0.357886325481487
03:51.1;0.10487381922723876;-0.8411336358568121;-2.229899818146178;2.85;0.19670592269479845
03:51.1;-0.01765049708902272;-0.7986890553553905;-2.502965074220421;2.85;0.03528494653524618
03:51.1;-0.14924701099334836;-0.7366494622400358;-2.730801578147372;2.85;0.30023178165261133
03:51.1;-0.28460581510493665;-0.6582380445196843;-2.899013440215327;3.313;0.5430964675543606
03:51.1;-0.41663588807827273;-0.5687113684966413;-2.9955577977977517;3.761;0.7097841381059978
03:51.1;-0.5373890095192141;-0.47464195108645585;-3.01213649579336;3.966;0.7682977279502522
03:51.2;-0.6393259185075448;-0.3828991310639496;-2.9453275251132554;3.952;0.7210083396391953
03:51.2;-0.7166018153122815;-0.2995821871745991;-2.7971906943299882;3.74;0.6005040847192165
03:51.2;-0.7660227972989005;-0.2291539827844648;-2.575184067516024;3.233;0.45204053607145966
03:51.2;-0.7874324695338606;-0.17393732340335022;-2.291391753849871;2.6;0.31383794212529315
03:51.2;-0.7834738407529933;-0.13402103710749874;-1.9612071304993162;1.262;0.20593062538979462
03:51.2;-0.7588629079597095;-0.10751822021010808;-1.6017391692934377;1.262;0.1306884443822937
03:51.2;-0.7194333842283127;-0.09104998628261493;-1.230280453773772;1.262;0.08058878266736186
03:51.2;-0.6712082542827355;-0.08031696031661444;-0.8630938574454383;0.84;0.04652887780150343
03:51.2;-0.6196493718546884;-0.07066301831446954;-0.5145662452820237;0.456;0.02253094936763671
03:51.2;-0.5691373770644349;-0.05758802444330338;-0.19664114383098577;0.359;0.006445011255494634
03:51.3;-0.5226975389493994;-0.03719331756835291;0.08152924800488517;0.505;0.0015849983342431768
03:51.3;-0.48197514156894594;-0.0065474362723914985;0.3136998519490743;0.636;0.000989943100968235
03:51.3;-0.44743458957005294;0.036044296721292834;0.4963995939284456;0.728;0.008005667131616209
03:51.3;-0.4187140395148668;0.09088539648089343;0.6285844483330567;0.784;0.023920775834213814
03:51.3;-0.3950404175418166;0.15686459100615027;0.7111597603998074;0.823;0.04406904386788662
03:51.3;-0.37561777764232107;0.23155988948790077;0.7464654430584888;0.823;0.06492607957758648
03:51.3;-0.3599352706985007;0.3114372987065697;0.7377966830028486;0.823;0.0827049928106794
03:51.3;-0.3479707823509045;0.3921023031654504;0.6890048532317299;0.831;0.09400792221435841
03:51.3;-0.34027841372429;0.46858821028404957;0.6042007320708693;0.8490000000000001;0.09634008036236642
03:51.3;-0.33795149046049466;0.5356867860688715;0.48756343069684543;0.836;0.08826660528784144
03:51.4;-0.342460317460891;0.5883156422497097;0.3432424213472394;0.8079999999999999;0.06915468501607568
03:51.4;-0.35538166894970125;0.6218970300650752;0.17532699693496667;0.779;0.038749160636045804
03:51.4;-0.3780654691824634;0.632716119098555;-0.012153682962449435;0.7829999999999999;0.0029072596090899748
03:51.4;-0.4113128162728676;0.6182266014221912;-0.21524555481262483;0.8340000000000001;0.054733613561812805
03:51.4;-0.45514579482512885;0.5772712679202371;-0.4301382417627004;1.157;0.11301563572771182
03:51.4;-0.5087141545852765;0.5101977898396067;-0.6532743240943357;1.157;0.16955397817862441
03:51.4;-0.5703233177110407;0.4188797064490008;-0.8814062177584788;1.157;0.21056518124782891
03:51.4;-0.6375359109595043;0.30666776329730727;-1.111494403936936;1.345;0.21731017360946964
03:51.4;-0.7073162801947926;0.17827487900344352;-1.340431359098612;1.514;0.1690240034896344
03:51.4;-0.7762088741729226;0.0395715519659128;-1.5646665374899293;1.659;0.04805996847378683
03:51.5;-0.8405297706713165;-0.1027296329967148;-1.7798254347908151;1.805;0.15368314722061963
03:51.5;-0.8965251757939856;-0.24150433119163986;-1.9804083418446137;1.86;0.4287875437109387
03:51.5;-0.9404499194047633;-0.3697489840543747;-2.1596676499001424;1.831;0.7509821006345756
03:51.5;-0.9685676247344412;-0.48117519833482675;-2.309782432001363;1.972;1.0764757630114012
03:51.5;-0.9771552401535184;-0.5707793630709872;-2.422436171982735;3.173;1.3510896610157836
03:51.5;-0.9626307868916486;-0.635272479427055;-2.48979685370939;3.173;1.522592557806666
03:51.5;-0.9218611592691657;-0.6732886867858597;-2.5057055685227207;3.173;1.5552380481005934
03:51.5;-0.852606823316432;-0.6853663015304906;-2.466760805257624;3.323;1.441446706414192
03:51.5;-0.754004028907529;-0.6737512655707523;-2.3730489741856586;3.185;1.2055353828103477
03:51.5;-0.6269659172328216;-0.6420885419604321;-2.2284055874571864;2.84;0.8970839597092021
03:51.6;-0.4743822485467306;-0.5950579738603015;-2.0401808088680253;2.349;0.5759123165176431
03:51.6;-0.30104042306401413;-0.5379894824825981;-1.8185558122159307;1.864;0.2945270824507807
03:51.6;-0.1132755985421262;-0.4764698321381947;-1.5755367825926538;1.4809999999999999;0.08503550998849921
03:51.6;0.08156834987216935;-0.4159436959685903;-1.3238012088532953;1.129;0.04491371682353163
03:51.6;0.27575753742308834;-0.3613200727188952;-1.0755685772805998;0.805;0.10716613966804756
03:51.6;0.4617608638965766;-0.3166156803678004;-0.8416453066040517;0.805;0.12304915830219781
03:51.6;0.632729357205157;-0.2846840224758633;-0.630765589799193;0.805;0.1136185053973726
03:51.6;0.7828222116520372;-0.26707228692074886;-0.44928381972684256;0.8759999999999999;0.09393182134877441
03:51.6;0.9074080369516884;-0.2640186140687487;-0.301178050737307;1.025;0.07215401238581994
03:51.6;1.003196791897828;-0.2745735471480886;-0.18827359445307368;1.163;0.051860206656346615
03:51.7;1.0683219654357645;-0.2968156034480331;-0.11061684452475336;1.251;0.03507600725886992
03:51.7;1.1023487029413361;-0.3281262454790623;-0.0669599644193294;1.2830000000000001;0.024220058002513038
03:51.7;1.106175215500136;-0.3654898944156196;-0.05531403857709054;1.2819999999999998;0.022363236946959252
03:51.7;1.0818129006683332;-0.4057902294231011;-0.07350854724965647;1.273;0.03226945137837613
03:51.7;1.0320555966598322;-0.4460796251574054;-0.11968183576262997;1.149;0.055099000718886106
03:51.7;0.9600778853697804;-0.48379735209109603;-0.19262188404751074;1.149;0.08946961729300083
03:51.7;0.8690290483890297;-0.5169081929532408;-0.2918812416549885;1.149;0.13111545740122385
03:51.7;0.7616854905578031;-0.5439411309254286;-0.41762043136482596;1.008;0.17302518420012175
03:51.7;0.6401912371266864;-0.5639326356746074;-0.5701885324042023;0.907;0.20585216192316644
03:51.7;0.50590358580343;-0.5763066851600246;-0.7494972417041637;0.8340000000000001;0.21852013190278743
03:51.8;0.3593866643001519;-0.5807390783358265;-0.9542727052832117;0.8029999999999999;0.19916614199001867
03:51.8;0.2006123675487439;-0.577053747948287;-1.1812975524382223;0.836;0.13675186993728328
03:51.8;0.029401337816793806;-0.5651870842136373;-1.4247921167597648;0.879;0.023676135910429
03:51.8;-0.15392117794445553;-0.5452384993648998;-1.676111442333875;1.008;0.14066556114976125
03:51.8;-0.3477494583832832;-0.5176056811481498;-1.9239207461325216;2.252;0.3463001458438946
03:51.8;-0.5484693070036484;-0.4831757398205066;-2.154907679810428;2.252;0.5710657556512969
03:51.8;-0.7500049886870058;-0.4435069195446381;-2.3549163859403355;2.252;0.7833214943782166
03:51.8;-0.9438819258163216;-0.40091119600873054;-2.510296680184997;2.907;0.9499284753317486
03:51.8;-1.1199750339564956;-0.3583573804105809;-2.609308757320395;3.569;1.0472495121956702
03:51.8;-1.2679243767692967;-0.3191586896706886;-2.6434476458801415;4.001;1.069721534000564
03:51.9;-1.3789297882529237;-0.28648519006945644;-2.608479579626426;4.13;1.030461500704402
03:51.9;-1.447426642945958;-0.26282323346060177;-2.5049642563151484;3.918;0.9529318654747937
03:51.9;-1.4721402068584568;-0.24953296087666008;-2.338153630631789;3.404;0.8589149016844874
03:51.9;-1.456223773051323;-0.24661076186524505;-2.1173113593495114;2.773;0.7603698168797883
03:51.9;-1.4064932467709428;-0.25268622695324594;-1.854601084405098;1.485;0.6591279549285468
03:51.9;-1.332049846378395;-0.26521394126567693;-1.5637626754039826;1.485;0.5524432471189759
03:51.9;-1.242727381042371;-0.2807793010583482;-1.2588378546553871;1.485;0.43924896822830345
03:51.9;-1.1477468528936399;-0.2954379425038903;-0.9531463823500416;1.196;0.3232004706974384
03:51.9;-1.0547664544215414;-0.30504338031179995;-0.6585535631832283;0.991;0.21188929594121833
03:51.9;-0.9693361419891731;-0.3055537598499281;-0.38495881518622244;0.861;0.11401875826078568
03:52.0;-0.8946899191019243;-0.29332307122938006;-0.139952150360439;0.813;0.03672808994786857
03:52.0;-0.8318028516199931;-0.2653788023347125;0.07135636373773631;0.846;0.015751406707606736
03:52.0;-0.7796529432010695;-0.2196771428850651;0.24630968928788344;0.87;0.042185936109415505
03:52.0;-0.7356409631907732;-0.15531473763674974;0.3844699441485215;0.858;0.04392795302978381
03:52.0;-0.6961275804013793;-0.07267143069195349;0.48719857063196603;0.875;0.024646687379926344
03:52.0;-0.6570431287817269;0.026528005469133694;0.5571089085893897;0.875;0.009710432630048416
03:52.0;-0.6145136455114886;0.13922161988880766;0.5974777141944093;0.875;0.05111636050963513
03:52.0;-0.5654390149005477;0.2610747483089309;0.611704849087285;0.922;0.0903010005581955
03:52.0;-0.5079634601401457;0.38661559968405446;0.6028852492605485;0.963;0.11839858294176957
03:52.0;-0.4417908652335056;0.5094699209515763;0.5735141799695086;0.9670000000000001;0.12908608826269896
03:52.1;-0.3683140636748371;0.6227010667611153;0.5253032583220612;0.951;0.1204780713483955
03:52.1;-0.2905503254478117;0.7192336058138378;0.4590624909696765;0.958;0.09593192219346738
03:52.1;-0.21289813466635188;0.7923253202356104;0.37461476500248103;0.958;0.06319173531784716
03:52.1;-0.14074169045614698;0.8360467876699484;0.27074567077325495;0.983;0.03185773288630773
03:52.1;-0.07993376453578022;0.8457250106473178;0.14523411326780086;0.98;0.009818114181501934
03:52.1;-0.03620234067316142;0.8183140044618974;-0.004956576008443415;0.98;0.00014683798119396685
03:52.1;-0.014549861384477633;0.7526698530016759;-0.1832390956871944;0.98;0.0020066956861279294
03:52.1;-0.018715442097332564;0.6497166483658711;-0.3926700962096972;0.892;0.004774764042241968
03:52.1;-0.05074058981928715;0.5124866719582933;-0.6349699140041808;0.787;0.016511678913646546
03:52.1;-0.11064961106453555;0.34601711443868;-0.9094187362654677;0.679;0.0348186051657535
03:52.2;-0.1962476572104481;0.15709689851365338;-1.2117968303149877;0.5379999999999999;0.03735957302473419
03:52.2;-0.3030436272175153;-0.04612891224864036;-1.533567996969363;0.413;0.021437858807459305
03:52.2;-0.424322284475577;-0.2546790578895224;-1.86155031099038;0.6709999999999999;0.20117029525923846
03:52.2;-0.5514266425807526;-0.4593422426612672;-2.17835027584112;1.344;0.5517620759625282
03:52.2;-0.6743316987664558;-0.6512975989848062;-2.4637618555960072;3.8089999999999997;1.0820610878395478
03:52.2;-0.7825216102356459;-0.8226580440592405;-2.6970448025069644;3.8089999999999997;1.7362163811572286
03:52.2;-0.8660375186299775;-0.9668728084759801;-2.8595980123566678;3.8089999999999997;2.394479042145762
03:52.2;-0.9164867229530249;-1.0789930107019436;-2.937383506729182;4.155;2.904727934184958
03:52.2;-0.9278688384818222;-1.1558577369081127;-2.9226698748285154;4.28;3.1345177763607732
03:52.2;-0.897164843119314;-1.196247060634568;-2.8149465542391807;4.154;3.0210873606215327
03:52.3;-0.8246485791549841;-1.2009869074605901;-2.620972359987149;3.765;2.595790442366474
03:52.3;-0.7138629052172134;-1.1729408203045268;-2.35396335146891;3.089;1.971018102088817
03:52.3;-0.5712254811587745;-1.1168215879904044;-2.032021707470647;2.305;1.2963423687353808
03:52.3;-0.4052973101648857;-1.0387912676053224;-1.6760359980497277;1.624;0.7056435137073932
03:52.3;-0.22582866262323675;-0.9458714089413497;-1.3073852371144858;0.643;0.2792638605360783
03:52.3;-0.042757557981454725;-0.8452486968952417;-0.945827906275573;0.643;0.034182948977528424
03:52.3;0.13465816390058274;-0.7436145175656572;-0.6079249196509354;0.643;0.060873811397733804
03:52.3;0.29846536226893106;-0.6466699352221316;-0.3061933039536403;0.642;0.05909793372517784
03:52.3;0.44239665327387095;-0.5588505492792493;-0.04896356917873742;0.743;0.012105440097835115
03:52.3;0.5620684745573794;-0.4832484478028629;0.15923887389631036;0.841;0.04325225876576839
03:52.4;0.6550402037733648;-0.4216819649452173;0.31699150478320515;0.912;0.08755896242051829
03:52.4;0.7207418122122502;-0.37486651179495845;0.42512264429158286;0.9420000000000001;0.11486047312192531
03:52.4;0.7602674484419863;-0.3426437437434195;0.48585049740721564;0.94;0.12656448444558652
03:52.4;0.7760455659593897;-0.3242312376466112;0.502021576080974;0.8959999999999999;0.12631777252419796
03:52.4;0.771416432927172;-0.31846211965543125;0.4765183364790131;0.805;0.11706478840906738
03:52.4;0.750165474485189;-0.323989323376023;0.4118790028463836;0.805;0.10010538122704267
03:52.4;0.7160663033085695;-0.339432125521153;0.31016092566223435;0.805;0.07538644521014137
03:52.4;0.6724729351262642;-0.3634489970824724;0.173059739892864;0.7340000000000001;0.04229746419790281
03:52.4;0.6219769941644615;-0.394733649700618;0.0022576643735348146;0.628;0.0005542910306831464
03:52.4;0.5661375259418517;-0.4319467468535108;-0.2000648929001817;0.541;0.04892412151219995
03:52.5;0.5053063736249178;-0.47360977818747757;-0.43064302592731113;0.494;0.10306064470185343
03:52.5;0.4385924988304594;-0.5179980158532365;-0.6845691449154013;0.517;0.15552729426547177
03:52.5;0.36401462240895033;-0.5630744717075321;-0.9548792468540567;0.632;0.195719060401167
03:52.5;0.27887882326291713;-0.6065056766056163;-1.2324055837181311;0.868;0.20845103920819114
03:52.5;0.1803870425811875;-0.6457901324500057;-1.5059933074324454;1.8940000000000001;0.17543643158214797
03:52.5;0.0664279032336024;-0.6785022537250325;-1.7630942162868362;1.8940000000000001;0.07946526932928462
03:52.5;-0.06357118191422721;-0.7026130343658338;-1.9906366076486224;1.8940000000000001;0.08891365731541355
03:52.5;-0.20790624538571278;-0.716824051816507;-2.1760408217484755;2.369;0.3243001448954571
03:52.5;-0.36216409099019853;-0.7208494242068572;-2.3083277848814845;2.8760000000000003;0.6026253854812398
03:52.5;-0.5192739794625602;-0.7155651178596298;-2.3792984067927807;3.367;0.8840862501936948
03:52.6;-0.6701665742855184;-0.7029260496385542;-2.3846485909457273;3.533;1.1233543983358822
03:52.6;-0.8050190257686999;-0.6855968318064356;-2.3247398896077143;3.492;1.2830669379095154
03:52.6;-0.9148597167027867;-0.666362070741805;-2.204729869075834;3.353;1.344064653323894
03:52.6;-0.9931295631466165;-0.6474943515852384;-2.0339183133977423;3.105;1.3079025934404396
03:52.6;-1.0367445389813115;-0.6302803956694671;-1.8244082716894625;1.525;1.1921408999788934
03:52.6;-1.0463630151334917;-0.6148234785820794;-1.5894119104630189;1.525;1.0225140578417655
03:52.6;-1.025891940093375;-0.6001091302269651;-1.341651203353115;1.525;0.8259836992229026
03:52.6;-0.9815202948143544;-0.5842355319081106;-1.092222012070703;1.265;0.6263227328060706
03:52.6;-0.92057740300719;-0.5647140316431921;-0.8500437806160328;1.117;0.4419062901094107
03:52.6;-0.8504126089152498;-0.5387904074609541;-0.6217913523217663;1.012;0.28490116392706694
03:52.7;-0.7774423081516868;-0.5037652433144055;-0.41211925000638244;0.877;0.1614058504497394
03:52.7;-0.7064808978721613;-0.4572965935490656;-0.22400376966311603;0.732;0.07236919086298475
03:52.7;-0.6404129888317808;-0.39766588097239514;-0.05908192261526385;0.654;0.015046416592827955
03:52.7;-0.580200976149726;-0.3239858774394061;0.08206610152114077;0.649;0.015426533193130285
03:52.7;-0.5251781000231472;-0.2363327233128856;0.1996847221595226;0.657;0.024784222853148817
03:52.7;-0.47354698111286025;-0.13580191683833548;0.29462280808743885;0.657;0.018946776706492547
03:52.7;-0.42298415143292317;-0.024515517630676716;0.36808751882483226;0.657;0.003816948097084663
03:52.7;-0.3712502665875321;0.09439004360508618;0.4213618603449517;0.647;0.014765500875728498
03:52.7;-0.31672385353445875;0.21680063641568745;0.4555137169176946;0.647;0.03127827437296506
03:52.7;-0.2587991250130819;0.33771796431143863;0.4711451205165096;0.644;0.04117860823097336
03:52.8;-0.1981068946350022;0.4514333657031184;0.46822451999379117;0.6409999999999999;0.041874284402238775
03:52.8;-0.1365380211622051;0.5517849832200149;0.4460251549946267;0.652;0.033603370021263776
03:52.8;-0.07707574983840423;0.6324938461715575;0.40317315214532756;0.6759999999999999;0.01965466595338129
03:52.8;-0.0234717193831677;0.6875735942908523;0.3377949209564188;0.743;0.005451514972427202
03:52.8;0.02017722031534801;0.7118018298093239;0.2477470695437005;0.868;0.003558188587217835
03:52.8;0.049881818563623954;0.7012229881974927;0.13091534754311285;0.868;0.004579193403798782
03:52.8;0.06217453013053972;0.6536290612682092;-0.014424685007248911;0.868;0.0005862059245804038
03:52.8;0.054435711616849354;0.5689526357145821;-0.18920395731461506;0.82;0.005859900394328657
03:52.8;0.025112862735069907;0.44951387996419684;-0.39316184364473883;0.7659999999999999;0.0044382390684546864
03:52.8;-0.02616193133552844;0.3000776045887359;-0.6245128584309626;0.813;0.004902806695792105
03:52.9;-0.09853819265805405;0.12769087201605933;-0.8797043807069027;0.996;0.01106881680931004
03:52.9;-0.1899672933594159;-0.05871049980963956;-1.153245433291279;1.1340000000000001;0.012862232511771406
03:52.9;-0.29723403078710187;-0.24891860535280907;-1.4375741844406553;1.188;0.10636191677512222
03:52.9;-0.4159550825987876;-0.43226999398927446;-1.722979675760615;1.126;0.3098001901195448
03:52.9;-0.5405277679115619;-0.5986164093684693;-1.9976804464290396;2.2640000000000002;0.6463870480363583
03:52.9;-0.6640735066464326;-0.7393424750462333;-2.2482049386746894;2.2640000000000002;1.1038186023667178
03:52.9;-0.778490199893651;-0.8482355319648512;-2.460161298894544;2.2640000000000002;1.6245504127408845
03:52.9;-0.8747613880399969;-0.9219979860628528;-2.619403574904419;3.075;2.1126229500315947
03:52.9;-0.9436265145358284;-0.9602999084413323;-2.7135517927604784;3.763;2.458924182789242
03:52.9;-0.9765923558923267;-0.965410777815978;-2.733710929672732;4.16;2.577377617480507
03:53.0;-0.967116261649259;-0.9415413216391649;-2.6760456017144936;4.211;2.4367533984138765
03:53.0;-0.9116967337601989;-0.8940724582203725;-2.5427783530037025;3.965;2.0726769666258127
03:53.0;-0.8105990284118668;-0.8288498986726909;-2.342291273768094;3.3989999999999996;1.5737033452710283
03:53.0;-0.6680059348327313;-0.7516642298895493;-2.0882385390159497;2.638;1.0485383300896092
03:53.0;-0.4915106110526693;-0.6679400530754518;-1.7978183477721048;0.888;0.5902230869352842
03:53.0;-0.29107007059682727;-0.5825820350808477;-1.4895786283126038;0.888;0.2525911162567895
03:53.0;-0.07774071386841905;-0.49990649690295147;-1.1812803766343432;0.888;0.045908203155033925
03:53.0;0.13745092239953016;-0.4236026596833737;-0.8882753396204495;0.725;0.05171945529102456
03:53.0;0.3443251700130712;-0.35668450546469777;-0.6225756981195721;0.6659999999999999;0.07646191638210766
03:53.0;0.5340689635899125;-0.3014177863455869;-0.39253501269503005;0.695;0.06318945603833839
03:53.1;0.6995383549215695;-0.2592428834694324;-0.20297412961043057;0.779;0.036809427462197945
03:53.1;0.8354110344961028;-0.23073738721681458;-0.05560295602744766;0.9059999999999999;0.010718056905460287
03:53.1;0.9382364327421449;-0.21565593254968338;0.050381684707924465;1.016;0.010194041296328303
03:53.1;1.0064121348712294;-0.21306219196443232;0.11761392557038493;1.083;0.025219762993326726
03:53.1;1.0400972010351803;-0.22154449281130806;0.14985653490473605;1.156;0.034531112684404834
03:53.1;1.0410631632687075;-0.23948382457552186;0.15132394609664265;1.156;0.037727751506841045
03:53.1;1.0124810746713349;-0.26532322181662626;0.12606974624007197;1.156;0.03386671359890073
03:53.1;0.9586411744915911;-0.29778556565053704;0.07747348749369505;1.141;0.02211631807910988
03:53.1;0.8845984546721124;-0.3360061787770084;0.007855131247370115;1.091;0.002334784953535501
03:53.1;0.7957390513515278;-0.37956466466153654;-0.08175030254550406;1.013;0.024691405719726837
03:53.2;0.6972763598199073;-0.42840581605206896;-0.19160896694467797;0.922;0.057236903286812656
03:53.2;0.5937102571886153;-0.4826478877635156;-0.3230440751767602;0.802;0.09256924938312046
03:53.2;0.48830801203067736;-0.542297663459598;-0.4779125722552658;0.675;0.1265552129270874
03:53.2;0.38268336830666005;-0.6069164880932931;-0.6578456434454095;0.589;0.15278915426488882
03:53.2;0.27656016359351715;-0.6752998243517692;-0.8633649195957082;0.812;0.16124292156097927
03:53.2;0.16781125127046886;-0.7452401511917113;-1.0930240067794434;1.08;0.13669323499965205
03:53.2;0.052851346418840026;-0.8134362068997022;-1.3427032800437715;1.08;0.05772442358871477
03:53.2;-0.07258821967706462;-0.8755957539462869;-1.6051396884621933;1.08;0.10201936709236249
03:53.2;-0.21235573220349405;-0.9267668474690477;-1.8697744624543413;1.379;0.3679795653824406
03:53.2;-0.368579298281906;-0.9619164641162266;-2.1230455670662574;1.902;0.7527098730889404
03:53.3;-0.5403842239709199;-0.9767192269408803;-2.3492507282487893;2.612;1.2399431361228839
03:53.3;-0.722925812544722;-0.9684127098763362;-2.5320103158936793;3.2960000000000003;1.7726364824199075
03:53.3;-0.9070766073923555;-0.9364768310401372;-2.6561938346695606;4.004;2.256320392451631
03:53.3;-1.0800443915794347;-0.8828809475733485;-2.7099851398243886;4.48;2.5841079990480997
03:53.3;-1.2270049742193325;-0.8117498874432062;-2.686622987298234;4.021;2.6759333166589907
03:53.3;-1.3335045260253402;-0.728514473037527;-2.585397687054717;4.021;2.511655286142144
03:53.3;-1.3880337168431351;-0.6388339218504847;-2.411745428749185;4.021;2.138550197266662
03:53.3;-1.3840748496688715;-0.5476396714838722;-2.176543047170949;3.438;1.6497636838533742
03:53.3;-1.3211718445667215;-0.458513178092451;-1.8947808406404703;2.636;1.1478102976894111
03:53.3;-1.2049226690175616;-0.3734332973603287;-1.583800406785362;1.8259999999999998;0.7126440520303674
03:53.4;-1.0460290088800244;-0.29283729241772144;-1.2613674808678392;1.1520000000000001;0.386377423149551
03:53.4;-0.8586764971668034;-0.21590884297920962;-0.9439106190916583;0.662;0.17499711060352238
03:53.4;-0.6585957098769797;-0.14099463300963166;-0.6451892149614225;0.353;0.0599112771782109
03:53.4;-0.4611470208718401;-0.06605929269485414;-0.3755056294016173;0.213;0.011439045271908976
03:53.4;-0.27969549786318415;0.010884660997971262;-0.14144008764823243;0.40299999999999997;0.00043059888417613473
03:53.4;-0.12444566325201918;0.09140284297449261;0.05398413101005261;0.40299999999999997;0.0006140526157220919
03:53.4;-0.0018199110308721941;0.17632919899348226;0.21080854681927064;0.40299999999999997;6.764919087302809e-05
03:53.4;0.0856149296533869;0.2655299174856662;0.3314213960871582;0.377;0.00753431037761011
03:53.4;0.138744232231635;0.35776846501102794;0.4197246444071269;0.401;0.020834422431198023
03:53.4;0.16115413370084586;0.4507021063765182;0.4802955023865962;0.505;0.03488506668423579
03:53.5;0.15818714052137392;0.5410156785484085;0.517623624512502;0.617;0.044299121737626415
03:53.5;0.13595642439498448;0.6246678404242374;0.5354735439057514;0.72;0.045476486170219765
03:53.5;0.10044629611098613;0.697208052707542;0.5364092418006715;0.815;0.03756579405916946
03:53.5;0.05679541867022389;0.7541187740478694;0.5215225433978642;0.8909999999999999;0.022337066861604124
03:53.5;0.008829249925946546;0.7911425585427633;0.4904094030779497;0.9259999999999999;0.0034256054949363475
03:53.5;-0.04112729037210325;0.8045679859066871;0.441412959581629;0.9259999999999999;0.014606222929748544
03:53.5;-0.0921701467663566;0.7914679417957274;0.37209946427461754;0.9259999999999999;0.02714455037511928
03:53.5;-0.14452078920906034;0.7498977662788884;0.2798870763019123;0.9109999999999999;0.030332990564406293
03:53.5;-0.19908765712260793;0.679061859870781;0.162729411679303;0.847;0.021999850457730136
03:53.5;-0.2569720655812013;0.5794491773477299;0.01975059107930711;0.762;0.002940907490086827
03:53.6;-0.31901971865650897;0.4529259739478355;-0.14827035455992824;0.622;0.021423927040313796
03:53.6;-0.3855104447128486;0.30276008931642234;-0.3386461255726581;0.547;0.03952581966831972
03:53.6;-0.4560361407238179;0.13354167075578638;-0.5468006952116921;0.5660000000000001;0.03330006837467304
03:53.6;-0.5295585591073788;-0.04902957273905987;-0.7665692275791856;0.8290000000000001;0.019903226340185865
03:53.6;-0.6045912193026667;-0.23849427717997698;-0.9907494196473008;1.915;0.14285769035600582
03:53.6;-0.6794204975646494;-0.4280745620592416;-1.2117990922823718;1.915;0.352442837392886
03:53.6;-0.752270209706906;-0.6111142051698596;-1.422478862293934;1.915;0.65394626605307
03:53.6;-0.8213379821766497;-0.7814415059723795;-1.6162402646972005;1.955;1.0373475934738645
03:53.6;-0.8846933753390326;-0.9336551689258453;-1.7873061148408995;2.011;1.476312246395649
03:53.6;-0.9400954998653542;-1.0633772779704758;-1.9305575953294505;2.144;1.9299324685772488
03:53.7;-0.9848326031731008;-1.167477335916036;-2.0414121535616556;2.373;2.3471539289455023
03:53.7;-1.0156938187603577;-1.2442101309218274;-2.1158489059986216;2.6710000000000003;2.6738755739713254
03:53.7;-1.0291410423805345;-1.2932041994778107;-2.150648284995148;2.918;2.8622752591068084
03:53.7;-1.0216680552133064;-1.3152953842637556;-2.143787717027596;3.0380000000000003;2.880811809614955
03:53.7;-0.9902617045033154;-1.312272516887572;-2.0948371604229896;2.705;2.722226685603584
03:53.7;-0.9328587235867319;-1.286629165208925;-2.0052007406731227;2.705;2.406728635412518
03:53.7;-0.8487186687806386;-1.2413805133900329;-1.878144545394804;2.705;1.9787808204469353
03:53.7;-0.7386674047399618;-1.1799483114146117;-1.718631210063145;2.332;1.4979406711614602
03:53.7;-0.6051824322071206;-1.10608140849315;-1.5329933890731586;1.989;1.0261567045087405
03:53.7;-0.4523101711889584;-1.0237687953305676;-1.328483741939043;1.68;0.6151690619350532
03:53.8;-0.28543824206340584;-0.9371067824146141;-1.1127783254616226;1.392;0.29765274846117723
03:53.8;-0.1109680271089838;-0.8501022609816131;-0.8935289837511724;1.15;0.08429031571612321
03:53.8;0.06407416060550312;-0.7664273476625001;-0.6780232160680093;0.943;0.03329649221839394
03:53.8;0.23247110737400967;-0.6891715250394885;-0.4729500553011321;0.78;0.07577249540972622
03:53.8;0.38728886124529366;-0.6206494034498042;-0.28423264956922906;0.8270000000000001;0.06832117271398626
03:53.8;0.5223662257129009;-0.562311475641904;-0.11689824265588529;0.8270000000000001;0.03433681577367368
03:53.8;0.6327577092658511;-0.5147785390092786;0.025002337501864914;0.8270000000000001;0.0081440136227591
03:53.8;0.7150667840145571;-0.47798891840365854;0.1384025327209287;0.941;0.04730515508577985
03:53.8;0.7676548283865996;-0.4514223851417958;0.22117058032159434;1.074;0.07664369508486092
03:53.8;0.7907470580387475;-0.4343514022453099;0.2720414638380682;1.161;0.09343593068331812
03:53.9;0.7864414185133275;-0.4260681614787888;0.2905399258083752;1.177;0.0973534353667208
03:53.9;0.7585958374196884;-0.42604339263058555;0.2768685032107781;1.136;0.0894824450749366
03:53.9;0.7125606256080848;-0.4339888988037965;0.23173464194026216;1.048;0.0716624088584151
03:53.9;0.6547349116365597;-0.4498153438854116;0.15611604652397076;0.9279999999999999;0.04597770711098688
03:53.9;0.591951961861674;-0.4734947651890103;0.05099498802026615;0.703;0.014293189125898765
03:53.9;0.53074571048519;-0.5048527627842028;-0.08286333144158738;0.703;0.0222031002499801
03:53.9;0.47660787296003976;-0.5433278274325414;-0.2449675145022657;0.703;0.06343539617741205
03:53.9;0.4333593384261813;-0.587741475726987;-0.43488402657541425;0.679;0.11076637802372595
03:53.9;0.4027134762574905;-0.6361226080922914;-0.6517369691575243;0.684;0.16695881376900756
03:53.9;0.3840621928557392;-0.685626593165911;-0.8935242831236245;0.72;0.235285720733926
03:54.0;0.3745086829371695;-0.7325832858559198;-1.1564173765436412;0.8759999999999999;0.31727328549430245
03:54.0;0.3691739784254038;-0.7726941291994909;-1.4342314361376944;1.1520000000000001;0.40912680247285554
03:54.0;0.3617877131542848;-0.8013793890775569;-1.718233872362675;1.4469999999999998;0.498166200452352
03:54.0;0.3455428727538598;-0.8142623569801256;-1.9973978505191459;1.79;0.5619929605886439
03:54.0;0.31415386051013466;-0.8077636536595155;-2.259119630149857;3.1660000000000004;0.5732788741241188
03:54.0;0.26298838748053854;-0.7797369773217963;-2.490301686961133;3.1660000000000004;0.5106656725711068
03:54.0;0.19005524363388152;-0.7300070027245934;-2.6785829369435623;3.1660000000000004;0.3716310397904489
03:54.0;0.09659572516606912;-0.6606361366800134;-2.813476777428489;3.3960000000000004;0.17954097026247612
03:54.0;-0.012901815920526666;-0.5758037068079933;-2.8872830448161855;3.4330000000000003;0.021449375792447534
03:54.0;-0.13130749088685886;-0.4812993488877023;-2.8957277389252356;3.322;0.1830048093649634
03:54.1;-0.2499752065199735;-0.3837420254380195;-2.8382812175031606;3.182;0.27226494153216024
03:54.1;-0.36016483005238015;-0.2896881472911213;-2.718107095601508;3.1069999999999998;0.28359501486400884
03:54.1;-0.45446017273137707;-0.2047822688476006;-2.5416508231661377;2.9560000000000004;0.23653971308689567
03:54.1;-0.5278730514361477;-0.13306759988282316;-2.317932907057907;2.6310000000000002;0.16281809759793062
03:54.1;-0.5783964026147139;-0.07654210460494819;-2.0576423126964682;1.722;0.09109527780823237
03:54.1;-0.6069205566494035;-0.03501551553418078;-1.7721633280259808;1.722;0.037661370297631155
03:54.1;-0.6166085444721544;-0.00627980363786334;-1.4727032795963002;1.2990000000000002;0.005702573040406399
03:54.1;-0.6119504309128414;0.013444714954235043;-1.169655401310099;0.996;0.009623338772986637
03:54.1;-0.5977457049432521;0.02886886173495606;-0.8722358742042005;0.8009999999999999;0.015051509932192127
03:54.1;-0.5782336835547494;0.04490816496665202;-0.588357687951915;0.653;0.015278127457411835
03:54.2;-0.5565289849182873;0.06598392077635352;-0.32467444989884675;0.56;0.011922683607201195
03:54.2;-0.534423221026986;0.09544601764700895;-0.08671314971529012;0.539;0.0044231136097982945
03:54.2;-0.5125130706207136;0.13517803043870688;0.1209905701807434;0.5670000000000001;0.008382288100069477
03:54.2;-0.4905470289174667;0.1854104878398474;0.2948229903357887;0.674;0.026814906879490518
03:54.2;-0.4678633914011302;0.24473828370154357;0.43211246267721104;0.9420000000000001;0.04947864147247674
03:54.2;-0.4438122496808238;0.3103069832621111;0.5312028833353302;0.9420000000000001;0.07315622011230162
03:54.2;-0.41809184173076436;0.37810433685093686;0.5915001675798892;0.9420000000000001;0.0935057297498959
03:54.2;-0.39096127591983165;0.44329511009135364;0.6134209501713844;0.917;0.10631273438279784
03:54.2;-0.3633107451113651;0.5005743959267328;0.5982293295357615;0.875;0.1087964127468623
03:54.2;-0.33658748128896987;0.544543642041397;0.547799575629319;0.828;0.10040430686776355
03:54.3;-0.3125997486940372;0.5701065692803212;0.46435993944187465;0.775;0.08275598568155981
03:54.3;-0.2932477260604968;0.5728617355737392;0.35026502782698254;0.745;0.05884116258743557
03:54.3;-0.2802489426709826;0.5494597641178041;0.20782573878294752;0.7090000000000001;0.03200215402656283
03:54.3;-0.27492917580073656;0.4978936006585019;0.03920313240476783;0.6829999999999999;0.005366339489529351
03:54.3;-0.2781308951011781;0.41769442702338666;-0.1536382367381016;0.857;0.017848726243830694
03:54.3;-0.2902435891175405;0.3100257368990044;-0.368892456172053;0.857;0.033194043463664745
03:54.3;-0.311297206656555;0.17770192746039692;-0.604707773458391;0.857;0.033451293328687785
03:54.3;-0.34102918425604056;0.02516225850559253;-0.858736716998405;0.857;0.007368875150384993
03:54.3;-0.37886364220981666;-0.14162004350698681;-1.1274681141177876;1.031;0.060493947066341584
03:54.3;-0.42378992397665327;-0.31536998558800594;-1.405485064615601;1.047;0.18784395340237772
03:54.4;-0.47415454062115214;-0.48795648159015637;-1.6848354236683054;1.084;0.38981494911481374
03:54.4;-0.5273975625351843;-0.6510566327966785;-1.9547062706743583;1.328;0.6711790501942554
03:54.4;-0.579803530155486;-0.7969547376842563;-2.201609472773733;1.906;1.0173134752485713
03:54.4;-0.6263980441539252;-0.9193159828407602;-2.410266510579189;2.536;1.3879706101803737
03:54.4;-0.6611522710325667;-1.0137461102888485;-2.5652419288246637;3.992;1.7193291434759979
03:54.4;-0.6775802105054926;-1.0780108354509517;-2.653095563151959;3.992;1.9379239628132723
03:54.4;-0.6696357561557751;-1.1119287156040443;-2.6645368077961153;3.992;1.9839800709974644
03:54.4;-0.6326850943108536;-1.1170636333470043;-2.596002830116611;3.8710000000000004;1.83472372870264
03:54.4;-0.5643382445006412;-1.0963520822336916;-2.450303543877311;3.407;1.5160356598010876
03:54.4;-0.46498773640124635;-1.0537450757344424;-2.2362773306994685;2.734;1.0957278959622623
03:54.5;-0.3379528365159676;-0.9938877795349509;-1.9676189499799113;2.075;0.6608980085059449
03:54.5;-0.1892026831218709;-0.9218206114068139;-1.6611754802957082;1.567;0.28972716545359206
03:54.5;-0.026730371629079278;-0.8426727385886442;-1.3350632945480616;1.187;0.030072241251541072
03:54.5;0.14029092329877432;-0.7613367706003548;-1.0069157960345332;0.9590000000000001;0.10754730524734586
03:54.5;0.3024362278740942;-0.6821457538127941;-0.692459310856414;0.847;0.1428582257378854
03:54.5;0.45091948703147067;-0.6086024553588336;-0.4045136565709636;0.847;0.11101096875441818
03:54.5;0.5783297691700812;-0.5432228857744243;-0.15246271651889096;0.847;0.04789798678428912
03:54.5;0.6791298174126096;-0.4875360367688848;0.05780962478643773;0.968;0.019140781776071224
03:54.5;0.7499066576193152;-0.44223452981755657;0.2236012982388131;1.0490000000000002;0.07415393115688795
03:54.5;0.7894181725487162;-0.4074272679711889;0.3448209565621635;1.073;0.11090493298975215
03:54.6;0.7984826687652269;-0.3829271144067921;0.4232733207417548;1.057;0.12942033171103884
03:54.6;0.7797435737023193;-0.3685100478903733;0.46187836234395574;1.013;0.13271767208894786
03:54.6;0.7373348240260071;-0.36409665952157705;0.46389871201403565;0.946;0.12453878003000858
03:54.6;0.6764681936878537;-0.3698265241833705;0.432259638117604;0.872;0.10814093569698141
03:54.6;0.6029598189162176;-0.3860173386430229;0.36904883360163404;0.586;0.08589720272445478
03:54.6;0.5227236776691498;-0.41302085160025104;0.2752763275281243;0.586;0.05943099703500111
03:54.6;0.441283481265177;-0.45100329440199594;0.15095320592050193;0.586;0.030042752904263736
03:54.6;0.3633564067671797;-0.4996865493961243;-0.004498593110350991;0.499;0.0008167839499959994
03:54.6;0.2925291297109475;-0.5580895549375824;-0.19155955702113608;0.449;0.03127352514848346
03:54.6;0.23102186904040992;-0.6243125768993778;-0.40976719202969414;0.455;0.059100664075511726
03:54.7;0.1795487478137026;-0.695410191038922;-0.6568728079933118;0.525;0.08201715786713155
03:54.7;0.13730762022800105;-0.7673971477260213;-0.9281738699628953;0.705;0.09780119442999059
03:54.7;0.10214258313510077;-0.8354227640509199;-1.2161735181699962;1.024;0.10377880947608807
03:54.7;0.07091526230398965;-0.8941379656252797;-1.5106639787028646;1.3840000000000001;0.09578822441651848
03:54.7;0.04009258569636025;-0.9382618567754949;-1.7992480160724627;2.431;0.06768293137910747
03:54.7;0.0064924424102980344;-0.9633069905983437;-2.0682138011367006;2.431;0.012935054108977882
03:54.7;-0.03196315652131025;-0.9663399052392756;-2.303611263643234;2.431;0.0711522714694365
03:54.7;-0.07568632918515764;-0.9465996559830643;-2.4924085343015023;3.073;0.1785677449962125
03:54.7;-0.12321470764238641;-0.9058126830353543;-2.623693021553265;3.509;0.29282892177332676
03:54.7;-0.1714338217931705;-0.8480835076165832;-2.68987280001315;3.661;0.3910811360580246
03:54.8;-0.21621151901494085;-0.7793042389096473;-2.6877031867911154;3.6319999999999997;0.4528633477792117
03:54.8;-0.25331318655098023;-0.7061604591537914;-2.6188678819598543;3.3489999999999998;0.4684624480473961
03:54.8;-0.27936912171761735;-0.6349695911979873;-2.4899008743359374;3.015;0.44168574956537215
03:54.8;-0.29263414522425607;-0.5706577369890684;-2.3114004909909376;2.574;0.385989872780646
03:54.8;-0.2933375165654712;-0.516121471340439;-2.0966628402268723;1.3619999999999999;0.31743012174646024
03:54.8;-0.2835644106093225;-0.4720681658622157;-1.8600083113562715;1.3619999999999999;0.24898393264200547
03:54.8;-0.26678065244596055;-0.4372583606878996;-1.6151628142139738;1.3619999999999999;0.1884120868793148
03:54.8;-0.24719634137222282;-0.40898274664560796;-1.3740032459024116;1.133;0.13891040726979914
03:54.8;-0.2291220954211509;-0.3836254263855196;-1.1457877278107607;0.966;0.10071137443494102
03:54.8;-0.21639693030146012;-0.35722489117715006;-0.9368280961749306;0.846;0.07241903200262492
03:54.9;-0.21193616816794658;-0.32598059517954586;-0.7505233819131236;0.7609999999999999;0.05185146760677575
03:54.9;-0.2174385279043505;-0.28666971929910046;-0.5876866127257339;0.7240000000000001;0.036632294172326454
03:54.9;-0.23327047245587904;-0.2369529699796223;-0.44708922069950285;0.687;0.024712468268520846
03:54.9;-0.25852034092675324;-0.17555955180774405;-0.32612380747657005;0.633;0.014801362241598774
03:54.9;-0.291196429344855;-0.10235139345783338;-0.22147604794639486;0.447;0.006600951933780309
03:54.9;-0.3285272156347558;-0.01828626363593707;-0.1297207335738606;0.447;0.0007793018830614498
03:54.9;-0.3673073240242094;0.0746755830849862;-0.04780749814050904;0.447;0.0013113065404009997
03:54.9;-0.40423639807241074;0.17367719401179393;0.026565826926080307;0.494;0.0018650975358893837
03:54.9;-0.43622335689130637;0.2750725208959075;0.09470059878407182;0.588;0.011363414485503844
03:54.9;-0.4606477966212536;0.3745488092139885;0.15678114977108293;0.679;0.02705024879700936
03:55.0;-0.4755679796502415;0.46726810848990386;0.21189066410615776;0.736;0.047085866689263386
03:55.0;-0.479858502522319;0.5480217309841354;0.25812916110032;0.775;0.06788097075983444
03:55.0;-0.4732644548132448;0.6114015913586375;0.2927968273504076;0.812;0.0847221208072002
03:55.0;-0.4563665362062715;0.6520094085582775;0.31261530874061577;0.851;0.09302033427332783
03:55.0;-0.43045828321187196;0.6647292673104103;0.3139714810169192;0.772;0.08983924046000481
03:55.0;-0.39735108740327446;0.6450755757770035;0.29317704174661363;0.772;0.07514757368001769
03:55.0;-0.3591463650281623;0.5896051717666094;0.24674406681285432;0.772;0.052249179879760695
03:55.0;-0.3180234223828845;0.4963626000598449;0.1716768481688363;0.691;0.027100037333393563
03:55.0;-0.27607502318707217;0.36531630448286406;0.06576994490590414;0.561;0.006633208538065692
03:55.0;-0.2352069420804956;0.19873594876496378;-0.07210827871192436;0.47200000000000003;0.003370634773122478
03:55.1;-0.1971155442968124;0.001453285259764273;-0.2417668783663952;0.48;6.925777661368764e-05
03:55.1;-0.16334231031587934;-0.21906201843655304;-0.44148951640437645;0.599;0.015797420344573754
03:55.1;-0.13536333781978963;-0.45289487288106645;-0.6678784248482542;0.7440000000000001;0.040944528390018095
03:55.1;-0.11463072496921971;-0.6882335395117333;-0.9157407228395169;0.902;0.07224526689972036
03:55.1;-0.10247802910449126;-0.9123205837587378;-1.1780205424408603;1.99;0.11013645703532396
03:55.1;-0.09985985276104971;-1.1127213739394604;-1.4457976400424373;1.99;0.16065152898194301
03:55.1;-0.10699681659571982;-1.278654063948716;-1.708392898377373;1.99;0.23372850292259606
03:55.1;-0.12306166276862956;-1.4020770881887528;-1.9536560832626046;2.381;0.3370876064053938
03:55.1;-0.14602185958396985;-1.4783640734474692;-2.16854471131119;2.762;0.4681312741680684
03:55.1;-0.17269656705191125;-1.5065495414689651;-2.340063249138233;3.1239999999999997;0.6088281412420603
03:55.2;-0.19904002844639768;-1.4891789001741236;-2.4565003838496025;3.408;0.7281219702431071
03:55.2;-0.220617323629359;-1.4318024929025646;-2.5087617616531355;3.552;0.7924687539481793
03:55.2;-0.23318273386660687;-1.3421859279175177;-2.4915256436975883;3.529;0.7797842019340766
03:55.2;-0.23323040247393964;-1.2293540789935253;-2.4039621616206843;3.31;0.6892706337663955
03:55.2;-0.21838963902070324;-1.1026113739974774;-2.24984746267106;2.073;0.5417607940607094
03:55.2;-0.1875962382490895;-0.9706773541977337;-2.0370777395946473;2.073;0.3709425269737411
03:55.2;-0.1410614143952911;-0.8410459565938407;-1.776782658967375;2.073;0.210795952783121
03:55.2;-0.08011385290208925;-0.7196168936595293;-1.482294480087399;1.589;0.0854561770259375
03:55.2;-0.006977164049025796;-0.6105750485406725;-1.168109062667537;1.153;0.0049762407165362225
03:55.2;0.07548466460296888;-0.5164526616793363;-0.848859437069114;0.784;0.033092153560424026
03:55.3;0.16402380653717236;-0.43831438638508674;-0.5383324716923349;0.527;0.03870287155170123
03:55.3;0.25523183268729815;-0.3760266171314326;-0.2486109115800895;0.49200000000000005;0.02386017433731335
03:55.3;0.34570521401298193;-0.3285838038980544;0.010568795430439365;0.626;0.0012005425981671865
03:55.3;0.432149883822451;-0.2944654785829778;0.23217578446483744;0.778;0.02954511672696194
03:55.3;0.511439496937968;-0.27199438776009005;0.4119244228744472;0.9059999999999999;0.05730225977890691
03:55.3;0.5806473061981661;-0.25966070146062564;0.5479963356952711;0.9059999999999999;0.08262211271015457
03:55.3;0.6370658762824016;-0.25637298694075233;0.6404955573053307;0.9059999999999999;0.10460988584265134
03:55.3;0.6782274421388405;-0.2615996765422762;0.6907317814720186;0.89;0.1225524504991326
03:55.3;0.7019452541148331;-0.27537733358019323;0.700450865140227;0.856;0.13539702082521216
03:55.4;0.7063948823380259;-0.2981796254100369;0.6711392964490985;0.8290000000000001;0.14136378907204583
03:55.4;0.6902363699392111;-0.33066032248064986;0.603527585046403;0.8109999999999999;0.1377453824749661
03:55.4;0.6527587782310429;-0.37330416020010365;0.4973984919021182;0.797;0.12120485459521513
03:55.4;0.5940183325699168;-0.4260374460795374;0.35176204149222645;0.778;0.08902184564895724
03:55.4;0.5149352240283935;-0.48786282616512205;0.16539792449284577;0.74;0.04155089505549583
03:55.4;0.41731519400450556;-0.556589616962566;-0.06229849019393748;0.368;0.014470276150537427
03:55.4;0.30379252411353563;-0.628729365229902;-0.33028376603071957;0.368;0.06308528292253318
03:55.4;0.17774776829550867;-0.6996142940196085;-0.6348020532109674;0.368;0.07894073278872714
03:55.4;0.04327296714496259;-0.7637800661115064;-0.9684766715073869;0.715;0.032009151240353355
03:55.4;-0.09480128366389472;-0.8156221864242802;-1.3197810281781384;1.121;0.10204814859442636
03:55.5;-0.23088679898223932;-0.8502574394321614;-1.6731210999476174;1.6019999999999999;0.3284557880731971
03:55.5;-0.3587458533282664;-0.8644137585113303;-2.0097016117533184;2.365;0.6232182197230364
03:55.5;-0.471846744780411;-0.8571054043579108;-2.3091933460785756;3.2119999999999997;0.933889503492927
03:55.5;-0.5640253199112011;-0.8298764010947608;-2.5519829354870853;3.9610000000000003;1.194509976862723
03:55.5;-0.6303707400402107;-0.7865102282553504;-2.72155441176251;4.328;1.3493277207307017
03:55.5;-0.6680953657837188;-0.7322682809607873;-2.806464522177024;3.423;1.3729927322099635
03:55.5;-0.6771014820852491;-0.6728707321073328;-2.801525070345368;3.423;1.2763797806413184
03:55.5;-0.6600759197187467;-0.6135031598278863;-2.7081137679999165;3.423;1.0966741293159916
03:55.5;-0.6221128703823184;-0.5580837806622692;-2.533763867140314;2.928;0.8797002710179679
03:55.5;-0.5699629891751218;-0.5088951259107908;-2.291207660327965;2.428;0.6645679601056714
03:55.6;-0.5110571584521205;-0.46655983039266474;-1.9969991264206282;1.926;0.4761619578180862
03:55.6;-0.4524989539379646;-0.43027583081257725;-1.669855166246917;1.443;0.32511973775077485
03:55.6;-0.4002193222666526;-0.3982085776559409;-1.3289024190270307;0.99;0.2117881978818199
03:55.6;-0.35842114771342387;-0.3679416708396145;-0.9920312517528074;0.674;0.13082717276732844
03:55.6;-0.3293582776662667;-0.3369032171250599;-0.6745370456549755;0.524;0.07484788747269865
03:55.6;-0.31342949790333685;-0.30271057047798644;-0.38818543368864133;0.509;0.036830421436385055
03:55.6;-0.30951743301147083;-0.263412753207591;-0.1407790033127434;0.509;0.011477830281165557
03:55.6;-0.3154613809821181;-0.21765117614745993;0.06376752753092381;0.509;0.004378312912989682
03:55.6;-0.3285469092924958;-0.16477654438425451;0.2249158534665635;0.509;0.01217623005969958
03:55.6;-0.34593555059241027;-0.10493743700787075;0.3446982310334293;0.509;0.012513093873616595
03:55.7;-0.36500868115835233;-0.03912476119953621;0.4267862662734335;0.515;0.006094882381391647
03:55.7;-0.3836242142888548;0.030848430733440985;0.4755802675432053;0.527;0.005628114381088609
03:55.7;-0.40028739143147196;0.10243475102075152;0.49542048641719477;0.545;0.02031389428985036
03:55.7;-0.41423579590654674;0.17249500015641595;0.4899843769282929;0.5489999999999999;0.03501114947827548
03:55.7;-0.4254401783752783;0.23748024536600687;0.46190989022534795;0.5720000000000001;0.04666843661414503
03:55.7;-0.4345259855693771;0.2936455137156605;0.4126648181395064;0.6459999999999999;0.05265463031557125
03:55.7;-0.44262446977633385;0.33728944947533773;0.3426577361603087;0.6459999999999999;0.05115625191506295
03:55.7;-0.45116618679288045;0.36500539922997066;0.2515568738072885;0.6459999999999999;0.04142590654373396
03:55.7;-0.46163259472554447;0.3739247431317094;0.1387561152411725;0.6559999999999999;0.023951504692350658
03:55.7;-0.47528510753697717;0.36194171566639716;0.003906218078884036;0.636;0.0006719691464593873
03:55.8;-0.49290061122073137;0.3279125461633421;-0.1525878906633675;0.575;0.02466252051872227
03:55.8;-0.5145573795770757;0.2718110197016227;-0.32921164195896413;0.486;0.04604431917158292
03:55.8;-0.5395248024525883;0.19481463275217265;-0.5232181789703447;0.631;0.05499406383722302
03:55.8;-0.5663038565402594;0.0993025247759181;-0.7307686655635213;1.137;0.041095070221235236
03:55.8;-0.5928379324930281;-0.011242896879587228;-0.947260938937662;1.6440000000000001;0.0063136985213513176
03:55.8;-0.6168646792764712;-0.1324354970456669;-1.167668185220256;1.65;0.09539239598318983
03:55.8;-0.636320420549634;-0.2592768987456784;-1.3866938035198981;1.65;0.22878116066928525
03:55.8;-0.6496717905687099;-0.3864928539762357;-1.598665406436694;1.65;0.4014144994007298
03:55.8;-0.6560641109191164;-0.5088548022094153;-1.7972612158059995;1.65;0.6000001526404302
03:55.8;-0.6552339134003138;-0.6214772639015533;-1.975267684141983;1.5930000000000002;0.8043546393952599
03:55.9;-0.6472073849767107;-0.7201261844820765;-2.12458203900208;1.955;0.9902060430189182
03:55.9;-0.6318878803838041;-0.8015336249173435;-2.2366241795866957;2.4930000000000003;1.1328040351629425
03:55.9;-0.6086981513963075;-0.8636367947072168;-2.3031991820150397;2.932;1.210778268132512
03:55.9;-0.5764335993270494;-0.9056507431857087;-2.317662568099716;3.285;1.2099299903752252
03:55.9;-0.5333917339353977;-0.9279625052377474;-2.2760724261408223;3.4139999999999997;1.1265819461756437
03:55.9;-0.4777269686298181;-0.9319207813626051;-2.1779727753605207;2.3569999999999998;0.9696415160562868
03:55.9;-0.4079068702058806;-0.919616279832059;-2.0265969027099757;2.3569999999999998;0.7602125685847371
03:55.9;-0.3231431335143494;-0.8937025593351936;-1.8285368279470675;2.3569999999999998;0.5280701820959376
03:55.9;-0.22370905220949655;-0.8572490453393911;-1.5930855696715829;1.841;0.30551298377449304
03:55.9;-0.11109400299765956;-0.8135928181116671;-1.331420407566386;1.432;0.12034081029547498
03:56.0;0.012018299903827464;-0.7661635681241035;-1.0557137198491875;1.124;0.009720994552264052
03:56.0;0.14192117301324253;-0.7182767469997973;-0.7782596725995529;0.888;0.07933476254090266
03:56.0;0.2741549267340087;-0.6729127864360732;-0.5107160606886048;0.753;0.09421810195114926
03:56.0;0.4038275829467428;-0.6325165471037718;-0.2635163598761699;0.677;0.06730935884532972
03:56.0;0.5259571512389232;-0.5988527520057908;-0.04545141323799189;0.71;0.01431587196372492
03:56.0;0.6358219704239502;-0.5729416888443017;0.13659984933845185;1.095;0.04976181070509703
03:56.0;0.7293004735326192;-0.5550812050889842;0.27779471650043114;1.095;0.11245713096163834
03:56.0;0.8031583171545978;-0.5449413998224226;0.37528904675339847;1.095;0.16425433992261987
03:56.0;0.855238199086419;-0.5417060457764222;0.42803340942584495;1.095;0.19830261507045355
03:56.0;0.8845454601780911;-0.544235827385096;0.4364417156327017;1.153;0.21010362253880485
03:56.1;0.8912581285961355;-0.5512361377200343;0.40200172482680113;1.2009999999999998;0.1975009101811268
03:56.1;0.8766830099653328;-0.5614147571585779;0.326896189676971;1.216;0.16089267512703714
03:56.1;0.8431472731001664;-0.5736104805280275;0.21368924424945862;1.183;0.10334826274584706
03:56.1;0.7937956798992307;-0.5868704740088541;0.0651180515318561;1.1159999999999999;0.030335585975884868
03:56.1;0.7322698345383314;-0.6004598275143028;-0.11599046481418693;1.015;0.051000847142704836
03:56.1;0.6622733640175222;-0.613803143181545;-0.326682033003727;0.9359999999999999;0.1327980341767014
03:56.1;0.5870790412782543;-0.6263793873049761;-0.563722563744969;0.9359999999999999;0.20730007173684478
03:56.1;0.5090952572771422;-0.637607101091131;-0.8233125390050025;0.9359999999999999;0.2672495152351996
03:56.1;0.4296198712195397;-0.6467587665531214;-1.1006635640106146;0.9359999999999999;0.3058308379696833
03:56.1;0.3488418882685533;-0.6529322842685134;-1.3895215258546116;1.157;0.31649149990970793
03:56.2;0.2660682695542822;-0.6550929705208932;-1.6818062703291512;1.508;0.2931379130774192
03:56.2;0.18011426615810697;-0.6521854409466126;-1.9675260543436686;1.9040000000000001;0.23112115792120147
03:56.2;0.0897882848038584;-0.6433021325056114;-2.2350306934518387;2.164;0.12909759690676817
03:56.2;-0.005603282570603677;-0.6278879043774863;-2.471575930822118;2.332;0.00869558086907843
03:56.2;-0.10581883536228973;-0.6059532780981693;-2.6641450482497047;2.5669999999999997;0.17082836441704102
03:56.2;-0.2094152198934843;-0.5782488849369076;-2.8004939590088416;3.3569999999999998;0.3391233442284325
03:56.2;-0.31373771981885157;-0.5463328774748977;-2.8703653138306415;3.3569999999999998;0.49199563036341987
03:56.2;-0.41517611212154526;-0.5124737171179382;-2.866722632728501;3.3569999999999998;0.6099435313099343
03:56.2;-0.5096259925123812;-0.4793686921093045;-2.7867894964762665;3.5;0.680809177949373
03:56.2;-0.5930818513514984;-0.44970037561523685;-2.6327153879950704;3.4589999999999996;0.7021692341537786
03:56.3;-0.6622725518744843;-0.42560736925201836;-2.4117543891155355;3.188;0.6797965755489914
03:56.3;-0.7151968991326098;-0.4082046162602845;-2.1358804309149986;2.6430000000000002;0.623563191628547
03:56.3;-0.7514061496741009;-0.39729796825920954;-1.8208273657767842;2.0140000000000002;0.5435754838905479
03:56.3;-0.7719616583114876;-0.3913724763105509;-1.4846562471568163;1.53;0.4485510943861722
03:56.3;-0.7791177064704541;-0.38783400659553335;-1.1460501948589925;1.203;0.34630008689691705
03:56.3;-0.7758640834166358;-0.3834052027097013;-0.8225679434599326;0.856;0.24468955444420773
03:56.3;-0.7654668551789112;-0.37455532890533244;-0.5290830798254272;0.856;0.15169324564632536
03:56.3;-0.75108252715975;-0.35787951173990795;-0.27662938362556005;0.856;0.07435716173525156
03:56.3;-0.7354514557386713;-0.33039678036199727;-0.07180859071266141;0.852;0.01744882640784434
03:56.3;-0.7206487933222354;-0.2897707849420053;0.08322236374175551;0.79;0.017378740876402243
03:56.4;-0.7078821839918275;-0.23447398877036704;0.1902754461030865;0.667;0.03158191079237674
03:56.4;-0.6973508877640874;-0.1639248218456272;0.25428000397629114;0.5579999999999999;0.02906754061847059
03:56.4;-0.6882039508708734;-0.07861871698683401;0.2821779648797481;0.514;0.015267439599718362
03:56.4;-0.6786428709753691;0.01975477532442193;0.28172639189438237;0.55;0.003776947248590732
03:56.4;-0.6662020410165658;0.12825177900149193;0.2603936142940059;0.615;0.022248446236904088
03:56.4;-0.6482079130739843;0.2427312494258719;0.22450936299813049;0.975;0.03532437426011801
03:56.4;-0.622362107564759;0.35805878370273847;0.17875410004468792;0.975;0.039833960355301554
03:56.4;-0.5873315138135383;0.46841659972879357;0.1259811233696514;0.975;0.03465940139753937
03:56.4;-0.5432060537293336;0.5676461820725408;0.06730331195278769;0.99;0.020752898335587765
03:56.4;-0.49172311334942864;0.6495895880171385;0.002361264535659428;0.937;0.0007542309022238744
03:56.5;-0.43622444981127206;0.7084407860552442;-0.07030473964004827;0.882;0.021726919940624687
03:56.5;-0.38137215557883936;0.7391156513664152;-0.15285001511706148;0.8759999999999999;0.043085076306892615
03:56.5;-0.3326946567730057;0.7376251496736198;-0.24774385535786894;0.89;0.06079731970152971
03:56.5;-0.29605382370195066;0.7014221245323464;-0.3574407465492227;0.9440000000000001;0.0742256814692313
03:56.5;-0.27711426321567123;0.6296849828631761;-0.4841108268873871;0.958;0.08447476870407278
03:56.5;-0.28086217786905776;0.523500134918849;-0.6294178113527926;1.1340000000000001;0.09254417444019226
03:56.5;-0.31117538811724416;0.385922046951432;-0.7943038758023239;1.1340000000000001;0.09538750981379605
03:56.5;-0.3704056206856723;0.2219173267532864;-0.9787111273547091;1.1340000000000001;0.08044949206327365
03:56.5;-0.45892696678247796;0.03819794285143881;-1.1811880796041863;1.139;0.020706305053100883
03:56.5;-0.5746442668039863;-0.15708468972571824;-1.3984100565372024;1.048;0.12623142217048147
03:56.6;-0.7125214853392294;-0.3548196417803311;-1.6247277495161123;1.104;0.41075817511025237
03:56.6;-0.8642546803896503;-0.5455787784393055;-1.8519053826700806;1.4580000000000002;0.8732085978123385
03:56.6;-1.0182639626945242;-0.7203523385810573;-2.0692147469983784;1.913;1.5177872815090407
03:56.6;-1.160198450916005;-0.8712743894988888;-2.2640012772586715;2.371;2.288568401170376
03:56.6;-1.2741044795935155;-0.9922285808763678;-2.422735845900436;2.93;3.0628296330798976
03:56.6;-1.3442620920888422;-1.0792525070218633;-2.532446079241683;4.284;3.674068296884351
03:56.6;-1.357441563352065;-1.130711461215052;-2.5823082725042217;4.284;3.963519721863614
03:56.6;-1.305072492241727;-1.1472585834069808;-2.565104137476583;4.284;3.840616582368607
03:56.6;-1.1847541091647484;-1.1316201818369498;-2.4782618023654583;4.084;3.322584930830978
03:56.6;-1.0007404328848102;-1.0882464861093608;-2.324305427889844;3.483;2.531290078231092
03:56.7;-0.7633503910464449;-1.0228615306735864;-2.1106521077378138;2.6689999999999996;1.6480008581514591
03:56.7;-0.4875165054833735;-0.9419431786691274;-1.8487885861184266;1.964;0.8489874698158016
03:56.7;-0.19084534787134294;-0.8521705513714183;-1.552967027029006;1.452;0.25256335311925177
03:56.7;0.10840481655065533;-0.7598874800018736;-1.2386588549097635;1.165;0.10203509650965878
03:56.7;0.3931122785045704;-0.6706382801272915;-0.9210364758191568;1.07;0.24281850345157277
03:56.7;0.6486672629853845;-0.5888287090315786;-0.6137081161873242;1.246;0.23440821276894755
03:56.7;0.8638673865377172;-0.517550497567403;-0.3278603650125489;1.246;0.14658472849691112
03:56.7;1.031332858097652;-0.45858607039706484;-0.07189224621480209;1.2819999999999998;0.03400178887314393
03:56.7;1.1474924731185514;-0.41258124619816877;0.14846499533520707;1.2819999999999998;0.07028835797841651
03:56.7;1.2122411244138465;-0.3793429445779998;0.32965207244477407;1.315;0.15159219256546863
03:56.8;1.2283918727331928;-0.358199493831691;0.4695865099539388;1.3319999999999999;0.2066224536236216
03:56.8;1.201026697495499;-0.3483572644215856;0.5669468712704502;1.335;0.23720284619592277
03:56.8;1.1368118380843533;-0.3491906372643949;0.620573957686212;1.304;0.2463455516857944
03:56.8;1.0433114985187548;-0.3604085580990613;0.6290743560886382;1.194;0.23654352834658615
03:56.8;0.9283166864951936;-0.38205485059255606;0.5906697264627687;1.04;0.2094915873206945
03:56.8;0.7992075664921369;-0.4143270759601017;0.5033133055949128;0.583;0.16666381298350622
03:56.8;0.6623933755301519;-0.4572420210852071;0.36508354180854485;0.583;0.11057434395890112
03:56.8;0.5229058948868367;-0.5102228608246856;0.17484042541357672;0.583;0.04664717051853033
03:56.8;0.38421130888642474;-0.5717072002987;-0.06691803335556333;0.467;0.014698972409959755
03:56.8;0.2482437052730407;-0.6388669291975848;-0.35712027839390464;0.373;0.056637381158946835
03:56.9;0.11561843983606022;-0.7075117857623695;-0.6892756966442931;0.386;0.05638372306155326
03:56.9;-0.014006618771815572;-0.7722335416985392;-1.0529137512623117;0.636;0.011388716105721342
03:56.9;-0.14143532014464133;-0.8268217938066259;-1.4334975215282182;1.107;0.1676357877876572
03:56.9;-0.2673363192581869;-0.8649303769774077;-1.8129537476189095;1.6680000000000001;0.41920440624311456
03:56.9;-0.3916247316685636;-0.8809112532257339;-2.1708697296257595;2.097;0.7489210390706686
03:56.9;-0.5129368727849758;-0.8706909441411756;-2.4862844352772515;3.779;1.1103982237583576
03:56.9;-0.6283209983189451;-0.8325409312499576;-2.739843665196045;3.779;1.4332203012393496
03:56.9;-0.7332606011742269;-0.7675665667185532;-2.9159345204006955;3.779;1.6411647017569222
03:56.9;-0.822128654402664;-0.6797389311292321;-3.00439936917316;4.0969999999999995;1.6789570704086747
03:56.9;-0.8891002881048008;-0.5753840421441193;-3.001586865448815;4.17;1.5355341522155168
03:57.0;-0.9293879637811917;-0.46221931930775295;-2.9106491186807184;3.9419999999999997;1.2503597685947374
03:57.0;-0.9404757433948356;-0.34818933604905483;-2.741054374674564;3.537;0.8975956009290015
03:57.0;-0.9229640907956875;-0.24039760692563025;-2.507364625848357;2.8739999999999997;0.5563299478596476
03:57.0;-0.8807508667691231;-0.14434755717717507;-2.227465294894246;2.15;0.28318709870520126
03:57.0;-0.820491475474147;-0.06357023203880316;-1.9205417494775958;1.547;0.10017321730575361
03:57.0;-0.7504953608222135;0.0003928107003861661;-1.6051235226584608;0.768;0.0004731946011573341
03:57.0;-0.6793623703258129;0.04774001664369787;-1.2974775025375056;0.768;0.04208079054418095
03:57.0;-0.6147063792482221;0.08000091324970768;-1.010543111380175;0.768;0.04969555106477668
03:57.0;-0.5622383590915263;0.09956875592372717;-0.7534655989243545;0.629;0.04218003944984158
03:57.0;-0.5253280450849636;0.10925282154105316;-0.5316355124364723;0.588;0.03051246061430029
03:57.1;-0.5050230628968703;0.11190233705385594;-0.3470629296326038;0.594;0.019613657927229165
03:57.1;-0.5004225721024042;0.11013125858937414;-0.1989284531707104;0.6409999999999999;0.010963378269888097
03:57.1;-0.5092631046508499;0.10614961949664585;-0.08420715515363891;0.715;0.00455207753257745
03:57.1;-0.5285646273419847;0.10168572436721522;0.0016892200206259401;0.78;9.079131421693259e-05
03:57.1;-0.5552051965276772;0.0979713229337957;0.06427490721419651;0.7959999999999999;0.0034961813612087826
03:57.1;-0.5863349749931587;0.09575987957392042;0.10936748905535564;0.659;0.006140696501600975
03:57.1;-0.6195963240990475;0.09535488487306941;0.1424886256846353;0.659;0.008418446889670013
03:57.1;-0.6531750374788934;0.0966384656599865;0.16830029392263357;0.659;0.010623423119097551
03:57.1;-0.6857441213401445;0.09910216227943897;0.19009445652968962;0.659;0.012918576932436306
03:57.1;-0.7163626190822913;0.10188541082656088;0.2093601000481899;0.633;0.015280544633027754
03:57.2;-0.7443765729557511;0.10382703779352329;0.2254576316043594;0.667;0.01742481198479645
03:57.2;-0.7693570906015288;0.10353742331397074;0.23544129070577302;0.743;0.018754605935177512
03:57.2;-0.791096424723992;0.09950282953927565;0.23408517826517264;0.833;0.018426326772095384
03:57.2;-0.8096582023304665;0.09023099994372964;0.21417475629250876;0.902;0.01564680865346047
03:57.2;-0.8254513892883105;0.07443233940465607;0.16710975038426465;0.92;0.010267269515031738
03:57.2;-0.8392854184820441;0.0512100487104954;0.08382534016386939;0.943;0.0036028003085854994
03:57.2;-0.8523705872710968;0.020223630793100345;-0.044018247626159;0.943;0.0007587877875499082
03:57.2;-0.8662437801033607;-0.018199682059083743;-0.222691341957934;0.943;0.003510809482952317
03:57.2;-0.8826131004058494;-0.06301857586295737;-0.45505614794056964;1.01;0.02531068739039305
03:57.2;-0.9031183390458773;-0.11250930441109001;-0.7394075594989054;1.089;0.07513062251902537
03:57.3;-0.9289961341772276;-0.1643920975915457;-1.0686548254114228;1.067;0.16320456221621873
03:57.3;-0.9606380194595896;-0.21606234004881553;-1.429983346729703;0.9620000000000001;0.2968040522322928
03:57.3;-0.9970721975723358;-0.26491352409531266;-1.8051176565683473;1.083;0.4768000044536216
03:57.3;-1.035495657511644;-0.3087005347006338;-2.171294316803866;1.604;0.6940717358468742
03:57.3;-1.0710801045070344;-0.34585390223777507;-2.503014988516064;2.362;0.9272099483881922
03:57.3;-1.0972755043945455;-0.3756523646639038;-2.774526949541873;4.346;1.1436437440844316
03:57.3;-1.1066677100245035;-0.3982114175661716;-2.9627429131555414;4.346;1.3056444121854023
03:57.3;-1.0921848727696772;-0.414318068069801;-3.0500711159289198;4.346;1.3801935565120294
03:57.3;-1.0483025940695865;-0.4251827469577109;-3.026599040483913;4.397;1.3490162587898011
03:57.3;-0.9719657008144199;-0.4321778165383821;-2.891300500773803;4.138999999999999;1.214525512383103
03:57.4;-0.8630885611168496;-0.43661781266939065;-2.6521883845334875;3.635;0.999450245668038
03:57.4;-0.7245927679084979;-0.4396179438710764;-2.3254619331951716;2.8960000000000004;0.7407619059841668
03:57.4;-0.5620133175967333;-0.4420361215024856;-1.9337707027308892;2.021;0.4804070175714812
03:57.4;-0.3827768166149714;-0.4444760884924016;-1.503813665813099;1.212;0.25585155189736425
03:57.4;-0.19529888083301059;-0.44732456079826965;-1.0635864178636485;0.581;0.09291702184612909
03:57.4;-0.008052396224121417;-0.4508060930510837;-0.6396419613553836;1.006;0.002321944635071694
03:57.4;0.17125120885870268;-0.4550476391074826;-0.2547419466253315;1.006;0.01985139241920114
03:57.4;0.33624092661726307;-0.46014339655989206;0.07376255853986037;1.006;0.011412472395419891
03:57.4;0.4821522388193194;-0.4662068276337156;0.334623525006226;1.022;0.07521756795564169
03:57.4;0.6058023898696557;-0.4734002521254195;0.5224958540538084;0.948;0.14984502064005661
03:57.5;0.7053724764902513;-0.4819405115689884;0.6370679867516371;0.912;0.21656971540115272
03:57.5;0.7801084677246947;-0.4920845236492045;0.6818126754649535;0.93;0.26173377513519563
03:57.5;0.8300273284877954;-0.5040998513378772;0.6626301513954634;0.98;0.27725549005557054
03:57.5;0.8556760914095884;-0.518223800093503;0.5866041766340371;1.021;0.26011889650474823
03:57.5;0.8579534597130966;-0.5346109416016931;0.46102226050535605;1.035;0.21145768275795107
03:57.5;0.8379787060890755;-0.5532668183194017;0.29274207530149404;0.9109999999999999;0.13572278252551412
03:57.5;0.7969932665344446;-0.5739692741684509;0.08793418443525143;0.9109999999999999;0.04022546160363053
03:57.5;0.7362992803540375;-0.5961881792382047;-0.14780815455752325;0.9109999999999999;0.06488377828916507
03:57.5;0.6572484389593717;-0.6190233185317496;-0.40905441187796854;0.847;0.16642465048918575
03:57.5;0.5612804693986511;-0.6411837575057702;-0.6899521096101541;0.8220000000000001;0.24830267008345794
03:57.6;0.44999393384491027;-0.6610294837512556;-0.9836627130695013;0.9209999999999999;0.2925995805362013
03:57.6;0.32522927588736383;-0.6766860592819177;-1.2820122469082957;1.203;0.28214284135170903
03:57.6;0.18914740814676592;-0.6862229366961047;-1.5754941353185454;1.633;0.20449486899710004
03:57.6;0.04429297934923386;-0.6878638869123465;-1.8536580674798226;2.061;0.05647640305616655
03:57.6;-0.10635359765914569;-0.6801943803605023;-2.1058029210766662;2.365;0.15233614067045034
03:57.6;-0.2593141317578157;-0.6623541701016917;-2.321813505108384;2.787;0.39878957160514894
03:57.6;-0.4105261752643187;-0.6342220139455452;-2.4929681015950136;2.787;0.6490809857503249
03:57.6;-0.5552661388446096;-0.5965761505313562;-2.6125894328775554;2.787;0.86544254974351
03:57.6;-0.6881809730448778;-0.551170325455564;-2.676491582511765;2.9610000000000003;1.0152064547201727
03:57.6;-0.8035514903422804;-0.5006519420925178;-2.6832447930266956;3.05;1.0794683450688503
03:57.7;-0.8958559758147878;-0.4482784015016442;-2.6342890663194676;3.1660000000000004;1.0579117455770783
03:57.7;-0.9605799675075942;-0.39744716043964345;-2.533883297817194;3.2289999999999996;0.9673854091546921
03:57.7;-0.995081813362352;-0.35112833004198246;-2.3888397866510003;3.1289999999999996;0.8346640025744736
03:57.7;-0.9992460025479534;-0.31134259271625253;-2.2080035362938233;2.786;0.6869272135264822
03:57.7;-0.9756841508424972;-0.2788294049639584;-2.001485498162554;2.3040000000000003;0.5445029913545466
03:57.7;-0.9293799076795497;-0.2529927784701817;-1.7797281465182477;1.297;0.4184610811429364
03:57.7;-0.8668772168836956;-0.23211378722569453;-1.5525555902939494;1.297;0.31239615943798055
03:57.7;-0.7952802599612009;-0.2137304586889689;-1.3284038887927463;1.297;0.22579626763090174
03:57.7;-0.7213525457916415;-0.1950598395883621;-1.1138776084920827;1.172;0.15673027849069648
03:57.7;-0.6508756468976227;-0.17337419007982613;-0.9136423542847042;1.068;0.10310000630055494
03:57.8;-0.5882876112027544;-0.1462948776537489;-0.730550206352526;0.94;0.06287368146214149
03:57.8;-0.5365554078031067;-0.11199922976236731;-0.5658760621064809;0.784;0.03400563859966648
03:57.8;-0.49722162340665316;-0.06934827664912771;-0.4195814314484297;0.6409999999999999;0.01446778147639519
03:57.8;-0.47056560030770594;-0.017945376649356255;-0.29056854736672694;0.551;0.0024536993964933505
03:57.8;-0.4558272384866426;0.04186721777580389;-0.1769238297906628;0.486;0.003376452983449807
03:57.8;-0.45145615443841886;0.10906620858645842;-0.0761686418848722;0.519;0.0037504381363648726
03:57.8;-0.4553639145956829;0.1820405566919191;0.014459323728129693;0.519;0.0011986013100263703
03:57.8;-0.46516856684043434;0.2586872964475335;0.09767287288552157;0.519;0.011753289244787997
03:57.8;-0.4784277751522902;0.3364835846009828;0.17574731977268948;0.593;0.02829234708057043
03:57.8;-0.4928593506930732;0.41253876105587156;0.2501088844433083;0.6659999999999999;0.05085303525289366
03:57.9;-0.5065444736037088;0.4836522308783311;0.3209576024405041;0.737;0.07863184103194434
03:57.9;-0.5181009840508939;0.5463993458850135;0.38698771353408185;0.7959999999999999;0.10955236683476148
03:57.9;-0.5268086765679123;0.5972546934290107;0.44526020383242526;0.857;0.14009620506741577
03:57.9;-0.5326703536494047;0.6327542346004231;0.4912689422258016;0.93;0.1655819129833587
03:57.9;-0.5363982634813326;0.649691517118931;0.5192219381975688;1.003;0.18094541941802686
03:57.9;-0.5393207796225733;0.6453360729956616;0.5225313357401219;1.01;0.1818634541582685
03:57.9;-0.5432119465739584;0.6176583358725865;0.49447211585994694;1.01;0.16590498117570524
03:57.9;-0.550060266466421;0.5655471327281564;0.4289390007318005;1.01;0.13343649184266734
03:57.9;-0.5618042175570521;0.48900595965463856;0.3212178931220136;0.9520000000000001;0.08824678180576623
03:57.9;-0.5800637615321788;0.3893069139377796;0.16869201021664526;0.828;0.0380945076329022
03:58.0;-0.6058984985794564;0.2690739285299373;-0.0285920984705204;0.675;0.004661412395951686
03:58.0;-0.6396274917726431;0.13226881032178875;-0.26756810851999924;0.644;0.022637002444996647
03:58.0;-0.6807379181905825;-0.01594061303444487;-0.542052182790248;0.7929999999999999;0.005882014069880762
03:58.0;-0.7278809151242183;-0.16945010214376238;-0.8429190431688668;1.004;0.1039652094612334
03:58.0;-0.7789188493304758;-0.3216453570944605;-1.1585421393871647;1.178;0.2902560864417994
03:58.0;-0.830975938123024;-0.46598144081305726;-1.4754790541381193;2.33;0.5713340623072627
03:58.0;-0.8804712920026073;-0.5966462735461582;-1.7793446289476569;2.33;0.9347429632817118
03:58.0;-0.9231681109068196;-0.709160048257388;-2.0557320560623937;2.33;1.3458342090033348
03:58.0;-0.954314135487588;-0.8007550511483228;-2.291029922064154;2.33;1.7507406068802263
03:58.0;-0.9689460183632169;-0.8704720800513731;-2.4731123236409847;2.824;2.085922986144615
03:58.1;-0.9623851331832739;-0.9190103879586846;-2.592002799770091;3.2030000000000003;2.292475970749497
03:58.1;-0.9308756478638651;-0.948401357374196;-2.6405767726056557;3.3989999999999996;2.331216641946353
03:58.1;-0.8722317754720614;-0.9615674965649995;-2.615236365380269;3.3939999999999997;2.193424172203805
03:58.1;-0.7863172943683032;-0.9618289822621021;-2.516414858786461;3.279;1.9031715104974707
03:58.1;-0.6752072918975223;-0.952435423704751;-2.348779602620404;3.195;1.5104798294053248
03:58.1;-0.5429712151439691;-0.9362012333339729;-2.1210517111188327;2.05;1.0781948977701077
03:58.1;-0.3951435547217241;-0.9152883850850934;-1.84544101533334;2.05;0.6674412168645597
03:58.1;-0.2380577523351968;-0.8911313712584263;-1.5368015861214233;2.05;0.3260182123077024
03:58.1;-0.07822272123136027;-0.864472972889955;-1.2116466585589998;1.5;0.08193327773200156
03:58.1;0.07818061121133864;-0.8354806737230159;-0.8870812266411959;1.0659999999999998;0.05794271728118955
03:58.2;0.2256932857020556;-0.8039215379731199;-0.5796625362991978;0.9059999999999999;0.10517379283365501
03:58.2;0.3598772702425257;-0.7693760399517393;-0.30427221468290433;0.988;0.08424717957028956
03:58.2;0.4775050207986424;-0.7314672903755906;-0.07316590337659305;1.115;0.025555335786274194
03:58.2;0.5766176224223805;-0.6900729788980772;0.10464459635005838;1.17;0.04163894719998806
03:58.2;0.6564416846149773;-0.64547991247789;0.2235996781468682;1.133;0.09474363798955714
03:58.2;0.7171742441186054;-0.5984464483854866;0.281407025065649;0.872;0.12077718781613424
03:58.2;0.7596683450449232;-0.5501640016935554;0.27856827783900545;0.872;0.11642543239120146
03:58.2;0.7850751393925551;-0.5021429483008015;0.217783103393844;0.872;0.08585444307065021
03:58.2;0.7945082192224036;-0.4560595585274007;0.10339079406342097;0.809;0.037462937493391794
03:58.2;0.7887855566618774;-0.41358214060955856;-0.05905927521162406;0.7829999999999999;0.01926676673251537
03:58.3;0.7682836142403989;-0.37618034111327625;-0.2630856327995245;0.802;0.07603521852490758
03:58.3;0.7329173633040447;-0.3449325433201905;-0.5014105966016134;0.862;0.12676013384982698
03:58.3;0.682238121264155;-0.3203632627166769;-0.7659868066121425;0.9309999999999999;0.1674171637460307
03:58.3;0.6156175713193688;-0.30234583939733806;-1.0479844743495952;1.0290000000000001;0.19506073331285317
