Time;AccX;AccY;AccZ;Acc-old;Acc-trns
01:47.2;0.3083089936581318;-0.18148203984926956;-0.6514431045035338;0.755;0.03644989966719858
01:47.2;0.2908180201473284;-0.1850524901324398;-0.7144267885511485;0.809;0.03844801985403665
01:47.2;0.2717138246048575;-0.18921749076708033;-0.7761222600982993;0.9390000000000001;0.03990278004382716
01:47.2;0.24948810623847079;-0.19478004838844956;-0.8346547563762712;1.0590000000000002;0.04056030279423471
01:47.2;0.2233987384990495;-0.20209120605042946;-0.8885349739352929;1.129;0.040114617823877395
01:47.2;0.19363005215307025;-0.21095939731551996;-0.9367648043432919;1.1540000000000001;0.03826504283001796
01:47.2;0.1612867443693316;-0.22069482650274402;-0.9788358408815555;1.022;0.03484180864594494
01:47.2;0.1282157316033414;-0.23027939146213813;-1.0146101173721744;0.778;0.029956810802844513
01:47.3;0.0966819099721398;-0.23863071023570645;-1.044130231006633;1.161;0.024089413443801312
01:47.3;0.06896139145802332;-0.24490203730908505;-1.0674444845692728;1.161;0.01802784068085327
01:47.3;0.046942739479479786;-0.24873097701495092;-1.084504202565071;1.161;0.012662794111020233
01:47.3;0.0318185344782204;-0.25034558831676823;-1.0951290121919783;1.083;0.008723392221345954
01:47.3;0.023915794207391757;-0.2504820728017803;-1.099016083777704;1.0390000000000001;0.00658363134815112
01:47.3;0.022686955202533256;-0.2501457608532839;-1.0957924983443246;1.057;0.006218672473585245
01:47.3;0.02686142553080949;-0.25030809041099916;-1.085123562092501;1.148;0.00729597164746782
01:47.3;0.03471729195715666;-0.251642384679467;-1.0668731397213325;1.19;0.009320568766140772
01:47.3;0.04438788193806076;-0.2543644778697025;-1.0412837005797837;1.13;0.011756822308099723
01:47.3;0.05410893893388625;-0.2581937668906326;-1.009130767868772;1.13;0.014098152987067389
01:47.4;0.062349235082028304;-0.26241451856357084;-0.9718169535275062;1.158;0.015900231974268115
01:47.4;0.06782356040022629;-0.26600185749781324;-0.9313855558524098;1.056;0.01680330661578796
01:47.4;0.0694330134093482;-0.2677761770126763;-0.8904381497773725;1.056;0.016555477434164693
01:47.4;0.06619949532364981;-0.26655816996772264;-0.8519454667481628;0.9109999999999999;0.015033443615320346
01:47.4;0.0572544563269249;-0.2613095586926655;-0.818957862895728;0.767;0.012252540551407527
01:47.4;0.041910892229937394;-0.2512564557562266;-0.794249450152321;0.7;0.00836375030343813
01:47.4;0.019808002468840596;-0.23599677146106285;-0.7799587612950509;0.69;0.003646014437290595
01:47.4;-0.008914756586152253;-0.21558799349275426;-0.7772995865724411;0.698;0.0014939033345286034
01:47.4;-0.04347456191099856;-0.1906027310186515;-0.7863982104135182;0.698;0.006516386719755438
01:47.4;-0.08239210141753173;-0.16213446574642665;-0.8062832646977832;0.726;0.010770815091722152
01:47.5;-0.12356841059893424;-0.13173948206581168;-0.8350287945638445;0.9309999999999999;0.01359329881607126
01:47.5;-0.16449272185354685;-0.10131558773418181;-0.8700256164603887;0.9309999999999999;0.014499565725200439
01:47.5;-0.20253406949492894;-0.07293819910807997;-0.9083293542155384;0.9309999999999999;0.013418268395950611
01:47.5;-0.23524856808939923;-0.04868113050610019;-0.9470282377721827;1.032;0.010845524817234392
01:47.5;-0.26065583472983417;-0.030436600736776606;-0.9835962800097027;1.18;0.007803339026752918
01:47.5;-0.27746338032229567;-0.01973630743083592;-1.0162118763125747;1.3119999999999998;0.005564880472458052
01:47.5;-0.28521857962945313;-0.01757718783731772;-1.0440038812864743;1.38;0.005233946991199675
01:47.5;-0.2843620281231028;-0.024264318058077054;-1.0671622045842968;1.34;0.007363259877931612
01:47.5;-0.2761608729856997;-0.03929387486445984;-1.0868554147251768;1.225;0.011793936306801445
01:47.5;-0.2625105891887674;-0.0613147112586575;-1.1049428609806076;1.124;0.017784896185187825
01:47.6;-0.24560800470127064;-0.08821740979384154;-1.1235313682285528;0.9890000000000001;0.0243434440486371
01:47.6;-0.22753411225051098;-0.11737280571051192;-1.144471969531005;0.9890000000000001;0.030564631387228845
01:47.6;-0.20984054631619375;-0.14597421435015237;-1.1688997405914336;0.9890000000000001;0.03580492901235641
01:47.6;-0.19325889909792215;-0.17139148118475517;-1.1968969464507724;0.9890000000000001;0.03964473253993703
01:47.6;-0.17761342157584672;-0.1914693121053736;-1.2273296637819784;1.035;0.041738437657859215
01:47.6;-0.1619521174488573;-0.20475595760319576;-1.2578860158432439;1.115;0.04171233161481586
01:47.6;-0.1448590201118991;-0.21067060175016805;-1.285327178703306;1.275;0.03922501965081161
01:47.6;-0.12486549637686306;-0.20960488276398662;-1.3059379098154933;1.575;0.03417955250427142
01:47.6;-0.1008429471933745;-0.20293152971701184;-1.316116982538999;1.89;0.02693329896788026
01:47.6;-0.07226795202909629;-0.19288008812386334;-1.3129763417846403;1.855;0.01830164150607882
01:47.7;-0.03931474618386171;-0.18225222184368697;-1.2947687229607394;1.1420000000000001;0.009277276650776633
01:47.7;-0.0028050652525852117;-0.17399966317286275;-1.2610240257223884;1.1420000000000001;0.000615481122394478
01:47.7;0.03592089855432304;-0.17075414806867278;-1.2124385301396547;1.1420000000000001;0.007436664412843278
01:47.7;0.07516620752008386;-0.1744233275665589;-1.1506755895237586;1.1420000000000001;0.015086208520260446
01:47.7;0.11306264131292781;-0.18592898733267021;-1.0782001184386523;1.159;0.02266551576627174
01:47.7;0.14778744544999736;-0.20510561462666935;-0.9981645310937305;1.112;0.030256398035705113
01:47.7;0.17779915657793674;-0.2307377620232334;-0.9143033983250851;1.074;0.037509278153328586
01:47.7;0.20204861390880394;-0.26070147578939684;-0.8307883372872371;1.037;0.043761253787991804
01:47.7;0.22011115056617706;-0.2921834361162398;-0.7520089917598493;0.885;0.048363828175086596
01:47.7;0.23220386106374719;-0.32196586110012587;-0.6822664399276595;0.743;0.05100740987153097
01:47.8;0.23908486323732314;-0.34676790878409974;-0.625396285068113;0.639;0.051849703568728485
01:47.8;0.24186660431524873;-0.3636198107202605;-0.5843794605987304;0.639;0.051394706113094615
01:47.8;0.24179747014607775;-0.3702231528434505;-0.5610280940647616;0.639;0.05022268615328997
01:47.8;0.2400632741546934;-0.3652414531884425;-0.5558250086404339;0.684;0.04873532543710448
01:47.8;0.23763899221981097;-0.3484785030265893;-0.5679522864050675;0.7759999999999999;0.04703331033102649
01:47.8;0.2351984111479964;-0.3209187807483411;-0.5954959964261753;0.8390000000000001;0.04494779207260903
01:47.8;0.23307295656415045;-0.28461690271993006;-0.6357748221637053;0.848;0.04217507840100749
01:47.8;0.23124225145707078;-0.24244714735004752;-0.6857129810758938;0.8190000000000001;0.038443829173911905
01:47.8;0.2293425859700252;-0.19775478823897188;-0.7421806289966321;0.772;0.03366055931010125
01:47.8;0.22669563630827266;-0.15396290152042777;-0.8022656820685857;0.785;0.0280012528045875
01:47.9;0.2223770508086092;-0.11418139065126076;-0.8634866396801868;1.113;0.021925066369835686
01:47.9;0.21534412598043703;-0.0808624826241568;-0.9239604220086697;1.113;0.016089163654385112
01:47.9;0.20461579635773852;-0.05555081969267788;-0.9825028425666955;1.113;0.01116769245382007
01:47.9;0.18946938287411652;-0.038765760625988355;-1.0386179711098826;1.113;0.007628570833960002
01:47.9;0.1696143207069098;-0.030026615487046465;-1.09236022725491;1.153;0.005563329453180111
01:47.9;0.1453138004807347;-0.02800853665665312;-1.14409593514357;1.117;0.00465650124077538
01:47.9;0.1174255307574029;-0.030802395901100926;-1.1942138470497556;1.058;0.004319456780765923
01:47.9;0.08732561941813868;-0.03623276002301507;-1.2428457230442063;1.082;0.003932423788086366
01:47.9;0.056694578449948775;-0.04217127779234347;-1.2896647437450985;1.2309999999999999;0.0030834372756818732
01:47.9;0.02719933969966516;-0.04679294347686402;-1.3338101642597093;1.349;0.001697589767340777
01:48.0;0.0001683432972795167;-0.048752338191006946;-1.3739380332768572;1.425;1.127608717332122e-05
01:48.0;-0.023632263725749086;-0.04727632207111899;-1.4083544497467977;1.425;0.0015734790954677299
01:48.0;-0.04406795466829984;-0.042177997149039706;-1.435179078988185;1.425;0.002667564579000777
01:48.0;-0.06156218513787941;-0.0338052718417376;-1.452508079130428;1.425;0.003022852915149265
01:48.0;-0.07691824373136438;-0.022938960109110135;-1.4585739491675047;1.44;0.0025735436468779997
01:48.0;-0.09107817382592998;-0.010651342344210162;-1.4519144274403994;1.4609999999999999;0.0014085091690502999
01:48.0;-0.10487043989666936;0.0018593740925716459;-1.4315574850957486;1.489;0.00027914423128085026
01:48.0;-0.11880900985130965;0.013433783206566352;-1.3972124572288656;1.5319999999999998;0.002230027203729254
01:48.0;-0.13299685751184262;0.023090868744658117;-1.3494377506005926;1.527;0.0041441408481445174
01:48.1;-0.14715682625475288;0.030128919118136747;-1.2897392088272424;1.527;0.0057182859259314895
01:48.1;-0.16077555739351174;0.03418399410787624;-1.2205507167391734;1.167;0.006708086574140807
01:48.1;-0.17331014764705707;0.035246339161903784;-1.14507753933445;1.167;0.006994761392337432
01:48.1;-0.18438443028171306;0.03363702309508266;-1.067036071415357;1.167;0.006617910663612048
01:48.1;-0.19390857556325442;0.02994852123888507;-0.990350391243534;1.021;0.005751237161063105
01:48.1;-0.20208934211946114;0.0249538013793802;-0.9188414447566404;0.899;0.004633623044694121
01:48.1;-0.20933594505318617;0.01949048515905933;-0.8559170056654792;0.773;0.0034921919937588417
01:48.1;-0.21609351354986525;0.014330877258717836;-0.8042784630221999;0.679;0.0024906972807126203
01:48.1;-0.22265213186768115;0.010052732857712668;-0.7656805156963717;0.629;0.0017137939101245679
01:48.1;-0.22898325649726836;0.006927652685254314;-0.7407844649732279;0.597;0.0011751185988047117
01:48.2;-0.2346456976707522;0.0048438577996389315;-0.7291371294530921;0.5770000000000001;0.000828730256380502
01:48.2;-0.23878480139581748;0.003277019957524918;-0.7292923087133502;0.835;0.0005706730983579335
01:48.2;-0.24022584242145537;0.0013166347182519205;-0.739064508673054;0.835;0.00023375848016500322
01:48.2;-0.23764191876600968;-0.002251039984207396;-0.7558660730023544;0.835;0.0004043441014621399
01:48.2;-0.22976825646627913;-0.008806131697795103;-0.7770588458554035;0.835;0.0015722771889348907
01:48.2;-0.2156407464039247;-0.019708809212847313;-0.8002723506657129;0.9009999999999999;0.003401175359923458
01:48.2;-0.1948416289314347;-0.03607254455446088;-0.8236742060346832;0.987;0.00578913925156293
01:48.2;-0.16772616446024338;-0.05851772595083719;-0.8461867925197731;1.078;0.008305284212700518
01:48.2;-0.13558639615272788;-0.08694259755368519;-0.8676280427424901;1.125;0.010227801936838232
01:48.2;-0.10069521920214732;-0.12036204713317426;-0.8887386204087879;1.127;0.010771407847817304
01:48.3;-0.06617081838125154;-0.15687225144671557;-0.9110604329365648;1.114;0.00945714006739495
01:48.3;-0.03561544916041744;-0.19379549196360038;-0.9366545800495043;0.972;0.0064648962138796244
01:48.3;-0.012541827717822505;-0.22802102516364475;-0.9676833603812259;1.011;0.002767381274294358
01:48.3;0.00029339168893235566;-0.256477365637665;-1.0059187634447564;1.011;7.569370452730788e-05
01:48.3;0.0014576413205891893;-0.27660969805928154;-1.0522606082002017;1.011;0.00042426908392997274
01:48.3;-0.008844378270123594;-0.2867555559377838;-1.1063429460994287;0.899;0.002805878887386526
01:48.3;-0.028768630566858862;-0.28637878161488184;-1.166296397366248;0.9009999999999999;0.009608795718464038
01:48.3;-0.05510899007422916;-0.27616474289285686;-1.2287317675177052;1.135;0.018700265459009154
01:48.3;-0.0837682283620221;-0.25798220115458553;-1.288993334724579;1.329;0.027856063648867457
01:48.3;-0.11032142090329156;-0.23470127505656496;-1.3416740155332747;1.476;0.03473939930177611
01:48.4;-0.13059097818426801;-0.2098505107950378;-1.381310834066556;1.778;0.037854248060127035
01:48.4;-0.14117646538709894;-0.18712571909690937;-1.4031267087163803;1.694;0.03706744724887322
01:48.4;-0.13988236772599769;-0.16982685067561334;-1.4036732940874426;1.694;0.03334535673981079
01:48.4;-0.125980074499034;-0.1603506721845079;-1.3812660339471903;1.694;0.027902940824964393
01:48.4;-0.10025405852301317;-0.15985917041359157;-1.3361661170099355;1.5190000000000001;0.021414107195796197
01:48.4;-0.06481826042744564;-0.16818174597584998;-1.2705138552877109;1.3430000000000002;0.0138501868904878
01:48.4;-0.02273658223990414;-0.1839388219720189;-1.1880474047278242;1.179;0.004968580754834608
01:48.4;0.022473665561770658;-0.20482866078183629;-1.0936673524794072;1.07;0.005034425136972837
01:48.4;0.067356742718451;-0.22800386981312626;-0.9929254626270979;0.9740000000000001;0.015248950096820403
01:48.4;0.10896599910397056;-0.2504711749114142;-0.8915112117579873;0.9179999999999999;0.02433187448412991
01:48.5;0.14518544664864647;-0.26946241494695905;-0.7947894091019188;0.867;0.031093768008380547
01:48.5;0.1748928781604543;-0.2827364863934727;-0.707421864192117;0.659;0.03498101928428449
01:48.5;0.19795934536895948;-0.2887861692406727;-0.633095983721353;0.659;0.036192781191975124
01:48.5;0.2151106517455206;-0.2869454669180117;-0.5743803038761406;0.659;0.03545363942278205
01:48.5;0.2276959842039558;-0.27741099674867403;-0.5327147209173075;0.659;0.033649122415864006
01:48.5;0.23740585403258;-0.2611922775068931;-0.5085159130596344;0.68;0.03153234749380241
01:48.5;0.24596968938243108;-0.2399972923375552;-0.5013535083690116;0.645;0.029595930110950547
01:48.5;0.2548611628779848;-0.21605736641288534;-0.510145006580206;0.611;0.028090946876621045
01:48.5;0.26504588816939667;-0.19190308675396373;-0.5333275255981242;0.596;0.027126704105058474
01:48.5;0.276808816912141;-0.17011199068813357;-0.5689868087605809;0.586;0.02679273470987467
01:48.6;0.2896904830398478;-0.1530506808676705;-0.6149493525317671;0.588;0.02726520971383842
01:48.6;0.3025437089067496;-0.14263040130229848;-0.6688604012277127;0.792;0.028862617623464926
01:48.6;0.31369954057276894;-0.14009487648954488;-0.7282689751520924;0.792;0.03200574526777559
01:48.6;0.3212113028978169;-0.145865328777109;-0.7907234145318591;0.792;0.03704823248979235
01:48.6;0.32314168808630833;-0.15947121476218445;-0.8538701429026153;0.925;0.04400146332901874
01:48.6;0.3178694188050646;-0.1795908356535576;-0.9155545236537532;1.085;0.05226574339326716
01:48.6;0.3043971017449072;-0.20421579584121935;-0.9739203102566433;1.248;0.060541512549276075
01:48.6;0.28261970727853647;-0.2309274116323961;-1.0274841079062191;1.3130000000000002;0.06705837781704731
01:48.6;0.25347362135737606;-0.2572249804826364;-1.0751571666826665;1.183;0.07009997558249766
01:48.6;0.21887607459065636;-0.2808147104050659;-1.1162159344077964;1.138;0.0686066737055722
01:48.7;0.18142412511318629;-0.2998003787185941;-1.1502542280213208;1.145;0.0625635023520189
01:48.7;0.14392257731616678;-0.31278113849133043;-1.1771523655219946;1.2990000000000002;0.052991005877664026
01:48.7;0.10887697405700898;-0.31888791748903805;-1.1970755543718967;1.2990000000000002;0.04156192638280609
01:48.7;0.07808722961767141;-0.31777407409847425;-1.2104859818558142;1.2990000000000002;0.03003711668066577
01:48.7;0.05243016952533004;-0.3095635297116732;-1.2181394114085506;1.3330000000000002;0.019770973152573593
01:48.7;0.03185629646560516;-0.2947646270899483;-1.2210431141398732;1.285;0.011465728360580161
01:48.7;0.015570575174364628;-0.27416772107801085;-1.2203651749838813;1.238;0.005209676829366827
01:48.7;0.0023308979550846587;-0.24875076051213177;-1.2172972743241042;1.2209999999999999;0.0007058043450776038
01:48.7;-0.009218510341323233;-0.2196136783858255;-1.212886830249952;1.187;0.002455502687503853
01:48.7;-0.020260551303820522;-0.18794574133122077;-1.2078664558994159;1.138;0.0045994157556789525
01:48.8;-0.031628121118846185;-0.15500899415794558;-1.2025134867478577;1.112;0.005895494618903211
01:48.8;-0.04376104328163351;-0.12211167480929735;-1.1965709170993493;1.11;0.006394157035959366
01:48.8;-0.05677563040000791;-0.09055432174325646;-1.1892531105275144;1.157;0.006114281688940098
01:48.8;-0.07059145661970005;-0.061550865868409715;-1.1793435008766222;1.157;0.00512420656197267
01:48.8;-0.08505250483090124;-0.0361444881384771;-1.165372714591808;1.157;0.0035825646200546984
01:48.8;-0.09999810051315541;-0.015140431926489221;-1.1458538832164837;1.193;0.0017348393179836797
01:48.8;-0.11527001767312217;0.000934820437679002;-1.1195479158337402;1.234;0.00012063886544836039
01:48.8;-0.13067021528426342;0.011848857004549544;-1.0857252435867188;1.238;0.0016810204641356703
01:48.8;-0.14589959953611095;0.01765176072167414;-1.04437982594144;1.216;0.002689679950461067
01:48.8;-0.16050997125936237;0.018631642759483622;-0.9963472066322053;1.1740000000000002;0.002979640529873004
01:48.9;-0.17389125436839306;0.015233849041127958;-0.9432882659497418;1.088;0.002498801856906952
01:48.9;-0.1853004305862344;0.007949795311150703;-0.8875237166034133;0.7509999999999999;0.0013074116255681388
01:48.9;-0.1939246207971073;-0.0028046980990106005;-0.8317454482454569;0.7509999999999999;0.0004523863620272397
01:48.9;-0.1989637658065294;-0.016789041347817422;-0.7786783033673647;0.7509999999999999;0.0026011054850317156
01:48.9;-0.19972026418195057;-0.033983361326747924;-0.7307780395504315;0.6609999999999999;0.004959911791944279
01:48.9;-0.19568919928847972;-0.05456413614444203;-0.6900152107618344;0.607;0.0073677147718764786
01:48.9;-0.18664543156741203;-0.07881384158934582;-0.6577576597016436;0.598;0.009675775323026253
01:48.9;-0.1727212292800897;-0.10698092987355094;-0.6347558765652828;0.635;0.011728941467502483
01:48.9;-0.15446499963340163;-0.13911402617761015;-0.6212303190271409;0.696;0.013349151161943287
01:48.9;-0.1328690003504458;-0.17490147238698692;-0.6170382703148937;0.736;0.014339342365285668
01:49.0;-0.10934805903070112;-0.2135555434504999;-0.6218744307861033;0.762;0.014521939676971095
01:49.0;-0.08564693062510081;-0.2537838832655865;-0.6354514892118801;0.838;0.013812053242840544
01:49.0;-0.06366766824510073;-0.29387179610385256;-0.6576138864975097;0.838;0.012304042635166578
01:49.0;-0.04524189191682589;-0.33185655753083587;-0.6883512745858437;0.838;0.010334781106175818
01:49.0;-0.0318939518892651;-0.36574803384369897;-0.7276954836290859;0.838;0.008488677112759534
01:49.0;-0.024628838808388842;-0.3937653485748061;-0.7755066593692016;0.9209999999999999;0.007520850630343391
01:49.0;-0.023763411418822253;-0.41457859831051325;-0.8311776516343594;0.9159999999999999;0.008188597482073571
01:49.0;-0.028831108672265533;-0.4275263731711893;-0.8933119025575926;0.816;0.011011015506794744
01:49.0;-0.038604175949931534;-0.43275139675449226;-0.9594624157577922;0.7809999999999999;0.01602878973207593
01:49.0;-0.051254614124919114;-0.4312055519186027;-1.026044312324493;0.877;0.022676886659418458
01:49.1;-0.064623973127003;-0.42451557152620234;-1.0885222286772203;1.004;0.02986239134066907
01:49.1;-0.0765348027954543;-0.41473423367022233;-1.141909240754942;1.609;0.036246029538247855
01:49.1;-0.08507584431758992;-0.4040208237454427;-1.181501848341888;1.609;0.04061106913942067
01:49.1;-0.08881770042885238;-0.3943102285982018;-1.203660068284289;1.609;0.04215425522663504
01:49.1;-0.08694244249288406;-0.3870332030817443;-1.2064089811936696;1.545;0.04059519413261916
01:49.1;-0.07928416406563238;-0.38293232432869484;-1.1897218870220443;1.3769999999999998;0.03612051474094196
01:49.1;-0.06627892922122648;-0.3819970131722847;-1.1554674318505251;1.2930000000000001;0.029254532318168935
01:49.1;-0.048826884872448094;-0.383526528342647;-1.1070810573636212;1.199;0.02073164896199383
01:49.1;-0.02808826142845849;-0.38630815898943405;-1.0490480207101425;1.045;0.011382931124661187
01:49.1;-0.005259254143905049;-0.38886958114821607;-0.9862877682762975;0.9520000000000001;0.002017120194013473
01:49.2;0.018617308770567293;-0.38974923723897736;-0.923528448639183;0.853;0.006701198053629785
01:49.2;0.04276524773428484;-0.3877332213551045;-0.8647604026380783;0.746;0.014339030899747161
01:49.2;0.06669815575965823;-0.3820226398578618;-0.8128501155883759;0.731;0.020711588015929844
01:49.2;0.09016635341392024;-0.3723153300180873;-0.7693742142040689;0.731;0.025828135206745206
01:49.2;0.11305985501754073;-0.3588050246542332;-0.7346951741257817;0.794;0.029803970687448316
01:49.2;0.1353022585108954;-0.3421119022619467;-0.7082530904040437;0.861;0.032783982410433815
01:49.2;0.15676196028363756;-0.3231617486764038;-0.689003994801797;0.93;0.03490457666105632
01:49.2;0.1771957622777779;-0.3030350364667008;-0.6759044753729078;0.995;0.03629372107524936
01:49.2;0.19622895245582636;-0.2828116106788552;-0.6683314057101043;0.9940000000000001;0.037089603472370745
01:49.2;0.21336550475715482;-0.26343409514014565;-0.6663397610787916;0.903;0.03745345782608903
01:49.3;0.22801644668398277;-0.24560527027020443;-0.6707010245930325;0.8009999999999999;0.03756062628730447
01:49.3;0.23953731192019775;-0.22972866870899777;-0.6827224111239402;0.657;0.03756925012550955
01:49.3;0.24727208772741172;-0.21589679093932118;-0.7039070138657676;0.657;0.03757825207332316
01:49.3;0.2506040084163179;-0.20392315507256636;-0.7355540243410617;0.657;0.0375897234893178
01:49.3;0.24901362832809243;-0.193405973556487;-0.7783996436669014;0.653;0.03748828978978505
01:49.3;0.24214676514774547;-0.18380965278452227;-0.8323706687694771;0.7390000000000001;0.03704791353409985
01:49.3;0.22989784074561054;-0.17455646521403045;-0.8964866799720782;0.91;0.03597614892148191
01:49.3;0.21250813356415788;-0.1651275777117386;-0.968910868351127;1.123;0.03400000607143608
01:49.3;0.19065408901414257;-0.15516750545839764;-1.0471119107336864;1.224;0.030977046100441562
01:49.3;0.1654675895042471;-0.1445646675234665;-1.128077017844754;1.11;0.026984467572526573
01:49.4;0.13842514556818125;-0.1334677487147959;-1.2085325726454648;1.092;0.022327992829185853
01:49.4;0.11109573656606353;-0.12222349258013192;-1.2851697999013012;1.501;0.01745068960949531
01:49.4;0.08481885910904166;-0.11126768469331219;-1.3548848968233496;1.501;0.012786859089217268
01:49.4;0.06042762471635591;-0.10101716098388308;-1.4150048812327736;1.501;0.008637511133945152
01:49.4;0.03810734502527032;-0.09178868321073859;-1.463440471624262;1.501;0.005118855770818017
01:49.4;0.01742227556137879;-0.08374535822925933;-1.4987345574020579;1.568;0.002186705737413355
01:49.4;-0.002506875704663966;-0.07686331609108503;-1.5200203561135108;1.5230000000000001;0.00029288782748070427
01:49.4;-0.022728716192641357;-0.07091457104453065;-1.52691959013048;1.44;0.0024610846576900353
01:49.4;-0.04417071957140504;-0.06546787890574221;-1.5194132815135288;1.395;0.004393783595523578
01:49.4;-0.06741618492603911;-0.05991391507245395;-1.4977292339921546;1.381;0.006049579362814843
01:49.5;-0.09260458329032228;-0.05351993346811496;-1.4622956968679144;1.4069999999999998;0.0072474169718181585
01:49.5;-0.11946596455466084;-0.04551133039898757;-1.4137897679637885;1.5130000000000001;0.0076868527046328634
01:49.5;-0.14745325531923892;-0.03516913159603142;-1.3532668229225973;1.5130000000000001;0.007017775069708847
01:49.5;-0.17590334587054268;-0.021928575484595553;-1.2823146973427983;1.5130000000000001;0.004946285046070931
01:49.5;-0.20415870294323935;-0.005464223793898332;-1.2031550022631754;1.364;0.0013422022330469984
01:49.5;-0.23161469645478125;0.014249813840186754;-1.1186264379065867;1.19;0.0036919888685777707
01:49.5;-0.25769336341924187;0.036908855594845684;-1.0320273654510752;1.047;0.009815784763991985
01:49.5;-0.2817641156103285;0.06187048122469205;-0.9468446180499753;0.9179999999999999;0.016506229954043456
01:49.5;-0.3030456866756904;0.08816127827099247;-0.8664248332386832;0.799;0.02314818139193096
01:49.5;-0.320535945128123;0.11449356081111464;-0.7936459440360634;0.7090000000000001;0.02912625196353755
01:49.6;-0.3330155617961404;0.13929757051648484;-0.7306354616518397;0.6609999999999999;0.0338929068122418
01:49.6;-0.33914947904268644;0.16077599848769597;-0.678573388025437;0.649;0.03700063635989875
01:49.6;-0.33767308012278185;0.17698154728179258;-0.6376124186957733;0.649;0.03810493227998248
01:49.6;-0.3276177652000742;0.18591508808599008;-0.6069406627857378;0.649;0.0369682008296869
01:49.6;-0.30852296409868557;0.18564583897215303;-0.584996006341819;0.69;0.033506233898897425
01:49.6;-0.2805964863919046;0.17445935212771;-0.5698165710381672;0.74;0.027894048958892696
01:49.6;-0.24480157009892511;0.15103697004995417;-0.5594857064220403;0.7879999999999999;0.020686473414572835
01:49.6;-0.20285608899909946;0.11466144061555604;-0.5526086972323373;0.848;0.012853551972532717
01:49.6;-0.15713540863295872;0.06543003528642308;-0.5487436469495435;0.892;0.005641839395119804
01:49.6;-0.11048454909800792;0.004440031548590801;-0.5487022391989963;0.8859999999999999;0.0002691685630961295
01:49.7;-0.06596464843303286;-0.06610495349664004;-0.5546420651411489;0.851;0.002418566652311481
01:49.7;-0.026571651657652937;-0.14292291799989912;-0.5698993644009032;0.63;0.0021643056712509984
01:49.7;0.005034951936937356;-0.22184069147717325;-0.5985642618698052;0.63;0.0006685706734772439
01:49.7;0.02676479714518792;-0.2981073332703458;-0.644863716843543;0.63;0.005145227211458695
01:49.7;0.03727632424571776;-0.3667716066396161;-0.7124525918638708;0.63;0.009740578690750172
01:49.7;0.03610420973703085;-0.4230933169041957;-0.8037060745517779;0.763;0.012276971837438996
01:49.7;0.023740463838166307;-0.46299123428010636;-0.9190902074018082;0.8690000000000001;0.010102296421857023
01:49.7;0.0016641806183315632;-0.48350566404860845;-1.0566869337724323;1.048;0.0008502533721504266
01:49.7;-0.027700976828997716;-0.48320761287559555;-1.2119458336187803;1.177;0.016222286305586656
01:49.7;-0.061126842651229404;-0.46247530868111414;-1.377711226811527;1.18;0.038947421655502884
01:49.8;-0.09482951469462508;-0.4235764385939809;-1.5445583336380808;1.235;0.06204112117193478
01:49.8;-0.12480941516929371;-0.3705205235911564;-1.7014734297618226;2.104;0.07868370270671499
01:49.8;-0.147235344996873;-0.30869147326071306;-1.8368633262863592;2.104;0.08348598108879662
01:49.8;-0.15881181119317825;-0.24432667895875218;-1.9397561495864528;2.104;0.07526634519743235
01:49.8;-0.15708080361737192;-0.1839265119365263;-2.0009821284383613;2.371;0.057811023594277845
01:49.8;-0.14063226875746507;-0.13364798292539048;-2.014178726640628;2.499;0.03785693038042576
01:49.8;-0.10920871661153347;-0.09871417370190529;-1.9765387748644774;2.475;0.02130797391992312
01:49.8;-0.06368981274497873;-0.08288231383931285;-1.8892262224830088;2.33;0.009972770016211
01:49.8;-0.0059533207047484694;-0.08802907791001202;-1.7573844740924;2.083;0.0009209842781157083
01:49.8;0.06136720216421459;-0.11391744212611596;-1.5897109319216605;1.776;0.011113342758973601
01:49.9;0.13518714752620603;-0.15820609959331583;-1.3976393060523848;1.493;0.02989191467568953
01:49.9;0.2122880954745212;-0.21673103563126847;-1.1942286538282276;0.8590000000000001;0.05494576625829238
01:49.9;0.289592744420323;-0.28401842150836115;-0.9929144448522489;0.8590000000000001;0.08166688954845623
01:49.9;0.3643451727036527;-0.3539169763955947;-0.8063223161253233;0.8590000000000001;0.1039736031624093
01:49.9;0.43416942010023096;-0.42022869155605563;-0.6453149529356321;0.794;0.1177380018269212
01:49.9;0.4970242107002156;-0.4772692729489295;-0.5183307336690702;0.835;0.12295550552914442
01:49.9;0.5511074997103818;-0.520331666374964;-0.43098584270019885;0.9009999999999999;0.12358893293571911
01:49.9;0.5947733364527158;-0.546026659758797;-0.3859042025517491;0.723;0.12532705853141465
01:49.9;0.6265132207997489;-0.5524851984296814;-0.3827533698365348;0.696;0.1324859762785545
01:49.9;0.6450328643318336;-0.5394506826437407;-0.41847089760921485;1.251;0.14561256428052552
01:50.0;0.6494097400488553;-0.5082934495052445;-0.48769108639203024;1.578;0.16098230033860902
01:50.0;0.6392509594232675;-0.46189994134836765;-0.5833940901219742;1.159;0.17225876171009596
01:50.0;0.6147544675801547;-0.4043456664756742;-0.6977274472556471;1.159;0.17343641749256514
01:50.0;0.5766559863208364;-0.3403693734753718;-0.8228370902126672;1.159;0.16150320297828843
01:50.0;0.526133196711503;-0.2748002427855642;-0.9515297953437901;1.159;0.13757363383586135
01:50.0;0.46473664314408575;-0.21207565960543767;-1.0776984231161644;1.29;0.10621723467267578
01:50.0;0.39435890495997017;-0.15588255424026182;-1.1965498066269296;1.365;0.07355631201050608
01:50.0;0.31722138072901046;-0.10890434920752043;-1.304694959695096;1.4680000000000002;0.045073020207268166
01:50.0;0.23585867290949925;-0.07267107510164214;-1.4001270016661547;1.599;0.02399832148701309
01:50.0;0.15308161764893535;-0.04753383493576002;-1.4820840766084156;1.598;0.010784468291503441
01:50.1;0.07189064556249654;-0.032785015840787884;-1.5507912730508011;1.5290000000000001;0.0036551157079374452
01:50.1;-0.004692214985133899;-0.026918034073739817;-1.6070962569050404;1.504;0.00020298461872970996
01:50.1;-0.0738758766264654;-0.027977065769968563;-1.6520495867432003;1.504;0.003414506075567651
01:50.1;-0.133386176409604;-0.03391544722091792;-1.6865077893720146;1.504;0.007629511342547493
01:50.1;-0.18170868894763137;-0.04288450645299204;-1.7108355414142133;1.5959999999999999;0.013331664474773392
01:50.1;-0.21824038679518784;-0.053405988049486874;-1.7247568347242603;1.705;0.020102633343882743
01:50.1;-0.24333511607228944;-0.06441620601946056;-1.7273665714335111;1.746;0.027075995927315386
01:50.1;-0.25822939380702065;-0.07519934643326093;-1.7172767916146947;1.73;0.03334725131124468
01:50.1;-0.26483605771371077;-0.08525188813356756;-1.692851789007456;1.7469999999999999;0.03822082505005479
01:50.1;-0.2654239691187106;-0.09413236241877804;-1.6524868904017547;1.7380000000000002;0.04128736059194689
01:50.2;-0.2622483542821095;-0.1013457548476565;-1.5948914972804986;1.671;0.042388639329571716
01:50.2;-0.2572238232529553;-0.10629372382769728;-1.5193418834588406;1.507;0.04154074885941767
01:50.2;-0.2517156663900456;-0.1082951981227992;-1.425884122036112;1.507;0.03886902790756349
01:50.2;-0.2464743261207359;-0.1066565971226972;-1.3154870562736758;1.507;0.0345816722566362
01:50.2;-0.24169391367597678;-0.100761440176994;-1.1901419498818544;1.3769999999999998;0.028984034886626944
01:50.2;-0.23716209622029993;-0.09015740002733408;-1.052879349956508;1.204;0.02251257990387391
01:50.2;-0.23246854511904327;-0.07463143244631294;-0.907664365551474;1.024;0.015747487076403464
01:50.2;-0.22723333764221584;-0.05427091248850115;-0.7591582556889195;0.8340000000000001;0.009362061516041619
01:50.2;-0.22130915293262346;-0.029512337818356996;-0.6123725583336622;0.649;0.003999619805041663
01:50.2;-0.2149101999924601;-0.0011813423212086714;-0.4722681999438137;0.478;0.00011990063812508896
01:50.3;-0.2086303128258707;0.029474001044236902;-0.3433635732643263;0.353;0.0021114010037555074
01:50.3;-0.2033364999391417;0.060762074206681886;-0.22941471516738812;0.099;0.0028344526441572955
01:50.3;-0.19996204913052407;0.09055268132691549;-0.13321982737616886;0.099;0.002412224697968121
01:50.3;-0.19926044212491256;0.11632551456993068;-0.05658100802517411;0.099;0.0013114953416607502
01:50.3;-0.2015921917792964;0.13527940071757955;-0.0004243011156962449;0.11800000000000001;1.1571230666459054e-05
01:50.3;-0.20679422855293875;0.14451588807761004;0.034961015759846795;0.201;0.0010448117595747042
01:50.3;-0.21415008265776947;0.14129654551921883;0.04963315327567408;0.261;0.0015018330522743597
01:50.3;-0.22245944185599825;0.12334920500741049;0.043735305701665526;0.315;0.0012001053299295873
01:50.3;-0.2301936566264172;0.08917863587564646;0.01732351195718377;0.337;0.00035562322556748587
01:50.3;-0.23571204543773264;0.038332944020514244;-0.029679506358292786;0.32799999999999996;0.0002681702672383594
01:50.4;-0.23750581751229255;-0.028414767638188097;-0.09740518234980323;0.303;0.0006573556869101232
01:50.4;-0.23443813767339733;-0.10899780490516568;-0.18587051660739948;0.28600000000000003;0.004749594364479774
01:50.4;-0.22595757938372554;-0.20011488074856199;-0.29477690383086147;0.524;0.013329067000280094
01:50.4;-0.2122646299060615;-0.2974111868912308;-0.4233244403145501;0.691;0.026724419219679524
01:50.4;-0.1943988413207214;-0.39575433906190016;-0.570053871261334;0.691;0.043856629969513915
01:50.4;-0.1742001036372842;-0.48957669795322517;-0.7327004660284553;0.9079999999999999;0.062487854796976335
01:50.4;-0.15410097615858714;-0.5732809515067001;-0.9080495798205922;1.117;0.08021996408793576
01:50.4;-0.13673486555564562;-0.6417225281940555;-1.0917978522595988;1.29;0.09580072360535767
01:50.4;-0.12439688562154967;-0.6907560977412331;-1.2784258113791387;1.4240000000000002;0.10985245458851384
01:50.4;-0.11846379227835548;-0.7177782888617061;-1.4611063243236881;1.5190000000000001;0.12423894921973108
01:50.5;-0.11893708945221398;-0.7221558005733728;-1.6317314235601954;1.524;0.14015122164332822
01:50.5;-0.12427259944136083;-0.7054249504963734;-1.7811929683221457;2.15;0.1561482678687659
01:50.5;-0.13157052488755486;-0.671194453852697;-1.9000115395747013;2.15;0.16778889158352286
01:50.5;-0.13706093810748587;-0.624758138223246;-1.9792603110496696;2.15;0.1694839347821678
01:50.5;-0.13673343461250184;-0.5724756215011116;-2.0116128924166223;2.4530000000000003;0.15746213316587754
01:50.5;-0.12696937349591558;-0.5209902538900164;-1.9923496479138951;2.6510000000000002;0.1317935429604349
01:50.5;-0.10507572683851028;-0.476375363127585;-1.9201861646703975;2.552;0.09611585461823065
01:50.5;-0.06964840633594911;-0.4433464845161361;-1.7977672536992046;2.269;0.05551213340213545
01:50.5;-0.020731318988233677;-0.4246903197383233;-1.6316853129303992;1.989;0.01436599465136411
01:50.5;0.0402193081521477;-0.4210122171057617;-1.431979051100035;1.65;0.024247443652938506
01:50.6;0.1105358558193554;-0.43082960808683224;-1.2111745435710932;1.27;0.057678698779289196
01:50.6;0.18667401821242594;-0.4509732158095697;-0.982999064441777;0.809;0.08275375884227648
01:50.6;0.2646355504485661;-0.4772015266038816;-0.7609648920740261;0.809;0.09609806228965076
01:50.6;0.34040238669332995;-0.5048911921326581;-0.5570834275989337;0.809;0.0957437933017113
01:50.6;0.4103001052004402;-0.5296681185385959;-0.38093753291172416;0.867;0.08278644356485913
01:50.6;0.4712510696569277;-0.5478976786674332;-0.2391956331654029;0.909;0.06175968271339479
01:50.6;0.5209223417696178;-0.5570090901562884;-0.13552650344317263;0.927;0.03932416418880057
01:50.6;0.5577837173636819;-0.5556532356413805;-0.07084595410096683;0.9009999999999999;0.02195759312912919
01:50.6;0.5810867087589683;-0.5437016791568086;-0.043830226276061826;0.8440000000000001;0.013847626108556573
01:50.6;0.590779253550036;-0.5221076434821581;-0.051608440579323185;0.823;0.015918642276444208
01:50.7;0.587380874022503;-0.49266373197517643;-0.09051452068597297;0.848;0.026193205454860792
01:50.7;0.5718485085201311;-0.4576975175265699;-0.1567648847572884;0.8290000000000001;0.041030644342955704
01:50.7;0.5454578096041327;-0.4197460648536116;-0.24694132796121035;0.8290000000000001;0.056538147789453146
01:50.7;0.5097098230320148;-0.3812478954910392;-0.3582000407239738;0.8290000000000001;0.06960750852164663
01:50.7;0.4662566547137514;-0.34428042013137156;-0.48819087307568737;0.7340000000000001;0.0783658815690482
01:50.7;0.41683171512333944;-0.31035321003459976;-0.6347381794945449;0.6659999999999999;0.08211294320318474
01:50.7;0.3631770520051446;-0.28026148588722555;-0.795384875566991;0.6629999999999999;0.08095788386954159
01:50.7;0.30697658535517464;-0.25401754876265437;-0.9669233217116111;0.727;0.07539820505143714
01:50.7;0.24981271419197326;-0.2308928784023819;-1.1450319282599908;0.885;0.06604541487557469
01:50.7;0.1931547630615526;-0.2096007385906333;-1.3241127377421413;1.079;0.053607208674443935
01:50.8;0.1383667021247428;-0.18861691551709636;-1.497392562686484;1.264;0.03907940116485013
01:50.8;0.08670342266583837;-0.16657880787392695;-1.657310213368365;2.041;0.023936453163873366
01:50.8;0.03926878357767162;-0.14265779358249028;-1.7961437620530072;2.041;0.01006199380199526
01:50.8;-0.0030637771950830627;-0.11680491549297597;-1.9067409049542592;2.041;0.0006823543778897077
01:50.8;-0.03974766108173478;-0.08981065146664662;-1.9831849577228904;2.207;0.007079500950637599
01:50.8;-0.07066253966678997;-0.06315759021645835;-2.021298214836784;2.252;0.009020802733816823
01:50.8;-0.09620445668865825;-0.038684192331233436;-2.018962486192349;2.205;0.007513754042663996
01:50.8;-0.11732871516580162;-0.018138386673850065;-1.9762570908832222;2.084;0.004205778649649281
01:50.8;-0.13548835689120234;-0.0027519198921724035;-1.8954205790009846;1.979;0.0007067134471884077
01:50.8;-0.15244085757749934;0.007040847024783563;-1.780664705217565;1.8359999999999999;0.0019112101467740582
01:50.9;-0.16996547736382916;0.011682030456155753;-1.6378821734193585;1.6580000000000001;0.003252083654840338
01:50.9;-0.18958900293188058;0.01238582940009743;-1.4742825527673562;1.489;0.003461935421690424
01:50.9;-0.2124127377469656;0.010913500900646135;-1.2979814671474785;1.255;0.0030089372906740605
01:50.9;-0.23907099948281435;0.009294444325104317;-1.1175659647670357;1.255;0.002483267441366224
01:50.9;-0.269779137183403;0.00954205177982477;-0.9416517904570639;1.055;0.0024240438221496746
01:50.9;-0.30440131996783915;0.013394283577730546;-0.778428213056064;0.8009999999999999;0.003173836780017379
01:50.9;-0.34249443661657386;0.02209873185842053;-0.6351776130562796;0.545;0.0048074641744425975
01:50.9;-0.3833276849808747;0.03625880628402496;-0.5177879976551271;0.415;0.007196737591929815
01:50.9;-0.42590372166873725;0.055755337644157965;-0.4303264255117707;0.425;0.010218705929051676
01:50.9;-0.4690081477973926;0.07975250457432488;-0.374763693907374;0.479;0.014017876490892464
01:51.0;-0.5112965981817786;0.10679118691881943;-0.35092104244379074;0.5660000000000001;0.01916098043801099
01:51.0;-0.5514059622012568;0.13496697963390117;-0.3566644222078252;0.847;0.026543535990240917
01:51.0;-0.5880576346027901;0.1621750746970657;-0.38831513238902166;0.847;0.03703295047466261
01:51.0;-0.6201116928354945;0.18638036665493338;-0.44119458632406006;0.847;0.05099178993729671
01:51.0;-0.6465414428908101;0.20586216224123602;-0.5102099654115524;0.902;0.06790813996456492
01:51.0;-0.6663312649428947;0.21939987811373676;-0.5904205375388868;0.975;0.0863153486477
01:51.0;-0.6783433490416642;0.22638565749412468;-0.6775500777731923;1.074;0.10404947174507012
01:51.0;-0.6812296187738254;0.22685709544956173;-0.7683987422845177;1.192;0.11874970373409761
01:51.0;-0.6734643313102496;0.22145035111980174;-0.8610892635196411;1.318;0.12842191644326542
01:51.0;-0.6535318068854058;0.2112850025188912;-0.9550892094791411;1.4280000000000002;0.13188012151405026
01:51.1;-0.620238089735533;0.19779659327799565;-1.050978752172798;1.494;0.12893510450636925
01:51.1;-0.5730594157274893;0.18253003239482035;-1.1499692470991372;1.314;0.12028742000397111
01:51.1;-0.5124232681462724;0.1669090467986738;-1.2532221308366895;1.314;0.10718568171622855
01:51.1;-0.4398394342700124;0.15200794151015737;-1.3610673208948543;1.314;0.09099971841835662
01:51.1;-0.3578305883277638;0.13835726442391316;-1.4722562768535914;1.0390000000000001;0.07288914294784819
01:51.1;-0.2696425246054501;0.12580644734279003;-1.5833999782504642;0.894;0.053713310229225236
01:51.1;-0.17876673812710633;0.11346116945416926;-1.6887511733085911;1.05;0.034253080497277204
01:51.1;-0.08838243971610929;0.099723012192521;-1.7804798871064595;1.4780000000000002;0.015692727953155003
01:51.1;-0.0008690786681924492;0.08246486145573156;-1.8495118644093147;2.112;0.00013255165221611652
01:51.1;0.0824837567096364;0.05934967066641471;-1.886836755540426;2.617;0.009236790078855845
01:51.2;0.1615118014075133;0.028241854927221227;-1.8850075387634906;2.821;0.008598259936628012
01:51.2;0.23696897407849019;-0.01239247529336519;-1.839454130589719;2.1519999999999997;0.005401800150410172
01:51.2;0.310137469089678;-0.0631985799027896;-1.749308640030356;2.1519999999999997;0.03428688251034732
01:51.2;0.3823428729944361;-0.123802331422719;-1.6176436252513033;2.1519999999999997;0.07657106245372802
01:51.2;0.4544714544469314;-0.19282215218246962;-1.4511850580639964;1.672;0.12717048693289076
01:51.2;0.5265784513847054;-0.2679982111062215;-1.2595923105627418;1.224;0.17775629056991962
01:51.2;0.5976576992715716;-0.3464130358487714;-1.054404880735045;0.941;0.21830020963232447
01:51.2;0.6656179564407172;-0.42475915605058884;-0.8478201561252403;0.863;0.239701921795549
01:51.2;0.7274764129073316;-0.4995989428641208;-0.6515153044378468;0.9259999999999999;0.23679092246443265
01:51.2;0.7797373523576668;-0.5675812345029092;-0.4756923453461656;1.047;0.21052444461951272
01:51.3;0.8188856994816609;-0.6256119180301887;-0.3284398685718114;1.149;0.1682612729329619
01:51.3;0.8419038139377101;-0.6709969522264222;-0.21542215706508427;1.304;0.12169518485564508
01:51.3;0.8467196887305409;-0.7015742188094556;-0.1398523162586003;1.304;0.08307740902103923
01:51.3;0.8325111577656151;-0.715831411484109;-0.10268276577905702;1.304;0.0611925248133333
01:51.3;0.7998170857329377;-0.7129943544574383;-0.10294442898206066;1.207;0.05870561166254389
01:51.3;0.7504398342565192;-0.693075606330021;-0.13817356367612507;1.0959999999999999;0.0718656654249549
01:51.3;0.6871628787937543;-0.6568814531555351;-0.20487404047026658;1.024;0.09247697664150498
01:51.3;0.6133454225641535;-0.6059721777054002;-0.29896861003348285;0.9420000000000001;0.11111774144059419
01:51.3;0.5324769269002704;-0.5425630299218115;-0.4161985451606457;0.8490000000000001;0.12024071479868215
01:51.3;0.4477731446168589;-0.4693548367333068;-0.5524439512963808;0.85;0.11610410193254814
01:51.4;0.3618803116000139;-0.3892966366412939;-0.7039534500191514;0.937;0.09917210896861112
01:51.4;0.2767321913110039;-0.3053037913830101;-0.8674745485229794;1.255;0.07329065807152442
01:51.4;0.19357494180469653;-0.21998306735193132;-1.0402537412737367;1.255;0.04429734295690384
01:51.4;0.11313967730494917;-0.13544145446858305;-1.219852993677839;1.255;0.01869278629595188
01:51.4;0.03591109357979604;-0.053245424418043044;-1.4037564652366359;1.255;0.0026841247290705127
01:51.4;-0.03757829340413464;0.025458240464887753;-1.5888244155263376;1.228;0.0015199921403930867
01:51.4;-0.10650075588794061;0.09970660198932145;-1.7707342396759271;1.25;0.018803123172800036
01:51.4;-0.1695931152512016;0.16844018546236725;-1.9435870887575781;1.3319999999999999;0.055521083663402665
01:51.4;-0.2251671612005657;0.23025428722637942;-2.0998510751782224;1.706;0.10886825772669016
01:51.4;-0.27129556952461326;0.2832665072100407;-2.2307550627152644;2.2319999999999998;0.17143118070941973
01:51.5;-0.3061628695497778;0.3251815841843125;-2.3271294541762995;2.6639999999999997;0.23168558045324794
01:51.5;-0.3285153076018523;0.35359404981042564;-2.380542537679669;3.016;0.27652633988527964
01:51.5;-0.33809568381010374;0.36648586111551945;-2.38447927863122;3.016;0.2954543602795825
01:51.5;-0.3359372746552476;0.36278062935230376;-2.335307961086915;3.016;0.2846075680693036
01:51.5;-0.3244184091767413;0.3427770094619486;-2.2328596443448308;2.702;0.24830107533203113
01:51.5;-0.3070378603278835;0.30833621602884115;-2.080549926302403;2.322;0.19696751743827007
01:51.5;-0.28794771255266133;0.26279030048326685;-1.8850689882575953;1.9140000000000001;0.14264291756347164
01:51.5;-0.271352365107589;0.21060776663699685;-1.6557425725290567;1.608;0.09462389251122598
01:51.5;-0.2609184909594132;0.1568918841259442;-1.4037044962770053;1.3430000000000002;0.057462038345960316
01:51.5;-0.2593225888085719;0.10680282697354555;-1.141007417446857;1.111;0.03160178138650438
01:51.6;-0.2680082792924127;0.06499501408804578;-0.8797495037480281;0.855;0.015324534216939113
01:51.6;-0.2871665710452795;0.0351509691163628;-0.6312536228728108;0.382;0.006371989759170284
01:51.6;-0.3158995347280293;0.01966657490912303;-0.4053471747092033;0.382;0.0025182849337876236
01:51.6;-0.35248799569719275;0.019501287564122338;-0.2098387889103687;0.382;0.001442425490912106
01:51.6;-0.3946807654205636;0.034174195706252575;-0.05028249676573052;0.45399999999999996;0.0006782051734309098
01:51.6;-0.439957418902549;0.061878677835198244;0.06997097037444797;0.527;0.001904888534939618
01:51.6;-0.4857495541102057;0.0996920841899122;0.14951840287576465;0.542;0.007240486290165431
01:51.6;-0.529615213586435;0.14385720347170264;0.18853253779224524;0.627;0.014364098648449689
01:51.6;-0.5693620562093632;0.19011164825137683;0.18833772841700894;0.6809999999999999;0.020386120004602073
01:51.6;-0.6031152371707965;0.2340445999261075;0.1509879880836991;0.6940000000000001;0.021312839970911282
01:51.7;-0.6293255441744701;0.27146427841428217;0.07889920973285994;0.7340000000000001;0.013479094024981347
01:51.7;-0.6467215928352195;0.29875693997959524;-0.025432112850750702;0.8340000000000001;0.004913803734226087
01:51.7;-0.654230033410421;0.3132059379965883;-0.15960174744275887;0.8340000000000001;0.03270379157854279
01:51.7;-0.6509058312300806;0.313227864011821;-0.3213180769359014;0.8340000000000001;0.06551092177564838
01:51.7;-0.6359154806242412;0.2984875055740604;-0.5082209912754664;0.8340000000000001;0.09646686236669146
01:51.7;-0.6085975576953374;0.26987132134167574;-0.7175112472982197;1.053;0.11784621920625582
01:51.7;-0.5685951178002674;0.2293156604451418;-0.9454713454057211;1.189;0.12327789556519582
01:51.7;-0.5160194056052753;0.17950000469231558;-1.1869640640701218;1.2229999999999999;0.10994312297555019
01:51.7;-0.4515733889415582;0.12343432515664624;-1.4349728887380058;1.1;0.07998489593764445
01:51.7;-0.3765587052172063;0.0639933443248993;-1.6802776537361799;0.95;0.040490072172663844
01:51.8;-0.2927302324003098;0.003477862000575481;-1.9114379870453635;0.963;0.0019459879008846403
01:51.8;-0.20203623795120568;-0.05669439338022789;-2.1152972127812943;2.5669999999999997;0.024229295298237703
01:51.8;-0.10634356253903825;-0.11608002379070433;-2.2781019412279244;2.5669999999999997;0.028121717927515773
01:51.8;-0.0072546363595549545;-0.17506172004187845;-2.3870693823537508;2.5669999999999997;0.0030315998841869214
01:51.8;0.09392786721996588;-0.23451607119634843;-2.4320555192038595;3.1180000000000003;0.05357233252625357
01:51.8;0.19610540853666591;-0.2953931544388479;-2.407021168548842;3.345;0.13943439217483652
01:51.8;0.2982207345860042;-0.3583132613440564;-2.311087068901645;3.2110000000000003;0.24695454598016509
01:51.8;0.3990976941989246;-0.42327934386591953;-2.1489838535854418;2.748;0.3630274343777981
01:51.8;0.4973362317969151;-0.4895677801663466;-1.9307563944294825;2.1919999999999997;0.4701001711050522
01:51.8;0.5912912856161663;-0.5557977873407165;-1.6707494277308153;1.7209999999999999;0.5490723990477945
01:51.9;0.6791384267282546;-0.6201241645119707;-1.3860829114791497;1.4569999999999999;0.5837490253373229
01:51.9;0.7590041551810957;-0.6804758946676343;-1.094919070469864;1.229;0.5655082157408758
01:51.9;0.829120047331392;-0.7347734660817109;-0.8148257825938874;1.229;0.49640442401638407
01:51.9;0.8879551971311678;-0.7810838385947327;-0.561484964967397;1.229;0.38942769754173046
01:51.9;0.9342996111581626;-0.8177024077023485;-0.347876075371073;1.246;0.26577003064343707
01:51.9;0.9673026608067027;-0.8431796036377448;-0.18390576045798546;1.291;0.1499953541401574
01:51.9;0.9864859272646391;-0.8563250141460512;-0.0763447585248847;1.344;0.06449243139896593
01:51.9;0.9917392380627846;-0.8562176841143667;-0.028917394630892115;1.331;0.024555051626930825
01:51.9;0.9832941676459692;-0.8422352136348136;-0.04242504888534042;1.306;0.03513493947963484
01:51.9;0.9616684052064389;-0.8141002408260242;-0.1148381057541469;1.274;0.08990611911996775
01:52.0;0.9275833365776249;-0.7719365395804978;-0.24136016077114605;1.2109999999999999;0.1728224364008806
01:52.0;0.8818663385854352;-0.7163232000144479;-0.4145395304546635;1.162;0.26186516760230316
01:52.0;0.8253565464476399;-0.6483309624439965;-0.6245376471635308;1.1640000000000001;0.33419272062707667
01:52.0;0.758841469958549;-0.569526398587064;-0.8596251872999054;1.1640000000000001;0.37151302791000856
01:52.0;0.6830577934058863;-0.4819395228413971;-1.106885050379893;1.449;0.36437830900081064
01:52.0;0.598778115715676;-0.38799663807583734;-1.3530351004932792;1.743;0.3143423857698386
01:52.0;0.5069742290518883;-0.2904191127881366;-1.585271649507123;1.983;0.23340748052196175
01:52.0;0.40901809967511954;-0.19209495176670602;-1.7920334103917461;2.125;0.14080062439972074
01:52.0;0.30686733774910424;-0.09594705669613189;-1.963589847952119;2.177;0.05781401094962507
01:52.0;0.20317282573363252;-0.004830776825648133;-2.092401315100201;2.17;0.0020536554372804594
01:52.1;0.10123522610999995;0.07852439022854966;-2.1732696184932134;2.178;0.01727626426558812
01:52.1;0.004746087521758469;0.15155052920492396;-2.2033502812984205;2.254;0.0015848083300491168
01:52.1;-0.08268285333236879;0.21189731132492692;-2.1821023970693454;2.254;0.03823103257746031
01:52.1;-0.15809005082236097;0.25753918377102075;-2.1112152791233245;2.254;0.08595682673309711
01:52.1;-0.21967137086959548;0.28694373954242297;-1.9945055011902988;2.2569999999999997;0.12572031272832582
01:52.1;-0.26710601375921483;0.2992965158047942;-1.837751193561612;2.049;0.14691699629891322
01:52.1;-0.30163817339363286;0.2947479204810809;-1.6484339074123286;1.78;0.14655768322501234
01:52.1;-0.3258755162370725;0.2746069665892332;-1.4353898126355469;1.55;0.12844971427549107
01:52.1;-0.3433172530120998;0.24139570167214924;-1.2084041801686916;1.3530000000000002;0.10014687005435641
01:52.1;-0.357718338379296;0.19871312730575322;-0.9777788265902672;1.186;0.06950377471785227
01:52.2;-0.3724654142917408;0.15091131453429527;-0.7538607866759321;1.012;0.042373945872272854
01:52.2;-0.3901299225880028;0.1026333845529745;-0.546487139928266;0.45899999999999996;0.021881538741701616
01:52.2;-0.41227496432403327;0.058297364431153326;-0.3643333299943954;0.457;0.00875658539250199
01:52.2;-0.43947743329624545;0.021626593163957035;-0.2142534217000546;0.457;0.0020363501472110013
01:52.2;-0.47146513023030606;-0.004689423097298098;-0.10077155780699969;0.457;0.0002227957838748172
01:52.2;-0.5072908827990266;-0.019167537797236157;-0.025836131094891124;0.545;0.00025121806431383946
01:52.2;-0.5455194549106025;-0.021546706086845564;0.011155149402682113;0.597;0.00013111926989764627
01:52.2;-0.5844283186012977;-0.012679544639989025;0.013097611745304109;0.618;9.70570352571427e-05
01:52.2;-0.62221784255898;0.005660528652651293;-0.015278580428641358;0.674;5.38124119825936e-05
01:52.2;-0.6572150551865376;0.03101668491125074;-0.06802596737189844;0.789;0.0013866843307518493
01:52.3;-0.6880471484378282;0.06049840376592392;-0.138679128775206;0.9259999999999999;0.005772623326537717
01:52.3;-0.7137548753006632;0.09102372340672267;-0.2209305675899305;0.8959999999999999;0.014353555494948038
01:52.3;-0.7338201926354428;0.11954271745814286;-0.3091829872085512;0.8959999999999999;0.027122415886838284
01:52.3;-0.7481053479512101;0.1432334463671725;-0.3989168320129464;0.8959999999999999;0.04274541742773719
01:52.3;-0.7567275426846489;0.15966617743094233;-0.48686983665393335;0.887;0.05882546089599673
01:52.3;-0.7599035398956161;0.16694112610870798;-0.5710749544481111;0.89;0.07244608484043702
01:52.3;-0.7577962786439703;0.16381007813724704;-0.6508231385999907;0.917;0.08078971398742187
01:52.3;-0.7503951211916112;0.14978722767969554;-0.7266069408994462;1.0270000000000001;0.08167033305119736
01:52.3;-0.7374608739546825;0.12524481152479155;-0.8000691033829141;1.212;0.07389690113828465
01:52.4;-0.7185552830266717;0.09147810725396888;-0.8739347036537736;1.445;0.05744554345081952
01:52.4;-0.6931489296594708;0.050708699170584036;-0.9518562288656164;1.595;0.03345649052222232
01:52.4;-0.6607691406483022;0.005977492587162936;-1.038067886040543;1.672;0.004100100992762194
01:52.4;-0.6211284212315611;-0.03911995706466591;-1.1367565865111253;1.123;0.027621499435703974
01:52.4;-0.5741843125059428;-0.08085887003322506;-1.25113974861081;1.123;0.05808778450353059
01:52.4;-0.5201198535773514;-0.11590244155457322;-1.3823765007560367;1.123;0.08333402506178646
01:52.4;-0.45926399812535684;-0.14180543526461642;-1.5285442251506902;0.8;0.09954817168419827
01:52.4;-0.3919785918336067;-0.157419968918193;-1.6839376315448271;0.838;0.10390780557768366
01:52.4;-0.3185502606135786;-0.16314197750415357;-1.8389345831912807;1.17;0.09556744322945733
01:52.4;-0.23914246655463375;-0.16093423984497013;-1.9806231356230857;1.831;0.076226680046965
01:52.4;-0.15384729089818236;-0.1540812871530022;-2.094226236424628;2.5869999999999997;0.04964360907407666
01:52.5;-0.06282445788537952;-0.14670076470678392;-2.165105904765672;3.1310000000000002;0.019954473430731107
01:52.5;0.03353123644500092;-0.1431149393168122;-2.1809154940415394;2.8510000000000004;0.010465822786427917
01:52.5;0.13445488717168147;-0.14721970204079338;-2.133436294455583;2.8510000000000004;0.04223010936617195
01:52.5;0.23873274972492303;-0.16196353673959055;-2.0197896738470464;2.8510000000000004;0.07809718850052115
01:52.5;0.34467842788544767;-0.18899824634432655;-1.8429129871621155;2.37;0.12005402042260717
01:52.5;0.4501724825779596;-0.22852121778432277;-1.611305866965068;1.8230000000000002;0.16576142164111254
01:52.5;0.5527785059080965;-0.2793018217605036;-1.338133144778329;1.35;0.20659711100541991
01:52.5;0.6499237446349806;-0.33886700512078155;-1.039871031301365;1.072;0.22901881764616985
01:52.5;0.739109145898047;-0.40381189248567134;-0.7347534123426473;1.004;0.2192952844602146
01:52.6;0.8181131450914891;-0.47019389446308607;-0.4412585944927145;1.0590000000000002;0.1697397403691698
01:52.6;0.8851623241301726;-0.5339578086124236;-0.17679970451800395;1.165;0.0835624947466265
01:52.6;0.9390488168970055;-0.591333256257352;0.043301840843485526;1.3130000000000002;0.024045113613099824
01:52.6;0.9791791892138286;-0.6391545002860369;0.20654341091777537;1.315;0.129264529762751
01:52.6;1.0055452861035838;-0.675073340514416;0.30369501461363957;1.315;0.20615328265116414
01:52.6;1.0186180235329405;-0.6976599817466236;0.32903955363852333;1.315;0.23383164018578734
01:52.6;1.0191783746315262;-0.7064067303860024;0.28047980119835636;1.305;0.20193268473925652
01:52.6;1.008108061828715;-0.701657697442376;0.15957987015864936;1.253;0.1128783075386687
01:52.6;0.9861658702698526;-0.6844840566904717;-0.028440850546560034;1.145;0.019197995482984082
01:52.6;0.9537818103756707;-0.656517784044046;-0.27480435359255034;1.0490000000000002;0.17207553933304928
01:52.7;0.9109100549136934;-0.6197543994864727;-0.5674476199545827;0.995;0.32034717107651883
01:52.7;0.8569823830100847;-0.5763363122376237;-0.8915737378947419;0.978;0.4403572439741063
01:52.7;0.790992182988032;-0.5283334291895229;-1.2305479396675325;2.201;0.5142553515334661
01:52.7;0.7117203634938208;-0.4775522417074428;-1.5670788625115788;2.201;0.5326244915503533
01:52.7;0.6180915387212292;-0.425420896793263;-1.8844420152283397;2.201;0.49551225031600554
01:52.7;0.5096202228138407;-0.37299081009943624;-2.167459733770175;2.201;0.41199867855664
01:52.7;0.38687644221060596;-0.3210593131870727;-2.403141296897681;2.504;0.29849486496092786
01:52.7;0.25187211760431055;-0.2703783293108571;-2.581101369034486;2.77;0.17577497095411612
01:52.7;0.10824657899987755;-0.22188806741204828;-2.69390783945977;2.946;0.06470396007457777
01:52.7;-0.038869785459264304;-0.17689562298725037;-2.7374064216162504;3.179;0.018822118892482274
01:52.8;-0.18337891653597765;-0.137109761612695;-2.710961055067892;3.282;0.06816180097468785
01:52.8;-0.3190686452463045;-0.10447279333316463;-2.617487909382606;3.091;0.08725132269070825
01:52.8;-0.44059224749187725;-0.08080972056556457;-2.463163941643936;2.6889999999999996;0.08769882496166713
01:52.8;-0.5442857986758868;-0.06739745594616944;-2.2567848279622575;1.974;0.08278671689958955
01:52.8;-0.6285844066418181;-0.06458124815496305;-2.008904661398117;1.974;0.08155101374512452
01:52.8;-0.6939521655899326;-0.07153168021929221;-1.730995508275368;1.742;0.08592586300302571
01:52.8;-0.7423975078539754;-0.0861882460212291;-1.4348168313993663;1.555;0.09180810232537195
01:52.8;-0.7767411874504847;-0.10539707099324583;-1.132025891327989;1.36;0.09267471018510198
01:52.8;-0.7998374319841622;-0.1252186487541913;-0.8339302808879517;1.094;0.08352192240120802
01:52.8;-0.8139286307598627;-0.14135607704445713;-0.5512539363873702;0.815;0.06342383712506815
01:52.9;-0.8202543287587025;-0.1496377650558494;-0.29383070569006053;0.664;0.03606508185560488
01:52.9;-0.8189673334594778;-0.14648231256589422;-0.07020970183331814;0.735;0.008422652743212114
01:52.9;-0.8093489202161251;-0.12928128099988434;0.11277629946141779;1.0759999999999998;0.011800197558244852
01:52.9;-0.7902523779768118;-0.09666393794297903;0.25038431992232485;1.0759999999999998;0.01912658448474763
01:52.9;-0.7606478539367971;-0.048647353744798554;0.3401763834108737;1.0759999999999998;0.012587718581198967
01:52.9;-0.7201274762894722;0.013304831123209371;0.38202081861648757;1.075;0.0036602081102164626
01:52.9;-0.6692649620069331;0.08630352261728824;0.37789666018698315;0.995;0.021827282291204172
01:52.9;-0.6097696591013531;0.1661426099001818;0.33157010349481064;0.831;0.03359094363775487
01:52.9;-0.5444108715460934;0.24750856011098346;0.24821872685751617;0.6609999999999999;0.03344656767533414
01:52.9;-0.476729704607177;0.32430245107969574;0.13405221878062915;0.565;0.020725091232988276
01:53.0;-0.4106022511885234;0.39007211375764317;-0.00406319004771325;0.54;0.0006507787537799008
01:53.0;-0.34974591321302906;0.43852394602833905;-0.15900704078752315;0.595;0.02438722117651261
01:53.0;-0.29725916443015155;0.4640578234865651;-0.32387258680598185;0.982;0.0446767467684129
01:53.0;-0.2552656157491982;0.46226506510679904;-0.49248764002426615;0.982;0.058113726936496475
01:53.0;-0.22470919990861596;0.4303490420965989;-0.659882967196175;0.982;0.06381291922569161
01:53.0;-0.20532131858230684;0.3674503166486687;-0.8225738744914435;0.982;0.06205940144094783
01:53.0;-0.19575481073911752;0.2748624963752937;-0.9786100716566029;1.183;0.052654756831832426
01:53.0;-0.19385973831107398;0.15611332069350603;-1.1274516985496683;1.382;0.034121296853002574
01:53.0;-0.1970595787327585;0.01687729972080427;-1.2697331142551245;1.579;0.004222921020302308
01:53.0;-0.20276378005779327;-0.13530752054740214;-1.406910084937394;1.734;0.03859923145987594
01:53.1;-0.20872691731063495;-0.29153023769859693;-1.5407410077487598;1.722;0.09375441051471031
01:53.1;-0.21325472375497712;-0.442200025931365;-1.6725703875187958;1.59;0.15772546884685668
01:53.1;-0.2151847707167441;-0.5779141136064089;-1.8024589279572403;1.569;0.22415075699466028
01:53.1;-0.2136477329604492;-0.6904207733799935;-1.9283170634117224;1.569;0.2844399430850581
01:53.1;-0.20771769376320076;-0.7735196679741404;-2.0452973638653678;1.569;0.32862553905106523
01:53.1;-0.19611214112011685;-0.8237178730670054;-2.1457182111396533;2.019;0.3466216281183664
01:53.1;-0.17706904444561888;-0.8405257162084718;-2.2196927329318825;2.5140000000000002;0.33035927869897197
01:53.1;-0.14845994921920547;-0.8263577210166605;-2.2564438706003678;2.924;0.27682284757496894
01:53.1;-0.10812942870832386;-0.7860616888278995;-2.2460608628705567;3.1919999999999997;0.19090709054014016
01:53.1;-0.054369902560785506;-0.726173492457936;-2.1812905228006154;3.177;0.08612167321723552
01:53.2;0.013625358468383964;-0.6540675537933918;-2.058938447416493;2.965;0.0183490636032739
01:53.2;0.09548234886100278;-0.5771707286594258;-1.8805751383641829;2.589;0.10363777536338589
01:53.2;0.1896118826464428;-0.5023304130540968;-1.6524373158721108;1.225;0.15739104430617878
01:53.2;0.2933876447770337;-0.4353513330466581;-1.3846457231403861;1.225;0.17685623200558184
01:53.2;0.4034258672900452;-0.38068881105995306;-1.09005970622008;1.225;0.16741105767292086
01:53.2;0.5158549825534813;-0.3412875554227406;-0.7831083585783305;0.867;0.1378700527546826
01:53.2;0.6265348320543613;-0.31855146963091974;-0.4787603966633198;0.684;0.09555271944641948
01:53.2;0.7312507558597863;-0.31242766225270513;-0.19163427769574287;0.7509999999999999;0.0437813351196739
01:53.2;0.8259164886572948;-0.3215948654387994;0.06475868730040261;0.95;0.017200587444885743
01:53.2;0.9067944760655633;-0.3437461210824801;0.2786010588729222;1.143;0.0868419235955535
01:53.3;0.9707175142166229;-0.37593888278808907;0.4401528484232307;1.272;0.1606251804759316
01:53.3;1.0152818742458545;-0.41496655064355675;0.5419384161549153;1.3559999999999999;0.22832299960173685
01:53.3;1.0389816568651493;-0.4576984107880726;0.5787821150663824;1.305;0.27523419353769685
01:53.3;1.0412669537378714;-0.5013405812234552;0.547769069776609;1.305;0.2859515477667622
01:53.3;1.0225269607003402;-0.5435840015383644;0.44822502492680255;1.305;0.24913660049316932
01:53.3;0.9840093961864885;-0.5826264981880382;0.28179011955488426;1.305;0.1615530789817421
01:53.3;0.9276820338157785;-0.617082004781493;0.052596227952644306;1.1540000000000001;0.030109020442607173
01:53.3;0.8560341843504223;-0.6458121091479176;-0.23251698278559504;0.972;0.1285440475041513
01:53.3;0.7718269033968178;-0.6677292779756131;-0.5638502515342159;0.85;0.29059230532341024
01:53.3;0.6778309098650707;-0.6816293341961939;-0.9288584048278683;0.882;0.4291599209949904
01:53.4;0.5766166381023207;-0.6861110206695923;-1.3124146232834246;1.111;0.519221450015469
01:53.4;0.47045734655633153;-0.6796295977413496;-1.6973933845556544;1.535;0.542719022513426
01:53.4;0.36136930151121854;-0.6607072383858412;-2.0655997315240207;2.898;0.49318117332512645
01:53.4;0.2512630181656822;-0.6282790230958549;-2.3989637194765274;2.898;0.378708289977643
01:53.4;0.14214474054776063;-0.5820968246753477;-2.6807788535719776;2.898;0.22181300957787053
01:53.4;0.03629229872808505;-0.523080684191285;-2.896751931595019;2.898;0.054991360621280884
01:53.4;-0.06367957767728159;-0.4535189328478593;-3.0358022197545163;3.207;0.08767364665270876
01:53.4;-0.1549449283137773;-0.37704636693744825;-3.0907062217621117;3.572;0.18056345337472668
01:53.4;-0.2348181572122633;-0.29835411993914535;-3.0586539672154194;3.822;0.21428613013757758
01:53.4;-0.3012746566150826;-0.2226319743014831;-2.941625261032482;3.766;0.19730472426829226
01:53.5;-0.3534828377942057;-0.15483140976451076;-2.7463827155018405;3.346;0.15031020191309138
01:53.5;-0.39214222133769827;-0.09892423732541916;-2.483913118239159;2.685;0.09635687715018848
01:53.5;-0.4194736439757091;-0.05734894761996895;-2.168318510483477;1.2670000000000001;0.052161876781430715
01:53.5;-0.4388474339447932;-0.030760089384803832;-1.8153857285162764;1.2670000000000001;0.024505867068351634
01:53.5;-0.4541811395313868;-0.018078057166198352;-1.4412170328642278;1.2670000000000001;0.01183341885720894
01:53.5;-0.4692917915391224;-0.016761969808659804;-1.0612412666682072;1.046;0.008347994251642522
01:53.5;-0.487337218266088;-0.023220563355981563;-0.6896727038208127;0.8440000000000001;0.007804505115537869
01:53.5;-0.5104045678884613;-0.033288801871777005;-0.33926956283857845;0.564;0.005764446541888492
01:53.5;-0.5392610150800232;-0.04270164774941929;-0.02120672736319614;0.36200000000000004;0.0004883343921506162
01:53.5;-0.5732714366952649;-0.047507325738226726;0.255049165489749;0.484;0.006946160186370344
01:53.6;-0.6104937304124746;-0.04438916475586208;0.4818914564190261;0.6970000000000001;0.013058924412979492
01:53.6;-0.6479655494687951;-0.030890817445312458;0.6537306629247447;0.9129999999999999;0.013085194215807653
01:53.6;-0.6821748268908283;-0.005551978162776105;0.7671235548961076;1.308;0.002905418896438425
01:53.6;-0.7096524858080661;0.03203063780730652;0.8208489143045029;1.308;0.018658406178364777
01:53.6;-0.7275660607820146;0.08119061572021419;0.8159128246502758;1.308;0.04819722416300144
01:53.6;-0.7341814195469438;0.1402005618512711;0.7554725595326695;1.308;0.07776279068234929
01:53.6;-0.7291108300225441;0.2062994825424986;0.6446729894643254;1.222;0.09696860823175167
01:53.6;-0.7133284164545661;0.27576503746595615;0.4903857300644591;1.052;0.09646428573084156
01:53.6;-0.6889695796849643;0.3440661544555667;0.30083634473899634;0.8340000000000001;0.07131359059763795
01:53.6;-0.6589517452284865;0.4061219506280601;0.0851158635039206;0.752;0.02277826207680421
01:53.7;-0.6264746256774797;0.4566707707951054;-0.1474023296666033;0.762;0.042170723138750615
01:53.7;-0.5944746522894048;0.4907180517255867;-0.3877004717943818;0.835;0.11309976574926332
01:53.7;-0.5651203043962042;0.5039980259146014;-0.6277601285465776;1.409;0.17879833711922327
01:53.7;-0.5394451126445298;0.4933792827653434;-0.8611319298318182;1.409;0.2291911610854105
01:53.7;-0.5172102708379444;0.45717131358106505;-1.0833018383722226;1.409;0.2561507267262664
01:53.7;-0.4970544810474321;0.3953182476554986;-1.2917356426580917;1.651;0.25381921589829076
01:53.7;-0.4769268663361939;0.30947322150646783;-1.4855814938801586;1.893;0.21926602544109886
01:53.7;-0.4547186649367798;0.20294258181494151;-1.6650908959017743;2.031;0.1536575515053507
01:53.7;-0.42892812542092945;0.08049332471016456;-1.8308235342064494;1.885;0.06321074032380102
01:53.7;-0.39914925351226804;-0.05197066687208078;-1.9827122339933725;1.525;0.04112948744072024
01:53.8;-0.36620809991034625;-0.18784844911894;-2.119151818982104;1.189;0.14577989433131178
01:53.8;-0.3318810055424176;-0.3203719797380068;-2.236393968889919;1.31;0.23778542690480625
01:53.8;-0.2982730007282084;-0.44317575114755725;-2.3285544819449173;2.7760000000000002;0.30780547225010146
01:53.8;-0.26705115514556343;-0.5508255390062721;-2.388357896211893;2.7760000000000002;0.35132409441347584
01:53.8;-0.23877156686832263;-0.639223266252943;-2.4084218875405683;2.7760000000000002;0.3675934367908077
01:53.8;-0.2124946051831268;-0.7058469611261668;-2.3826867135756644;3.051;0.3573760143510736
01:53.8;-0.18578378642515062;-0.7498372978156752;-2.307656930884076;3.128;0.32147417725900235
01:53.8;-0.15508709870731532;-0.771957863414874;-2.183264467015286;2.9960000000000004;0.2613819619813563
01:53.8;-0.11642315242941044;-0.7744392890478504;-2.013225533575894;2.661;0.181517776124322
01:53.8;-0.066223010923786;-0.7607094894115979;-1.8048123871107145;2.162;0.090920082177354
01:53.9;-0.002126920981937567;-0.7350265477225665;-1.5680694665136634;1.642;0.0024514310302541135
01:53.9;0.07646052176135365;-0.7020458337133054;-1.3146352935913233;1.197;0.07056803283213144
01:53.9;0.1681811914269638;-0.6663580340642004;-1.0564223168120317;0.634;0.11839207439419831
01:53.9;0.2699016467050603;-0.6320436579484168;-0.8044284693657353;0.634;0.1372271501801193
01:53.9;0.3771415683510888;-0.6023071037855037;-0.5679027884241525;0.634;0.12900198388641967
01:53.9;0.4846044358191491;-0.5792539607526362;-0.35396542197330705;0.738;0.09936129338703656
01:53.9;0.5867251875751361;-0.5638414289235373;-0.16763500809237858;0.885;0.055457008037576076
01:53.9;0.6782058922912615;-0.5559868504791852;-0.012128065797439726;1.013;0.004573172922280059
01:53.9;0.754504415653527;-0.5547915053971781;0.11070728333465447;1.112;0.04634125406351401
01:53.9;0.8122203615394624;-0.5588281657217656;0.1999255196670102;1.2;0.09074451696158177
01:54.0;0.8493279349880739;-0.5664432594692476;0.25505459221772664;1.25;0.12270576548465423
01:54.0;0.8652248911668142;-0.5760320568551992;0.2757453908021252;1.26;0.13743075101143346
01:54.0;0.8605891431005092;-0.5862543791062909;0.2615244045768903;0.996;0.13194537890517533
01:54.0;0.8370716370876717;-0.5961687435972644;0.2116751493354974;0.996;0.10563350843216567
01:54.0;0.7969026004726109;-0.6052750151287585;0.12528730944229924;0.996;0.06043173653469983
01:54.0;0.7425054036854256;-0.6134666454893396;0.0015074728027480386;0.996;0.0006866573277185316
01:54.0;0.6761740038747792;-0.6209007881878575;-0.1600168137921279;0.851;0.06718097456485249
01:54.0;0.5998226626192246;-0.6278016189371507;-0.3585615428954751;0.731;0.13502339064822524
01:54.0;0.5148134737711391;-0.6342249844576221;-0.591711836595215;0.6809999999999999;0.19319839236912612
01:54.0;0.42189538328994686;-0.6398284664991636;-0.8548084999382703;0.69;0.23074758442088933
01:54.1;0.32130004205583584;-0.6437012067954444;-1.1405591009445144;0.813;0.23589183023097576
01:54.1;0.21301538509089296;-0.6443084392192746;-1.4389220186021687;1.084;0.19748860845775498
01:54.1;0.0972123995740569;-0.6395965133028397;-1.7373612199427932;1.463;0.10802340789505616
01:54.1;-0.025247654936728793;-0.6272809117373753;-2.021521605274167;2.354;0.03201558968481884
01:54.1;-0.1523407343557629;-0.6052970354844786;-2.276282355256293;2.354;0.2098991711395643
01:54.1;-0.2805845891613454;-0.5723401003424736;-2.4870485658855115;2.863;0.3993946614194131
01:54.1;-0.4050619711757557;-0.5283773129675589;-2.6411065105708884;3.2969999999999997;0.5652642891561583
01:54.1;-0.5198639283376427;-0.4749905735138788;-2.7288832038411774;3.6310000000000002;0.6738443997385171
01:54.1;-0.618962215658519;-0.4154095266844675;-2.744941461475201;3.697;0.7057870372715789
01:54.1;-0.6973712297846539;-0.35415793496633813;-2.6885193181384293;3.563;0.6640093038495686
01:54.2;-0.7523010404787868;-0.2963639855563794;-2.563472738735181;3.293;0.5715388970558445
01:54.2;-0.7839257850437338;-0.2469013876854015;-2.3776161845503276;2.9339999999999997;0.460193233607776
01:54.2;-0.7954659138471294;-0.20956237450173054;-2.141609160037282;1.435;0.35700565962261427
01:54.2;-0.7925168768855977;-0.18642360196893187;-1.8676572780636336;1.435;0.2759348782547834
01:54.2;-0.7818539667238281;-0.17749651846685024;-1.5683483106167009;1.435;0.2176496651218916
01:54.2;-0.770099654311093;-0.18068974892904016;-1.2558633110409028;1.195;0.17475226601645094
01:54.2;-0.7625669739495898;-0.1920674422114581;-0.9416040706005914;1.0290000000000001;0.137911369968084
01:54.2;-0.7624454178163232;-0.20635626020354256;-0.636108620681241;0.892;0.10008239475572414
01:54.2;-0.770415138583481;-0.21762225890571668;-0.3490817500242426;0.7909999999999999;0.05852686564782017
01:54.2;-0.7847244644047162;-0.2200134742699985;-0.08939960586991293;0.8140000000000001;0.015434837998253981
01:54.3;-0.8016922832959431;-0.20845762251722524;0.13500305279280256;0.995;0.022561557273723016
01:54.3;-0.8165192515601831;-0.17921895758737694;0.31739532796784325;1.25;0.046446276735755014
01:54.3;-0.8242379467025662;-0.13025169676808002;0.45262795036704784;1.3780000000000001;0.048593408517684754
01:54.3;-0.8206181322845845;-0.0613432950504816;0.5375325903969139;1.3780000000000001;0.027059078945908407
01:54.3;-0.8028761753485524;0.025895454920384586;0.5712237106279311;1.3780000000000001;0.01187622294560017
01:54.3;-0.7700973469240459;0.12811700017314095;0.5552125422810371;1.3780000000000001;0.05477869183667327
01:54.3;-0.7233315679020937;0.2403724800071162;0.49330209858635243;1.0959999999999999;0.08576994398209228
01:54.3;-0.6653634488998758;0.3563282773337192;0.39127579902109166;0.823;0.09276672290133761
01:54.3;-0.6002115889248488;0.46860541155770163;0.25641052087073957;0.634;0.07211863813915671
01:54.3;-0.5324759511182223;0.5692518195911714;0.09685727736092882;0.617;0.029358690620466667
01:54.4;-0.4666830192133031;0.6503257658319878;-0.07905602772816726;0.746;0.023993187548715756
01:54.4;-0.4067553290017078;0.704550710596902;-0.2635421881635049;0.91;0.07552585600259208
01:54.4;-0.35567792614171245;0.7259885005273612;-0.4500335105754877;1.466;0.11620679095824171
01:54.4;-0.3153754770452067;0.7106631501830182;-0.6337390861378992;1.466;0.14203723531489107
01:54.4;-0.28676109477115896;0.6570579382412415;-0.811958435638268;1.466;0.15298811530180945
01:54.4;-0.2698860467925972;0.5664129032693942;-0.9840402379799859;1.624;0.15042721934348813
01:54.4;-0.2641165950228518;0.442768164761237;-1.1509567485269492;1.607;0.13459566755857466
01:54.4;-0.2682752846174654;0.29272495879863053;-1.3145398403504311;1.39;0.10323195946341254
01:54.4;-0.28070043183259924;0.12492984688101182;-1.4764607848454232;1.102;0.05177632300453842
01:54.4;-0.2992104391230702;-0.05067372542994943;-1.6370939284306074;0.85;0.024821794356212616
01:54.5;-0.3210072565024108;-0.22374905183888755;-1.794500806586178;0.862;0.1288901447485617
01:54.5;-0.3425949110365578;-0.3845279389061078;-1.943839714789971;1.138;0.25607622485685705
01:54.5;-0.3598041658094908;-0.5247224934733579;-2.0774672320103735;2.699;0.39222028535810616
01:54.5;-0.36798892412836726;-0.6382670563598803;-2.1857964027738825;2.699;0.5133893833842191
01:54.5;-0.36240245911070557;-0.7217709364078342;-2.2586781150053383;2.699;0.5908059632043754
01:54.5;-0.33871164892509614;-0.7746062450711635;-2.286909997482767;2.975;0.6000123647765067
01:54.5;-0.2935830752531716;-0.7986420422751137;-2.263562430011253;2.949;0.530732473242939
01:54.5;-0.22524848496048525;-0.7977204102435088;-2.1849666541943797;2.7680000000000002;0.3926064189657068
01:54.5;-0.13392765856806868;-0.7770059696648315;-2.051285706914798;2.565;0.21346210392358209
01:54.5;-0.021997185999008618;-0.7423185992456617;-1.866633817618494;2.33;0.030480114833687184
01:54.6;0.10614751114801364;-0.699509566398957;-1.638762110021695;2.045;0.12168005236012473
01:54.6;0.24452426769852614;-0.6539084290913426;-1.378352854598836;1.7309999999999999;0.22039376932501875
01:54.6;0.38623082336719994;-0.6098702961455705;-1.0979772693760217;0.981;0.2586293216624568
01:54.6;0.5242355131356775;-0.5704669312225082;-0.8108508550045909;0.981;0.24249226564484988
01:54.6;0.6521237847276284;-0.5373576123262602;-0.5296552524453909;0.981;0.18560374264154988
01:54.6;0.7646367858904093;-0.5108452476592207;-0.2657151216181892;0.981;0.10379126750746216
01:54.6;0.857938179316271;-0.4900952760000928;-0.028633658734630675;1.051;0.012039635972108876
01:54.6;0.9296533653184589;-0.4734810298791075;0.17372413593529382;1.121;0.07646871453724526
01:54.6;0.9787585310638199;-0.4590093279509423;0.3350769852654713;1.1740000000000002;0.1505364503620365
01:54.6;1.0053775250771133;-0.444768503165443;0.4505306768199956;1.227;0.2014594132083102
01:54.7;1.0105244315105884;-0.4293349539598452;0.5164108262569747;1.246;0.2240466238965564
01:54.7;0.9958216738630994;-0.41207859228891275;0.5301589346408332;1.255;0.2175543204838304
01:54.7;0.9632200099281418;-0.39332116999262934;0.49030071292090754;1.0070000000000001;0.1857527889598745
01:54.7;0.9147468746163866;-0.37432528643858964;0.3964881439415149;1.0070000000000001;0.13576264957612408
01:54.7;0.8523116856362747;-0.357121905973372;0.24962299547901043;1.0070000000000001;0.07598004108988692
01:54.7;0.7775879471816067;-0.3442027019877517;0.052059966524772856;0.845;0.013933739280330803
01:54.7;0.6919698619196648;-0.3381045231219283;-0.19214878797949414;0.687;0.04495477307334966
01:54.7;0.5965881378095339;-0.34091963177262935;-0.47703485244167976;0.617;0.09702345473055553
01:54.7;0.492377756317542;-0.3537918461262149;-0.7945855042449937;0.706;0.13841618729865982
01:54.7;0.3802011044594693;-0.37648976928088596;-1.134758762839516;0.961;0.16243144149387748
01:54.8;0.26102594855708405;-0.40716697770272725;-1.4856856141995811;1.355;0.15790037052856382
01:54.8;0.13614309584500042;-0.4424214548042373;-1.8340854842376084;1.774;0.11047178598755383
01:54.8;0.007392593639489535;-0.47773416048639283;-2.1658781228382935;2.752;0.0076492198891391595
01:54.8;-0.1226436446217364;-0.5082562580397249;-2.4669093073444923;2.752;0.1537733112509413
01:54.8;-0.2505294646574192;-0.529745708571597;-2.7236606718533616;2.752;0.36147582491499064
01:54.8;-0.3719994432762702;-0.5393659134831615;-2.923859044984461;2.752;0.5866542465762153
01:54.8;-0.48219675547820373;-0.5361380310733582;-3.05702915735145;3.17;0.7903154641789261
01:54.8;-0.5761815538757313;-0.5209838312458961;-3.1151060264268753;3.623;0.9350964938866235
01:54.8;-0.6496672854428945;-0.4963921011132286;-3.0931397002162884;3.861;0.9975057213412886
01:54.8;-0.6998020503930957;-0.465794868533617;-2.989963325604344;3.7910000000000004;0.9746210156064095
01:54.9;-0.7257397953825688;-0.4327853876594784;-2.8086092365865363;3.4410000000000003;0.8821548918090164
01:54.9;-0.7287991501574388;-0.40034415603314866;-2.5563061396372757;2.9739999999999998;0.7458546711462625
01:54.9;-0.7121543068362127;-0.3702398402739251;-2.2440226856488334;1.7890000000000001;0.5916767419266464
01:54.9;-0.6801738547456428;-0.34271934467547754;-1.8856739607939574;1.7890000000000001;0.4395670768347827
01:54.9;-0.6376396338363147;-0.31651142744396654;-1.4972082203895136;1.7890000000000001;0.3021669084455172
01:54.9;-0.5890719680288218;-0.2890975824266069;-1.0957459184945142;1.383;0.1866047429904166
01:54.9;-0.5382803815428886;-0.25718179855408685;-0.6987726729118433;0.9309999999999999;0.09673523550562585
01:54.9;-0.48814900787595195;-0.2172863183623186;-0.3232799279836267;0.589;0.03428968796651312
01:54.9;-0.44061621444353616;-0.1663844782148328;0.015194163707047577;0.6679999999999999;0.001113909955232562
01:54.9;-0.3968029707887929;-0.1024680512867944;0.30354303886572676;0.983;0.012341946787760813
01:55.0;-0.35724801875759166;-0.024956809696994674;0.5319259131704467;1.196;0.004742529534388184
01:55.0;-0.3222011363026438;0.06510906982812589;0.6942845957897918;1.242;0.014564852411899124
01:55.0;-0.29191091269561814;0.16510855162865484;0.7884281962041664;0.9009999999999999;0.03799986431113427
01:55.0;-0.2668401629629515;0.27107196585710946;0.8156878186105664;0.9009999999999999;0.059001055254567725
01:55.0;-0.24776286196598754;0.3780180958387891;0.7802690131541357;0.9009999999999999;0.0730790947953489
01:55.0;-0.23572575098786253;0.4803091368125689;0.688481590317721;0.748;0.0779507338523374
01:55.0;-0.23187951315685512;0.5719935764837899;0.5479835121168206;0.67;0.07268102159289117
01:55.0;-0.23720860044624015;0.6471563049297667;0.36711288223764216;0.679;0.056355880849834276
01:55.0;-0.25222076781448066;0.7002942211263032;0.1543528079283799;0.745;0.027263142928893067
01:55.0;-0.27667694123831;0.7267106645616305;-0.08204770886948946;0.8240000000000001;0.016496847414700817
01:55.1;-0.3094348450235646;0.7229031453806587;-0.33431038132885815;0.904;0.07478236484219222
01:55.1;-0.34845462245263376;0.6869081282086782;-0.595270505154469;0.991;0.14248175303866625
01:55.1;-0.39098069590369544;0.6185637932137888;-0.8584832616357994;1.6119999999999999;0.20762117413680475
01:55.1;-0.4338651644760384;0.5196612416404771;-1.1183064829357667;1.6119999999999999;0.2521366339997424
01:55.1;-0.4739421077281142;0.3939681126528772;-1.3698963883020057;1.6119999999999999;0.25578442025599374
01:55.1;-0.5083439495559494;0.2471049924993909;-1.6090391391845833;1.851;0.20211836994035673
01:55.1;-0.5346901134276614;0.08624063744672489;-1.8318207574424348;1.974;0.084468948476503
01:55.1;-0.5511285445645423;-0.08041219480920939;-2.0342073849901086;1.902;0.09015089605630647
01:55.1;-0.5562396490016953;-0.24426450478619216;-2.2116189247295766;1.723;0.3004917839762488
01:55.1;-0.5488436009683313;-0.39709649443929335;-2.358607613624133;1.8259999999999998;0.5140440709831039
01:55.2;-0.5277974269026097;-0.5317716331958092;-2.468814562851118;2.21;0.6929165043426336
01:55.2;-0.49189066637437534;-0.6428088985962942;-2.5353721264969247;2.715;0.801663616425381
01:55.2;-0.4399122672293866;-0.726733905518839;-2.551780985900739;3.326;0.8158022378221371
01:55.2;-0.37088234903523165;-0.7821926535141454;-2.513076730248996;3.326;0.7290472002234981
01:55.2;-0.2843710809861821;-0.8098649898680732;-2.4169473747040375;3.326;0.5566282556760004
01:55.2;-0.18079875056455097;-0.8122293335331789;-2.2644688547155134;2.812;0.33253736153726254
01:55.2;-0.06162850970575076;-0.7932198807809342;-2.0602761763685282;2.2319999999999998;0.10071651666078049
01:55.2;0.07058992857694052;-0.7578050692121586;-1.8121931985486315;1.814;0.0969403859965494
01:55.2;0.2123151747556303;-0.711512654610439;-1.5305056748882582;1.5659999999999998;0.23120573815824058
01:55.2;0.3592055996947704;-0.6599351705144029;-1.227106591713726;1.36;0.29088857327811657
01:55.3;0.506366047163652;-0.6082615643625038;-0.9146670425302634;1.1540000000000001;0.28172019674797655
01:55.3;0.6486298045071509;-0.5608842021857365;-0.6058713458102706;0.9390000000000001;0.22041975831820002
01:55.3;0.7808719386116987;-0.5211216137936758;-0.31269777017228595;1.1740000000000002;0.12724586747170677
01:55.3;0.8983361116408454;-0.49107960655149685;-0.045770994712129774;1.1740000000000002;0.020192082312354535
01:55.3;0.9969209630576347;-0.47165135507468453;0.1860929415297424;1.1740000000000002;0.08750073792768678
01:55.3;1.073367626766098;-0.46263864837167856;0.37601895695921883;1.1740000000000002;0.18672400054028584
01:55.3;1.1253406652948408;-0.4629684622524007;0.5188761613243894;1.2890000000000001;0.2703330465620676
01:55.3;1.1514447754438193;-0.47097585235883577;0.6108822424126339;1.37;0.33128308000965945
01:55.3;1.1512168841946009;-0.4847146187368603;0.6491813647114302;1.4369999999999998;0.3622507664881188
01:55.3;1.125095942929542;-0.5022446402262603;0.6315365560736563;1.475;0.3568645134340092
01:55.4;1.074342005669457;-0.5218436653439368;0.5562235276113597;1.4409999999999998;0.3118403631601615
01:55.4;1.0008682276687586;-0.5421061727774167;0.4221517453272689;1.3230000000000002;0.22904976181905867
01:55.4;0.9069693938085095;-0.5619174213014108;0.22918230821814803;0.725;0.11680090768693722
01:55.4;0.7949876633115932;-0.5803238043368261;-0.021411444343402773;0.725;0.00987817552558352
01:55.4;0.6670258113837533;-0.596352468233199;-0.3263842094565082;0.725;0.12982992320593367
01:55.4;0.5248281407531237;-0.6088455495149407;-0.6799148057755788;0.655;0.2172594859743227
01:55.4;0.3698783113886751;-0.6163635780468577;-1.0730715072598378;0.86;0.24463832655999865
01:55.4;0.20368695704690534;-0.6171967873861388;-1.493495434494974;1.288;0.18775468224965094
01:55.4;0.028210205787277034;-0.6095114311566969;-1.925407842212555;1.745;0.033106315207196264
01:55.4;-0.15367973666222073;-0.5916406221069477;-2.349971642652475;2.013;0.21366688291948852
01:55.5;-0.3377906494513624;-0.5624940377935245;-2.746007845000237;2.166;0.5217558421173735
01:55.5;-0.5184443154468054;-0.5219975216585302;-3.091120044798205;2.406;0.8365394556129665
01:55.5;-0.6887354027033208;-0.4714003463842009;-3.3633448871952725;4.774;1.091977545753664
01:55.5;-0.8412795482453163;-0.41329222458222153;-3.5433289159814603;4.774;1.2319952529025924
01:55.5;-0.9692585140131393;-0.351305288427126;-3.616688329812514;4.774;1.2315027810268118
01:55.5;-1.0674143371831832;-0.2896136503866704;-3.5759725032154073;4.774;1.1054681390016137
01:55.5;-1.1327503670649677;-0.23234478172143755;-3.4217894930089656;4.637;0.9005761120151697
01:55.5;-1.1648892513375932;-0.1829533060830324;-3.1629479937897456;4.0;0.6740885510569113
01:55.5;-1.166104264641794;-0.1436184646355446;-2.815659377196232;3.295;0.47155003162647313
01:55.5;-1.1410188768864926;-0.11479347555897368;-2.4019604968544197;2.622;0.3146124429978318
01:55.6;-1.0959854443943224;-0.09504882002861077;-1.9476236753179226;1.975;0.20288809356583237
01:55.6;-1.0382281002259586;-0.08127739037790285;-1.479852333314226;1.452;0.12487655571788826
01:55.6;-0.9749076309020746;-0.06922162482446374;-1.025008965613755;0.6759999999999999;0.06917241256309772
01:55.6;-0.9122841426740507;-0.05419880888016885;-0.6065785541200566;0.6759999999999999;0.029992103062216863
01:55.6;-0.8551105994924697;-0.03186371154522838;-0.24356556214770866;0.6759999999999999;0.006636430258417621
01:55.6;-0.8063172792033565;0.0011360181408064678;0.05054308886320899;0.785;4.629701736257747e-05
01:55.6;-0.7669805090588164;0.04670055822831407;0.26826515875082374;1.021;0.009608833570392925
01:55.6;-0.7365273454202925;0.1050441006725399;0.4081572929902712;1.165;0.0315782532900159
01:55.6;-0.7131054171097574;0.1746749998784681;0.4744418864280395;1.182;0.05909728253833617
01:55.6;-0.6940326605587058;0.25255319822003713;0.47621368452899926;1.12;0.0834708146725549
01:55.7;-0.6762380613600942;0.33437496908149894;0.4262376974949483;0.965;0.09637962390962529
01:55.7;-0.6566228300437764;0.4149371427314253;0.3394192902950349;0.792;0.09247722978241991
01:55.7;-0.6323131115008315;0.48854793199125734;0.23109245278961782;0.953;0.07138798582959244
01:55.7;-0.6008246940635894;0.5494620637476405;0.11533035892794763;0.953;0.038074054797547496
01:55.7;-0.5601905133206238;0.5923131110518233;0.003516910750829785;0.953;0.0011669397755954042
01:55.7;-0.5090944810099836;0.6125151866492224;-0.09662563783657843;0.953;0.03013058916009047
01:55.7;-0.4470202414212359;0.6066262742467208;-0.18148114983422559;0.972;0.04921300989820349
01:55.7;-0.374391160382242;0.5726819384936933;-0.25150011135541384;0.97;0.0539233983292617
01:55.7;-0.29266660765417585;0.5104930789362008;-0.31076724794971156;0.9640000000000001;0.04642995619508979
01:55.7;-0.20436308197852632;0.4218658213172605;-0.3662670413440736;0.965;0.0315772732387183
01:55.8;-0.11297230073224297;0.31067279373118145;-0.4269228021940502;0.956;0.014983889016883302
01:55.8;-0.02274659853349497;0.18269539501037235;-0.5024603490962797;0.904;0.0020880738719069813
01:55.8;0.061672903491654836;0.045177301594783205;-0.6021242620761939;0.556;0.0016776478683891206
01:55.8;0.13577183455465408;-0.09389168885202365;-0.7332896242337648;0.556;0.009347863822667248
01:55.8;0.19574168336133646;-0.22662347985885398;-0.9000803162108744;0.556;0.039927258093020675
01:55.8;0.23900769867205382;-0.3460232409748704;-1.1021784046444953;0.87;0.09115259926061181
01:55.8;0.2646128815281377;-0.44660403281186434;-1.3340436799284041;1.099;0.15765352012335795
01:55.8;0.2733843009182118;-0.5247808660421898;-1.5847661515889864;1.262;0.22736140806919156
01:55.8;0.2678070016055461;-0.5790157463936326;-1.8387298173036655;1.6909999999999998;0.2851216662925159
01:55.8;0.2515781924215475;-0.6097015790620596;-2.07711952554405;2.47;0.31860442292349284
01:55.9;0.22892516649985878;-0.6188296253065584;-2.2800740089084526;3.12;0.3230082235410085
01:55.9;0.20386720735553548;-0.6095325441344115;-2.4290871359080124;3.437;0.3018473492154984
01:55.9;0.1796193850496212;-0.5855950218164644;-2.5091947054054287;3.105;0.26392768216209656
01:55.9;0.15827135265286418;-0.5509997078163426;-2.5105933119082633;3.105;0.21894248858912516
01:55.9;0.14076631845318666;-0.5095569402425549;-2.4295492042576585;3.105;0.17426780960221974
01:55.9;0.12711946679399833;-0.4646473822721232;-2.268621010273503;2.719;0.13399775035198158
01:55.9;0.11678860193313734;-0.4190799960315939;-2.0362707752424876;2.292;0.09966276203573039
01:55.9;0.1091104875966821;-0.3750481346561724;-1.7459489761365792;1.8219999999999998;0.07144717375614515
01:55.9;0.10370932930626889;-0.33416195301253426;-1.4147831774516855;1.341;0.0490303183778478
01:55.9;0.10078545801294933;-0.29753573642240405;-1.062047080175103;0.904;0.031847898355906415
01:56.0;0.10122163833761433;-0.26590680404044437;-0.7075937827030503;0.5479999999999999;0.01904525627313062
01:56.0;0.10649025552517614;-0.23976133170409197;-0.37040735580223366;0.335;0.009457331535282958
01:56.0;0.11838881987323965;-0.21944532207900402;-0.06738318019517008;0.579;0.0017506064441062358
01:56.0;0.13866480947659482;-0.20524562112929903;0.18758357013492638;0.579;0.005338693112954934
01:56.0;0.16860859316828453;-0.19743354980190742;0.3841398566983692;0.579;0.012787629029970589
01:56.0;0.20869064233329046;-0.1962686261744771;0.5156326583035992;0.603;0.0211200175388638
01:56.0;0.25830333938998384;-0.2019615301375201;0.5789517421070021;0.601;0.030202371020980983
01:56.0;0.315653035294071;-0.21459822138963655;0.5741818209755065;0.585;0.03889426118618564
01:56.0;0.3778320626782994;-0.23403273526492696;0.5041790703741595;0.584;0.044582070144660285
01:56.0;0.4410678943660085;-0.2597627091789061;0.37414666487051224;0.622;0.042867102531373366
01:56.1;0.5011016746205725;-0.29080936564025534;0.19124789603255093;0.7;0.02786961114672298
01:56.1;0.553614506379478;-0.3256312869111289;-0.03573473098324104;0.7609999999999999;0.006442050189054819
01:56.1;0.5946154396205509;-0.36210195490996433;-0.2967111608518956;0.845;0.06388529932741728
01:56.1;0.6207351273528707;-0.397571021812472;-0.5805868869153535;0.845;0.14328088898650138
01:56.1;0.6294214517438108;-0.4290163720414983;-0.8755590830546303;1.0979999999999999;0.23642906462382285
01:56.1;0.6190763286209854;-0.4532886289636448;-1.1694042453537432;1.0979999999999999;0.3281585236387478
01:56.1;0.5891814251379921;-0.4674504094088125;-1.449791362564676;1.508;0.39929153119288774
01:56.1;0.5404364184455631;-0.4692029601516493;-1.7046879481424166;1.974;0.4322651679084911
01:56.1;0.4748836956446234;-0.4573489583014573;-1.9229089462033988;2.416;0.41763190889175583
01:56.1;0.3959284994094524;-0.43216355191418865;-2.0947958160660614;2.611;0.35843185347656337
01:56.2;0.308132042337954;-0.3955028347122182;-2.212941506449484;2.844;0.2696847554743031
01:56.2;0.21671757968583527;-0.35054841995567354;-2.2728123629459036;3.08;0.17266556688499937
01:56.2;0.12686903338291589;-0.3012412844659024;-2.273080779476432;2.056;0.08687303442289317
01:56.2;0.043015839522979195;-0.2515803424479341;-2.215549480933866;2.056;0.02397654274739487
01:56.2;-0.03169758213549145;-0.20497939510968943;-2.1047377036873596;2.056;0.013675220071200622
01:56.2;-0.09564900117868634;-0.16381131340114924;-1.9473421805091353;2.056;0.03051171384337936
01:56.2;-0.1486784115137015;-0.12918119446152962;-1.751733468531943;1.713;0.03364458966745852
01:56.2;-0.19179506942540608;-0.10090971729678322;-1.5275076601559863;1.538;0.029563362227957926
01:56.2;-0.22674893172639574;-0.07768462842840489;-1.2850538546278667;1.392;0.02263610350663298
01:56.2;-0.2555710973086055;-0.057333975344321705;-1.0351099925076264;1.158;0.015167370446510325
01:56.3;-0.2801659560251754;-0.03717492711715194;-0.7882841769345337;0.836;0.008210097153917535
01:56.3;-0.30200140384261465;-0.014394478075673577;-0.554517275418608;0.488;0.0024105712080589787
01:56.3;-0.3219177303838187;0.013576920664264192;-0.34249670546101696;0.327;0.0014969337346188742
01:56.3;-0.34006157607212956;0.04872877567918076;-0.15910291330782805;0.327;0.002636460051168114
01:56.3;-0.35593589766568773;0.0921876228920951;-0.009027659517231348;0.327;0.0002962235473087948
01:56.3;-0.3685457085424886;0.14399697990758284;0.10532157389095075;0.375;0.005589359999375121
01:56.3;-0.37662178825475695;0.20297557312412998;0.1836204169921576;0.42;0.014036867059368933
01:56.3;-0.37890706250502937;0.26667753106009673;0.2272123411130235;0.494;0.022958898204218744
01:56.3;-0.37447822540832837;0.3314741761241341;0.23858845884689567;0.5870000000000001;0.02961595229100228
01:56.3;-0.3630553142534239;0.3927613489425311;0.22085560342915456;0.679;0.03149270488935535
01:56.4;-0.3452383748881433;0.44527769817149715;0.17726031738941345;0.6970000000000001;0.02724968775166468
01:56.4;-0.3226120181955814;0.4835056909237209;0.11081082881828272;0.6729999999999999;0.017284799071258447
01:56.4;-0.29768258500260114;0.5021230077651506;0.024020606303003747;0.624;0.0035904386901738617
01:56.4;-0.27366062780460215;0.49647496946792025;-0.08120823919012206;0.624;0.01103341035184609
01:56.4;-0.2541534903198115;0.46304072915371697;-0.20354573790060201;0.624;0.02395395804854176
01:56.4;-0.24284966244245298;0.39986431992296634;-0.34204501023483636;0.654;0.03321493577475071
01:56.4;-0.24324763639041863;0.30691702297004936;-0.4958506223939894;0.7040000000000001;0.0370186407810103
01:56.4;-0.25844163008543114;0.1863492644958701;-0.6638772129704167;0.815;0.031972597227135725
01:56.4;-0.2909487373078906;0.04258419855678279;-0.8445171636929982;0.9640000000000001;0.010463414631109455
01:56.4;-0.3425401054597111;-0.11779069369203773;-1.0353991776988414;1.165;0.041776323958242136
01:56.5;-0.4140220444057871;-0.28636673441050603;-1.2331893928637856;1.4180000000000001;0.1462095744673293
01:56.5;-0.5049126641305366;-0.4535117981037273;-1.4334145355204508;1.5090000000000001;0.32822877926921273
01:56.5;-0.6129905459010075;-0.6092115743478937;-1.630296684538696;1.71;0.6088195190635136
01:56.5;-0.7337762291093054;-0.7440664397688049;-1.8166341211817134;1.71;0.991842748130164
01:56.5;-0.8601285012854999;-0.8502611420844898;-1.9838379426546058;1.71;1.4508478241943743
01:56.5;-0.982209211609388;-0.9223091654235102;-2.1222904520685533;2.168;1.922584105256669
01:56.5;-1.088027151889776;-0.9574652112947797;-2.2221592504279033;2.9130000000000003;2.3149302812024106
01:56.5;-1.1646333355887173;-0.9557980450221685;-2.2746432116188324;3.6010000000000004;2.532028793102291
01:56.5;-1.199844761216796;-0.9199610609025682;-2.2733966371671155;3.955;2.5093989865775903
01:56.5;-1.184160481432763;-0.8547282348539712;-2.2157244643689635;3.967;2.2426131627771375
01:56.6;-1.1123932456999226;-0.7663942570916216;-2.103183637540066;3.468;1.7930309220041347
01:56.6;-0.9845663169588704;-0.6621368368399287;-1.9414339639291511;2.7289999999999996;1.2656550222959198
01:56.6;-0.8058368985598707;-0.549403149878722;-1.7394328081653017;1.146;0.7700979223605299
01:56.6;-0.5855464952529134;-0.4353539558774336;-1.5082625218089964;1.146;0.38448625650735413
01:56.6;-0.33580412643131474;-0.32640444600142926;-1.2599505828008712;1.146;0.1381006128961589
01:56.6;-0.07006135958575133;-0.2279029955687638;-1.0065462777949;0.9309999999999999;0.016071719408930187
01:56.6;0.19807165551657205;-0.14395361417919258;-0.7595186252502407;0.825;0.021656253814185573
01:56.6;0.4557327177077302;-0.07735238059249695;-0.5293985993639649;0.83;0.018662365051534558
01:56.6;0.6914558527993312;-0.0296093227816293;-0.32557515708680423;0.887;0.006665675850159597
01:56.6;0.8955724200167421;-0.0010430937721197442;-0.15619379838344374;0.961;0.00014591093801640358
01:56.7;1.0603992674353675;0.009059100424817002;-0.028121505362948173;1.067;0.0002701425892423486
01:56.7;1.1802807039313288;0.00222695039087954;0.053068369562264434;1.181;0.00013948631284764967
01:56.7;1.251555297409755;-0.019444592888876146;0.08314473445899447;1.253;0.002023408863959834
01:56.7;1.2724970376376974;-0.05355316272128605;0.059343920519219474;1.253;0.004044065104778704
01:56.7;1.2432557580914436;-0.09760909322174441;-0.01940888161874472;1.253;0.002355327315162638
01:56.7;1.1658058152087727;-0.149180209387607;-0.1521902488311858;1.253;0.0264681908090383
01:56.7;1.043897307977725;-0.20595349514050657;-0.3357217256056938;1.178;0.07217825710460742
01:56.7;0.8829845914005833;-0.26573355501456636;-0.5640410966889055;1.084;0.13234583272668926
01:56.7;0.690092812909087;-0.3264011939636433;-0.8283049860668846;0.9690000000000001;0.1865733110022433
01:56.7;0.47358622724815896;-0.38584524344790605;-1.1168349989610722;0.917;0.20408036854052636
01:56.8;0.24282240895734655;-0.4418824158986428;-1.4155039169181822;1.1159999999999999;0.15188208783429774
01:56.8;0.007707679336544387;-0.4921997191305942;-1.7085173239106421;1.5019999999999998;0.006481632249476762
01:56.8;-0.22179940755193184;-0.5343702143150882;-1.9795740592594082;2.8310000000000004;0.23462505018490373
01:56.8;-0.43616796504645267;-0.5659778032783731;-2.21326906542714;2.8310000000000004;0.5463706706700445
01:56.8;-0.6266920588874694;-0.5848433778772998;-2.396472602713877;2.8310000000000004;0.8783472314456598
01:56.8;-0.7857881657978281;-0.5893107762771896;-2.5194095181126563;3.016;1.16667161714361
01:56.8;-0.9072558922269561;-0.5785381577087766;-2.576309770654106;3.077;1.3522590178231504
01:56.8;-0.9866087741986093;-0.5527166279355833;-2.565653460630622;3.1839999999999997;1.3990895087092676
01:56.8;-1.0215381379610489;-0.5131126221009218;-2.49007001841433;3.278;1.3052053413777736
01:56.9;-1.012450209306597;-0.46186970345547884;-2.3559183652278466;3.145;1.1016747295584057
01:56.9;-0.9628748673543358;-0.4016148611601618;-2.1725557365195236;2.782;0.8401378536058356
01:56.9;-0.8794816510312915;-0.3350028204467984;-1.9513293945633112;2.322;0.5749179035416627
01:56.9;-0.7715277265169216;-0.264333402910573;-1.704391052823251;0.9740000000000001;0.34759444768830355
01:56.9;-0.6497862591143396;-0.19132401849977868;-1.443513917101188;0.9740000000000001;0.1794572434779668
01:56.9;-0.5252376283049228;-0.11706489150321434;-1.1791392187008012;0.9740000000000001;0.07250159868409753
01:56.9;-0.40787265425750835;-0.04213995636123733;-0.919821510698534;0.799;0.015809649156279276
01:56.9;-0.305819361036584;0.03313893719235254;-0.6720857887323983;0.65;0.006811272645946854
01:56.9;-0.22483430475064908;0.10845574946182593;-0.44057975812741346;0.48;0.010743349286038092
01:56.9;-0.16812870434814986;0.18324299117066167;-0.22838145432384366;0.284;0.007036068724441103
01:57.0;-0.1364890538221344;0.2565183635145012;-0.037360216137217954;0.17800000000000002;0.0013080539717174409
01:57.0;-0.1286400346849854;0.32683434598686595;0.13147038616664064;0.306;0.005527538497460351
01:57.0;-0.14178164133491605;0.3923426678299726;0.2776381155725457;0.496;0.015444171959671502
01:57.0;-0.17221882953149545;0.4509515135325563;0.4009448704033772;0.851;0.031138317582671098
01:57.0;-0.21598860387866992;0.50053273489791;0.5012404137467826;0.851;0.05418878364758025
01:57.0;-0.26938523590222846;0.5391264476264942;0.5782227516271485;0.851;0.08397685447036146
01:57.0;-0.32930911782884603;0.5651039612289562;0.6312618136171543;0.885;0.1174739645815808
01:57.0;-0.3934176496490437;0.577281734431128;0.6592697097671951;0.927;0.14972860499935603
01:57.0;-0.4601066288014667;0.5750024926954895;0.6606520423525064;0.961;0.17478372851573412
01:57.0;-0.5283753339846327;0.5582003001914806;0.6333551541899712;0.996;0.18680130685539248
01:57.1;-0.5976316023836333;0.5274522005802832;0.5749961088873916;1.024;0.18125148312809913
01:57.1;-0.6674867807975349;0.48399891296508957;0.4830500415074281;0.915;0.15605553581809453
01:57.1;-0.7375869517098897;0.4296994679293074;0.3550735659544295;0.8490000000000001;0.11253727189559144
01:57.1;-0.8075254841557832;0.3668896180132064;0.18895600663231324;1.061;0.05598250936842375
01:57.1;-0.8768523909715907;0.29815617060998073;-0.016777294877276236;1.061;0.004386238374713462
01:57.1;-0.9451299603741357;0.2260941970707107;-0.2625406301585751;1.061;0.056101887067102084
01:57.1;-1.0119463235307178;0.1531252355921337;-0.5470845040731412;1.061;0.0847732162889112
01:57.1;-1.0768371375537786;0.08140581011898455;-0.8667597234915583;1.214;0.07598085037794405
01:57.1;-1.139126135297063;0.012800441459357208;-1.214813173504519;1.364;0.017713576476346905
01:57.1;-1.1977123424457423;-0.05111939689821187;-1.5809166234142569;1.5730000000000002;0.09679372700335943
01:57.2;-1.2508208532698588;-0.10907214068778329;-1.9510912631852528;1.7830000000000001;0.266186811479779
01:57.2;-1.2957444858337666;-0.16006895367543525;-2.308130783116366;1.85;0.47872586061760736
01:57.2;-1.3286576199031486;-0.20343280221169927;-2.6325815754069652;2.0669999999999997;0.7115671681368183
01:57.2;-1.3446527683500695;-0.23883924350800312;-2.9042948657968375;4.077;0.9327312861991574
01:57.2;-1.3381382482439563;-0.26636640570671927;-3.1044386508058555;4.077;1.106530824957835
01:57.2;-1.3035834961777728;-0.2865254019391093;-3.217643592038346;4.077;1.2018213669237436
01:57.2;-1.2364343402565035;-0.30024611164558557;-3.233860510892538;4.077;1.2005209228121423
01:57.2;-1.133996204206506;-0.3088136737801145;-3.149651008597059;4.448;1.102987417169518
01:57.2;-0.9961359440332653;-0.31377144743985025;-2.9688167972063257;4.293;0.9279304598062428
01:57.2;-0.8256627111470625;-0.31681714487455925;-2.7023070334052868;3.6039999999999996;0.7068805607558946
01:57.3;-0.6282649789240632;-0.3197155821241736;-2.367328795615595;2.655;0.47551611079565037
01:57.3;-0.41199323520010844;-0.32423154776265595;-1.9856859861876015;1.7690000000000001;0.2652503254296845
01:57.3;-0.18642925844290817;-0.3320624384529462;-1.5815627167966382;1.047;0.09790846535580926
01:57.3;0.03824400674689891;-0.3447447622374837;-1.1791200155171349;0.528;0.015546014709395721
01:57.3;0.25208428492121215;-0.3635284377345489;-0.8003234972152485;0.528;0.07334149024200715
01:57.3;0.4460279978445804;-0.3892416598141058;-0.46336067549841853;0.528;0.08044528784796695
01:57.3;0.612298161831305;-0.4221839671121488;-0.18183343788338344;0.701;0.04700439227911284
01:57.3;0.7446412682835187;-0.4620775626951463;0.03532121182657322;0.8809999999999999;0.012153393996457323
01:57.3;0.838483981264341;-0.5080852300161608;0.1833882456078652;1.023;0.07812730365572221
01:57.3;0.8910648886107417;-0.55888144451912;0.26114664017144873;1.131;0.13005093073137106
01:57.4;0.9015425698057504;-0.6127532358934602;0.27005897397824896;1.2429999999999999;0.14918682286440105
01:57.4;0.871046650599096;-0.6677103272709055;0.21353448190702357;1.321;0.1241931161369602
01:57.4;0.802620560854473;-0.7215902656076258;0.09636681965817141;1.298;0.0558121140752219
01:57.4;0.7009988191203493;-0.7721481167243205;-0.07561047134234498;1.176;0.040926051676506356
01:57.4;0.5721849138827456;-0.817126928897329;-0.2956553703698445;0.975;0.13823298883551946
01:57.4;0.422870461708278;-0.8543151912156769;-0.5560665537535846;0.975;0.20088719411981307
01:57.4;0.2598301326667443;-0.8816034273333689;-0.8479970264628297;0.975;0.19424824975035404
01:57.4;0.08944373178542804;-0.8970529036958734;-1.1612163497962804;1.19;0.09317107555549305
01:57.4;-0.08258790834433002;-0.8989875913856787;-1.483958677145379;1.507;0.11017726108707374
01:57.4;-0.25134807497760714;-0.8861118046577605;-1.8029989223547531;1.835;0.40156842084129823
01:57.5;-0.4126557368686759;-0.8576420194146197;-2.104033027634095;2.174;0.744640221368921
01:57.5;-0.5628816025153713;-0.8134331893307866;-2.372357788781643;2.438;1.0862233405238881
01:57.5;-0.6986788559408639;-0.7540790350929477;-2.593801128551686;2.695;1.3665676698791296
01:57.5;-0.8167366158426255;-0.6809643664808496;-2.755831662614114;3.513;1.532706850756026
01:57.5;-0.9136861006066328;-0.5962488481107316;-2.848729773561538;3.513;1.5519432129091562
01:57.5;-0.9862364888732457;-0.502773567549856;-2.8666285453204345;3.513;1.4214281928732377
01:57.5;-1.0315397751421282;-0.40388985649888415;-2.808210651298953;3.615;1.1699804558527105
01:57.5;-1.0477355435640048;-0.3032061110114715;-2.6769187595925588;3.53;0.8504030684506136
01:57.5;-1.034567145409377;-0.2042654199250536;-2.4806330720011904;3.136;0.524222989905154
01:57.5;-0.9938762210225002;-0.11021412821998762;-2.2308458272856084;2.526;0.24436507005188066
01:57.6;-0.9297677411383528;-0.023543840043085785;-1.9414532448201507;1.905;0.042498999740099526
01:57.6;-0.8483463282306248;0.054048641213112286;-1.627381794992748;1.515;0.07461865525215837
01:57.6;-0.7570779996562391;0.1216963074408761;-1.3032952237670261;1.278;0.12007727692234144
01:57.6;-0.66392999330782;0.1793275343162985;-0.9825613460137566;0.598;0.11698466632037105
01:57.6;-0.5764687677484996;0.22758311580061166;-0.6765555801326452;0.598;0.08876041051845433
01:57.6;-0.5010823350391111;0.26768562894955156;-0.39431050250629346;0.598;0.05288986925396778
01:57.6;-0.44244244112490916;0.3012609173200511;-0.14246884355712278;0.41200000000000003;0.018989759872178994
01:57.6;-0.40324179187089326;0.33012526764303207;0.07456354421312625;0.435;0.009925921707732903
01:57.6;-0.3841757680215846;0.35606137595284065;0.25438106005853633;0.545;0.03479682401619953
01:57.6;-0.3841146251747641;0.380604719619522;0.39631323684813863;0.64;0.05793934625358108
01:57.7;-0.40041391965965073;0.4048591893145655;0.5011241442632632;0.713;0.08123786388904723
01:57.7;-0.4293176051825074;0.42936104138107634;0.570662350795819;0.752;0.10519147742046435
01:57.7;-0.46641622856166004;0.4540058855172564;0.6074765384241289;0.789;0.12863662744443788
01:57.7;-0.5071298257568622;0.47804079394380256;0.6144401669281201;0.9670000000000001;0.14895795826173014
01:57.7;-0.5471820981084748;0.5001094872711538;0.5944382659661761;0.9670000000000001;0.16266860126795094
01:57.7;-0.5830183228616171;0.5183326112227477;0.5501578931714386;0.9670000000000001;0.16625629023117777
01:57.7;-0.6121180353680711;0.5304116606211565;0.4839978968515428;0.9670000000000001;0.15714179628093183
01:57.7;-0.6331804684310123;0.5337581992767847;0.39808347206532235;0.9940000000000001;0.13453838678430757
01:57.7;-0.6461920905490133;0.5256576660873564;0.29434372951570953;0.975;0.09998144949888352
01:57.7;-0.6523956248427203;0.5034730680897975;0.1745926000971935;0.9259999999999999;0.05734731864873354
01:57.8;-0.6541748349143607;0.4648814617160387;0.040556055483602436;0.899;0.012333654259170943
01:57.8;-0.6548632867348689;0.4081218605952198;-0.1061809386524657;0.904;0.028378344832057367
01:57.8;-0.6584804356658567;0.33222297602242856;-0.2642877017252294;0.96;0.05781619341696961
01:57.8;-0.669393629110245;0.23717982267048057;-0.43279924009363246;1.168;0.0687140907736204
01:57.8;-0.6919016352180591;0.12406703220127613;-0.6111334788310703;1.168;0.05246103159522344
01:57.8;-0.7297369213409184;-0.004897113380674087;-0.7989139177500014;1.168;0.0028550023251435884
01:57.8;-0.7854931990425146;-0.1463237954130988;-0.9955416175542675;1.196;0.11442391596700298
01:57.8;-0.8600050851239393;-0.2956894208723179;-1.1995546588500863;1.1059999999999999;0.30504003891806325
01:57.8;-0.9517420692161075;-0.4474848727912193;-1.407901988636692;1.023;0.5996116296356551
01:57.8;-1.0563281479221662;-0.5955072320180244;-1.6153136123642573;1.056;1.0161147263145371
01:57.9;-1.1663445870379954;-0.7332769125733566;-1.8139852962832859;1.376;1.5514173784066478
01:57.9;-1.271586126949428;-0.8545260187929032;-1.9937946923104497;2.012;2.166464152605281
01:57.9;-1.3598917517878482;-0.9536858953855365;-2.1431721821409577;2.83;2.779500540890179
01:57.9;-1.4185401585364223;-1.0263093555275813;-2.250549696258209;4.047;3.2764876121333
01:57.9;-1.4359972439936504;-1.069395157300715;-2.3060757721944047;4.047;3.54132179728348
01:57.9;-1.4036238380894073;-1.0816138548699021;-2.30315236302824;3.739;3.496597529016576
01:57.9;-1.316942810370225;-1.063439816382651;-2.2394229176507676;3.739;3.136288104075478
01:57.9;-1.1762350969074518;-1.0171781096954666;-2.1170627698790137;3.214;2.53293983460509
01:57.9;-0.9864286287179281;-0.9468582207601701;-1.942418852485199;2.542;1.814234856919983
01:57.9;-0.7563701528763641;-0.8579665875066299;-1.7251448926841897;1.903;1.119516076902416
01:58.0;-0.4976604397813947;-0.7570144992160879;-1.4770322794446744;1.3880000000000001;0.5564514818576494
01:58.0;-0.22329309840871892;-0.650980190946017;-1.210761718274143;1.042;0.17599557734422147
01:58.0;0.05367258655424711;-0.5467025300850625;-0.9387685113065961;0.833;0.027546227036047418
01:58.0;0.32124127514185247;-0.45031794661961727;-0.6723436309476151;0.937;0.09726170795232293
01:58.0;0.5693132049843436;-0.36682019108385855;-0.42103923865490955;0.937;0.08792797303418873
01:58.0;0.7901522444183338;-0.2997947861997698;-0.1924234705494;0.937;0.045581949646392346
01:58.0;0.97847488295455;-0.25134267829295626;0.007814146693843045;1.054;0.0019217526139999905
01:58.0;1.1312273353764455;-0.2221686248794856;0.1754850438685254;1.15;0.04410346655478674
01:58.0;1.2471715632350757;-0.21178589030079645;0.3073856018021944;1.234;0.08119078563429243
01:58.0;1.3263887149470175;-0.21878454428012203;0.40077285169841764;1.317;0.11630161663902476
01:58.1;1.3697693461583351;-0.2411139476306837;0.4529330086450446;1.3630000000000002;0.14959040869334733
01:58.1;1.3785312471849445;-0.27633382177198684;0.4609170467299055;1.3730000000000002;0.1755793466846439
01:58.1;1.3537893125744593;-0.3217968435162892;0.42148924379165253;1.35;0.18361973538207124
01:58.1;1.2961983484456994;-0.37474237135443816;0.33130770383297564;0.919;0.16092955077687784
01:58.1;1.2057134770587874;-0.43230269441618524;0.18734370569246708;0.919;0.09764975637526833
01:58.1;1.081555012075162;-0.49144476058837705;-0.012455445446007752;0.919;0.00662037496066284
01:58.1;0.9224671174474415;-0.5488878626076289;-0.26828166012198956;0.919;0.13583932243744698
01:58.1;0.7272892037853151;-0.6010493184840869;-0.5774492342212433;0.789;0.2524242412753914
01:58.1;0.49577319805083675;-0.6440761448051872;-0.9334099057181371;0.737;0.29805242818899613
01:58.1;0.2295419357906628;-0.674022233855414;-1.324999529819395;0.8270000000000001;0.20499911528614642
01:58.2;-0.06692725584290707;-0.687220643435536;-1.7361163599032885;1.193;0.0798505744391765
01:58.2;-0.38545983032805636;-0.6808534426547307;-2.1460287806256098;1.844;0.5632073394655346
01:58.2;-0.7137632691956035;-0.653608378309644;-2.530516398391644;2.46;1.180540692807311
01:58.2;-1.0357961994067069;-0.6061761312541835;-2.8639843413693415;4.8839999999999995;1.798223976233075
01:58.2;-1.3331402198333457;-0.5413370567137207;-3.122399649202619;4.8839999999999995;2.2533677672326253
01:58.2;-1.587165502756026;-0.46358416920118917;-3.286435724521508;4.8839999999999995;2.418109455500423
01:58.2;-1.7814748406965466;-0.3784415659144711;-3.343997847897101;5.4110000000000005;2.2544702742902345
01:58.2;-1.9041691726887398;-0.29167316780802055;-3.291573369363632;5.395;1.8281235713309374
01:58.2;-1.949610870805653;-0.20851728017389187;-3.1342829845535127;4.896;1.27417240208035
01:58.2;-1.9193433564734224;-0.13306255028258102;-2.884791400788825;4.003;0.7367547279042913
01:58.3;-1.8218714607011604;-0.06787326560947904;-2.5614041479203875;2.978;0.31673392765830016
01:58.3;-1.6712827434566506;-0.013918641573638403;-2.1857763943277684;2.127;0.05084549873509564
01:58.3;-1.4850447676478986;0.029226008539015903;-1.7806291959763152;1.569;0.07728274560736242
01:58.3;-1.2815247814652713;0.06301134563199201;-1.367738867019681;0.5770000000000001;0.11044573544202563
01:58.3;-1.0777620886493022;0.08950104847715892;-0.9663559669574966;0.5770000000000001;0.0932155053576259
01:58.3;-0.887843779561942;0.11099700629129403;-0.5921620862095346;0.5770000000000001;0.058356390210782344
01:58.3;-0.7220099263222235;0.12973743472227048;-0.25679964200727445;0.39799999999999996;0.024054863054130807
01:58.3;-0.586434909854129;0.14767726406893358;0.032117940773462916;0.466;0.002781513334293658
01:58.3;-0.4835357629253977;0.16634971900550327;0.27067896503033473;0.63;0.021772343595951683
01:58.3;-0.4126324853660831;0.1867971484258589;0.4581505232156828;0.7509999999999999;0.03531358791379036
01:58.4;-0.37079124600343366;0.20954987139602305;0.5963179743615784;0.8270000000000001;0.046333464089145814
01:58.4;-0.3536980056120664;0.23462941991912675;0.6887333397969734;0.871;0.057156573395903465
01:58.4;-0.35643558883286686;0.26155638446785734;0.7399385864998529;0.873;0.06898299743595747
01:58.4;-0.3740742924652766;0.28935217968689764;0.7547425071798809;0.726;0.08169273415677773
01:58.4;-0.4020403071128449;0.31653795227103093;0.7376242393118639;0.726;0.09387080978463658
01:58.4;-0.43629155161287986;0.3411486328424977;0.69231478877207;0.726;0.10304431756127844
01:58.4;-0.47337442854428075;0.3607891125215174;0.621577608045834;0.688;0.10615820783748353
01:58.4;-0.5104344572467637;0.37275846918188665;0.5271816442968231;0.7040000000000001;0.1003062013931933
01:58.4;-0.5452271873172712;0.37425668173728127;0.41004332800733134;0.7909999999999999;0.08367135763948788
01:58.4;-0.576146306403245;0.3626666469345685;0.27050489442191866;0.861;0.05652174046283962
01:58.5;-0.6022560360850904;0.3358768163736129;0.10870786676554113;0.836;0.02198984473211341
01:58.5;-0.6232946490334539;0.29258962988452347;-0.07499018762446137;0.7879999999999999;0.013675926821709684
01:58.5;-0.6396230433510312;0.2325589393901519;-0.2796205838352486;0.7709999999999999;0.04159357766396995
01:58.5;-0.6521182453245266;0.15671342148426015;-0.5032988640539763;1.122;0.05143497037852387
01:58.5;-0.6620239726611623;0.0671500705901515;-0.7430380526829962;1.122;0.03303172430731837
01:58.5;-0.6707566530727183;-0.032984696009973544;-0.9946258743919769;1.122;0.022005803358331622
01:58.5;-0.6796499604491943;-0.1396990248335218;-1.2524867911765336;1.3359999999999999;0.1189191578396537
01:58.5;-0.6896282371996709;-0.24844032342336458;-1.5095274133922878;1.4580000000000002;0.25862953910601544
01:58.5;-0.700828014583532;-0.35446560031167684;-1.757046965584873;1.465;0.4364845932068592
01:58.5;-0.7122286610652441;-0.45327010001466844;-1.984816326813189;1.541;0.6407621379479551
01:58.6;-0.7213988070792683;-0.5410081185784343;-2.1814360222759057;1.929;0.851376547294462
01:58.6;-0.7244875957734779;-0.6148313687103634;-2.3350790382301203;2.515;1.0401322363948566
01:58.6;-0.7165530441052096;-0.673095261470087;-2.434636866749742;3.1660000000000004;1.1742459544021195
01:58.6;-0.6922199050847289;-0.7154276265082373;-2.4711136748811136;3.3489999999999998;1.223777640803636
01:58.6;-0.6465426719483817;-0.7426868272015905;-2.4389683049622355;3.3489999999999998;1.1711406926501449
01:58.6;-0.5758797814819937;-0.7568317744903151;-2.3370954671041364;3.3489999999999998;1.0186093099993028
01:58.6;-0.47859240256846514;-0.7607040432660984;-2.16924605249999;2.833;0.7897512837543184
01:58.6;-0.35543951813705305;-0.7577181605390997;-1.9438234645356625;2.242;0.5235163239139895
01:58.6;-0.20960905428094237;-0.7514731515746743;-1.6731265601439327;1.669;0.26354349487778067
01:58.6;-0.046393966560448544;-0.7453209274141117;-1.3722290941761268;1.331;0.04744947852815005
01:58.7;0.1274050481716899;-0.7419482259124749;-1.0577309285581136;1.148;0.09998513576048824
01:58.7;0.3042152450937417;-0.7430433374095214;-0.7465542134041783;1.005;0.1687549300404289
01:58.7;0.4764243445776004;-0.7491199358398183;-0.45484564765464325;0.88;0.16233394517757666
01:58.7;0.6370041192523415;-0.7595499377338634;-0.19698022868647705;1.367;0.09530621242359154
01:58.7;0.779963645188017;-0.7728030391181487;0.01530372376987681;1.367;0.009224446146774368
01:58.7;0.9006006992070051;-0.7868168026359963;0.1735259767513479;1.367;0.12296185413906432
01:58.7;0.9955519583723427;-0.7993858354138057;0.27272225628519625;1.367;0.21704058974822824
01:58.7;1.062689997000946;-0.8084907291983293;0.3113189005395847;1.4180000000000001;0.2674774196670512
01:58.7;1.100946282872983;-0.8125389309313734;0.2907132726794038;1.423;0.26006096398440837
01:58.7;1.1101266748813803;-0.8105119297691973;0.21469201774210073;1.421;0.1931736329349234
01:58.8;1.0907475586347133;-0.8020162510982339;0.08881315883963639;1.412;0.0776935087038861
01:58.8;1.0438882964008152;-0.787243953396341;-0.08015391876190207;1.36;0.06587006957937946
01:58.8;0.9710410724042161;-0.7668610807885343;-0.2846857197330923;1.275;0.21199224785394352
01:58.8;0.8739470789871135;-0.741851178948871;-0.51685273036548;1.2570000000000001;0.3350956122487033
01:58.8;0.7544459067468263;-0.71334422623012;-0.7685478825831633;1.2570000000000001;0.4136168163008077
01:58.8;0.6144113644214242;-0.6824583480959532;-1.031559731427951;1.2570000000000001;0.432543481000979
01:58.8;0.4558435912805455;-0.6501696861240569;-1.2974813229707793;1.276;0.3845419154349116
01:58.8;0.2811199558419859;-0.6172111740128517;-1.557537871719202;1.401;0.2702489848458846
01:58.8;0.09333954020584581;-0.5839975202391406;-1.8024858093558205;1.643;0.09825360965404117
01:58.8;-0.10332353258283422;-0.550584129623287;-2.0227150774220326;1.95;0.11506881659004028
01:58.9;-0.30333083454432175;-0.5166839285711051;-2.2086040303403656;2.17;0.34614604464618703
01:58.9;-0.4996188897014947;-0.4817776004709591;-2.35109559144949;2.366;0.5659209106491506
01:58.9;-0.6836551450082995;-0.44533486596996985;-2.4424243456368173;2.603;0.7436094578836113
01:58.9;-0.845842756965738;-0.4071006190665851;-2.476919013140962;3.2689999999999997;0.8529099961875819
01:58.9;-0.9763657663312821;-0.36733882397717527;-2.4517817558124375;3.2689999999999997;0.8793488176082235
01:58.9;-1.0663862859537316;-0.3269382129802541;-2.367686265510196;3.2689999999999997;0.825475885215771
01:58.9;-1.1093474220393567;-0.2873471066387295;-2.2290048437718517;3.23;0.7105349077820992
01:58.9;-1.1021366228844778;-0.2503534761991005;-2.043534239689629;2.89;0.5638595995771404
01:58.9;-1.045906451078026;-0.21775458006529103;-1.8217270888911201;2.444;0.4149000205605225
01:58.9;-0.9463413202720546;-0.19098814478564125;-1.5755920647496058;1.915;0.28477246738800055
01:59.0;-0.813209712923129;-0.17081532932435414;-1.3175274697248043;1.341;0.1830160081690416
01:59.0;-0.6592169667761539;-0.15713981718681055;-1.0593343566047837;1.028;0.10973563417519577
01:59.0;-0.4983802066543556;-0.1490069274126085;-0.8115246826579323;0.8859999999999999;0.060265529795237124
01:59.0;-0.3442691684310605;-0.1447599853382414;-0.5828917875874234;0.5589999999999999;0.02904922815147328
01:59.0;-0.20845469260978788;-0.14228318002989912;-0.3802504513903663;0.377;0.0112780749787321
01:59.0;-0.09940981564157934;-0.13926441449446356;-0.2083028219364942;0.377;0.0028837962947527987
01:59.0;-0.021968708315984672;-0.1334470620306259;-0.06965052923445302;0.377;0.00020419164137808874
01:59.0;0.022678069999887057;-0.12286489077184665;0.03504027595019897;0.331;9.76340732052619e-05
01:59.0;0.03654346567705763;-0.10605462014577476;0.1067715195075328;0.27399999999999997;0.00041380406095052684
01:59.0;0.02407187461217498;-0.0822271949990373;0.14790610236282936;0.294;0.00029275982622046045
01:59.1;-0.008837535688953764;-0.05137140720592056;0.16184349464643336;0.386;7.347640351562699e-05
01:59.1;-0.05586273948815766;-0.01427329715985794;0.15266573322691757;0.52;0.00012172733247344031
01:59.1;-0.11118181413416449;0.027544659227872716;0.12474500655565125;0.56;0.00038202723928765524
01:59.1;-0.17013686558812047;0.07194482566151002;0.08233515223558412;0.425;0.0010078207248576437
01:59.1;-0.22955007455220858;0.11633087911537796;0.029203228644216272;0.425;0.0007798360665774909
01:59.1;-0.2876972405781478;0.1578148335118709;-0.031631465794364134;0.425;0.001436160029174916
01:59.1;-0.34401749184658365;0.1933788427161447;-0.09800862683164552;0.382;0.0065200929418978695
01:59.1;-0.39865940715085785;0.22003345660754756;-0.1685927552303377;0.34600000000000003;0.014788687982001388
01:59.1;-0.4519616315192402;0.23498570151815415;-0.242735367256984;0.349;0.025779593419442668
01:59.1;-0.5039688349687494;0.23582637192165964;-0.32029115211821435;0.401;0.03806632859134077
01:59.2;-0.5540825241554151;0.22073170401089898;-0.40144800215813614;0.478;0.04909852773517554
01:59.2;-0.6009286901538476;0.18865727851370057;-0.486624070261303;0.603;0.05516836221286397
01:59.2;-0.642494279133133;0.13948916369123388;-0.5764625487252669;0.813;0.051663144125995604
01:59.2;-0.6765357215219014;0.07412049884035425;-0.6719103888557032;1.642;0.03369305742358383
01:59.2;-0.701174043329434;-0.005554711332855166;-0.7742994576800075;1.642;0.003015756552887281
01:59.2;-0.7154850813275088;-0.09671194719775127;-0.8852851828655206;1.642;0.061258154035265605
01:59.2;-0.7198575818490134;-0.1957127603379147;-1.0065024691254447;1.706;0.14180141680092134
01:59.2;-0.7159638736994139;-0.2982803828549451;-1.138893946013151;1.3419999999999999;0.24321988867401712
01:59.2;-0.7063038263200456;-0.399766540720433;-1.2818010108410014;0.73;0.36192502316721786
01:59.2;-0.6934042081425246;-0.4955188635687007;-1.4320481356295587;0.6970000000000001;0.49204438613950535
01:59.3;-0.6788907946873949;-0.5813082824130319;-1.5833701604268566;1.065;0.6248688664815983
01:59.3;-0.6627443582669063;-0.6537329674788394;-1.7265323316625978;1.77;0.7480336618168906
01:59.3;-0.6430189559205127;-0.7105094080191589;-1.8502828189374105;2.6289999999999996;0.8453405945506991
01:59.3;-0.6161425524913591;-0.7506030497351743;-1.9429299423869697;3.056;0.8985632845035602
01:59.3;-0.5777117619972296;-0.7742119419725564;-1.9940730807159834;2.696;0.8918917491517302
01:59.3;-0.5235277728008388;-0.7826489515546153;-1.9960227400324282;2.696;0.8178472886005538
01:59.3;-0.4505801299300107;-0.7781578429059804;-1.9446812953213863;2.696;0.6818489434982676
01:59.3;-0.35776599581164936;-0.7636750133979024;-1.839889339911369;2.313;0.5026889568143018
01:59.3;-0.24624079976431826;-0.7425393435896331;-1.6853291287976595;1.98;0.3081514459253736
01:59.3;-0.11937204428151002;-0.7181601556722021;-1.488084385765809;1.676;0.12757086414901003
01:59.4;0.017670267946328918;-0.6936695546234956;-1.2579663439047855;1.402;0.015419304701919923
01:59.4;0.15859342919463204;-0.6716020876951764;-1.0067093266620117;1.17;0.10722629978382475
01:59.4;0.29680154766907396;-0.6536530157218081;-0.7471024976988625;1.01;0.1449417894377828
01:59.4;0.42621825004762953;-0.6405596563039171;-0.49209870210901174;1.054;0.1343519096280898
01:59.4;0.5419852699670374;-0.6321248155970898;-0.25396205635893127;1.054;0.08700799448372609
01:59.4;0.6409267658287667;-0.6273648163463628;-0.04355760346208354;1.054;0.01751429032748373
01:59.4;0.7217132237796415;-0.6247400883997887;0.1301305061439092;1.107;0.05867365684463664
01:59.4;0.784730638675806;-0.6224262466496874;0.2602543129649567;1.14;0.12711782182406584
01:59.4;0.8317211631640445;-0.6185919795794587;0.3421943615647673;1.143;0.17605764420223602
01:59.4;0.8652851684251383;-0.6116525195523309;0.37353549469711517;1.124;0.19769509994956272
01:59.5;0.8883331480080565;-0.60046956984574;0.35394033458851487;1.109;0.18879779968930863
01:59.5;0.9035620810940784;-0.5844742289120494;0.2849380802707482;1.083;0.15047829357630998
01:59.5;0.913009321291229;-0.5636945635620241;0.16966373146404395;1.03;0.08731886302824106
01:59.5;0.9177178122719862;-0.5386779853536997;0.012586560537722086;0.866;0.00622222135912526
01:59.5;0.9175397895348252;-0.5103228701876101;-0.18073192680424294;0.866;0.08462619553640041
01:59.5;0.9111088570600269;-0.47966886961050026;-0.40380226644747264;0.866;0.17647392884115806
