Time;AccX;AccY;AccZ;Acc-old;Acc-trns
57:50.2;-0.41600455087171495;-0.21906062129980522;-1.6179785763175187;1.67;0.1474467361360033
57:50.2;-0.341729643018343;-0.28614918620567903;-1.4786389764939423;1.651;0.14458968711224557
57:50.2;-0.2695919713738771;-0.35018787604595675;-1.341129292887934;1.5130000000000001;0.12661311950708978
57:50.2;-0.20124754600920094;-0.40820069001485576;-1.2075403673214846;1.34;0.09919870112800899
57:50.2;-0.13810781547847684;-0.4574491920434698;-1.0798347250690181;1.205;0.06822105166863987
57:50.2;-0.08124778152415461;-0.4956449840755592;-0.9597390066199979;0.938;0.03864874294665914
57:50.2;-0.03133226226724452;-0.5211540897449637;-0.8486051448288026;0.938;0.013856819626619141
57:50.2;0.01142476581426466;-0.5331502071652482;-0.7473177045676522;0.938;0.00455199902219329
57:50.2;0.04725468578318362;-0.5316883197042063;-0.6563085673570651;0.8690000000000001;0.01648959818250367
57:50.2;0.07678396390791355;-0.5176937836582479;-0.5756816615172552;0.818;0.02288368040108526
57:50.3;0.10095083918676358;-0.49288097835862127;-0.5054027440512706;0.7829999999999999;0.02514719716859284
57:50.3;0.12089769573018774;-0.4596224179544895;-0.445501171278029;0.7290000000000001;0.02475529333066827
57:50.3;0.13784424253273717;-0.42078570674587507;-0.39624117168977513;0.672;0.022983131912208337
57:50.3;0.15295124070086039;-0.37954927650646264;-0.3582288321293866;0.627;0.02079609100874749
57:50.3;0.16719118820666362;-0.33920392892564893;-0.3324281383306721;0.591;0.01885263397150743
57:50.3;0.1812441755791945;-0.3029459867672333;-0.32006959904129856;0.41;0.017574124085504194
57:50.3;0.1954322248223207;-0.2736697787162072;-0.32245455393337247;0.41;0.017246125092470276
57:50.3;0.2096966771799323;-0.2537717686058599;-0.3406871085500909;0.41;0.018129697405060364
57:50.3;0.22361800740132506;-0.24497829617412864;-0.37538535400298656;0.366;0.020564194710473768
57:50.3;0.2364787347529319;-0.24820174870065628;-0.42642276930226153;0.369;0.02502864372692101
57:50.4;0.2473706075336773;-0.2634285049553448;-0.49274456772782804;0.444;0.03210943826259717
57:50.4;0.25534054869156303;-0.2896519225392009;-0.5723001487617652;0.58;0.04232725080182673
57:50.4;0.2595584118106178;-0.32487398253012206;-0.6621170708958426;0.732;0.05583221087287361
57:50.4;0.25947898993745533;-0.3662011055550547;-0.7585098843227689;0.894;0.07207474165101936
57:50.4;0.2549638499370702;-0.41005485957156473;-0.8573855476868392;1.068;0.08963894367826718
57:50.4;0.2463269400514965;-0.45250358735622465;-0.9545896090657521;1.348;0.10640220821129269
57:50.4;0.23427896222115926;-0.48968235724944015;-1.046233112953554;1.348;0.12002624234847384
57:50.4;0.21977398900349593;-0.5182158954769382;-1.1289488099995257;1.348;0.12857640277796417
57:50.4;0.20379014266446582;-0.5355438821769218;-1.2000526026414269;1.405;0.13097201795905605
57:50.4;0.18708932903157902;-0.5400970739107971;-1.2576184749044415;1.518;0.12707781841862267
57:50.5;0.17001244257916226;-0.5313390660162083;-1.3004801016627034;1.511;0.11747789781129107
57:50.5;0.1523765530040574;-0.5097151524397016;-1.328154704763673;1.3719999999999999;0.1031559668961825
57:50.5;0.13352372576141683;-0.4765387198282558;-1.3406899661474445;1.272;0.0853070639684733
57:50.5;0.11252322702233825;-0.433832880253631;-1.3384757865609838;1.288;0.06533940298044998
57:50.5;0.08847186314801113;-0.38414248502835346;-1.322096415030261;1.354;0.04493250614628689
57:50.5;0.060796589621696574;-0.33032704219732;-1.2922848820899755;1.3459999999999999;0.025952644070006553
57:50.5;0.029467216780325614;-0.2753423913255137;-1.2499883843744148;1.3459999999999999;0.010141873173265724
57:50.5;-0.004922704238031312;-0.22202917072506104;-1.1964997350652629;1.3459999999999999;0.0013077549942754581
57:50.5;-0.04119868055716456;-0.17293109605551396;-1.1335865584932399;1.275;0.008076274827101321
57:50.5;-0.0777497255066529;-0.1301499039813148;-1.063557524499253;1.176;0.010762265482673897
57:50.6;-0.11275115971842314;-0.09522915155769199;-0.9892286251295377;1.057;0.010621542900201165
57:50.6;-0.14442757831438158;-0.06906559599945465;-0.9137815526243717;0.938;0.009114949764888716
57:50.6;-0.17130407608131776;-0.05185994773138089;-0.8405345211585356;0.845;0.007467157752659093
57:50.6;-0.19239792775874426;-0.04312176525616673;-0.7726659599570415;0.746;0.006410452711798269
57:50.6;-0.2073186265460304;-0.04173754097934811;-0.7129390264161433;0.662;0.00616903977302733
57:50.6;-0.21626341692852483;-0.04610149041925664;-0.6634726951785731;0.5579999999999999;0.006614866456338629
57:50.6;-0.21991918612946307;-0.054295292949402614;-0.6255979307735746;0.5579999999999999;0.00747000003578332
57:50.6;-0.2193057632984667;-0.06428937088744144;-0.5998251406685203;0.5579999999999999;0.00845695238578674
57:50.6;-0.2156049001731113;-0.07413513868093452;-0.5859305753852151;0.5670000000000001;0.009365455240285914
57:50.7;-0.2100079877755386;-0.08212838332604892;-0.5831496236087325;0.613;0.010057941082696422
57:50.7;-0.20359920539003576;-0.08693593097995533;-0.59045056204963;0.682;0.010451026002980882
57:50.7;-0.19728139400304753;-0.08768174547895267;-0.6068519041469207;0.7609999999999999;0.010497310266204962
57:50.7;-0.19174651618589938;-0.08398872700144383;-0.631735614473629;0.848;0.010173815137675882
57:50.7;-0.18748885257187656;-0.07597333988819228;-0.6650984093116816;0.9279999999999999;0.009473764381346369
57:50.7;-0.1848593252343119;-0.06419299963688867;-0.7076789457116052;0.971;0.008397795768361742
57:50.7;-0.18415810871299562;-0.04955358507633884;-0.7609056298319781;0.965;0.006943792326964992
57:50.7;-0.18574728700186222;-0.03319710326170118;-0.8266347670838465;0.965;0.005097254708703392
57:50.7;-0.19013797292433285;-0.016399788362093673;-0.9066897189586663;0.965;0.002827260296280559
57:50.7;-0.19799475192583443;-0.0005079239593725838;-1.0022525629069248;0.865;0.00010079281020142309
57:50.8;-0.2100246982346645;0.013077155488228027;-1.1131911634197589;0.7609999999999999;0.0030574080671914206
57:50.8;-0.22676265432883;0.022872754882853865;-1.2374361872044084;0.705;0.006418193701725323
57:50.8;-0.2483001043158356;0.027275639540648045;-1.3705563627141035;0.777;0.009282153467257845
57:50.8;-0.27402117082522354;0.024555038258058208;-1.50569053661453;1.073;0.010131189846257124
57:50.8;-0.3024141448437537;0.012914813919086825;-1.6339495916887201;1.492;0.0063815901374642495
57:50.8;-0.33102606000539864;-0.009372681164183296;-1.745294101529452;1.974;0.005414952476889272
57:50.8;-0.3566053504639889;-0.04378025707602005;-1.8297574441757776;2.4130000000000003;0.028566674421967548
57:50.8;-0.3754199020087789;-0.0912963697396934;-1.8787747593216824;2.4130000000000003;0.06439401698109891
57:50.8;-0.3836770251986584;-0.15216046082131748;-1.8863473540186835;2.4130000000000003;0.11012585069592684
57:50.8;-0.37795953544443917;-0.22560185205916372;-1.849834942801069;2.379;0.1577324125609126
57:50.9;-0.3556252975113249;-0.3096500657452943;-1.7702774944290856;2.1719999999999997;0.19494188977561053
57:50.9;-0.3151470636290673;-0.40108701061079044;-1.652239356820536;1.891;0.2088453573516932
57:50.9;-0.25637246712498707;-0.4955900038541471;-1.5032296219464198;1.615;0.1909937896132827
57:50.9;-0.18067644159216903;-0.5880689497136572;-1.3328070480960332;1.358;0.14161102241232976
57:50.9;-0.09097420727775057;-0.6731432198873626;-1.1515236499566566;1.1840000000000002;0.07051777773382308
57:50.9;0.008435491770030012;-0.7456662106412885;-0.9698800621369458;1.115;0.006100604931065657
57:50.9;0.11221076805161527;-0.8012056317601799;-0.7974490071145376;1.121;0.07169377523816382
57:50.9;0.21445733746546145;-0.8364140846753142;-0.6422717896552389;1.121;0.11520759065761829
57:50.9;0.309277182995615;-0.8492594173984506;-0.5105580968692994;1.121;0.13410143352917386
57:50.9;0.3912728755689581;-0.8391155763105219;-0.4066439832218206;1.094;0.1335106393872136
57:51.0;0.4559596203977137;-0.8067358013547988;-0.3331132153014442;1.061;0.12253201526332269
57:51.0;0.500085902393855;-0.7541427324809729;-0.2909788268712769;1.037;0.1097386341795689
57:51.0;0.5218618987446705;-0.684476276608398;-0.279848505006911;0.996;0.099962470691773
57:51.0;0.5210756671200625;-0.6018336013072837;-0.2980417237769065;0.9440000000000001;0.09346613651005269
57:51.0;0.4990755069040771;-0.5111117505849276;-0.3426743640496519;0.958;0.08741052679962483
57:51.0;0.45860833143858104;-0.4178259531805943;-0.40976251989981194;1.0490000000000002;0.07851806434831034
57:51.0;0.40351628441747045;-0.3278425103776571;-0.49440058874923815;0.67;0.0654041508830527
57:51.0;0.3383153147136059;-0.2469777570206091;-0.5910309849552382;0.67;0.04938439632786942
57:51.0;0.2677139844504397;-0.18049293951419668;-0.6937727897655319;0.67;0.03352343698924753
57:51.0;0.19614475027390146;-0.13258342583649937;-0.7967658780509812;0.802;0.020720329263672312
57:51.1;0.12735554297900956;-0.10595013126376222;-0.8945176905188982;1.032;0.01207002819961181
57:51.1;0.06409140864402613;-0.10150181662080016;-0.9822512203857272;1.21;0.006389931595518194
57:51.1;0.007910928488829244;-0.1182278806465613;-1.0562196438164848;1.229;0.0009878741096672266
57:51.1;-0.04081042362730997;-0.1532775061838759;-1.1139244738827923;1.28;0.006967953995301918
57:51.1;-0.08267304813398343;-0.20225578044596418;-1.1541877591142589;1.3090000000000002;0.019299291099779115
57:51.1;-0.11889011806817774;-0.25971323899200843;-1.1770631388742692;1.2990000000000002;0.036344575971598535
57:51.1;-0.1508758712201926;-0.31977157778781884;-1.183599497586497;1.213;0.05710372285648303
57:51.1;-0.179905453965784;-0.37678997132622855;-1.175503070690093;1.213;0.07968332217538199
57:51.1;-0.20691719270062725;-0.42594558146269706;-1.154780822545446;1.213;0.10177714356657315
57:51.1;-0.23246079622484986;-0.46361708848998917;-1.123457208848279;1.122;0.12107812630712685
57:51.2;-0.2567583584283693;-0.4875323671254184;-1.0834240869789402;1.163;0.13562087147991908
57:51.2;-0.27982808488738325;-0.49672250288975395;-1.0364383316596075;1.2570000000000001;0.14406172209025134
57:51.2;-0.3016079600144126;-0.4913607075187994;-0.9842412042406611;1.3130000000000002;0.14586287387453756
57:51.2;-0.3220283553836998;-0.47254977037740087;-0.9287333251353282;1.2429999999999999;0.14132946009447944
57:51.2;-0.3410189982738062;-0.4420898069585326;-0.8721140767435426;1.158;0.13148081048377383
57:51.2;-0.35846795989126884;-0.40224259586189903;-0.8169067148208833;1.042;0.1177906636912476
57:51.2;-0.37416494700958025;-0.3555095168563919;-0.765835884878026;0.747;0.10187087638239886
57:51.2;-0.3877610277562327;-0.3044422146143068;-0.7215830861677066;0.747;0.08518347937225994
57:51.2;-0.39876599509182087;-0.25150408832393145;-0.6864943671874717;0.747;0.06884939745946306
57:51.2;-0.40659157415317276;-0.19899130388127606;-0.6623221629181308;0.726;0.053587285734758586
57:51.3;-0.41063949688039325;-0.14900268846578757;-0.6500470752827754;0.741;0.03977403323308642
57:51.3;-0.4104220064502666;-0.10343533020026537;-0.6497878578310228;0.747;0.027584882354957645
57:51.3;-0.4056862745064591;-0.0639884685326739;-0.6607980728608606;0.741;0.01715381801851452
57:51.3;-0.396505746082401;-0.03216946870482524;-0.6815533052816296;0.737;0.008693470846984035
57:51.3;-0.3833110077468158;-0.0092974494602477;-0.7099360312009376;0.735;0.002530080479730818
57:51.3;-0.3668552190393294;0.00350508466351706;-0.743522383033956;0.7759999999999999;0.0009560646519933011
57:51.3;-0.3481316568824313;0.005344844022252593;-0.7799613572365125;1.1179999999999999;0.001451281433137598
57:51.3;-0.32827555660063823;-0.004377151147693907;-0.8174002058868184;1.1179999999999999;0.0011745319433990736
57:51.3;-0.3084855846078377;-0.025868971792785484;-0.8548592856767473;1.1179999999999999;0.0068219522489993845
57:51.3;-0.2899893996353797;-0.05883105670876238;-0.8924452703555905;1.1179999999999999;0.015225457953603465
57:51.4;-0.2740563703002049;-0.10233871563943367;-0.9313389437733279;1.141;0.026120869352444512
57:51.4;-0.26203502483942454;-0.15475241139770213;-0.9735572002544024;1.213;0.039478281839385475
57:51.4;-0.2553656894731322;-0.21369977199205037;-1.0215191725750263;1.252;0.05574592506961981
57:51.4;-0.2555009734316262;-0.27618309440810196;-1.0774493200040394;1.031;0.07603026456387056
57:51.4;-0.263681150288372;-0.33884645267085295;-1.1426670917276294;0.705;0.10209435932017723
57:51.4;-0.2805682747202425;-0.3983867492781301;-1.2168808658406032;0.6409999999999999;0.13601647292633212
57:51.4;-0.3058223203726036;-0.45203992538409926;-1.2976945499878776;1.4509999999999998;0.17939835414827757
57:51.4;-0.3377571414761811;-0.49803403122610695;-1.3805317193035147;1.4509999999999998;0.23222552295157187
57:51.4;-0.3732025384417726;-0.535883707992707;-1.459031719200745;1.4509999999999998;0.2917963642564645
57:51.4;-0.4076390406328435;-0.5664271525034823;-1.5258141770415687;1.765;0.352307168783077
57:51.5;-0.43561316178045595;-0.5915781875116125;-1.5734710995586658;2.0580000000000003;0.405482313917142
57:51.5;-0.4513909556362699;-0.6138446586393005;-1.5956513245205584;2.247;0.4421293352412417
57:51.5;-0.44975453822995315;-0.6357181193031676;-1.5880620902866058;2.305;0.4540541220715325
57:51.5;-0.42680078882379263;-0.6590722667980595;-1.5491868924614292;2.278;0.43577475210619726
57:51.5;-0.38058002323516854;-0.6847230903472135;-1.4805667382909362;2.1;0.38582374328315094
57:51.5;-0.31142868807522556;-0.7122730368844499;-1.3865832457679246;1.829;0.30757502568847395
57:51.5;-0.2219196283748983;-0.7402640574964199;-1.2737836587939602;1.158;0.20925606431862848
57:51.5;-0.11647067987565382;-0.7665479958566727;-1.149903598083769;1.158;0.10266381437157168
57:51.5;-0.0007605320737894029;-0.7887276263669657;-1.0228423174817018;1.158;0.0006135546821769701
57:51.5;0.11888374727133304;-0.8045513746654447;-0.8998370934212044;1.14;0.08606769236142263
57:51.6;0.23604359807781866;-0.8122109806515019;-0.7869526183353468;1.145;0.15087235430732213
57:51.6;0.34470097299873825;-0.8105382046823238;-0.6888648653347799;1.185;0.1924642333576649
57:51.6;0.4396629049494562;-0.7991115845139479;-0.6088628473299812;1.2229999999999999;0.2139177026805671
57:51.6;0.5168947753775802;-0.7782842211415;-0.548987000240113;1.2409999999999999;0.22085255548207663
57:51.6;0.5737319073047019;-0.7491416556275334;-0.510227688288791;1.226;0.21929916207141542
57:51.6;0.6089464104477428;-0.7133980953886134;-0.49272040486112295;1.186;0.2140481941793509
57:51.6;0.622661586317436;-0.6732408707703614;-0.495899194816195;0.97;0.20788155171263512
57:51.6;0.6161352618747253;-0.6311400494841611;-0.518597117547926;0.97;0.20166563703977597
57:51.6;0.5914697674060256;-0.589649337212156;-0.5591011794370432;0.97;0.194991991105392
57:51.6;0.5513199076927102;-0.5512211247896656;-0.6151785969229264;0.927;0.18695227093530892
57:51.7;0.4986467074029819;-0.5180391061187956;-0.6840978922699505;0.925;0.17671513767113486
57:51.7;0.43653154704108965;-0.4918565212856117;-0.7626724693002669;0.929;0.1637540832579212
57:51.7;0.36804827900009207;-0.47383161818170355;-0.8473516804725675;0.9329999999999999;0.14777212671320777
57:51.7;0.2961842037314982;-0.4643676658964221;-0.9343762920396497;1.001;0.12851258970906668
57:51.7;0.223795496660614;-0.46298391452209764;-1.0200033232620451;1.145;0.10568633373380179
57:51.7;0.15358210343202042;-0.46826276424833085;-1.1007829061192456;1.34;0.0791647624087332
57:51.7;0.08807237110635112;-0.4779260690424975;-1.173834900587907;1.514;0.049409155023954834
57:51.7;0.029610682990548937;-0.4890678112895081;-1.23704478435732;1.514;0.01791442723682489
57:51.7;-0.019666828029699476;-0.49851082146815;-1.2891048736389785;1.514;0.012638547377654689
57:51.7;-0.05790011379054444;-0.5032094673791688;-1.329371217638076;1.4809999999999999;0.03873240748005285
57:51.8;-0.08365744515710427;-0.5006234129662004;-1.357563065795607;1.364;0.056855930033293096
57:51.8;-0.09619541496475158;-0.4890086412561229;-1.3733794877597587;1.3630000000000002;0.06460430557816955
57:51.8;-0.09579591557778602;-0.46758001259446896;-1.3761376512925507;1.395;0.06164030915926096
57:51.8;-0.08407367253439406;-0.4365140495724241;-1.3645364980507948;1.33;0.050077587875183696
57:51.8;-0.06409597581828796;-0.3968009311039333;-1.3366166133598338;1.228;0.03399462863298299
57:51.8;-0.040176105183775526;-0.35000306745701387;-1.2899459460755625;1.178;0.018138910374792868
57:51.8;-0.01730746437328506;-0.29799993645715317;-1.2220276640509387;1.3659999999999999;0.006302758333157719
57:51.8;-0.0003596425295434797;-0.24278040500177872;-1.1308899260378886;1.3659999999999999;9.874270278917734e-05
57:51.8;0.00672291579152686;-0.18630205823545495;-1.0157736072278338;1.3659999999999999;0.0012722493827204272
57:51.8;0.0014769557278540208;-0.13040032258098236;-0.8778017408622775;1.3459999999999999;0.00016906066812287125
57:51.9;-0.01689691817204322;-0.07671700688851418;-0.7205024240709688;1.26;0.0009339735939865058
57:51.9;-0.047707973506600075;-0.026632816784387253;-0.5500549463192606;1.07;0.0006988985593234649
57:51.9;-0.0891898035362968;0.018784850234597545;-0.3751436964522964;0.7170000000000001;0.0006285221646995999
57:51.9;-0.13900833822266925;0.05879636631288593;-0.20636342310219496;0.361;0.0016866464702962325
57:51.9;-0.1947373305638048;0.09295643009567423;-0.055228149848933254;0.496;0.0009997447764835943
57:51.9;-0.25421724809783197;0.12104250375069753;0.0670435941826913;0.7390000000000001;0.0020630046184423024
57:51.9;-0.3157508456345471;0.142967807315384;0.15072460525652717;0.632;0.006804041188553535
57:51.9;-0.3781219431091471;0.15870240022294535;0.1885390642566756;0.632;0.011314014301778526
57:51.9;-0.44046259525443915;0.16821591674415218;0.1762745359576766;0.632;0.013060677331483542
57:51.9;-0.5020282020688942;0.17144454580885235;0.1130399046137936;0.48200000000000004;0.009729344260816774
57:52.0;-0.561952851972558;0.16828153156294304;0.0012175682829195802;0.452;0.00011514091119290153
57:52.0;-0.6190493868965532;0.1585910003012535;-0.15382038414591548;0.532;0.0151014179662942
57:52.0;-0.6717003839124537;0.14224449296049027;-0.34415230896140575;0.612;0.03288226656603029
57:52.0;-0.7178613000360949;0.1191814263551356;-0.5598482841581037;0.726;0.04789823069137229
57:52.0;-0.7551708955858187;0.0894976249519382;-0.7896218512545081;0.87;0.0533673836926163
57:52.0;-0.7811479694570939;0.05355868663106459;-1.0216569374356193;1.104;0.042743326215970004
57:52.0;-0.7934517421545829;0.012114375401878265;-1.2446537290984394;2.4459999999999997;0.01196382605777289
57:52.0;-0.7901800575912032;-0.03362545389768594;-1.4489976876155783;2.4459999999999997;0.038500104887706915
57:52.0;-0.7701586405747622;-0.0819895053538756;-1.627764914702515;2.4459999999999997;0.10278509505944372
57:52.0;-0.7331526068632516;-0.13094460329966395;-1.7772247505524668;2.572;0.17061780098514157
57:52.1;-0.6799316938171365;-0.17831798703055318;-1.8966631084819152;2.2840000000000003;0.22995911857825196
57:52.1;-0.612142580920492;-0.22214434969145408;-1.9875736038124532;1.79;0.2702782398615768
57:52.1;-0.5319930365374209;-0.2610819586089997;-2.0524246113846543;1.399;0.285069020538167
57:52.1;-0.4418377328330771;-0.2947710540229227;-2.0933330540915778;1.27;0.2726377363198928
57:52.1;-0.3438203799044592;-0.32398459977977173;-2.111046998425657;1.367;0.23515482003938673
57:52.1;-0.2397054500639801;-0.3504839382100126;-2.1045777561278656;1.743;0.17681170192679088
57:52.1;-0.1309355947184609;-0.37661053469993483;-2.0716116446615147;2.59;0.10215474235729889
57:52.1;-0.01885003408764728;-0.40474525410331713;-2.009548881508434;2.59;0.015331776500373371
57:52.1;0.09505249653697241;-0.4367959823987468;-1.916791313984024;2.59;0.07958239333398476
57:52.1;0.20892463903724698;-0.4738385463266275;-1.7938540763138193;2.416;0.17758535983119034
57:52.2;0.32053780480631167;-0.5159686757914961;-1.6440114250310833;2.126;0.2718988847904179
57:52.2;0.42741594466366817;-0.5623505662462975;-1.4733796191119746;1.8119999999999998;0.35413798693494913
57:52.2;0.5270640018158494;-0.6113941581710943;-1.2904907738195888;1.568;0.41585271752924546
57:52.2;0.6171864495663434;-0.6609806916872558;-1.1055048571613808;1.3730000000000002;0.45098885623349466
57:52.2;0.6958246708999474;-0.7086808392708803;-0.9292418401386522;1.245;0.4582255169554865
57:52.2;0.761401497072738;-0.7519449528203768;-0.7721964767950991;1.17;0.4421072031317204
57:52.2;0.8127035205990685;-0.7882692961044949;-0.6436527925972007;1.205;0.41234279427618836
57:52.2;0.8488420839807628;-0.8153487040213467;-0.5509747706116443;1.205;0.38133090217643
57:52.2;0.8692218364523133;-0.8312199555460555;-0.4991190982937875;1.205;0.3606208038400255
57:52.2;0.8735321761917932;-0.8343948631510307;-0.4903816225096341;1.271;0.35742482618853444
57:52.3;0.8617707686338573;-0.8239828647080076;-0.5243506204948427;1.321;0.37233316777513303
57:52.3;0.8342999251114731;-0.7998003678598975;-0.5980160527349548;1.3459999999999999;0.3990401969945895
57:52.3;0.7919199832653879;-0.7624541666163708;-0.7059881072440172;1.3630000000000002;0.42627751887436366
57:52.3;0.7359275251712889;-0.7133769527320959;-0.8408058888602554;1.37;0.4414178242872413
57:52.3;0.6681195510829404;-0.6547894564589815;-0.9933503757339004;1.367;0.43456857578767
57:52.3;0.590710456962343;-0.5895653344075462;-1.1533939741624948;1.396;0.40168376292644353
57:52.3;0.5061507770666434;-0.5209864600910723;-1.310304482252469;1.776;0.3455242803875068
57:52.3;0.41688222275884057;-0.452409682456414;-1.4538594558859896;1.776;0.27420015270684356
57:52.3;0.3251152505862199;-0.38691153170962894;-1.57504456326555;1.776;0.19812617799928506
57:52.3;0.23272104749160846;-0.32699005392235236;-1.6666917224276885;1.899;0.12683101979354822
57:52.4;0.14127368323157852;-0.27436842110706916;-1.7238870485060724;1.911;0.06681965038159991
57:52.4;0.05221534434641912;-0.2299128616728315;-1.744156167267796;1.886;0.020938558582712322
57:52.4;-0.03291517573366663;-0.19367426866989368;-1.7274545017182328;1.8719999999999999;0.011012215977915686
57:52.4;-0.11227366667328359;-0.1650514224478316;-1.6759864578047698;1.808;0.031057585028601932
57:52.4;-0.18362536182221523;-0.14303432927177295;-1.593878829181794;1.709;0.04186279784316986
57:52.4;-0.24447854763735977;-0.1264490407582078;-1.48673230557127;1.643;0.04596095821379909
57:52.4;-0.2924693830754116;-0.11412113251934686;-1.3610751865309623;1.218;0.04542852105771671
57:52.4;-0.3259172531548187;-0.1049153375359088;-1.2237715911951357;1.218;0.04184530144877652
57:52.4;-0.3443587072648202;-0.09768073863502999;-1.0814880836769825;1.218;0.03637824489894169
57:52.4;-0.3488472002919591;-0.09118112851866707;-0.9403291242602133;1.065;0.0299102533960919
57:52.5;-0.3419004285529389;-0.08407849365698254;-0.8056763003815239;0.9159999999999999;0.023160352026459784
57:52.5;-0.32711117613340157;-0.07499378227052113;-0.6821790520458253;0.7909999999999999;0.016734741927285517
57:52.5;-0.3085371084762361;-0.06263580867283408;-0.5738130192525634;0.725;0.011089207032255226
57:52.5;-0.2900342997114166;-0.045966970425669995;-0.48392954377720016;0.649;0.006451747747169165
57:52.5;-0.27469892850478617;-0.024357181427642313;-0.415236046692658;0.499;0.0027782993932640126
57:52.5;-0.2645325509872744;0.002324872197816209;-0.36967364410433357;0.37200000000000005;0.00022735090778379686
57:52.5;-0.2603672502327989;0.03371442547502874;-0.34820079323440095;0.37200000000000005;0.003056552613998229
57:52.5;-0.2620076714976568;0.06904006855647496;-0.3505407341934151;0.37200000000000005;0.006340941016632521
57:52.5;-0.2684963932059386;0.10725202891009053;-0.3749847142537239;0.37200000000000005;0.010798353417074507
57:52.5;-0.2784070351002585;0.14712979413990362;-0.41834165712604376;0.467;0.017136098309131792
57:52.6;-0.29010515562220796;0.18733528858592094;-0.4760877003596766;0.612;0.025873906376780616
57:52.6;-0.3019519793863965;0.22640870878497754;-0.5427147016361351;0.754;0.03710245057151507
57:52.6;-0.31243998753303237;0.2627188559722882;-0.6122241805386768;0.8320000000000001;0.050253733771377984
57:52.6;-0.3202546507025087;0.2943901531138562;-0.6786805067555004;0.879;0.06398587306605011
57:52.6;-0.32426512370627464;0.3192409900353503;-0.7367416062051481;0.861;0.07626654740113464
57:52.6;-0.32345787319079583;0.33477453718818206;-0.7821232368880616;0.802;0.08469257432459382
57:52.6;-0.31684307548019874;0.33826116457269645;-0.811995908699108;0.993;0.08702623616329765
57:52.6;-0.30338606739563323;0.32693946987957423;-0.8253275345619027;1.121;0.08186331382199168
57:52.6;-0.2820274059568643;0.2983354823105267;-0.8231563694171277;1.121;0.06925937446723106
57:52.6;-0.25183329551063033;0.2506665185996524;-0.8087381258150399;1.121;0.05105254482583344
57:52.7;-0.21227481475324522;0.18327733589372505;-0.7875025077206314;1.129;0.030637913051959398
57:52.7;-0.16359550806332934;0.09704917758228611;-0.7667780832402433;1.2329999999999999;0.012173989566887162
57:52.7;-0.10718796102008131;-0.00529406807217409;-0.7552666403599078;1.305;0.0004285838812643785
57:52.7;-0.045852066278552116;-0.11908069189103548;-0.7622522083670955;1.172;0.004161970063977828
57:52.7;0.016217130158925806;-0.23788068751055758;-0.7965321289867409;0.885;0.0030728155054158576
57:52.7;0.07382664018501074;-0.3540410437539911;-0.8650928633945353;0.508;0.02261150377888035
57:52.7;0.12158271889790445;-0.4595532155976141;-0.9716457038246507;1.286;0.0542894691579353
57:52.7;0.15495899783723177;-0.5471452254558521;-1.1152687310481777;1.286;0.09455814390828428
57:52.7;0.17136339239007495;-0.6113784743697889;-1.2895050601973452;1.286;0.1350987235304301
57:52.7;0.17088803926062796;-0.6494903334559367;-1.482268941995379;1.775;0.16451722197859317
57:52.8;0.15651867646716516;-0.6617970092878682;-1.6767804571359088;2.059;0.17368694271814986
57:52.8;0.1337215317705999;-0.6515687083034539;-1.8535075905058187;2.445;0.16149382862849043
57:52.8;0.10946982204773015;-0.6243772713439829;-1.9928097418046424;3.0260000000000002;0.13620948005101072
57:52.8;0.09093570415467284;-0.5870468752129842;-2.077764973517691;3.5069999999999997;0.11091841003304433
57:52.8;0.08419355638848357;-0.5464718477509332;-2.0966073154969633;3.64;0.09646366208287827
57:52.8;0.09326270357620704;-0.508595224611424;-2.0442826389328266;3.388;0.09696638823883927
57:52.8;0.11967406357901846;-0.47774615903157064;-1.9228210283719007;1.528;0.10993503146453411
57:52.8;0.1625583193142409;-0.45638416743432464;-1.740542902799864;1.528;0.12912921264165333
57:52.8;0.21910446140700832;-0.4451756459974306;-1.5104805547432947;1.528;0.14733222821846922
57:52.8;0.28519571486305284;-0.4432820446501744;-1.2485390233832512;1.0859999999999999;0.15784297472264325
57:52.9;0.35608882824254884;-0.4487606908448317;-0.9717491690922286;0.907;0.15528422339935713
57:52.9;0.42706372131338244;-0.4590130530388063;-0.6967517349774405;0.91;0.13658272547404154
57:52.9;0.4939779929527247;-0.47122656410735014;-0.4385928905744195;0.9209999999999999;0.10209370236627746
57:52.9;0.5536598958147431;-0.48275998096665446;-0.2099049444864858;0.929;0.05610440966296677
57:52.9;0.6041022736974695;-0.49143749946613646;-0.020485053157832306;0.9309999999999999;0.006081572075313663
57:52.9;0.6444605967283482;-0.4957382126879699;0.12279120182376523;0.945;0.03922979293434077
57:52.9;0.6748876186021393;-0.4948831538995788;0.21582511271408436;0.8220000000000001;0.0720835401614873
57:52.9;0.696255437279117;-0.4888315650535424;0.2570252647935988;0.8220000000000001;0.087478969129934
57:52.9;0.7098282455402563;-0.4782064838763106;0.2469992962094241;0.8220000000000001;0.08384254505778777
57:52.9;0.7169493630021119;-0.46417275172631317;0.18826468314772485;0.8220000000000001;0.0626522949008459
57:53.0;0.7187893003537669;-0.44828152586615877;0.08500452687966673;0.785;0.02739015561980748
57:53.0;0.716179452789994;-0.4322836016097224;-0.05713853628271027;0.764;0.017689669907868577
57:53.0;0.7095409566591083;-0.41791291865007585;-0.231263401368478;0.757;0.0685756881565741
57:53.0;0.6989078696371381;-0.4066504243255711;-0.4294517687966067;0.823;0.12205499471535197
57:53.0;0.6840306318704815;-0.39948700899818007;-0.6430949139678194;0.96;0.17573298513366753
57:53.0;0.6645276041152763;-0.3967066438521599;-0.8633439159729466;1.124;0.22759689493575364
57:53.0;0.640037534106215;-0.3977118876971026;-1.0816941154942958;1.87;0.2753458167642184
57:53.0;0.6103335384239796;-0.400928625153998;-1.2906352326959782;1.87;0.3158186820740965
57:53.0;0.57539419284532;-0.40385661102560877;-1.4841891620316638;1.87;0.34489105196776904
57:53.0;0.5354557516693609;-0.4033433695120549;-1.6581364154570972;2.005;0.35811191192766334
57:53.1;0.4910601227522711;-0.3961139546905518;-1.8098522191091015;2.043;0.3520447929443834
57:53.1;0.4430812774236353;-0.3794915076708904;-1.9378204597149549;1.984;0.3258359489913644
57:53.1;0.39268938650265095;-0.35213692749996617;-2.04097369572652;1.984;0.2822267284784474
57:53.1;0.34121022026905545;-0.3145752286012156;-2.1180467296154375;1.817;0.22734326326662824
57:53.1;0.2898652074014667;-0.26930210239109437;-2.167147006047173;1.7719999999999998;0.16917033374153864
57:53.1;0.23943962935430832;-0.22038518078527766;-2.185704607844092;1.913;0.11533732842854168
57:53.1;0.18999450600087253;-0.17264687486268912;-2.170858873715869;2.56;0.07120842095292385
57:53.1;0.14075241244612335;-0.13066023185247544;-2.120193134716613;2.56;0.03899192672019962
57:53.1;0.09022620268584937;-0.09784611263965497;-2.032594305995323;2.56;0.017944318145838297
57:53.1;0.03657353938845219;-0.07590855494489038;-1.9089669007123435;2.376;0.005299758904976793
57:53.2;-0.021899454369601907;-0.06470916986045788;-1.752601713961305;2.036;0.002483604024324128
57:53.2;-0.08619837384332354;-0.06253171585300239;-1.569126362370671;1.686;0.008457798563319092
57:53.2;-0.1561951202501151;-0.06659219239383161;-1.3660780957870526;1.3559999999999999;0.014209091234793766
57:53.2;-0.2303886046416555;-0.07362680179526576;-1.1522143523652995;1.041;0.01954475411276002
57:53.2;-0.3059330418391869;-0.0804211020164693;-0.9367063245844869;0.7709999999999999;0.023046228173805944
57:53.2;-0.3789400555047319;-0.08419913843741077;-0.7283502978658696;0.622;0.02323905502145088
57:53.2;-0.4450091519056241;-0.0828496263585827;-0.5349015906868907;0.8009999999999999;0.01972120221200637
57:53.2;-0.49988512819756176;-0.07501569431367003;-0.3626065820582948;0.8009999999999999;0.01359746760881109
57:53.2;-0.5400937095366366;-0.06010406447560243;-0.21597993054970677;0.8009999999999999;0.007011103171398946
57:53.2;-0.5634118033674984;-0.03826826903555324;-0.09782714960318087;0.8009999999999999;0.0021092310660895024
57:53.3;-0.5690953325198562;-0.010394064621705477;-0.0094482269964195;0.792;5.588828141205386e-05
57:53.3;-0.5578581648363634;0.02191313125681178;0.04908414313094577;0.701;0.0006000251411529598
57:53.3;-0.5316288559973653;0.05635325980977154;0.07866979695698217;0.5379999999999999;0.0023568699452526137
57:53.3;-0.49313011918965;0.0899876801405977;0.08100189667990587;0.389;0.0035945106364760134
57:53.3;-0.44535544396522037;0.11934641029020789;0.05845716192628085;0.322;0.0031070901410907618
57:53.3;-0.39104741313687263;0.14060546852675865;0.013998349779978238;0.285;0.00076967693164865
57:53.3;-0.33228935106827673;0.14984511546310533;-0.048990971838961665;0.215;0.0024393553431031017
57:53.3;-0.27029681519673104;0.14338359027723258;-0.12698738954509559;0.41700000000000004;0.004921539498631
57:53.3;-0.2054456937980533;0.11816265261237612;-0.21668821875453453;0.41700000000000004;0.005260324963837057
57:53.3;-0.13751755857039896;0.07215063018041357;-0.3153475208761437;0.41700000000000004;0.003128871325859233
57:53.4;-0.06610137560256399;0.0047267029655280925;-0.4209995272363114;0.631;0.00013153775245323065
57:53.4;0.00893117950448771;-0.08299403717834691;-0.5325473329872079;0.763;0.0003947425326957496
57:53.4;0.08697463715498713;-0.1879488145719411;-0.6497259524056553;0.856;0.010620927172497066
57:53.4;0.16637200125425944;-0.30509931459834594;-0.7729346465918779;0.985;0.039234149947024684
57:53.4;0.2443333305953197;-0.42766638959353626;-0.9029199324195147;1.093;0.09434895096385079
57:53.4;0.3171626557383058;-0.5476924931368652;-1.040295882626394;1.173;0.18070730693985557
57:53.4;0.38080415928570976;-0.656937399257299;-1.1849115429935655;1.7519999999999998;0.2964227966203491
57:53.4;0.43161389078046475;-0.747988983772219;-1.3351335996296785;1.7519999999999998;0.4310377830848828
57:53.4;0.4671475100761482;-0.815339129762185;-1.4871998741847796;1.7519999999999998;0.5664501079356261
57:53.4;0.48672378449171727;-0.856153781238665;-1.6348568298389703;1.9269999999999998;0.6812618574198118
57:53.5;0.491609737374523;-0.8705770579568797;-1.7694743648193012;1.9669999999999999;0.7573069975921848
57:53.5;0.48479096065633;-0.8615386641418328;-1.8807422641494713;2.124;0.7855223930824692
57:53.5;0.47038254796849643;-0.8341169662268516;-1.957916802551661;2.506;0.7681966142152608
57:53.5;0.45282299296670375;-0.7945859575462507;-1.9914210623963502;2.891;0.7165268229174637
57:53.5;0.43606243929301297;-0.7493517094215485;-1.9744562077834111;3.0469999999999997;0.6451814734471382
57:53.5;0.4229530648730447;-0.7040108953718207;-1.9042224068121192;2.93;0.5670080541219666
57:53.5;0.4149636366712261;-0.6627091461387443;-1.7824295637942917;1.652;0.49016848178276223
57:53.5;0.41222096384612544;-0.6278645113060962;-1.6150134673233267;1.652;0.4179960317328295
57:53.5;0.4137896088798823;-0.6002108763158523;-1.4112639140483871;1.652;0.3505029504832223
57:53.5;0.418076528313028;-0.5790630533653828;-1.1826993796961003;1.284;0.2863228518506427
57:53.6;0.4232748035585675;-0.5627130485369595;-0.9419171991388529;1.057;0.22434796258889286
57:53.6;0.4277866512632853;-0.5488903978822751;-0.7015144333170448;0.9570000000000001;0.16472119069036778
57:53.6;0.4305687356236513;-0.535227785323045;-0.47316047952611284;0.9079999999999999;0.10904094481111866
57:53.6;0.4313485423452847;-0.5196762513310322;-0.2669182344448132;0.868;0.059832816768184055
57:53.6;0.43068559744097057;-0.5008255964401709;-0.09086532407401046;0.825;0.019599502402829427
57:53.6;0.42988249894987374;-0.478102086479162;0.049008944807329;0.764;0.010072696670605114
57:53.6;0.43077423538823006;-0.45183254143816515;0.14871072771839644;0.618;0.028944731491098042
57:53.6;0.4354380757651695;-0.42318400806809914;0.20604915769117232;0.618;0.037968766923457985
57:53.6;0.4458706356463807;-0.394008657606068;0.2204228319336188;0.618;0.03872319773509056
57:53.6;0.4636720256758352;-0.3666279109597893;0.19263441587787664;0.59;0.03274690797415194
57:53.7;0.4897636436252942;-0.3435741478476147;0.12475801607567276;0.55;0.020993047147604117
57:53.7;0.524156945012886;-0.3272957320198542;0.020060645651776336;0.504;0.003441490644444892
57:53.7;0.565791153082025;-0.31983732883033533;-0.11704524751669691;0.465;0.02118064037787798
57:53.7;0.612464652718718;-0.322522513688704;-0.28105699027810793;0.49200000000000005;0.05551821015167161
57:53.7;0.6608900218276668;-0.3356771666893894;-0.4654889357026446;0.5710000000000001;0.10326671413781476
57:53.7;0.7068991039898286;-0.3584384689066161;-0.6630799829078572;0.731;0.16801109500699105
57:53.7;0.7458068170314264;-0.38869517347787974;-0.8661416509048091;1.585;0.25108711116470145
57:53.7;0.7729074529658603;-0.42319608785494767;-1.0670292986673706;1.585;0.34901611820624484
57:53.7;0.7840374768537268;-0.4578462426196059;-1.2586237363313175;1.585;0.45180641673148475
57:53.7;0.7761244242382481;-0.4881926558432977;-1.4346827097319157;1.956;0.5435987593194948
57:53.8;0.7476533871699906;-0.5100726719423616;-1.5900056848067934;2.237;0.6063606897441339
57:53.8;0.6989798519510182;-0.5203297566480588;-1.7204457840227663;2.241;0.6257261596365513
57:53.8;0.6323952534448882;-0.5174188824486112;-1.8228278572673482;2.201;0.5964534188056372
57:53.8;0.5518643046173752;-0.5017042235267468;-1.8948351480943875;2.1069999999999998;0.5246280333897901
57:53.8;0.4624334182412805;-0.4753312971054995;-1.9349269808834804;2.031;0.4253145127969041
57:53.8;0.36942517375463135;-0.44169623067488606;-1.9423166935757405;1.9969999999999999;0.31693501460003043
57:53.8;0.27762221408665383;-0.4046712480851541;-1.9169906394979426;1.8459999999999999;0.2153657087155426
57:53.8;0.19065035915740428;-0.3678138220236884;-1.8597359648418503;1.8459999999999999;0.13041182216722108
57:53.8;0.110687410612517;-0.33375904399874357;-1.7721685364470088;1.8459999999999999;0.0654690881751615
57:53.8;0.038508905922437706;-0.30390494072303126;-1.6567661228380417;1.7180000000000002;0.019389211425287357
57:53.9;-0.02620126048191027;-0.27840491040888987;-1.5168958989990189;1.605;0.011065087507455761
57:53.9;-0.08438854788534382;-0.25640767771892603;-1.3568096898300528;1.476;0.02935847383973309
57:53.9;-0.13713753025018438;-0.23643930787125803;-1.1815854798851106;1.327;0.03831255794189009
57:53.9;-0.18525690209238863;-0.21681088267919282;-0.9970044971549343;1.114;0.040045395959100394
57:53.9;-0.22900270209539492;-0.19596072472535003;-0.8093584996006763;0.877;0.03632039605408665
57:53.9;-0.267969013384876;-0.1726858480307228;-0.6251892825180121;0.69;0.028930294147064464
57:53.9;-0.30115510108614907;-0.14625999254575223;-0.45097813000577724;0.44799999999999995;0.019864207914443474
57:53.9;-0.3271908652596669;-0.11646391523264327;-0.2928265697822361;0.44799999999999995;0.011158428534974991
57:53.9;-0.34466195522455584;-0.08356875985363364;-0.15618654789065076;0.44799999999999995;0.004498636791729976
57:53.9;-0.3524550774742257;-0.04831067722597553;-0.04567663377852734;0.48;0.0007777517325633177
57:54.0;-0.35006244413626236;-0.01187350464798084;0.03503412291636961;0.511;0.0001456182128256608
57:54.0;-0.33780868024392496;0.0241258022861899;0.08332289010233061;0.516;0.0006790736744985827
57:54.0;-0.31696855567726934;0.05766478554201753;0.09771517974837275;0.51;0.001786030608243743
57:54.0;-0.28974788196364454;0.08637644463640402;0.07797664551917736;0.456;0.0019515520652821318
57:54.0;-0.2591183818386285;0.10766453045194603;0.02515333030722329;0.375;0.0007017240600809679
57:54.0;-0.22852331450873598;0.11888763732026592;-0.05848961056533337;0.226;0.001589080654307735
57:54.0;-0.20149591126903826;0.11761422666906021;-0.16966816820987538;0.509;0.004020929572241086
57:54.0;-0.18125295248330653;0.10193260186553632;-0.30440404559350104;0.509;0.005624042831623642
57:54.0;-0.1703323244507191;0.07077678330122598;-0.4583855744160328;0.509;0.005526101220625424
57:54.0;-0.1703276978121807;0.024213325893815005;-0.627259322198758;0.752;0.002586942931656828
57:54.1;-0.18174282440300946;-0.036369020303248886;-0.8068080241631652;1.056;0.005332846512328581
57:54.1;-0.2039586932686415;-0.10822901255504393;-0.9930200176398274;1.35;0.021920170113006194
57:54.1;-0.23528374893288037;-0.18746638989829834;-1.1820322350391168;1.436;0.052136835523263945
57:54.1;-0.2730443665496007;-0.2694684824114124;-1.3698954950756643;1.3419999999999999;0.10079259684334015
57:54.1;-0.31368730594012023;-0.349554737562659;-1.5521531780665574;1.166;0.1701949679303883
57:54.1;-0.35291518297976954;-0.4236735426681835;-1.7233542903454573;1.242;0.25767735669775943
57:54.1;-0.3859275558411035;-0.4889621570528371;-1.8767570749326639;2.042;0.3541515110847962
57:54.1;-0.4078302626787876;-0.5440123443848577;-2.0044734025545465;2.042;0.44472188472567376
57:54.1;-0.4141853384545374;-0.5887887637322843;-2.0981146415508296;2.042;0.5116623361293429
57:54.1;-0.40158725668133133;-0.6242628526957434;-2.1498063996611565;2.591;0.5389478790618153
57:54.2;-0.3681438569245943;-0.6518866326191419;-2.1533881692795287;2.935;0.5167874474711625
57:54.2;-0.31377388645501914;-0.6730519861839961;-2.105600317237076;3.0260000000000002;0.44467359809759044
57:54.2;-0.24026373269611812;-0.6886823397026144;-2.006997183497126;2.8510000000000004;0.3320885708509989
57:54.2;-0.1510744808964961;-0.6990545913110436;-1.8623174743690067;2.457;0.19667806253906459
57:54.2;-0.05095110395669442;-0.7038539019699313;-1.6801666151978125;2.023;0.06025435917015824
57:54.2;0.05458561372173084;-0.7023860371577165;-1.47204874528565;1.607;0.056438603423003664
57:54.2;0.15979068739672947;-0.6938505719180321;-1.2509408845636882;0.948;0.13869289147732913
57:54.2;0.259223152173135;-0.6776007809197017;-1.0297078304600544;0.948;0.1808679851310524
57:54.2;0.34818100489496706;-0.6533524644791755;-0.8196995964242049;0.948;0.18646929517633293
57:54.2;0.4229918490395662;-0.621329715965318;-0.6297971834848638;0.884;0.16552166170393667
57:54.3;0.4811583817729411;-0.5823436227618211;-0.46598950693274505;0.856;0.13057003391400596
57:54.3;0.5213980907652396;-0.5378020981215943;-0.3314068352429599;0.8420000000000001;0.0929294550117396
57:54.3;0.54361794481934;-0.4896549577475447;-0.2266840733140568;0.828;0.060339950333929124
57:54.3;0.5488445341769644;-0.44028400986828103;-0.15053257061674655;0.8;0.036375815188617384
57:54.3;0.5391113818082721;-0.3923501819302273;-0.10041025041704532;0.764;0.021238821225619563
57:54.3;0.5172942379414546;-0.3486122243308761;-0.0731939358292952;0.735;0.013199435365513853
57:54.3;0.4868835778709502;-0.31173586865082;-0.06577592522199438;0.574;0.00998340909268739
57:54.3;0.4516962350455678;-0.284114252565041;-0.07552403031005028;0.574;0.00969225092449119
57:54.3;0.4155507611911053;-0.2677148227088887;-0.10056195660205841;0.574;0.011187427001177834
57:54.3;0.38194084927054706;-0.26395512996974807;-0.1398494607909782;0.501;0.014098957863927902
57:54.4;0.3537290682843157;-0.27359702185836815;-0.19306985904293114;0.42200000000000004;0.018685150291732344
57:54.4;0.33287552352752303;-0.29664393828229285;-0.26036399129249055;0.35700000000000004;0.025709774131266072
57:54.4;0.32023030154809945;-0.33223368142559173;-0.34197811254840493;0.33399999999999996;0.036383493225421025
57:54.4;0.3154356387449034;-0.37853789898126233;-0.4379077156632833;0.36;0.05228808350130407
57:54.4;0.3169821101780677;-0.4327015648660029;-0.5476158443336724;0.42700000000000005;0.07511025272495472
57:54.4;0.3224412111347587;-0.49087098872912127;-0.6698901895431334;0.589;0.10602823372456455
57:54.4;0.32886033653100155;-0.5483599197058596;-0.8028755149590152;1.412;0.14478561480693286
57:54.4;0.3332616562076525;-0.599980794192786;-0.9442510307295151;1.412;0.18880355369147353
57:54.4;0.33315131475670756;-0.6405261760394223;-1.0914297341955388;1.412;0.23290252411145104
57:54.4;0.3269430537318927;-0.6653549096982476;-1.2416314529132915;1.716;0.270096020947789
57:54.5;0.314223292690264;-0.6710235319555395;-1.3917683820697757;1.8;0.29345606644372363
57:54.5;0.29580000116378957;-0.6558673354177119;-1.5381952683426365;1.804;0.2984184322396966
57:54.5;0.27348837198140663;-0.6203837453422634;-1.6764369973838276;1.791;0.2844372774658602
57:54.5;0.24963104079579;-0.5672687259060744;-1.8010239727021797;1.579;0.25503919103195444
57:54.5;0.22643991801767335;-0.5010370924499787;-1.9055580176114733;1.642;0.21619470022871276
57:54.5;0.20534683732692827;-0.4272913732602662;-1.9830938369466733;1.8869999999999998;0.17400246791502
57:54.6;0.18659857706052851;-0.35182628253719167;-2.0268502783400044;2.465;0.1330632957781533
57:54.6;0.16925430175190895;-0.2797969071671805;-2.031159363955819;2.465;0.09618926901644084
57:54.6;0.15154914452187568;-0.21512061750799513;-1.9924506671467659;2.465;0.06495657269567055
57:54.6;0.1314310417757783;-0.1601776867491249;-1.9100329309514892;2.465;0.040210624928799586
57:54.6;0.10708193161778667;-0.11579100526374642;-1.7864998433407144;2.2230000000000003;0.022151033990402403
57:54.6;0.07732437696231867;-0.08142428181735077;-1.627684531454818;1.8880000000000001;0.01024803505413603
57:54.6;0.04186944396489249;-0.05552208143981234;-1.4421692190741295;1.49;0.003352580033156924
57:54.6;0.0013799163806247688;-0.03591009381866009;-1.2404319783355424;1.111;6.14670348865681e-05
57:54.6;-0.042651652899869975;-0.020183972758277647;-1.033775581723785;0.77;0.0008899565162733948
57:54.6;-0.08817767161502835;-0.00603690220151583;-0.8332104800729965;0.502;0.00044353458600268094
57:54.6;-0.13296473571154116;0.00850081610002374;-0.6484549472200439;0.405;0.0007329543112456176
57:54.6;-0.17497896231758958;0.024912747342384675;-0.48718601484025303;0.405;0.0021237445295394413
57:54.6;-0.21269896271551636;0.04411562476914025;-0.35462815380519835;0.405;0.003327599245809839
57:54.7;-0.2452865454505641;0.06641501010736403;-0.2534969440424128;0.405;0.004129644794494533
57:54.7;-0.27259137425182417;0.0914802456777543;-0.18423982675228104;0.35200000000000004;0.00459433805704142
57:54.7;-0.29501142754904786;0.11834416579251307;-0.14547293050470056;0.326;0.005078879153990056
57:54.7;-0.3132591241852267;0.1454434530259698;-0.1345129593899524;0.326;0.006128610681050066
57:54.7;-0.32809586302696647;0.1707123984511321;-0.14792444581736255;0.353;0.008285252899321145
57:54.7;-0.34009692046712026;0.19173363950690908;-0.18202559528543508;0.406;0.011869528720911422
57:54.7;-0.3494951317114335;0.20593989261177956;-0.23331508417693358;0.469;0.016792850825517458
57:54.7;-0.35613033929262794;0.21085273485378667;-0.2987958584208084;0.6829999999999999;0.022436896538517135
57:54.7;-0.3595041452794415;0.20433713888436275;-0.3761770256310425;0.6829999999999999;0.027633982533700138
57:54.7;-0.3589115589192016;0.18484450255914153;-0.4639358457173984;0.6829999999999999;0.030778816280438923
57:54.8;-0.3536084053586138;0.15161630814596505;-0.5612355505571439;0.742;0.03008940985800239
57:54.8;-0.3429807141041498;0.10482564895388889;-0.6677246821363625;0.799;0.024006822972747366
57:54.8;-0.3266926663723152;0.045639128321768696;-0.783266176352447;0.86;0.011678474034033973
57:54.8;-0.30479159877852763;-0.023816916705716677;-0.9076429999778646;1.006;0.006588758544429273
57:54.8;-0.27774887757521904;-0.10060226920679781;-1.0402698801071917;1.115;0.029067395082977024
57:54.8;-0.246421256911827;-0.18123119255327413;-1.1799207996326138;1.169;0.05269434052102303
57:54.8;-0.21193145021310258;-0.2620498828885101;-1.3244733125434462;1.2570000000000001;0.07355676007730824
57:54.8;-0.1754905674187488;-0.33966840063909554;-1.4706838741945485;1.47;0.08766540731625043
57:54.8;-0.1382102158885634;-0.4113567365504956;-1.6140321856550504;1.47;0.09176370710618112
57:54.8;-0.10096033070992884;-0.47531154803994496;-1.7486900380721988;1.47;0.08391545744711047
57:54.8;-0.06430942876418864;-0.5307375360656075;-1.867683092927718;1.7009999999999998;0.0637466905799494
57:54.9;-0.028546688208458536;-0.5777464535465299;-1.9633136607410657;1.963;0.03238043720209235
57:54.9;0.006246199861871945;-0.6171230417351443;-2.0278663487604396;2.261;0.00781676340217411
57:54.9;0.04011317206263627;-0.650021258118999;-2.054526289423177;2.526;0.053570570218051956
57:54.9;0.07315653522357142;-0.6776467204928509;-2.038349308180621;2.677;0.101049711932177
57:54.9;0.10548723195766069;-0.7009730685374406;-1.9770760754240408;2.642;0.14619233735318882
57:54.9;0.13718418044058908;-0.7205371227599012;-1.8715910926456092;2.454;0.18499984463198926
57:54.9;0.16825685711810096;-0.7363502277248876;-1.7259018911144621;1.565;0.21383229764921835
57:54.9;0.19861258263706874;-0.747938323254958;-1.5466626391271885;1.565;0.2297566763231513
57:54.9;0.22803330479623826;-0.754485771553329;-1.342431414254729;1.565;0.23096248411555304
57:55.0;0.2561684918022824;-0.7550353603206188;-1.1228945636462528;1.3090000000000002;0.21718607755433245
57:55.0;0.28255465293393894;-0.7487039880824712;-0.8981816832905581;1.133;0.19001015142456681
57:55.0;0.30667153202527;-0.734888847415617;-0.6782820760813144;1.015;0.15286408468436916
57:55.0;0.32803505394278065;-0.7134431616643978;-0.47255869252225724;0.9520000000000001;0.1105949740124846
57:55.0;0.346313145596357;-0.6848011102135889;-0.2893724046330277;0.9159999999999999;0.06862629393742746
57:55.0;0.3614395148416388;-0.6500363183195972;-0.1358141715067721;0.875;0.03190937818348074
57:55.0;0.37369564090157564;-0.6108438558837556;-0.017513915483917668;0.833;0.00399789599191464
57:55.0;0.38373528558420594;-0.5694418810888979;0.061515675177006394;0.7020000000000001;0.013442094246498148
57:55.0;0.39253909974029166;-0.5284018519232219;0.09902361305336264;0.7020000000000001;0.020539318119696046
57:55.0;0.40130352772988365;-0.49043261296264407;0.09464006100631624;0.7020000000000001;0.018626331646316167
57:55.1;0.41127904285727096;-0.4581461273931395;0.049934491689476494;0.645;0.009408951575732932
57:55.1;0.4235748882622286;-0.4338176041479394;-0.03161984511112459;0.575;0.005810280708595557
57:55.1;0.43894700318057256;-0.41914406879939486;-0.14479776345811482;0.524;0.026640186880456104
57:55.1;0.4575876224789093;-0.41501598023605124;-0.28290878053442015;0.528;0.05372612457955567
57:55.1;0.4789377772902366;-0.42133076149755366;-0.4382257860670125;0.619;0.08843011531161456
57:55.1;0.5015465624498506;-0.43688168655827264;-0.6025408299139552;0.757;0.13202664263275485
57:55.1;0.5230074881213129;-0.4593537359559165;-0.7678116856182073;0.904;0.18446325901371927
57:55.2;0.5400128023214513;-0.4854530398020192;-0.9268428178786858;1.651;0.24297263847265546
57:55.2;0.5485637837274052;-0.5111768966620659;-1.073907524564512;1.651;0.30113777307185935
57:55.2;0.5443425497343304;-0.5321914592055595;-1.205173760643884;1.651;0.349132156795378
57:55.2;0.5232132365794478;-0.544256273755606;-1.318808351189055;1.651;0.3755466178050454
57:55.2;0.4818108284825274;-0.5436501363573247;-1.4147284857072613;1.635;0.3705690599735137
57:55.2;0.4181751607998499;-0.5275842391940699;-1.4940759220356168;1.635;0.3296269504650291
57:55.2;0.3323558825438254;-0.4945892282253515;-1.5585484836991736;1.729;0.25619363780569343
57:55.2;0.22685914194831117;-0.44482625541141785;-1.6097432519032413;1.692;0.1624438640204447
57:55.2;0.10677573293276224;-0.3802322009310553;-1.6486584839246394;1.578;0.06693482872102474
57:55.2;-0.020541644058716294;-0.3044075960350273;-1.675463514129606;1.6019999999999999;0.01047672778383311
57:55.2;-0.14629196694812951;-0.22220839307342197;-1.6895797599541824;2.039;0.05492368102225084
57:55.2;-0.26141885788035063;-0.13909664404874716;-1.6900243320249175;2.039;0.061453485812451324
57:55.2;-0.3579133018751984;-0.06039956112568513;-1.6758769633848503;2.039;0.03622878366809747
57:55.3;-0.42991496832852866;0.00934984027445686;-1.6467025729884484;2.074;0.0066191454137610505
57:55.3;-0.4744128942276987;0.06688254275941503;-1.6028157598644224;2.1;0.050857248987561
57:55.3;-0.4914792698976559;0.11043892687035026;-1.5453496226075507;1.811;0.08387917163220063
57:55.3;-0.4840363649416499;0.13978579134259309;-1.4761397299406678;1.541;0.09987769004074348
57:55.3;-0.45721314956383274;0.15602854437121533;-1.3974682688333127;1.29;0.09969301366831035
57:55.3;-0.41743029121344777;0.16128161913947597;-1.3117470526092798;1.151;0.08831183982918285
57:55.3;-0.3714122904442535;0.15827788141415808;-1.2212318072428394;1.06;0.07179176101676964
57:55.3;-0.32532201195318516;0.1499851527386616;-1.1278414007505273;1.035;0.05503129741552602
57:55.3;-0.28414777385624496;0.13927411058159525;-1.0331162870366004;1.035;0.04088498661034136
57:55.3;-0.2513793402993505;0.12865785455761342;-0.9383060866752643;1.035;0.030346626586420802
57:55.4;-0.22893566852640324;0.12010399012104808;-0.8445376038223109;0.9890000000000001;0.02322147965838228
57:55.4;-0.21727948885670914;0.11490951902409584;-0.7529930866482843;0.91;0.01880034100443789
57:55.4;-0.2156514882912899;0.11362589961321974;-0.6650331764360318;0.804;0.016295703191349147
57:55.4;-0.2223582153771179;0.11602360395697826;-0.5822260904128166;0.664;0.01502073534486747
57:55.4;-0.2350603644210394;0.1210936554367381;-0.5062794202712732;0.515;0.014410898808347936
57:55.4;-0.25103828017769275;0.12709645291555607;-0.43890117830823455;0.396;0.01400361389364536
57:55.4;-0.26744393586799325;0.13167599803714594;-0.3816375077715973;0.344;0.013439726313454416
57:55.4;-0.2815618551112264;0.1320521287436778;-0.33574160638880246;0.505;0.012483155734273643
57:55.4;-0.29108417167799483;0.1252867555592353;-0.30211690354700615;0.505;0.011017898776641295
57:55.4;-0.29436877403241896;0.10860207611154708;-0.28135072892050933;0.505;0.008994518334559486
57:55.5;-0.2906285007285268;0.07971969817152302;-0.27382690794824943;0.54;0.006344245344164935
57:55.5;-0.2800125187102034;0.037191541450914974;-0.2798874568168801;0.551;0.002914775179340176
57:55.5;-0.26356858791295046;-0.019303390593687783;-0.30000236918221584;0.551;0.00152634227406117
57:55.5;-0.24309444206458075;-0.08872550139166557;-0.3349002607363681;0.536;0.007223355302444429
57:55.5;-0.2208979726337524;-0.16854070095652382;-0.3856178799492329;0.53;0.014356669027160767
57:55.5;-0.1994934316364596;-0.2547301138860074;-0.45344502522648045;0.575;0.023042708845863392
57:55.5;-0.1812618917461181;-0.3419946775727464;-0.5397622884878921;0.657;0.03346018932113631
57:55.5;-0.16809888606034723;-0.4241997594326607;-0.6457793113996189;1.053;0.04604891278597
57:55.5;-0.16107292557129524;-0.49505101755949077;-0.7721792541582374;1.053;0.061573045328448345
57:55.5;-0.16013527693586385;-0.5488937089248263;-0.9186761244819807;1.053;0.08074910138787211
57:55.6;-0.1639372374484337;-0.5814710552843003;-1.0835168326632378;1.176;0.1032859803604621
57:55.6;-0.16981051950194065;-0.5905167833326679;-1.263008891869013;1.2670000000000001;0.12664943133391648
57:55.6;-0.17396364489647884;-0.576118026187943;-1.451197386401424;1.382;0.1454442143688533
57:55.6;-0.17194092829217283;-0.5408014406238186;-1.6398213615377288;1.4780000000000002;0.15248026796657355
57:55.6;-0.1593419092851172;-0.4893049707666734;-1.8186441026067988;1.766;0.14179383967671724
57:55.6;-0.13269481032748423;-0.42804154154695995;-1.976184732117202;2.1390000000000002;0.11224510152710719
57:55.6;-0.09026539215285266;-0.3643232061296805;-2.1007956730072603;2.511;0.0690862981756671
57:55.6;-0.03254157990520398;-0.3054659404860577;-2.1819469239297677;2.752;0.02168930369141535
57:55.6;0.03776962106024049;-0.2579234670286654;-2.211510580941392;2.752;0.02154380984647235
57:55.6;0.11619735460888056;-0.22659327061991202;-2.1848150943750313;2.752;0.057525173400991045
57:55.7;0.19723774729176424;-0.21439133399409924;-2.1012833164137943;2.541;0.08885500028702464
57:55.7;0.2751881969660699;-0.22212017602181353;-1.9645670802144986;2.302;0.1200838695649597
57:55.7;0.3449551664386515;-0.24859257788936542;-1.7821966132951812;2.037;0.15282923029049073
57:55.7;0.40270277496445045;-0.290942169962681;-1.5648399776686177;1.735;0.18334168931361708
57:55.7;0.4462264597382087;-0.34504883649900425;-1.325303938024186;1.431;0.2040569423042499
57:55.7;0.4750145849336469;-0.4060182831179278;-1.0774071010931114;1.149;0.20779369630251998
57:55.7;0.4900486056787397;-0.4686700238996429;-0.8348364207593166;0.943;0.19173779217630074
57:55.7;0.49343907133267534;-0.5279996383725316;-0.6100814597269134;0.8059999999999999;0.1589479704087433
57:55.8;0.48799695656279507;-0.5795843717839945;-0.41354304846995693;0.8059999999999999;0.11696461746068453
57:55.8;0.4768164158282033;-0.6199004959371825;-0.25291848360968233;0.8059999999999999;0.07475732484731223
57:55.8;0.46291436140859027;-0.646531475962714;-0.13292645132251324;0.8;0.03978338551987236
57:55.8;0.4489470225628244;-0.6582693391101152;-0.055349901829166055;0.792;0.01635744909979081
57:55.8;0.4370110767804722;-0.6551283226572135;-0.019313176315928895;0.795;0.00552933019797153
57:55.8;0.428532690063869;-0.6382892167310833;-0.021707641376578234;0.804;0.005937643282221178
57:55.8;0.4242406838186268;-0.6099834671788245;-0.05770279883966733;0.805;0.014932318929780274
57:55.8;0.4242082193299045;-0.5733174372848432;-0.12129458948696331;0.787;0.02949956819263545
57:55.8;0.42793874987757724;-0.5320330758820568;-0.2058511400062865;0.782;0.04686768721206927
57:55.8;0.43447121682051243;-0.49020538123517293;-0.3046239233565324;0.8109999999999999;0.06487884233370567
57:55.8;0.4424844307204782;-0.4518919791019445;-0.41119295997832234;0.8109999999999999;0.08222015620867748
57:55.8;0.45038806960285677;-0.4207676852590805;-0.5198111251511807;0.8109999999999999;0.09850875423219271
57:55.9;0.4563964385800077;-0.3997783784806787;-0.625628688814146;0.8370000000000001;0.11415060154406206
57:55.9;0.45859086960351986;-0.3908322464024007;-0.7248181246976239;0.884;0.12991067442407425
57:55.9;0.4549865456245659;-0.39453828246362527;-0.8146425108456814;0.981;0.14623615961887887
57:55.9;0.4436254118566747;-0.4100167733498434;-0.8934954384967692;1.079;0.16252133415184683
57:55.9;0.42271489583725635;-0.43483087890277916;-0.9609074602596979;1.177;0.17662390990216442
57:55.9;0.3908271176207744;-0.4651062250636452;-1.0174876584779904;1.271;0.18495496412831133
57:55.9;0.3471714439004352;-0.4959058085167875;-1.064754716776687;1.334;0.183312788371005
57:55.9;0.2919430769912652;-0.5218884963720731;-1.104818558974672;1.493;0.16833207082317175
57:55.9;0.22670405173082522;-0.538179333181581;-1.139921320093078;1.493;0.139078876811006
57:55.9;0.15467323800020005;-0.5412565555251867;-1.1719277715619791;1.493;0.0981113367119626
57:56.0;0.08075003887124765;-0.5296141071163923;-1.201907334573501;1.605;0.0514012014401998
57:56.0;0.011124789591400385;-0.5040244971969594;-1.2299239807826536;1.399;0.006896388518272524
57:56.0;-0.04756994633134207;-0.4673342756801778;-1.2550751631391617;1.3940000000000001;0.027901659304931364
57:56.0;-0.08945830753471089;-0.42383251458830945;-1.2757469448544598;1.66;0.048370378445089575
57:56.0;-0.11068525385608347;-0.3783518062129106;-1.2900022713916086;1.857;0.0540226708969429
57:56.0;-0.11035501314777384;-0.3353517062452093;-1.2959999299002112;1.7630000000000001;0.04796203097532184
57:56.0;-0.09081011764056772;-0.29822995534293656;-1.2923474106143635;1.601;0.03499973682614758
57:56.1;-0.05713499816726312;-0.268999610206221;-1.278313619519451;1.328;0.019646775587815614
57:56.1;-0.01605040368019026;-0.24831885852132426;-1.253875924622773;1.328;0.00499747035547483
57:56.1;0.02542868677181981;-0.23574737202510124;-1.2196436492652938;1.328;0.007311453986047124
57:56.1;0.061186041773863435;-0.230080425904455;-1.176736468035683;1.328;0.016565755391504428
57:56.1;0.08682100575533205;-0.2296609880006546;-1.1266696072917244;1.2770000000000001;0.022465113670330834
57:56.1;0.10003600740574842;-0.2326285019098862;-1.0712483682315268;1.1840000000000002;0.024929263457555733
57:56.1;0.10063220757640338;-0.23709676700533944;-1.012452656414659;1.053;0.024156686113748365
57:56.1;0.09019127604348884;-0.2412720918668312;-0.9522994567936364;0.945;0.020722643593706902
57:56.1;0.07155417099299465;-0.24353741816856136;-0.8926878863814883;0.845;0.015556084501338134
57:56.1;0.04822349343910751;-0.24253112853541853;-0.8352480418994443;0.767;0.00976880909178354
57:56.2;0.02380041005719278;-0.2372365543805983;-0.7812265970424918;0.753;0.004411061042690954
57:56.2;0.0015295287868214253;-0.22707891117062493;-0.7314419175998351;0.753;0.000254047136207654
57:56.2;-0.01601600183091151;-0.21201158511603868;-0.6863249252004113;0.753;0.002330469772520718
57:56.2;-0.02710776641078575;-0.19256870099455217;-0.6460354864295065;0.742;0.0033723746004963528
57:56.2;-0.030907967363591006;-0.1698661057516559;-0.6106221525316766;0.722;0.003205898227388081
57:56.2;-0.02740797699662125;-0.1455438588359258;-0.5801847435312345;0.679;0.002314393339821211
57:56.2;-0.017286045340101905;-0.12165282653460306;-0.5550041115580924;0.621;0.0011671160789321266
57:56.2;-0.0017209631396768925;-0.10049211154752515;-0.535617691208985;0.583;9.263144810037533e-05
57:56.2;0.017795012944934997;-0.084405461459401;-0.522837417513687;0.5529999999999999;0.0007852998557808509
57:56.2;0.039606377196267806;-0.07554846253425888;-0.5177199482517105;0.537;0.0015491220970377984
57:56.3;0.061988495540429435;-0.07564599004860123;-0.5215027334934592;0.5660000000000001;0.0024454207702462056
57:56.3;0.08319239750993437;-0.08576910432729265;-0.5355142835841911;0.5870000000000001;0.0038210751072813537
57:56.3;0.1014713651515466;-0.10616620564502324;-0.5610577484214697;0.5870000000000001;0.006044179642802404
57:56.3;0.11513001333203735;-0.13617843617718403;-0.5992621007794896;0.5870000000000001;0.009395366153435256
57:56.3;0.12262773088141529;-0.17425855342697935;-0.6509020366911294;0.612;0.013909080705534715
57:56.3;0.12275052796036105;-0.21810467312836485;-0.7162028656428966;0.655;0.019174515277500262
57:56.3;0.11484289551367839;-0.26491008328282417;-0.7946598782779252;0.799;0.024175970069799765
57:56.3;0.09906151115429687;-0.3117073857505677;-0.8849064259525099;0.9420000000000001;0.027324321734719586
57:56.3;0.0765799492350533;-0.35575475295206643;-0.984660555370885;1.15;0.026825777986214182
57:56.3;0.04964864908918243;-0.39488814228367863;-1.0907703576237913;1.25;0.021385275830048307
57:56.4;0.02141820236407569;-0.4277581787060119;-1.199364469141484;1.484;0.01098835086753721
57:56.4;-0.004496077035208522;-0.4538993895160485;-1.30608620426147;1.484;0.0026654171304561843
57:56.4;-0.02460446720250265;-0.47364037273133547;-1.4063529100684398;1.484;0.01638917133453912
57:56.4;-0.036107792747110054;-0.4879135811088289;-1.495580334566424;1.484;0.02634836031948882
57:56.4;-0.03729937494936577;-0.49802733882234385;-1.569363734807628;1.6269999999999998;0.029152670928644233
57:56.4;-0.02775321494234245;-0.5054413475742047;-1.6236559043901084;1.734;0.022776031869326686
57:56.4;-0.008291804125459294;-0.5115744700006054;-1.6549733656913737;1.786;0.007020190643458845
57:56.4;0.019254481175748708;-0.517668107445901;-1.660618703095587;1.8019999999999998;0.016552102058279883
57:56.4;0.05244922109362669;-0.5247138066515495;-1.638881341916626;1.82;0.04510337554830009
57:56.4;0.08872400239182593;-0.5334323753184818;-1.5891830888905965;1.834;0.07521326301879973
57:56.5;0.12581980396020476;-0.544278638013435;-1.5121491739419335;1.5519999999999998;0.10355353526570309
57:56.5;0.1621113944244957;-0.557447720029947;-1.40960468126796;1.5519999999999998;0.12738403995893696
57:56.5;0.19677227729068753;-0.5728706546978726;-1.2845198484763631;1.5519999999999998;0.14479758125260697
57:56.5;0.22977885914138096;-0.5902007581845207;-1.1409286517519073;1.38;0.15472778856056732
57:56.5;0.26177998372369843;-0.6088007700352278;-0.9838132534686289;1.206;0.15679214383881956
57:56.5;0.293872333383482;-0.6277419247129689;-0.8189270304996706;1.06;0.15107236992142506
57:56.5;0.3273287707212497;-0.6458220978898174;-0.6525489401840056;0.93;0.13794633586464317
57:56.5;0.36332755500062724;-0.6616051434584217;-0.49119010660180484;0.8320000000000001;0.11807197286887039
57:56.5;0.4027262208514612;-0.6734814371126161;-0.3412800662275689;0.7759999999999999;0.09256492616818145
57:56.5;0.4459153710724708;-0.6797510302610394;-0.20885165717904158;0.764;0.06330532507019035
57:56.6;0.4927716796622046;-0.6787319061629136;-0.09923687917204671;0.8859999999999999;0.03319075285764347
57:56.6;0.5427011968300526;-0.6688930191542626;-0.016791557776509328;0.8859999999999999;0.006095487302915508
57:56.6;0.5947335328048257;-0.6490059620788188;0.035321947316931994;0.8859999999999999;0.01363376333342411
57:56.6;0.6476221412430403;-0.6183032343903593;0.055270497924976215;0.966;0.022131792188613247
57:56.6;0.6999300081181841;-0.5766249131536784;0.04260651757640196;1.023;0.017195866088973985
57:56.6;0.7500996294199712;-0.5245271766326607;-0.001738666687258332;1.036;0.0006840743062617059
57:56.6;0.7965038004656878;-0.4633194446793457;-0.07552207912070388;0.987;0.027870343221746283
57:56.6;0.8374712898791541;-0.39500021650863854;-0.17533642071451708;0.9279999999999999;0.058001523067298624
57:56.6;0.871294755596058;-0.3220776637747879;-0.2968621740231608;0.902;0.08330682270768329
57:56.6;0.8962457465630872;-0.24728385846385664;-0.4352337636551362;0.9420000000000001;0.09645959962119965
57:56.7;0.9106269286072715;-0.1732173897798804;-0.5854975006362921;1.392;0.09235427945655898
57:56.7;0.9128803891150636;-0.10198210624684655;-0.7430870294540206;1.392;0.06917951859274767
57:56.7;0.9017515894121094;-0.034919362652860636;-0.9041877091069378;1.392;0.028471596754474155
57:56.7;0.8764950662702662;0.02747716914666486;-1.0658688636347184;1.548;0.025669962766620102
57:56.7;0.8371036883230396;0.08542667551738899;-1.225948654570723;1.607;0.08766879603998362
57:56.7;0.7845342158050826;0.13952192306166247;-1.3826423781771813;1.6469999999999998;0.1513436510275877
57:56.7;0.7208732317123302;0.19024429725057937;-1.5340867688505226;1.626;0.2103877604430639
57:56.7;0.6493490556574861;0.23745576086792827;-1.6778675740902047;1.5590000000000002;0.2587132101335491
57:56.7;0.5740885738331087;0.2800530026319912;-1.8107124841833653;1.5930000000000002;0.29111771407806314
57:56.7;0.4995840615278739;0.31595118173089864;-1.9284927231412676;1.9240000000000002;0.3044013421326708
57:56.8;0.42996222438945164;0.34243839772710016;-2.0265722761382325;2.419;0.2983835347678758
57:56.8;0.36825807928625115;0.35678156314199433;-2.100398528373251;2.419;0.2759665173751993
57:56.8;0.3159089230139332;0.35687616046012927;-2.1461377830021755;2.419;0.24195635377740835
57:56.8;0.2725991916214557;0.34175652170330806;-2.161183147855083;2.419;0.20134133641603139
57:56.8;0.23647911736063074;0.3118692456242457;-2.1444594577659104;2.29;0.15815509435058517
57:56.8;0.20469452927017903;0.2690914400790866;-2.0965329021669565;2.227;0.11548027277341852
57:56.8;0.17409122560246024;0.21652970352330594;-2.0195669646457657;2.178;0.07612943769402847
57:56.8;0.14190630934674767;0.15817171939124638;-1.917166213615982;2.1;0.043031878752021274
57:56.8;0.10627488409936921;0.09847056580617512;-1.7941291084480797;1.966;0.018775467768232936
57:56.8;0.06646002608555392;0.041921594113069456;-1.6561044258031277;1.7919999999999998;0.004614089496428342
57:56.8;0.02280351298809011;-0.007332797696789949;-1.5091412116636107;1.167;0.00025234885570756357
57:56.8;-0.02353427825944934;-0.04584600949767803;-1.3591639164860607;1.167;0.0014664736380589657
57:56.9;-0.07092902030086419;-0.07113712259040136;-1.2114687020473673;1.167;0.006112691168919374
57:56.9;-0.11762494711984738;-0.08187743619722133;-1.0703464152190554;0.978;0.01030832340599072
57:56.9;-0.16198064108092314;-0.07799619849268112;-0.9388715231961292;0.8420000000000001;0.011861584745680482
57:56.9;-0.20261822776748403;-0.06070902288723118;-0.8188385075296002;0.7559999999999999;0.010072331560183868
57:56.9;-0.23848727441276266;-0.032461369883069885;-0.7108285885244923;0.693;0.0055029673957520606
57:56.9;-0.2688587424710639;0.003226824771277767;-0.6144034576493679;0.655;0.0005330318945491856
57:56.9;-0.29327002668642743;0.04202058294083145;-0.5284103754190032;0.626;0.006511800520867739
57:56.9;-0.31144665401535043;0.07912139622874823;-0.45136032106329754;0.591;0.01112246351208027
57:57.0;-0.32322551585129383;0.10968297312970719;-0.38182990894063984;0.5579999999999999;0.01353676206240824
57:57.0;-0.3284997173700643;0.12925062597871534;-0.31884340335816186;0.5579999999999999;0.013537706414574718
57:57.0;-0.3271982858002309;0.13417604042085698;-0.26220408089248776;0.5579999999999999;0.011511328244467428
57:57.0;-0.31930690176040755;0.12196483727912988;-0.21274828012562588;0.5770000000000001;0.00828531461642624
57:57.0;-0.30492735502731577;0.09153055383798267;-0.17248722678450903;0.595;0.00481414776822345
57:57.0;-0.28435991839949715;0.043337703924688595;-0.14459533605951816;0.573;0.0017819214845097278
57:57.0;-0.2581765274552158;-0.020586746772215038;-0.1332105024970961;0.508;0.0007080157913883785
57:57.0;-0.2272436743193403;-0.09679655969565201;-0.14303136887084358;0.42200000000000004;0.0031461760442150033
57:57.0;-0.19265912376065836;-0.18074105494021667;-0.17872486148987884;0.34600000000000003;0.006223452263984219
57:57.0;-0.15558182035277188;-0.26725750765982015;-0.24418784322485856;0.342;0.010153430527116774
57:57.1;-0.1169568960426684;-0.35122451638759145;-0.341732860246403;0.91;0.014037746602440487
57:57.1;-0.07718199929116568;-0.4283009077993492;-0.47129552104343464;0.91;0.015579672765286793
57:57.1;-0.035825062180016395;-0.4955892532505399;-0.6297981988456374;0.91;0.01118176208068624
57:57.1;0.008470452337104863;-0.5520344893510246;-0.8108342222272418;0.956;0.0037914460906707296
57:57.1;0.0578099205032422;-0.5984446532361027;-1.0048270312093524;0.98;0.03476303398349078
57:57.1;0.11460746266570881;-0.6371316654663375;-1.1997550634882725;1.264;0.08760616700093246
57:57.1;0.1809619043374535;-0.6712465769777521;-1.3824178124148006;1.778;0.16792237302916352
57:57.1;0.2579910303156483;-0.7039402002252875;-1.5400712016579172;2.326;0.2796927275579889
57:57.1;0.3453091921311081;-0.737530669951553;-1.6621261221535568;2.71;0.42330383142970635
57:57.1;0.44082138312089303;-0.7728742464759464;-1.7415353329375378;2.835;0.5933402072548944
57:57.1;0.5409202884994146;-0.8090864921267277;-1.7755359838939697;2.156;0.7770656293146505
57:57.1;0.6410311397381669;-0.8436535163179654;-1.7655996395122235;2.156;0.9548507190184511
57:57.1;0.7363206226915213;-0.8728556341382683;-1.7167088955089167;2.156;1.1033315608278964
57:57.2;0.8223638787727744;-0.8923711803595871;-1.6362457688076883;1.9669999999999999;1.2007652163831917
57:57.2;0.8956523396841837;-0.8979495953380628;-1.53275533359754;1.9169999999999998;1.2327194825072665
57:57.2;0.9539124683613917;-0.8860677404105242;-1.4147782467143462;1.891;1.1958145247615346
57:57.2;0.9962248479320289;-0.8544730488214044;-1.2899334452023812;1.84;1.0980523406394638
57:57.2;1.0229344272519596;-0.8025188323265319;-1.1643987535699798;1.7790000000000001;0.955883047842395
57:57.2;1.035375041179893;-0.731244044390059;-1.0428183520150363;1.74;0.7895301135347648
57:57.2;1.035478521881106;-0.6432134261341071;-0.9285206079497668;1.681;0.6184260046622663
57:57.3;1.0253651675314488;-0.5421794105320857;-0.8238482675016385;1.156;0.4580035179271717
57:57.3;1.0070025830287768;-0.4326538326878857;-0.7304380693335831;1.156;0.31823983435637926
57:57.3;0.9819839505787813;-0.31949054231624324;-0.6494087954767043;1.156;0.20374199888985337
57:57.3;0.951437878224876;-0.20755499891973267;-0.5815083353550774;1.156;0.11483375847820859
57:57.3;0.9160564897784911;-0.10148641250566078;-0.5272575431291594;1.071;0.049017703229629735
57:57.3;0.8762154610944216;-0.00549689718006724;-0.4870762662668546;1.03;0.002345986420650665
57:57.3;0.8321510629625612;0.0768488554862054;-0.4613694741811686;1.023;0.029504511796689014
57:57.3;0.784152751663804;0.14288695725026387;-0.45057762509955285;1.0390000000000001;0.05048506043730969
57:57.3;0.7327284129131062;0.19111046830134296;-0.4552075222922832;1.055;0.06374365168511963
57:57.3;0.678705583618404;0.22136987087266632;-0.47584948920781467;1.071;0.07149399099626778
57:57.4;0.6232481086877669;0.23494603571486714;-0.5131697160467142;0.975;0.07514327340785036
57:57.4;0.5677925230480989;0.23443766662059037;-0.5678505235289246;0.975;0.07558769289633605
57:57.4;0.5139282431753153;0.22345387325984883;-0.6404412935148583;0.975;0.07354780198884965
57:57.4;0.4632418731426189;0.2061523473352063;-0.7310946892326206;0.88;0.0698183727282859
57:57.4;0.41712501372097643;0.18668449036512078;-0.8392024798120071;0.752;0.06534934379662528
57:57.4;0.3765392368899672;0.16862385088655277;-0.9629951843506738;0.6970000000000001;0.061143931014890324
57:57.4;0.3417556073100788;0.1544806893751965;-1.0992095489504077;0.7759999999999999;0.05803237441657431
57:57.4;0.31211944944500997;0.1454119087262288;-1.2429410857939693;1.006;0.05641198105033902
57:57.4;0.28591447252566704;0.1411966490107503;-1.3877668310444362;1.3090000000000002;0.05602437653962106
57:57.4;0.26041155956210726;0.140478068659688;-1.526149100129281;1.5590000000000002;0.055829758750225014
57:57.5;0.23217516110238226;0.14120014556618654;-1.6500517175313776;1.959;0.054093920262884586
57:57.5;0.1976325120859759;0.14111979546899958;-1.7516527139884146;1.959;0.04885334840752964
57:57.5;0.153795399943478;0.1382678031212153;-1.82403501892405;1.959;0.03878801727026992
57:57.5;0.09894743200460704;0.13126713286057703;-1.8617777570908747;2.068;0.024181785487104642
57:57.5;0.03313104677546067;0.11947027596503802;-1.861426593784218;2.113;0.007367852768652901
57:57.5;-0.041662234781224584;0.10292286530765479;-1.8218422273780475;2.102;0.007812053238117487
57:57.5;-0.12163678852559354;0.08219216190256631;-1.7444019274388973;2.09;0.017439816339953187
57:57.5;-0.20165889549988533;0.05812027731630289;-1.6330006540894213;1.913;0.019139536694522175
57:57.5;-0.27596770762695255;0.03157072734590638;-1.4937999592076017;1.72;0.013014734017470825
57:57.5;-0.3389965681239937;0.0032258521599616563;-1.3347104106818528;1.49;0.0014595763221426283
57:57.6;-0.3861423673538644;-0.026532165391909734;-1.1646586379850372;0.9229999999999999;0.011932152706327356
57:57.6;-0.41434612632832785;-0.05764556728437684;-0.9927687324186499;0.9229999999999999;0.02371249710526833
57:57.6;-0.42241466694144963;-0.09031261036788465;-0.827641201508159;0.9229999999999999;0.031573991440885185
57:57.6;-0.4110768074945772;-0.12483934358212521;-0.6768797161647581;0.8290000000000001;0.03473649152093083
57:57.6;-0.3827985751372686;-0.16143610425851057;-0.5468982682497742;0.777;0.03379695157624888
57:57.6;-0.3413919623949246;-0.1999966987401425;-0.4429315669335117;0.6970000000000001;0.030242156174097333
57:57.6;-0.2914651244037086;-0.2399132330326193;-0.36912934889503973;0.622;0.02581186446996245
57:57.6;-0.2377840541520833;-0.2799877794092165;-0.328618613442423;0.509;0.02187831960855255
57:57.6;-0.18463548919773634;-0.3184912159686756;-0.32344533262151853;0.431;0.019020132100863216
57:57.6;-0.13528574914055214;-0.3533866493471709;-0.35436306991810657;0.45799999999999996;0.016941452579116965
57:57.7;-0.09161551986272538;-0.3826872284519998;-0.420509835969895;0.677;0.014743112434044697
57:57.7;-0.053978873308952915;-0.40486802416867984;-0.5190749433607571;0.677;0.011344029803780757
57:57.7;-0.0212948137670224;-0.4192201899703205;-0.6450805310786145;0.677;0.005758773156275214
57:57.7;0.008653983308681074;-0.42604741722327594;-0.7913928705214296;0.733;0.002917871241205172
57:57.7;0.03876032653119946;-0.4266573403827294;-0.9490484841397983;0.941;0.015694773361367768
57:57.7;0.07203029874545466;-0.42316072658693593;-1.107919416944493;1.291;0.033769819853922335
57:57.7;0.11100085291185305;-0.4181329804543593;-1.2576483228710353;1.6130000000000002;0.05837137933405442
57:57.7;0.15723575387654815;-0.4142118014565336;-1.3886955030306816;1.8559999999999999;0.0904442173055343
57:57.7;0.21099939906576554;-0.4137046057797407;-1.493301105504007;2.003;0.13035237878090647
57:57.7;0.271184470407974;-0.4182657817067897;-1.5661840264934306;2.075;0.1776478445370507
57:57.7;0.3355159107793773;-0.42868515341950403;-1.6048588299462696;1.7409999999999999;0.23082795236167167
57:57.7;0.40097300756480964;-0.4448060508276676;-1.6095475912900061;1.7409999999999999;0.28707121471827335
57:57.7;0.4642980152000804;-0.46556564229998687;-1.5827751343673655;1.7409999999999999;0.34213457817625303
57:57.8;0.5224528122670331;-0.48913566309137474;-1.5287967477744875;1.617;0.3906844717556198
57:57.8;0.5729494976971314;-0.5131430868233261;-1.4529836201698971;1.5519999999999998;0.4271845565395289
57:57.8;0.6140457690143818;-0.5349482682192271;-1.3612445544455674;1.51;0.4471453148389495
57:57.8;0.6448169355249183;-0.5519432209972844;-1.2595440003971579;1.482;0.44827465247347437
57:57.8;0.6651200532097563;-0.561823419355117;-1.153558362855645;1.4709999999999999;0.43106171507458796
57:57.8;0.6754786180104867;-0.5627969819145469;-1.04846878356883;1.442;0.3985830907959207
57:57.8;0.6769294636509378;-0.5537167710338757;-0.9488399459278647;1.371;0.3556510171729358
57:57.9;0.6708715144335535;-0.5341399998587998;-0.858515745025736;1.063;0.30763994023306834
57:57.9;0.65893786089738;-0.5043316064397881;-0.7804969528740717;1.063;0.2593772371100478
57:57.9;0.6428895081485644;-0.46523091716618226;-0.7168339321490397;1.063;0.2143993485642231
57:57.9;0.6245148116697049;-0.41839290892107905;-0.6686019956624493;0.972;0.1747007328971491
57:57.9;0.6055194546656785;-0.36589959682358997;-0.6359967923749908;0.934;0.14091101959529378
57:57.9;0.5874041163435737;-0.31022772078385136;-0.6185399691339142;0.9109999999999999;0.11271594489585986
57:57.9;0.5713411566424459;-0.2540634755886895;-0.6153622096047691;0.9179999999999999;0.08932408303274059
57:57.9;0.5580687850830863;-0.2000685324421601;-0.625519191317319;0.937;0.06984047052127756
57:57.9;0.5478197254587451;-0.1506185235117485;-0.6482832325572809;0.991;0.05349101526069635
57:57.9;0.5402968404636941;-0.10755192583986353;-0.6833468174201474;1.012;0.039709260133149425
57:58.0;0.5347045478815786;-0.071977261593183;-0.7308813664221449;0.988;0.02812911622581814
57:58.0;0.5298403091926195;-0.04418294483783833;-0.791419677476239;0.988;0.018527059586665274
57:58.0;0.524242898280194;-0.023676183285455194;-0.8655701022767007;0.988;0.01074351751800456
57:58.0;0.5163862916600582;-0.009351890592769885;-0.953608575656215;1.001;0.0046051551886790035
57:58.0;0.5049003609449485;0.00023419300848706088;-1.055018838091983;1.043;0.00012474978940815742
57:58.0;0.48878534508698346;0.006542164243451178;-1.1680669557560817;1.077;0.0037351440659450725
57:58.0;0.46756841762062823;0.010751808144035795;-1.2895077542544944;1.193;0.006482621016676816
57:58.0;0.44134865619946784;0.013572474922455183;-1.4145141508096533;1.253;0.008473213568486907
57:58.0;0.41071032601733165;0.015207463194469428;-1.5368833499688046;1.392;0.009599161569889495
57:58.0;0.3765451243293466;0.015467463868559262;-1.6495205024905575;1.5530000000000002;0.009607134185500372
57:58.1;0.3398728291597754;0.013975675644224871;-1.7451519707361165;2.126;0.008289388827751399
57:58.1;0.3017423748932056;0.010388233724618718;-1.817171677014293;2.126;0.005696052396049836
57:58.1;0.2632314489041728;0.004572571470097302;-1.8604756918798113;2.126;0.002239351544691091
57:58.1;0.22549763403059314;-0.0032835139426271535;-1.872135349892347;2.315;0.0013861751150838928
57:58.1;0.1898122209114218;-0.012640216315721412;-1.8518078183122417;2.3819999999999997;0.004442982373402314
57:58.1;0.15751721146198266;-0.022650466541572326;-1.8018212386362316;2.266;0.006428606875305215
57:58.1;0.12986479323755998;-0.032271857360025774;-1.7268769278593799;1.935;0.007237303357477194
57:58.1;0.10773272740075412;-0.04042469585440039;-1.6333475996452806;1.4040000000000001;0.007113331270626418
57:58.1;0.09126848421777171;-0.04616128821226568;-1.5282583056723125;0.9840000000000001;0.006438660449627323
57:58.1;0.07958650849205244;-0.04880451200635595;-1.4181731619538855;0.8009999999999999;0.005508440838029307
57:58.2;0.07067976197363336;-0.048023139605430025;-1.3082859533930897;1.0590000000000002;0.004440668013441903
57:58.2;0.061647344550121476;-0.04383729103124738;-1.2019478986847962;1.0590000000000002;0.003248207205051483
57:58.2;0.04919643531168679;-0.03657580668959585;-1.1006810110417433;1.0590000000000002;0.0019805646493523113
57:58.2;0.030267253063760147;-0.026818445792035853;-1.0045548247251614;1.206;0.0008154179310128158
57:58.2;0.0026302508294315493;-0.015345203906186187;-0.9127460483924534;1.208;3.684001440320145e-05
57:58.2;-0.03464781780464026;-0.0030986140336984732;-0.8241185137726298;1.077;8.847754040091373e-05
57:58.2;-0.08094490697892544;0.008844007400593283;-0.7376962347543198;0.882;0.000528100030334088
57:58.2;-0.13407960135211822;0.019293458837713467;-0.6529571866317274;0.6970000000000001;0.0016891083509320915
57:58.2;-0.1905581944913705;0.02697162694711295;-0.569946124510881;0.601;0.0029293318821752325
57:58.2;-0.2460152595702082;0.030540210602174156;-0.48925689835026737;0.568;0.0036759621523202108
57:58.3;-0.29575752821742113;0.02864370052898275;-0.41195038795732336;0.551;0.0034898748149022486
57:58.3;-0.3353151219726292;0.019977770532646683;-0.3394663382065743;0.551;0.0022740335918465487
57:58.3;-0.3609217663970115;0.003393059577834146;-0.2735706876452617;0.551;0.00033502261304843166
57:58.3;-0.3698793237117476;-0.021962209728923078;-0.21635299064204563;0.568;0.0017575148054902777
57:58.3;-0.36079551898977896;-0.056468339142842765;-0.1702531227904844;0.57;0.00346865603685849
57:58.3;-0.3336992985091836;-0.09985005174647994;-0.13807027827562668;0.54;0.004600486791468597
57:58.3;-0.2900369592081588;-0.1510160993263841;-0.12290147419166136;0.48100000000000004;0.005383115324472172
57:58.3;-0.23254904891755868;-0.20796547570907764;-0.12796799999032224;0.40299999999999997;0.006188810628707988
57:58.3;-0.16502893383002024;-0.26780721506135763;-0.15631353430711603;0.305;0.00690842345424192
57:58.3;-0.0919653421087412;-0.32693862129789364;-0.21039424929935804;0.239;0.006325928555225277
57:58.4;-0.018078474887671718;-0.3814075519462123;-0.2916172193088555;0.76;0.0020107785451393572
57:58.4;0.052208724521008165;-0.4274287827428221;-0.3998991270818739;0.76;0.00892395359745634
57:58.4;0.11527109597219781;-0.46194607809143684;-0.5333065566566131;0.76;0.028398057208803718
57:58.4;0.16864534266380676;-0.48309915410807047;-0.6878301724011707;0.76;0.056039190335119234
57:58.4;0.2112011784828462;-0.4905041669662321;-0.8573623945930989;0.9590000000000001;0.08881850709264313
57:58.4;0.24312605924533018;-0.48532685980512924;-1.0339590876403069;1.19;0.12200263002521271
57:58.4;0.2657490009251029;-0.47015743351880085;-1.2084191935274078;1.44;0.1509845684888927
57:58.4;0.28122549827171944;-0.4487015445034704;-1.371122396512953;1.699;0.17301688321716072
57:58.4;0.2921213080081377;-0.425319874653167;-1.5129831616095466;1.9240000000000002;0.1879805900478925
57:58.4;0.30096656677646916;-0.4044818896481449;-1.6263469620706703;2.0669999999999997;0.1979842023180284
57:58.5;0.309870925431593;-0.39022532400938476;-1.7056718055990865;1.935;0.20624895166859408
57:58.5;0.3202696515597104;-0.38571005891262927;-1.7478998809577024;1.935;0.21592021551889035
57:58.5;0.33281977508369115;-0.392922021151824;-1.7525117905862182;1.935;0.2291798551619465
57:58.5;0.34742551040480835;-0.41254304275136217;-1.7213223259946961;1.784;0.24671364707998084
57:58.5;0.3633665028436742;-0.4439777585541031;-1.6580943215913877;1.705;0.2674947947688561
57:58.5;0.37950837946985155;-0.48551377725933215;-1.568041604061025;1.66;0.28892193123120385
57:58.5;0.3945670107530552;-0.5345758982308646;-1.4572876008770685;1.5930000000000002;0.3073798651750689
57:58.5;0.4073812858214801;-0.5880250524045223;-1.3323341052128925;1.5019999999999998;0.3191611704271782
57:58.5;0.41714051799200424;-0.6424565859816297;-1.199575435177352;1.381;0.32147982656566204
57:58.5;0.4235197174014922;-0.6944679225044201;-1.0648834034072907;1.264;0.3132044205819786
57:58.6;0.42670037447682946;-0.7408837404089939;-0.9332902799124214;1.153;0.2950460674687638
57:58.6;0.4272905711072751;-0.7789380976934261;-0.8087989290604405;1.153;0.26919489681324815
57:58.6;0.4261888426715164;-0.8064144744925427;-0.6943390482386518;1.153;0.23863381275227535
57:58.6;0.42444153556921166;-0.8217453678837405;-0.5918576945099246;1.12;0.20642982283189892
57:58.6;0.42312307325003357;-0.8240783262126113;-0.5024960813513417;1.088;0.1752136269977795
57:58.6;0.42324312906470773;-0.8133160010276664;-0.4267960063590232;1.055;0.14691616391105183
57:58.6;0.4256719544666429;-0.7901285391676913;-0.3649025762154587;1.038;0.12272971215170844
57:58.6;0.43107606705025747;-0.755926250835246;-0.3167533513280599;1.012;0.10321779035597528
57:58.6;0.4398622885684696;-0.7127773521870744;-0.28224589745821055;0.9640000000000001;0.08849082814365841
57:58.6;0.4521312342823851;-0.6632607377436437;-0.2613636141139376;0.904;0.07837795478413603
57:58.7;0.46764134025799803;-0.6102569171758198;-0.2542319616724959;0.728;0.07255306365123228
57:58.7;0.4857845923176424;-0.5567008393967706;-0.2610870497539413;0.728;0.07060751761806225
57:58.7;0.5055769769901108;-0.5053379205676821;-0.28216351988290744;0.728;0.07208917278343066
57:58.7;0.5256705585837633;-0.4585194694845237;-0.3175300678242883;0.6859999999999999;0.07653433119570384
57:58.7;0.544398439325111;-0.41804625182209937;-0.3669076357527962;0.685;0.0835022072305369
57:58.7;0.5598643563149459;-0.3850485864545507;-0.4295066619656631;0.679;0.09259088963590871
57:58.7;0.5700827097366166;-0.35989559557766354;-0.5039226979262298;0.7290000000000001;0.10338994911369896
57:58.7;0.5731648427848774;-0.3421426049685076;-0.5881254543409848;0.8190000000000001;0.11533382019561236
57:58.7;0.5675371089900847;-0.33053979355077684;-0.679557974964094;0.902;0.12748072614256925
57:58.7;0.5521683250841348;-0.32313488002604607;-0.7753364878236757;1.012;0.13833929303513498
57:58.8;0.5267795113501904;-0.31750358279784274;-0.8725165139382055;1.4;0.1459322104964463
57:58.8;0.4920023710009689;-0.31111524871964297;-0.9683663102096391;1.4;0.1482272888424974
57:58.8;0.4494404267636447;-0.30178402005592736;-1.0605711106179319;1.4;0.14384943707282763
57:58.8;0.40157825972327227;-0.28811147726902236;-1.1473083803946373;1.432;0.13274278297578537
57:58.8;0.3514980607332531;-0.2698276897460205;-1.2271891449067618;1.3840000000000001;0.11639141641718728
57:58.8;0.30240661841956323;-0.24795241785677402;-1.2991104147041128;1.419;0.09741048458998976
57:58.8;0.2570413369292602;-0.22470005934541734;-1.3620790539281011;1.354;0.07866987732178313
57:58.8;0.2170905040808972;-0.20308151212120948;-1.4150604233216746;1.2670000000000001;0.062385864874885975
57:58.8;0.1828022426397356;-0.1862553719872887;-1.4568965122956687;1.2329999999999999;0.049604266328256374
57:58.8;0.15293451412558381;-0.17680423987409896;-1.4863386829528018;1.395;0.040189811001163984
57:58.9;0.1251010873142745;-0.17616094169970442;-1.5022337439439766;1.8159999999999998;0.03310611510569531
57:58.9;0.09642813172508728;-0.1843395440733709;-1.5038497590712416;1.8159999999999998;0.026731708218117357
57:58.9;0.06432127779165536;-0.1999851632171626;-1.4912395926976718;1.8159999999999998;0.019182264098157934
57:58.9;0.02711859732461439;-0.22064862409773664;-1.4654953395841235;1.791;0.008769056893306069
57:58.9;-0.015523745956128923;-0.24317863346016283;-1.4287855975666643;1.679;0.005393727536942428
57:58.9;-0.06256391291136477;-0.2641571992957633;-1.3841404397560684;1.452;0.022875284894965594
57:58.9;-0.11179686220273087;-0.28032020964788706;-1.3350115684165011;1.229;0.04183782054228921
57:58.9;-0.16028661879080977;-0.2889124950304967;-1.2846935242347777;1.065;0.05949262440994058
57:58.9;-0.2048942483761598;-0.28794695748832005;-1.2357445780305565;0.997;0.07290729326961735
57:58.9;-0.24277738309374236;-0.2763620720657936;-1.1895654043475554;1.018;0.07981324920367382
57:59.0;-0.27175906079636825;-0.2540885177549501;-1.146257776791711;1.251;0.07915008176645165
57:59.0;-0.29051646474408604;-0.22204282468605557;-1.104793923345226;1.251;0.07126704817014452
57:59.0;-0.29860126598943976;-0.18206748893787425;-1.0634165908626043;1.251;0.05781326260697652
57:59.0;-0.2963383367476983;-0.13683090655352445;-1.0201294114024508;1.218;0.04136445553405387
57:59.0;-0.2846501739128858;-0.08968691072030836;-0.9731567708113513;1.13;0.02484410334034641
57:59.0;-0.26484559743766684;-0.044485544964514616;-0.921307548463761;1.035;0.010854661950239082
57:59.0;-0.23841034115364243;-0.00533189254669716;-0.8642204497538004;0.946;0.0010985783003373878
57:59.0;-0.20683337042795444;0.023698376089468606;-0.8024953281743097;0.8690000000000001;0.003933523138212984
57:59.0;-0.17148693475664287;0.03886664583589422;-0.7377298018595219;0.8140000000000001;0.004917059101938826
57:59.0;-0.13356158938643314;0.03707601394047464;-0.6724811762948684;0.773;0.003330080619181685
57:59.1;-0.09405183148931161;0.016150357667833015;-0.6101640262182682;0.611;0.0009268212889214687
57:59.1;-0.05378937993528794;-0.024925061699360748;-0.5548870759097854;0.611;0.0007439391078440423
57:59.1;-0.013518998298225322;-0.0858078546310592;-0.5112352982292306;0.611;0.0005930514734871633
57:59.1;0.025996964473073265;-0.16465806315516066;-0.48400216258147094;0.5479999999999999;0.0020718244091035634
57:59.1;0.06387022333533321;-0.25807564192058113;-0.4778665561668522;0.544;0.007876841166668628
57:59.1;0.09900733322073775;-0.36114742424391777;-0.49700502503367755;0.537;0.017771032633169703
57:59.1;0.13009608100857933;-0.4676379838439843;-0.5446418451656434;0.529;0.033134849243821714
57:59.1;0.15569186408680666;-0.5703617930407394;-0.6225579415018406;0.635;0.05528357524498508
57:59.1;0.17442287008479526;-0.6617666361291601;-0.7306000267383808;0.856;0.08433114170794356
57:59.1;0.18529730531166044;-0.7347172352357546;-0.8662579730749284;1.062;0.11793333400296449
57:59.2;0.18804917869335477;-0.7833956138856432;-1.0244065432091853;1.646;0.15091239811198595
57:59.2;0.18342445523619613;-0.8041625482809159;-1.1973082368726047;1.646;0.1766066494629734
57:59.2;0.17330658784706288;-0.7961880480862144;-1.3749325861646613;1.646;0.18971956953695926
57:59.2;0.1606111692608926;-0.761684720030043;-1.54561068450458;1.724;0.1890823966791677
57:59.2;0.14893502527689867;-0.7056654621099748;-1.69703578022506;2.066;0.17835558137249313
57:59.2;0.1420173883592483;-0.6352597121115643;-1.8175666621590336;2.485;0.16397709325252724
57:59.2;0.14313793762888663;-0.5587201328484258;-1.897653388333761;2.7;0.15176302226963156
57:59.2;0.1546006019588449;-0.48431272330615116;-1.9310848729248258;2.705;0.14459005432183328
57:59.2;0.17741512251160824;-0.41929658616054044;-1.9157608936033748;2.521;0.1425126007492526
57:59.2;0.21121269095821207;-0.3691598660472156;-1.8538107440884721;2.2319999999999998;0.14454393857303063
57:59.3;0.2543600661802296;-0.33719672910428;-1.7510502634551124;1.315;0.15018649952659233
57:59.3;0.3042008118957012;-0.32441823764988553;-1.6159450346966524;1.315;0.1594748542877108
57:59.3;0.3573582924837875;-0.32972573882674666;-1.4583799760589513;1.315;0.1718412436532753
57:59.3;0.41006718976357215;-0.3502612520539273;-1.2885314916205384;1.167;0.1850726122244168
57:59.3;0.4585310892227424;-0.3818724304366086;-1.1159936702797486;1.109;0.1954109173865826
57:59.3;0.4993044881453349;-0.4196503108531273;-0.9491704647626882;1.115;0.19888280423533775
57:59.3;0.5296656121514611;-0.4584948049770234;-0.7949083544119946;1.15;0.19304264454627576
57:59.3;0.5479125026252915;-0.4936509151891129;-0.6583551192424623;1.179;0.17807025227173578
57:59.3;0.5535092905946808;-0.5211570671796844;-0.5430225178227754;1.196;0.1566431418588852
57:59.3;0.5470353165097723;-0.538156956008749;-0.45100008051604046;1.159;0.13277030190693037
57:59.4;0.5299354141796294;-0.5430447154407203;-0.38323677223977204;0.732;0.11028735182262026
57:59.4;0.5041290581021572;-0.5354446266259489;-0.3398052372253955;0.732;0.09172471345944039
57:59.4;0.471590636146786;-0.5160660107563518;-0.3201004345302397;0.732;0.077903450400303
57:59.4;0.4340202509321879;-0.4864920631630774;-0.3229671078011699;0.732;0.06819366746526542
57:59.4;0.39267189270743275;-0.448941322920007;-0.34676401198026346;0.625;0.06112986219315531
57:59.4;0.34834108464814467;-0.4060109008828712;-0.38937487726225034;0.544;0.055069396978749456
57:59.4;0.30147869985560016;-0.360406402178654;-0.44819577001100125;0.542;0.04869864575158243
57:59.4;0.2523855209622021;-0.3146809782909865;-0.520150649925412;0.589;0.04131084453036265
57:59.4;0.2014363125325168;-0.2710191889199709;-0.601781966207586;0.634;0.03285314669508876
57:59.4;0.14928126287517235;-0.23109901866161137;-0.6894341151264234;0.7559999999999999;0.023784617492281817
57:59.5;0.09698116875896967;-0.1960549509748637;-0.7795130783432419;1.107;0.014821379711233854
57:59.5;0.04605074306766722;-0.16654732070513162;-0.8687667537556841;1.107;0.006663117710956934
57:59.5;-0.0015974134276294464;-0.14291179342927282;-0.9544964795034268;1.107;0.00021790125468964822
57:59.5;-0.043810752072315925;-0.12533387201592472;-1.0346199904214037;1.087;0.005681068563264215
57:59.5;-0.07846244755480083;-0.11399129511565143;-1.1075698699009389;1.0659999999999998;0.009906144805207896
57:59.5;-0.10381574447577936;-0.10912427663097878;-1.1720811476504998;1.04;0.013278294025029185
57:59.5;-0.1189351516723206;-0.11100986538553888;-1.2269571118791047;1.148;0.016199484291080323
57:59.5;-0.12404505042687569;-0.11983911942362248;-1.2709036853870674;1.256;0.018892554696846413
57:59.5;-0.12071430385276945;-0.13553642404980135;-1.3024946947161857;1.3230000000000002;0.021310356760584483
57:59.5;-0.11177084895044315;-0.15759800177382066;-1.32028018042321;1.376;0.023256553775138814
57:59.6;-0.10092924281216888;-0.18502304448093448;-1.323001020317037;1.419;0.024706032993574815
57:59.6;-0.0922187631124377;-0.21635845768098022;-1.3098480115844684;1.419;0.02613449273680839
57:59.6;-0.08936946952314312;-0.24981587929718158;-1.2807062751958935;1.419;0.028592936380698746
57:59.6;-0.09530387862487565;-0.2833985672873578;-1.2363428681382114;1.4180000000000001;0.0333923630863928
57:59.6;-0.11181166028187135;-0.31500530701888724;-1.1785074348706048;1.396;0.041508524288946205
57:59.6;-0.13941408082205775;-0.3425180425202857;-1.1099166609648476;1.2930000000000001;0.05300056065774819
57:59.6;-0.17738987355377192;-0.363894171981012;-1.0340975002648989;1.115;0.066752173707287
57:59.6;-0.22392821438189203;-0.37727707227792123;-0.9550889869488709;0.9490000000000001;0.08068876485463548
57:59.6;-0.27637698937874483;-0.38112750615953606;-0.8770456646207725;0.861;0.09238349345403696
57:59.6;-0.3315557368328639;-0.3743708530539729;-0.8038225064850686;0.8220000000000001;0.09977431109482046
57:59.7;-0.3861024157745935;-0.35654826672765383;-0.738627250049041;0.915;0.10168249042039251
57:59.7;-0.43681749061638914;-0.32795325281410664;-0.6837998992026961;0.915;0.0979582447995016
57:59.7;-0.48095889145659715;-0.28973028959289115;-0.6407386695027043;0.915;0.08928588208153158
57:59.7;-0.5164466784247214;-0.24390921761826964;-0.6099564472011131;0.899;0.07683383804198834
57:59.7;-0.5419637170036378;-0.1933508704085095;-0.5912341187866849;0.8590000000000001;0.061954924549935356
57:59.7;-0.556963721360442;-0.14159056741969758;-0.5838389069038598;0.847;0.04604200872239237
57:59.7;-0.561604963533727;-0.0925840614500651;-0.5867860859762349;0.8590000000000001;0.030510334780115358
57:59.7;-0.5566295878036741;-0.050375940408541466;-0.5991242930962642;0.866;0.016799887898217493
57:59.7;-0.543214580089202;-0.01871989718237176;-0.6202132697535782;0.924;0.0063068997973801996
57:59.7;-0.5228238635139879;-0.0006888995772333013;-0.6499490004529179;1.03;0.0002340941713855371
57:59.8;-0.4970829153356242;0.0016757044083961757;-0.6888833578376171;1.101;0.0005738150597122547
57:59.8;-0.46767849740867984;-0.012380405573054998;-0.7381839987775932;1.101;0.004274121875104445
57:59.8;-0.4362662743261079;-0.04221672679898109;-0.7993906426396463;1.101;0.014722964310023796
57:59.8;-0.40435920514817;-0.08587381566604158;-0.8739547541185475;0.898;0.030347089385187025
57:59.8;-0.3731772480840063;-0.14034473078745274;-0.9626025483880482;0.698;0.05041482646660653
57:59.8;-0.3434672253724409;-0.20201742178164395;-1.0646305167800816;0.619;0.07387083985614676
57:59.8;-0.31534145998729624;-0.2672152417442286;-1.1773093568201418;0.828;0.09920484798919012
57:59.8;-0.28821121546322487;-0.3327193523390548;-1.2955960914630515;1.141;0.124239177651059
57:59.8;-0.26088137022453867;-0.39614145550880286;-1.4123002013079793;1.3430000000000002;0.14595547169289624
57:59.8;-0.23181705842124153;-0.4560518278611428;-1.518732096461369;1.601;0.16056125818379596
57:59.9;-0.19951424593503533;-0.511858950480878;-1.6057362892314473;2.228;0.16398285198860654
57:59.9;-0.16285915369105478;-0.5635323572957729;-1.6649115650048771;2.228;0.1527995943941471
57:59.9;-0.12137975795712601;-0.6112935017595765;-1.689761067626333;2.228;0.1253780023492291
57:59.9;-0.07534392149448507;-0.6553690361241112;-1.6765361165994452;2.158;0.08278412310071898
57:59.9;-0.025698860729219137;-0.6958541586387864;-1.6246458154833854;1.996;0.029052987293924554
57:59.9;0.02612035468501488;-0.7326922635424891;-1.5366275947616752;1.829;0.02940825826544223
57:59.9;0.0784513577934144;-0.7657396078048767;-1.4177523465388013;1.645;0.08516907897932798
57:59.9;0.12966063436927935;-0.7948610227452272;-1.2753764564611938;1.476;0.13144308359205334
57:59.9;0.1783447145499743;-0.8200056630322502;-1.118164735667204;1.3430000000000002;0.1635245212089095
57:59.9;0.22346141203620337;-0.8412337374986194;-0.9552929697151353;1.237;0.17957910469405747
58:00.0;0.2644010026182425;-0.8586917377986681;-0.795707268484674;0.9690000000000001;0.18065654784777013
58:00.0;0.30101400627150887;-0.8725546325759013;-0.6474968900726296;1.012;0.1700658129274287
58:00.0;0.3336027167050284;-0.8829630311081192;-0.5174382708795452;1.012;0.1524160302579077
58:00.0;0.3628687565781399;-0.8899790426388537;-0.4107552739691247;1.012;0.13265160371551568
58:00.0;0.38980515191437853;-0.893571936226775;-0.33108599330829946;1.1059999999999999;0.11532352367732523
58:00.0;0.4155294378785692;-0.8936315322582832;-0.2805844058644793;1.1320000000000001;0.10418946586692891
58:00.0;0.44106107457110355;-0.8899943555835966;-0.2600608926599942;1.077;0.1020847882957694
58:00.0;0.4670577736413867;-0.8824585861180264;-0.26908331650173706;0.9309999999999999;0.11090514900736734
58:00.0;0.49356027527353413;-0.8707692286819071;-0.30601376145172454;0.852;0.13151770702045412
58:00.0;0.5198421648832655;-0.8545740917843689;-0.3680431669147454;0.8959999999999999;0.16350083832848183
58:00.1;0.5444695500272067;-0.8333691392036416;-0.45136069613542823;1.389;0.20480226197381385
58:00.1;0.565598823663785;-0.8064599615080127;-0.5515539898001323;1.389;0.2515818687858276
58:00.1;0.5814105778950355;-0.7729679227521523;-0.664162221705537;1.389;0.2984822908401256
58:00.1;0.590506473950156;-0.7319030299730039;-0.7851722689127617;1.389;0.3393463333401653
58:00.1;0.5921422835045435;-0.6823071960113234;-0.9113051718962834;1.4509999999999998;0.3681881957871062
58:00.1;0.5862664699356539;-0.6234561460150205;-1.0400739052937218;1.5319999999999998;0.38015890446915007
58:00.1;0.5734039471241071;-0.5551111790677656;-1.1696381743842306;1.545;0.3722992710114133
58:00.1;0.5544587668719515;-0.477815545807058;-1.2984594164490173;1.48;0.34399957852875634
58:00.1;0.5305019393872541;-0.3931946600552773;-1.4247848443453788;1.555;0.29719662541338343
58:00.1;0.5025534426297876;-0.3041385358459481;-1.5460962329424432;1.273;0.2363144210846712
58:00.2;0.4713121712422272;-0.21469627746386225;-1.6587597829997702;1.689;0.16784819174472954
58:00.2;0.43682423456040365;-0.12960559640554054;-1.7580770401376198;1.689;0.09953329506862292
58:00.2;0.3982037684750966;-0.05358274818262731;-1.8387536832253744;1.689;0.039233215666017916
58:00.2;0.3535923731732117;0.009387133374265857;-1.8956439560529956;2.141;0.0062920569946710225
58:00.2;0.3004699507700927;0.05658469044971357;-1.9246086654901091;2.467;0.03272219490199426
58:00.2;0.23627703203206468;0.08685595803797032;-1.9233422000026226;2.6189999999999998;0.03947095937632025
58:00.2;0.1591800471499747;0.10066878383954334;-1.8919922068171753;2.496;0.030318156764782306
58:00.2;0.06875009364686849;0.09994022630995596;-1.8333930289628495;2.235;0.012597060012176895
58:00.2;-0.03365494993655586;0.08768386456945589;-1.7528223016704652;1.954;0.005172571727719838
58:00.2;-0.14492671226913234;0.06755776435292957;-1.6573128132882344;1.683;0.016226624919346923
58:00.3;-0.26066081058362184;0.043402365534155676;-1.55464485949266;1.215;0.0175881571304419
58:00.3;-0.3758968435796353;0.018841060566325493;-1.4522139726797931;1.215;0.010285008043108456
58:00.3;-0.4859007048600571;-0.003016620708461433;-1.3560231235759423;1.215;0.0019876290363278456
58:00.3;-0.586739796722703;-0.01976326186411781;-1.2700286468120154;1.215;0.014727115341232543
58:00.3;-0.6755263969018904;-0.02978854210812867;-1.1959477857485845;1.3159999999999998;0.02406599333245145
58:00.3;-0.7503541902099248;-0.03230432122610925;-1.1334926747630436;1.391;0.02747550288546373
58:00.3;-0.8100351122918463;-0.02732482953930758;-1.0809027409346608;1.426;0.02392477840563805
58:00.3;-0.8537716474730533;-0.015621372983138444;-1.0356043283312573;1.45;0.01381194331330329
58:00.3;-0.8808969338275023;0.001343803145896528;-0.9948271829584586;1.4669999999999999;0.0011776287380027538
58:00.3;-0.8907696611318952;0.021514618066997455;-0.9560529457501089;1.4509999999999998;0.018322342689428527
58:00.4;-0.8828318738045059;0.04238212444922681;-0.9172439739790139;1.172;0.03431986684606555
58:00.4;-0.8567714260486984;0.06117019125163379;-0.8768855970901882;1.172;0.04595658500806718
58:00.4;-0.8127126046471768;0.07504872066359837;-0.8339481304290743;1.172;0.05086503271624462
58:00.4;-0.7513776983762429;0.0813498012329549;-0.7878897134811229;1.1079999999999999;0.048159306813853074
58:00.4;-0.6741878945328095;0.07777060330587834;-0.7387635391245871;1.069;0.038734849365755684
58:00.4;-0.5832927696828726;0.06255551195789956;-0.687416154624109;1.045;0.025082562892350998
58:00.4;-0.4815351649260996;0.03464816639876838;-0.635714844403538;1.035;0.010606463866976333
58:00.4;-0.3723665312894592;-0.006199231344690038;-0.5867194369029464;0.992;0.001354375093945787
58:00.4;-0.25972338766289127;-0.05936748674563755;-0.5447068398090659;0.8740000000000001;0.008398902728598823
58:00.4;-0.1478647128981211;-0.12336303990009254;-0.5149724388806334;0.721;0.00939363310219536
58:00.5;-0.041164402845802694;-0.19585843572640985;-0.503378243191167;0.47100000000000003;0.004058434507363217
58:00.5;0.05613582800541082;-0.27377834132263174;-0.5156842898461352;0.47100000000000003;0.007925435244162062
58:00.5;0.14018727338604905;-0.3534319634149315;-0.5567586317538512;0.47100000000000003;0.027585532454971636
58:00.5;0.2077847850343493;-0.4307045214786188;-0.6297789541337259;0.535;0.056361340992711347
58:00.5;0.2566112680059006;-0.5013380076209126;-0.7355169650284114;0.6629999999999999;0.09462350867338787
58:00.5;0.28549125082343224;-0.5613280020176835;-0.8717773040715324;0.919;0.13970600357540908
58:00.5;0.294633877446312;-0.6074188919323331;-1.0330747731203092;1.216;0.18488544927514308
58:00.5;0.28578667955324394;-0.6376125680308912;-1.2106606139850884;1.4240000000000002;0.22060800403634936
58:00.5;0.262180503324698;-0.6515575694280439;-1.3930113480217352;1.5219999999999998;0.23796212678990242
58:00.5;0.2281689205753972;-0.6506887332825577;-1.5668405124733278;1.83;0.23262402560503062
58:00.6;0.18857578784866538;-0.6380472606856749;-1.718572366234452;2.625;0.20677908230098643
58:00.6;0.14791114312105494;-0.6178097751978495;-1.8360477690460764;2.625;0.16777978952930303
58:00.6;0.10969172076324266;-0.594646046005329;-1.9101013564270257;2.625;0.12459160999142473
58:00.6;0.07605415343914586;-0.5730494217338036;-1.935670779288724;2.5180000000000002;0.08436193046731426
58:00.6;0.04772815225731585;-0.556740737899927;-1.9122690752479767;2.3169999999999997;0.05081320914562723
58:00.6;0.024325040195780245;-0.5482025296615723;-1.843829392532915;2.115;0.024587554503198827
58:00.6;0.004826456548976473;-0.5483902589638164;-1.7380246021209198;1.876;0.004600171809712506
58:00.6;-0.011872675479644434;-0.5566602420471788;-1.6051967385909827;1.594;0.010608819736503298
58:00.6;-0.026503883082292862;-0.5709271361270526;-1.4570446347969295;1.3130000000000002;0.022047687700057675
58:00.6;-0.03914178403150806;-0.5880275741972014;-1.3052275691486042;1.091;0.030041702883053627
58:00.7;-0.049135322002129014;-0.6042317996358622;-1.160052368311502;0.9640000000000001;0.03444093865457532
58:00.7;-0.05523642390066009;-0.6158156449561557;-1.0294152813415176;0.9640000000000001;0.03501602815910423
58:00.7;-0.05586374075125355;-0.619592126110884;-0.9181469497360598;0.9640000000000001;0.031779576056512736
58:00.7;-0.04942305883353505;-0.6133189639677314;-0.8278404620357017;0.9640000000000001;0.025093582240030825
58:00.7;-0.03462683049529857;-0.5959376145819748;-0.7571484120800709;1.0170000000000001;0.015624083636991404
58:00.7;-0.010780422515404824;-0.5676367822917789;-0.7024567190150112;1.087;0.00429858860262764
58:00.7;0.02199829935669891;-0.5297601875704193;-0.6587917867563721;1.084;0.007677443004145926
58:00.7;0.06267048300927229;-0.4845988534460177;-0.6207887124774969;1.03;0.01885338064375643
58:00.7;0.10931284371991613;-0.43511706530382066;-0.5835573545021907;0.951;0.02775625417649982
58:00.7;0.1592994549899278;-0.3846510686535591;-0.5433361390515121;0.868;0.033292761961029586
58:00.8;0.20959342896839478;-0.33660003802783706;-0.4978938545661388;0.6890000000000001;0.03512599129746167
58:00.8;0.2570882862447884;-0.29412165558096764;-0.44669934744868;0.6890000000000001;0.033777274961679586
58:00.8;0.2989284416072693;-0.25985518461122326;-0.39091293145303857;0.6890000000000001;0.03036537588358017
58:00.8;0.3327528202247358;-0.23569993217970703;-0.3332489393120194;0.647;0.026136653378864474
58:00.8;0.35684222691155426;-0.2226626046296338;-0.2777251176708206;0.573;0.022066765781869196
58:00.8;0.3701824693712328;-0.22077392352605513;-0.22929093978684922;0.44799999999999995;0.018739177216167205
58:00.8;0.3724668517525372;-0.2290795123714071;-0.19334075423973868;0.366;0.016496707974949412
58:00.8;0.3640636924658738;-0.24572009812191534;-0.17515782173947406;0.4;0.015669227471461458
58:00.8;0.3459708671436963;-0.2681156184684178;-0.1793713522957413;0.47;0.016638521260545366
58:00.8;0.31976325454696547;-0.2932541429423849;-0.2095137824095174;0.512;0.019646505276031068
58:00.9;0.28751650129923184;-0.3180645112987909;-0.26772975868209675;0.728;0.02448356394457888
58:00.9;0.25168233252541783;-0.33982716467142093;-0.35462154239612126;0.728;0.03033024626960265
58:00.9;0.21490476598366748;-0.3565578673348636;-0.46915256951794204;0.758;0.035949277773000214
58:00.9;0.17978521261725006;-0.36729528421622437;-0.6085263757320232;0.758;0.04018358937815471
58:00.9;0.14861102971341866;-0.37223864609710483;-0.7680278448633927;0.738;0.04248635454818765
58:00.9;0.12306689410078234;-0.37270301848913195;-0.9409040841210652;0.7020000000000001;0.04315682672364041
58:00.9;0.10397125038514324;-0.3708809851439039;-1.1184182761870638;0.728;0.0431272821535066
58:00.9;0.09111516455242993;-0.3694331097596822;-1.290216684715695;1.005;0.04342993039230288
58:00.9;0.08329025836090125;-0.37098070951915824;-1.4450971713211647;1.5590000000000002;0.04465217186563293
58:00.9;0.07854322004572294;-0.37762093272496194;-1.572147764228591;2.198;0.046629217250856364
58:01.0;0.07460145379095799;-0.3905888581288892;-1.6620675007832884;2.289;0.04843014830525224
58:01.0;0.06934098111641009;-0.4101334815153354;-1.7083778186609588;2.289;0.04858465586562312
58:01.0;0.061168814975490274;-0.4355817278525026;-1.708259384870847;2.289;0.04551489400025397
58:01.0;0.049249799821152816;-0.46550934187816095;-1.6628725053003799;2.289;0.03812341730932655
58:01.0;0.03355969368615771;-0.49795575793992186;-1.5771306373002028;1.829;0.02635581285855413
58:01.0;0.014773072650690965;-0.5306605151277701;-1.4589660038816532;1.432;0.01143754406209171
58:01.0;-0.005978507071522331;-0.561303159638839;-1.3182110157364715;1.129;0.004423593087377826
58:01.0;-0.02741253956460483;-0.5877090620114662;-1.1653204857907062;0.9590000000000001;0.018774009788530516
58:01.0;-0.04838854479715345;-0.6079821126043436;-1.0102000694663469;0.885;0.029719449306133974
58:01.0;-0.06812470274805771;-0.6205500140245406;-0.8613481811079399;0.847;0.03641330937813389
58:01.1;-0.08630528889336651;-0.6241373807863917;-0.7254025872132208;0.8740000000000001;0.03907479470102506
58:01.1;-0.10308300329174036;-0.6177004082030111;-0.6070639520930635;0.8740000000000001;0.03865444093174442
58:01.1;-0.11901093884119178;-0.6003622029504185;-0.5092810667306491;0.8740000000000001;0.03638796385869802
58:01.1;-0.1349489283617395;-0.5713794436638522;-0.4335471011551837;0.809;0.03342953523591954
58:01.1;-0.151976430445947;-0.530152835571434;-0.3801758129003519;0.7070000000000001;0.030631044880257512
58:01.1;-0.17132044105189095;-0.47627774094609343;-0.3484830402123677;0.604;0.02843486140302389
58:01.1;-0.19428415965982526;-0.40962436028589894;-0.3368686377710102;0.53;0.02680919352584817
58:01.1;-0.22214873334901084;-0.33043505672407164;-0.34285559710839486;0.485;0.025167565152166768
58:01.1;-0.2560224479250129;-0.23942500952363097;-0.36317324496959563;0.45399999999999996;0.022261857863689855
58:01.1;-0.29662913135458213;-0.13787090006921485;-0.3939560283463405;0.495;0.016111432690835068
58:01.2;-0.34405329222754477;-0.027674421553875273;-0.4310759072347253;0.67;0.004104478838572682
58:01.2;-0.39748374189702995;0.08859944447316613;-0.47056017154787155;0.67;0.016571641669076806
58:01.2;-0.4550116441130195;0.2076911786451879;-0.5090029471219794;0.67;0.04810174798216728
58:01.2;-0.5135414930103236;0.3256101577423446;-0.54388714809198;0.667;0.09094572318540482
58:01.2;-0.5688685960819985;0.4376174719176309;-0.5737863665173545;0.71;0.14284230098404824
58:01.2;-0.6159641718859415;0.5382816901099364;-0.5984687518557781;0.872;0.19842963723617116
58:01.2;-0.6494818835397576;0.621656779976757;-0.6189410575044948;1.1079999999999999;0.2499004330194062
58:01.2;-0.6644520983125726;0.6816109118515733;-0.637446998192129;1.42;0.28869834348827067
58:01.2;-0.6570674316724473;0.7123086890566126;-0.6573882662122745;1.75;0.307680612570672
58:01.2;-0.6254008126685753;0.7088046149724031;-0.6830974674833052;1.9680000000000002;0.3028082149275653
58:01.3;-0.5698674861246636;0.6676469234113319;-0.7193915115928974;1.162;0.2737070854306698
58:01.3;-0.4932956377088165;0.587366326316675;-0.7708938504376792;1.162;0.22336282872739072
58:01.3;-0.4006045070876342;0.4687685514228944;-0.8412124135908317;1.162;0.15797194747546225
58:01.3;-0.29819264401900347;0.31501306638910753;-0.9321255926381711;0.795;0.08755882527535201
58:01.3;-0.19313552755137103;0.13148355664487338;-1.0429241383835572;0.588;0.02648416791727696
58:01.3;-0.09226283344815155;-0.07453342772455437;-1.1700255982239172;0.73;0.008045874347726691
58:01.3;-0.001218800854537533;-0.29431148369930216;-1.306957760538823;1.0590000000000002;0.00046881501220351427
58:01.3;0.07633527170802115;-0.5182152195415297;-1.4447780236844285;1.421;0.05715267294192304
58:01.3;0.1392125465030788;-0.7362442021604836;-1.5729325866073072;1.8030000000000002;0.1612168292559136
58:01.3;0.1887809664110694;-0.9385833387932497;-1.6804698315133015;2.278;0.2977568530691137
58:01.4;0.22861796868998643;-1.1161885571390688;-1.7574285099197176;2.815;0.44846194387574506
58:01.4;0.2638178561132595;-1.2614095639947622;-1.7961554416524388;2.815;0.5977288591105381
58:01.4;0.30010195034253867;-1.3685713988277115;-1.7923074076740888;2.815;0.7361202708770367
58:01.4;0.34290098487522075;-1.4343995339583544;-1.7453682126126784;2.705;0.8584715954643246
58:01.4;0.39654020242017457;-1.4582215058565207;-1.658628573435959;2.515;0.9590911104062929
58:01.4;0.46360708426891384;-1.4419306582872957;-1.5386873338898026;2.266;1.0285959698306488
58:01.4;0.5445552457685401;-1.3897070607121038;-1.394609023216646;1.99;1.0554014362514823
58:01.4;0.6375819171807373;-1.307506922937693;-1.2368978375309998;1.7009999999999998;1.0311309402949138
58:01.4;0.7387928637778117;-1.2023807136355988;-1.0764259778770022;1.4569999999999999;0.9562002734089698
58:01.4;0.8426408394220003;-1.0817258208720992;-0.9234160094477135;1.335;0.841699559742161
58:01.5;0.9425914781760022;-0.9525918941557442;-0.7865539026993126;1.459;0.7062506832701607
58:01.5;1.0319213410168466;-0.8211403057913536;-0.6723124749507543;1.459;0.5696854584449023
58:01.5;1.1045017812332008;-0.6923266387329499;-0.5845740491999404;1.459;0.4470097489639026
58:01.5;1.155426464811376;-0.5698253081813394;-0.5246144177801153;1.508;0.34540153777440075
58:01.5;1.1814147507664734;-0.456155652244045;-0.4914352403604073;1.483;0.26483888191188926
58:01.5;1.1810016737936904;-0.35293216708287645;-0.482348421132313;1.4869999999999999;0.20104932401385253
58:01.5;1.154557720537475;-0.2611626044355556;-0.4936673834357835;1.499;0.14885419385080736
58:01.5;1.104179478253839;-0.1815314051423537;-0.5213609355607007;1.4480000000000002;0.1045032815025649
58:01.5;1.03347431499286;-0.11461139263128203;-0.5615710209055418;1.355;0.06651692524941341
58:01.5;0.9472386751625961;-0.06095112845102157;-0.6109671704276709;1.258;0.035274352201869794
58:01.6;0.8510211672534113;-0.021006406816251523;-0.6669706896135276;1.089;0.01192336621923822
58:01.6;0.7505911057908043;0.005067763039086118;-0.7278897551025258;1.089;0.0027687600530400475
58:01.6;0.6513859121034044;0.017690046827617413;-0.7929647452673846;1.089;0.009137370257400834
58:01.6;0.558026414890269;0.01809185586397289;-0.8622900623847145;1.104;0.008705450640634183
58:01.6;0.4739498511141744;0.00844819275393361;-0.9365905257786248;1.148;0.0037501269140941358
58:01.6;0.4011815672347615;-0.00814532671319162;-1.0168538774341047;1.11;0.003322829277620789
58:01.6;0.34027982304337284;-0.027886486437461618;-1.103832269145734;0.9490000000000001;0.010474494738869336
58:01.6;0.29048959081818027;-0.04668624904989043;-1.1974550332593181;0.87;0.016239728753483926
58:01.6;0.2500924124356661;-0.06074357191805188;-1.2962604932803747;0.9109999999999999;0.019692149632811327
58:01.6;0.21686625108860258;-0.067139261562441;-1.397022996523493;1.165;0.02034099005329767
58:01.7;0.1885190138448422;-0.0642647006395398;-1.494760093683702;1.807;0.018109194901123664
58:01.7;0.16297596013869156;-0.05194914321782205;-1.5831910429272122;1.807;0.013404026003074896
58:01.7;0.13848965955029865;-0.0312882720999764;-1.6555144773982482;1.807;0.007173513343096912
58:01.7;0.11362599108475208;-0.004292554399804432;-1.7052554332997014;1.807;0.0008317310867827184
58:01.7;0.08718952197393999;0.026528524737413097;-1.7270034518346973;1.896;0.003994575201569462
58:01.7;0.058127355288400025;0.058590178976936726;-1.7169962233450238;2.003;0.005847560559088142
58:01.7;0.0254609711726879;0.08962318607216194;-1.6735477589448902;1.994;0.003818857513738096
58:01.7;-0.011686266773421992;0.11797016381148163;-1.5972928071331596;1.87;0.002202077069485487
58:01.7;-0.053935213678064815;0.14273059274259706;-1.4912013172853718;1.7630000000000001;0.011479573463527962
58:01.7;-0.10142078972835039;0.16374155085308686;-1.3603324498314677;1.643;0.022590765389452757
58:01.8;-0.15359163070108828;0.18142953349567684;-1.2113326210035535;0.805;0.03375506496144888
58:01.8;-0.20912720441023358;0.19659229012163362;-1.0517446261977854;0.805;0.043240162304868594
58:01.8;-0.26598425836249256;0.21016511794752765;-0.889278398495929;0.805;0.049711207631094025
58:01.8;-0.32152852477795674;0.22300857660238865;-0.7312102533227133;0.805;0.052430421155611584
58:01.8;-0.3727199962993856;0.23573890002838935;-0.5839747787234999;0.716;0.05131071147916201
58:01.8;-0.41635252429290726;0.24861054481594902;-0.4528958638327352;0.6759999999999999;0.04687908234275526
58:01.8;-0.4493367017273931;0.2614488409194173;-0.3419860364282555;0.664;0.04017602704812095
58:01.8;-0.46897412119893045;0.2736239856362702;-0.2538056018036693;0.615;0.03256898664768339
58:01.8;-0.4731580232641444;0.2840624988112931;-0.18943209710070594;0.555;0.02546089576711679
58:01.8;-0.4604665976084959;0.2913059514008827;-0.14860654217670288;0.541;0.019933585267008058
58:01.9;-0.4301600946894875;0.2936363591534795;-0.13009636222581714;0.64;0.016432555302311625
58:01.9;-0.3821247575999274;0.2892761277175359;-0.13224333081795717;0.64;0.014618120948252582
58:01.9;-0.3168209191687989;0.2766375675351822;-0.15356646286352105;0.64;0.013459266361937942
58:01.9;-0.23528128627880873;0.25457210650863465;-0.19324203978557897;0.64;0.011574435393066377
58:01.9;-0.13916490211392485;0.22257403135437295;-0.25133510873874204;0.639;0.007784977638298194
58:01.9;-0.030829968948372127;0.1809121646663596;-0.32874745625579915;0.569;0.0018335943349865405
58:01.9;0.08662553784119852;0.1306753507353191;-0.4269037741650053;0.491;0.0048324749652187285
58:01.9;0.20939596866427243;0.07372490788255696;-0.5472278361210792;0.493;0.008447938345256293
58:01.9;0.3330975190199343;0.012552537098284617;-0.6904900553664384;0.5870000000000001;0.0028870901145345365
58:01.9;0.4530089986248472;-0.04995788404085876;-0.8561282538789304;0.685;0.019375356156606592
58:02.0;0.5644248255551526;-0.11086356583360957;-1.0416405849932462;1.3230000000000002;0.06517977296779591
58:02.0;0.6630841028205858;-0.1675594398360417;-1.242127181422716;1.3230000000000002;0.13800778365359784
58:02.0;0.7455821897748394;-0.21815075482608975;-1.4500362585632849;1.3230000000000002;0.23584740778276292
58:02.0;0.8096550694153606;-0.2616929208849141;-1.655182831449815;1.3230000000000002;0.35070179355110853
58:02.0;0.8542859191911123;-0.29823770518330356;-1.845153500041365;1.6840000000000002;0.47010871082519595
58:02.0;0.8796552992537191;-0.3286930105436334;-2.0062184972155244;2.2430000000000003;0.5800710919268106
58:02.0;0.8869805058840483;-0.3545430828066628;-2.124764062399324;2.8280000000000003;0.6681805103006757
58:02.0;0.8782849943392321;-0.37749575103618327;-2.189054840752465;3.2060000000000004;0.7257786228356039
58:02.0;0.8561403570019877;-0.3991380658210826;-2.19095737832341;3.407;0.7486900251049634
58:02.0;0.8234263664203559;-0.4206844493053961;-2.1272041062143803;3.3760000000000003;0.7368691767119349
58:02.1;0.7831399304789253;-0.44287789963326046;-1.9998751938310486;1.9509999999999998;0.6936274478654099
58:02.1;0.7382557804040757;-0.46604456892782126;-1.8160174561365923;1.9509999999999998;0.6248191419974398
58:02.1;0.6916228918839495;-0.49022925995867883;-1.5866211513048576;1.9509999999999998;0.5379498963324839
58:02.1;0.6458771465019637;-0.5153131082817792;-1.3253160014262877;1.4280000000000002;0.4411035463360716
58:02.1;0.6033532018534258;-0.541055091310817;-1.047038260079178;1.055;0.3418028357427651
58:02.1;0.5659892551689801;-0.5670594104348406;-0.7667732040795594;0.815;0.24609550203352737
58:02.1;0.535239432163842;-0.5927075080964417;-0.4984537069708733;0.691;0.1581296683708139
58:02.1;0.5120238654367911;-0.6171034471514947;-0.2541069966121016;0.6890000000000001;0.08029061776636391
58:02.1;0.4967423979269706;-0.6390737590844586;-0.04330294805137419;0.76;0.013746738739416054
58:02.1;0.48935843659530365;-0.6572440904315672;0.1270981841333244;0.8440000000000001;0.04087832721109327
58:02.2;0.4895363870078307;-0.6701918412557824;0.2529373789395377;1.012;0.08298452809663105
58:02.2;0.4967976369801749;-0.676650168365885;0.3325454129571555;1.012;0.11178786900302884
58:02.2;0.5106517902991136;-0.6757192472134356;0.36639373874613723;1.012;0.12642681346478832
58:02.2;0.5306669996079418;-0.6670372342133791;0.35667300777956;1.022;0.12625320227529233
58:02.2;0.5564636756375297;-0.6508776391049771;0.3068552556243643;1.0;0.11113983244694464
58:02.2;0.5876373010469074;-0.6281557458486388;0.22127617149204531;0.95;0.08167917467587942
58:02.2;0.6236299685831284;-0.600335187340908;0.10475182592473671;0.882;0.03921772332118429
58:02.2;0.6635785542970725;-0.5692343834539895;-0.03776848301088151;0.84;0.01426635439804066
58:02.2;0.7061727325854483;-0.5367463512671408;-0.20150982447742802;0.863;0.07637940479935233
58:02.2;0.7495563853357443;-0.5045006250724527;-0.3821241791463017;0.9179999999999999;0.14450089455377518
58:02.3;0.7912998202487539;-0.47351207767849995;-0.5758563150375692;1.2409999999999999;0.21576761532297647
58:02.3;0.8284591466965011;-0.44388461542882457;-0.7795710851362029;1.2409999999999999;0.2866796811215936
58:02.3;0.8577281550244361;-0.4146616145671242;-0.990578991804901;1.2409999999999999;0.35231620045036555
58:02.3;0.8756842794434224;-0.3839110277892227;-1.206232475162707;1.4;0.40551708582653484
58:02.3;0.8791295672301908;-0.3490884305321833;-1.4233483324647198;1.556;0.43681700743190127
58:02.3;0.8655098737326751;-0.30765360675712816;-1.637581525215407;1.722;0.436050679536976
58:02.3;0.8333537271680427;-0.25783536704955307;-1.8429031783007717;1.821;0.39598103829403386
58:02.3;0.7826301804416501;-0.19935427241239556;-2.031350068471175;2.035;0.31693259907322685
58:02.3;0.7149080732445068;-0.13386517117062008;-2.1932149824089135;2.25;0.20989350656452554
58:02.3;0.633215631204837;-0.06491657636610736;-2.3177852384983892;2.617;0.0952753224309889
58:02.4;0.5415644772767199;0.0026398112689016914;-2.3945792272016213;3.133;0.003423357535256506
58:02.4;0.4442324803299814;0.06364383812243465;-2.4148323346554195;3.133;0.06827373371614796
58:02.4;0.3450375735831473;0.11369992987601395;-2.3728669407031524;3.133;0.09308934480078523
58:02.4;0.24685395561916332;0.14999010041503813;-2.2670272525898447;2.7769999999999997;0.08393815666801915
58:02.4;0.15149237429020496;0.17164203228205702;-2.100024092645411;2.294;0.054605790364674583
58:02.4;0.05990403388019836;0.17964589429433261;-1.8787127334113456;1.902;0.02021779289082433
58:02.4;-0.0274264750986689;0.1764270336235816;-1.6134506677465827;1.587;0.007807119340745224
58:02.4;-0.11005623093140067;0.1652375700130489;-1.3172228739040195;1.3259999999999998;0.023954256680335427
58:02.4;-0.18725617338348027;0.14953669592616525;-1.004681053021619;1.061;0.02813274675897674
58:02.4;-0.25785041431322014;0.13248723100299747;-0.6911643884995144;0.743;0.02361148001849708
58:02.5;-0.32023275971370824;0.11663016928420689;-0.39171606579948093;0.35700000000000004;0.01463012538055195
58:02.5;-0.3725296684999526;0.1037369359000316;-0.12012852725045857;0.527;0.004642377307736028
58:02.5;-0.4128537310193205;0.09479461514474032;0.11188051802233373;0.527;0.004378590697038978
