Time;AccX;AccY;AccZ;Acc-old;Acc-trns
59:21.3;0.06007466630388389;-0.7306456960416999;-0.5900035283601125;0.937;0.025897199733239857
59:21.3;0.06466076001994775;-0.7264039844623341;-0.6163109541268714;0.937;0.02894802303321407
59:21.3;0.06853957716430083;-0.7221849100254241;-0.6428873073996101;0.977;0.03182179561403142
59:21.3;0.07134066291063115;-0.7178805607111624;-0.669592941897157;0.981;0.03429258320725352
59:21.3;0.07282980759479747;-0.7133030306382384;-0.6961810071956167;0.981;0.03616641011838434
59:21.3;0.07295053843125893;-0.7081819231387259;-0.7222751054166185;0.985;0.03731435894290878
59:21.3;0.07184611447929795;-0.7021815592064853;-0.7473421291360139;0.98;0.03770267554442902
59:21.3;0.0698559922366813;-0.6949408159871295;-0.7706717610333632;0.99;0.03741286195334726
59:21.3;0.06748508157339402;-0.6861302218636787;-0.791384975932516;1.022;0.036643936961898105
59:21.4;0.065348163777048;-0.6755119003704149;-0.8084953557385042;1.1079999999999999;0.03568978425475777
59:21.4;0.06409637351927405;-0.6629858740388141;-0.8210294945424651;1.1079999999999999;0.03488964034123725
59:21.4;0.06433712495482402;-0.6486133393900507;-0.828182099907554;1.1079999999999999;0.03455997067405877
59:21.4;0.06655955111073973;-0.6326153803419576;-0.8294643385497575;1.12;0.03492591958514822
59:21.4;0.07107338363109385;-0.6153477081718627;-0.824812500980734;1.095;0.03607304583645886
59:21.4;0.07796490615544537;-0.5972538507153783;-0.8146390140290791;1.052;0.03793353568980181
59:21.4;0.08707322659309624;-0.5788054834490709;-0.7998158182215293;1.002;0.04030948633276837
59:21.4;0.09799223158449512;-0.5604437225022291;-0.7815892398707746;0.95;0.04292420188822749
59:21.4;0.1101038329594992;-0.5425338654868845;-0.7614394562599927;0.9059999999999999;0.045484630159657605
59:21.4;0.12264364025324788;-0.5253406198349013;-0.7409089194208666;0.866;0.047736529025069065
59:21.5;0.13479184390629773;-0.5090256827635347;-0.7214283984573835;0.8290000000000001;0.049499013474235846
59:21.5;0.1457729472576292;-0.4936659118391652;-0.7041687774520828;0.8290000000000001;0.05067419274486901
59:21.5;0.15494242629293814;-0.4792872335989689;-0.6899426191230338;0.8290000000000001;0.051236468322398865
59:21.5;0.16184156770860508;-0.4659060961651335;-0.6791697377547751;0.831;0.05121141740401914
59:21.5;0.16621312113727044;-0.4535676635085033;-0.6719067494222842;0.8440000000000001;0.050654308724919564
59:21.5;0.1679819965353739;-0.4423702852027206;-0.667927386824651;0.853;0.04963384689971503
59:21.5;0.16721164619162593;-0.4324698808513841;-0.6668313233886966;0.856;0.048221240789950534
59:21.5;0.164048960166612;-0.4240637200333694;-0.6681547426694824;0.851;0.04648166284313636
59:21.5;0.15866954007134085;-0.41735791781818155;-0.6714577647804085;0.83;0.04446526862283654
59:21.5;0.15123130895487513;-0.41252643567706937;-0.6763726062648525;0.8079999999999999;0.04219679883842144
59:21.6;0.1418399059933512;-0.4096723605147794;-0.6826090187625574;0.773;0.03966496916329721
59:21.6;0.13052779005571927;-0.40880282348714153;-0.6899267277899827;0.773;0.036814579277049946
59:21.6;0.11725085307700842;-0.4098245429997067;-0.6980948301246919;0.773;0.03354504634391635
59:21.6;0.1019067655782939;-0.41256034910115746;-0.7068607575945228;0.799;0.029718328258007458
59:21.6;0.08437515106489157;-0.4167824754254222;-0.7159450179285582;0.823;0.025176982872696436
59:21.6;0.06457470889203583;-0.4222550773088094;-0.7250672942866367;0.853;0.019770408967391257
59:21.6;0.042529264325524646;-0.42877473097048424;-0.734000271293635;0.885;0.013384842767417283
59:21.6;0.018431424876700516;-0.4361960065386007;-0.7426409988006051;0.915;0.00597062118010027
59:21.6;-0.007311585424218735;-0.44443240298200215;-0.7510839244667573;0.946;0.0024406513282645872
59:21.6;-0.034069001311311777;-0.4534308024967264;-0.7596737570302378;0.9740000000000001;0.011735390519623913
59:21.7;-0.061032522952992524;-0.46312647721769135;-0.7690128890621369;0.932;0.021736747102223734
59:21.7;-0.08731845105695746;-0.4733897940524324;-0.77990486152718;0.932;0.03223788496710341
59:21.7;-0.11209574955809869;-0.48397322358703654;-0.7932348013204964;0.932;0.04303405190894975
59:21.7;-0.13469362059664816;-0.49446347839975846;-0.809806877923785;0.932;0.05393400955025968
59:21.7;-0.15466075571081878;-0.5042440123264375;-0.8301640787421437;0.9179999999999999;0.0647418067770078
59:21.7;-0.1717779406994969;-0.5124765797767772;-0.8544128547795955;0.895;0.07521581899005755
59:21.7;-0.1860379969561066;-0.5181143193908346;-0.8820772881883416;0.878;0.08502250378058022
59:21.7;-0.19760554839268815;-0.519961199244853;-0.9120147999064081;0.915;0.09370698339197435
59:21.7;-0.2067681328248584;-0.5167863379518958;-0.9424302279999067;1.003;0.10070333127975245
59:21.7;-0.2138921545045044;-0.5074803954111176;-0.9710197996808331;1.079;0.1054003881417701
59:21.8;-0.2193952901903392;-0.4912192242029669;-0.9952529463888545;1.294;0.10725958865175415
59:21.8;-0.22373681154676267;-0.4675999494165619;-1.0127556278679075;1.294;0.1059538068980766
59:21.8;-0.22741508709141145;-0.43673156718464917;-1.0217148105482292;1.294;0.10147604819914514
59:21.8;-0.23095848560690965;-0.39927197985131474;-1.0212158990302203;1.2819999999999998;0.09417168128321624
59:21.8;-0.23490448209397724;-0.3564033542578335;-1.0114569716766781;1.2429999999999999;0.08467993155670074
59:21.8;-0.2397731943093671;-0.30974406202424987;-0.9938192042447849;1.183;0.07380928583331758
59:21.8;-0.24604544145587526;-0.2612101351744846;-0.9707906466833048;1.1;0.06239229064794286
59:21.8;-0.25414940179025797;-0.21284656089243587;-0.945753848029944;1.005;0.05116038996521403
59:21.8;-0.2644525148131545;-0.16664121420451342;-0.9226680348342783;0.871;0.040660769909601956
59:21.8;-0.2772583419795831;-0.12432709202747715;-0.9056987861428942;0.746;0.031220092339653165
59:21.9;-0.29282144524004966;-0.08719467757913904;-0.8988599645360622;1.087;0.022950116432368505
59:21.9;-0.3113927885554772;-0.055964853464154085;-0.9057131336398084;1.087;0.015783909678945877
59:21.9;-0.3332747981367059;-0.030768653998097868;-0.9291147854943653;1.087;0.009527530405012318
59:21.9;-0.35883298787129636;-0.011235480947171446;-0.9709586235157858;0.955;0.003914576207723727
59:21.9;-0.38842822369086016;0.0033487417205694944;-1.031881117142664;0.825;0.0013422150272829841
59:21.9;-0.4222843426130597;0.013861534811924496;-1.1109704424103326;0.8270000000000001;0.006503075611879457
59:21.9;-0.4603357617082643;0.021179038529982794;-1.2055839308107505;0.978;0.011753802960148305
59:21.9;-0.5020927118348016;0.02604460483038696;-1.311390057453288;1.251;0.01714879372303871
59:21.9;-0.5465454712885672;0.028973669525354108;-1.4226932102820744;1.546;0.022528955706434216
59:21.9;-0.5921275948840927;0.03019529657794856;-1.5330018257183775;1.75;0.027409257607346676
59:22.0;-0.6367607845800795;0.029637110666683585;-1.635720262030004;2.076;0.030868903594564734
59:22.0;-0.6779848955758285;0.026960031613514616;-1.7248187672147823;2.076;0.03152708986399506
59:22.0;-0.7131411903463456;0.021635077363655005;-1.7953602737580119;2.076;0.027700370974824334
59:22.0;-0.7395631491542114;0.01304043332401761;-1.843819262625122;2.084;0.017782205865245565
59:22.0;-0.7547496422231759;0.0005563783882282329;-1.868193630275636;2.064;0.0007845038059662816
59:22.0;-0.7565187916084978;-0.016357679323565254;-1.867955067198796;2.032;0.023115741835222282
59:22.0;-0.7431460399247144;-0.03811327433924578;-1.843894173907664;1.994;0.0522259586905714
59:22.0;-0.7134879392464568;-0.06496994222315437;-1.7979068642889626;1.94;0.08334245847013863
59:22.0;-0.6670929378081274;-0.09702792952701338;-1.7327533467267147;1.892;0.11215531344510511
59:22.0;-0.6042965374604218;-0.1342204647157234;-1.651805078084214;1.845;0.13397619544855785
59:22.1;-0.5262896348648477;-0.17629443772974762;-1.5587840833451927;1.456;0.1446270039075786
59:22.1;-0.435146717121763;-0.2227761458065641;-1.457506478735147;1.456;0.14129112769044969
59:22.1;-0.33380839500134035;-0.2729236962248925;-1.3516658106139638;1.456;0.12314246072110721
59:22.1;-0.22601143708498458;-0.32567445524277494;-1.244694637765292;1.2830000000000001;0.09161718226689838
59:22.1;-0.11614259628083978;-0.37960674872064903;-1.139708617228918;1.151;0.05024805859964842
59:22.1;-0.008990654153809579;-0.4329389410838763;-1.039509418703165;1.072;0.0040461909198178355
59:22.1;0.0905989191132374;-0.48357973405849725;-0.9466288567530289;1.067;0.041473515292439
59:22.1;0.17812643215259072;-0.529229349749469;-0.8634075932585166;1.113;0.08139320575712844
59:22.1;0.2498407832576914;-0.5675205490662943;-0.7920923352153484;1.145;0.1123105967566294
59:22.1;0.30308778201059755;-0.5961831199941307;-0.7349158374932733;1.168;0.13279621952759146
59:22.2;0.3365595886817812;-0.6132156692453055;-0.6941142243895696;1.1159999999999999;0.1432538017518691
59:22.2;0.3504130879220223;-0.6170519418351516;-0.6718470610679208;1.1159999999999999;0.14526883837861895
59:22.2;0.3462366816182464;-0.6067118389459536;-0.6700109411099975;1.1159999999999999;0.14074644721020205
59:22.2;0.3268568709472765;-0.5819286049486965;-0.6899577372259721;1.018;0.13123504172969097
59:22.2;0.2959915506751393;-0.5432425697372398;-0.7321401141957188;0.8740000000000001;0.11772462385759788
59:22.2;0.25778306004679247;-0.49204893653966925;-0.7957281920786722;0.755;0.10093166029306619
59:22.2;0.21628129556332507;-0.43058749731937035;-0.8782766186191305;0.72;0.08179216406200895
59:22.2;0.17497727502882054;-0.3618662711366049;-0.9755478643209813;0.7490000000000001;0.061770104575119
59:22.2;0.13648566691281191;-0.2895108755263224;-1.0815952693302775;0.889;0.04273824732649435
59:22.2;0.10243682012650145;-0.21752752347029322;-1.1891719821412043;1.12;0.02649811449584666
59:22.3;0.07358211058257229;-0.14997563665696487;-1.2904556367713331;1.8259999999999998;0.014240853997199161
59:22.3;0.050057526851670364;-0.0905795106548006;-1.3779677167388138;1.8259999999999998;0.006247962324909312
59:22.3;0.03170433755890299;-0.04235228476725355;-1.4454677408448715;1.8259999999999998;0.0019409034462310778
59:22.3;0.018335873065880713;-0.007315788490922371;-1.4885980084262993;1.885;0.00019968257495888366
59:22.3;0.00987333679396036;0.013638792976227672;-1.5051567960789172;1.686;0.00020268501098084154
59:22.3;0.006326967685672758;0.020749736748249776;-1.4949993919248357;1.4269999999999998;0.0001962678764392479
59:22.3;0.007647629012693012;0.015262414886785616;-1.4596508477117307;1.255;0.00017037232535782346
59:22.3;0.013509981588725881;-0.0007875152706416535;-1.40177123415497;1.202;1.4913888251407382e-05
59:22.3;0.023109157932797116;-0.024848102919601826;-1.3246316847806516;1.212;0.0007606283299775806
59:22.3;0.03505854324087961;-0.05413966664472187;-1.2317149072384161;1.242;0.0023378661413920687
59:22.4;0.047457402181861626;-0.08592088034006545;-1.1264747488143467;0.953;0.004593292904769638
59:22.4;0.05813464398054627;-0.11770467154657396;-1.012236035960142;0.953;0.0069264469331002014
59:22.4;0.06498969060669418;-0.14740550427341398;-0.8922136589731342;0.953;0.00854726241825075
59:22.4;0.06631181998532473;-0.1734134112011398;-0.7696369064402825;0.953;0.008850331014930659
59:22.4;0.06099318540548857;-0.1946064720942169;-0.6479380606279224;0.833;0.007690810074718862
59:22.4;0.0486061984588592;-0.21032129337270977;-0.5309295398700782;0.737;0.005427649429031165
59:22.4;0.02934698624784826;-0.22029593809052905;-0.4228958019364445;0.636;0.0027340306063893868
59:22.4;0.0038641412483045494;-0.22459024473757758;-0.3285562544812158;0.532;0.00028513702917704693
59:22.4;-0.026982567222525244;-0.22348590628321255;-0.2528817549091167;0.462;0.00152493349853759
59:22.4;-0.06236146077581636;-0.21737518219064927;-0.20076336050723664;0.413;0.0027215147678038764
59:22.5;-0.10162710148198707;-0.20665590867500663;-0.1765500133671788;0.205;0.003707875309773904
59:22.5;-0.1443454360340626;-0.19165653237871697;-0.1835025673981527;0.205;0.005076551868786354
59:22.5;-0.19018387552730562;-0.1726173903442526;-0.22324916097367017;0.205;0.007329056590872002
59:22.5;-0.23870800021709604;-0.14974900335297794;-0.29534437811664893;0.139;0.010557464350191817
59:22.5;-0.2891526532946164;-0.12336966021660836;-0.39702080427133446;0.225;0.014162789985105277
59:22.5;-0.3402522131726553;-0.09409538124233947;-0.5231988913469904;0.42200000000000004;0.01675082031553645
59:22.5;-0.39021040915162586;-0.06302473507850932;-0.6667972086185197;0.68;0.016398482180606525
59:22.5;-0.43683941163563034;-0.031845994445464654;-0.8193421985417336;1.018;0.011398349029523589
59:22.5;-0.47782299771343195;-0.0028100755456429713;-0.9718152203841587;1.329;0.0013048744897823101
59:22.5;-0.5110146223368193;0.02144898486139722;-1.1156192689814473;1.5230000000000001;0.012228018211106556
59:22.6;-0.5346890425375433;0.03822704819466305;-1.2435175070445523;1.9280000000000002;0.02541698028981676
59:22.6;-0.5477028498343177;0.045145234820126265;-1.3503903393682324;1.9280000000000002;0.03338998618506773
59:22.6;-0.5495544292071808;0.04054355700666588;-1.4336723801358366;1.9280000000000002;0.031943498502947414
59:22.6;-0.5403516956034425;0.02377558536916162;-1.4933770261191945;1.9140000000000001;0.019185680278823232
59:22.6;-0.5206999279485252;-0.0046682376421699305;-1.5316948229888265;1.682;0.003723168728686013
59:22.6;-0.4915267867893408;-0.0432404002457142;-1.5522336303755373;1.339;0.032990886404767196
59:22.6;-0.4538770667029215;-0.08961250799508738;-1.5590419860715465;1.074;0.06341101177900942
59:22.6;-0.4087296470877999;-0.14108981509077073;-1.5556263824644907;1.051;0.08970922493008783
59:22.6;-0.3568940858816125;-0.1950462682761468;-1.5442070967193735;1.199;0.10749358343553858
59:22.6;-0.2990184630703442;-0.2492404911974507;-1.525409369281584;1.357;0.11368495990711708
59:22.7;-0.23569062779664252;-0.3019274200973407;-1.498456079783732;1.765;0.10663232716600331
59:22.7;-0.16758021493324274;-0.3517834446849649;-1.4617648577675382;1.765;0.08617388189310558
59:22.7;-0.09557975325990843;-0.39773721129102374;-1.413730368482173;1.765;0.053743842857177086
59:22.7;-0.020930765726537754;-0.43880381217382497;-1.353451133200429;1.765;0.012430771652068014
59:22.7;0.05468234077853615;-0.473988953688159;-1.281231566328801;1.558;0.03320801738102884
59:22.7;0.12910803049948183;-0.5022947015355794;-1.1987881519641008;1.379;0.07774174689068443
59:22.7;0.19980594369258897;-0.5228172303324649;-1.109172897539604;1.28;0.11586640822569198
59:22.7;0.2640301335510819;-0.5348869944594375;-1.0164891669013207;1.219;0.14355498835918584
59:22.7;0.31908822783294905;-0.5381894039861603;-0.9254962165573916;1.169;0.1589353756410293
59:22.7;0.3626286031371017;-0.5328246572817252;-0.8411747972328395;1.127;0.16252965873588351
59:22.8;0.3929025700846818;-0.5192974808085886;-0.7682901210295554;0.9159999999999999;0.15675678015878128
59:22.8;0.4089558361112501;-0.4984534155622292;-0.7109760518428132;0.9159999999999999;0.1449292213707142
59:22.8;0.4107189194001278;-0.47139210391167796;-0.6723760410171673;0.9159999999999999;0.13017849368954376
59:22.8;0.3989841344973168;-0.4393851525472487;-0.6543793190207937;0.833;0.11471773648614558
59:22.8;0.3752750189399251;-0.4038099184065727;-0.6574681550626514;0.784;0.09963257614200408
59:22.8;0.3416340637125033;-0.36609721774113574;-0.6806680302012174;0.745;0.08513202193579254
59:22.8;0.30037404737426887;-0.3276881125548407;-0.7215888014684346;0.7390000000000001;0.07102526749117917
59:22.8;0.2538472263938726;-0.28999280230072944;-0.7765534535106584;0.773;0.057165103839639624
59:22.8;0.2042766659380919;-0.2543370352647581;-0.8408200673222718;0.78;0.04368490883174886
59:22.8;0.15366785347933273;-0.221876651838819;-0.9089095103867609;0.792;0.030989550450845713
59:22.9;0.1037896699564944;-0.19347080540036066;-0.9750505941894769;1.167;0.019579280207790255
59:22.9;0.05619733735444799;-0.1695316045053029;-1.033729366051853;1.167;0.009848572022372066
59:22.9;0.012270193602768638;-0.14989696669349795;-1.0802808153452337;1.167;0.001986922479721033
59:22.9;-0.026758439136837297;-0.13377851495981294;-1.1114340136489116;1.422;0.003978605062663277
59:22.9;-0.05980281987665553;-0.11981259270624187;-1.1257346469546667;1.574;0.008066036104733174
59:22.9;-0.08597752332077394;-0.10621670440275179;-1.1237728177096955;1.598;0.01026257339285961
59:22.9;-0.10470109643400931;-0.09104618573291429;-1.1081233991759512;1.419;0.010563336422748537
59:22.9;-0.11582123629397019;-0.0725408058025865;-1.0829249017151936;1.0290000000000001;0.009098481413829473
59:22.9;-0.11971328989887847;-0.04951995186508674;-1.0531221562667115;0.7509999999999999;0.006243114926468893
59:22.9;-0.11730838213649145;-0.02173237835069752;-1.0235342936385952;0.753;0.0026093882405536983
59:23.0;-0.11003169222967665;0.009961805392988203;-0.9979901265173098;0.727;0.0010939112539774872
59:23.0;-0.09966257705608515;0.043654438777373024;-0.9787348239597143;0.727;0.0042581951721757366
59:23.0;-0.08815248397369425;0.07666797222288013;-0.9661896523306678;0.727;0.006529965898125286
59:23.0;-0.07744030084128317;0.10594067545997557;-0.9590440561189474;0.727;0.007868072029838817
59:23.0;-0.06928855172353492;0.12842745344088788;-0.9546301777396845;0.9059999999999999;0.008494826516483294
59:23.0;-0.06514982256021645;0.14148635018141256;-0.9495313474151459;1.133;0.008752600127792484
59:23.0;-0.06607624192922615;0.14324110969411008;-0.9403482307209111;1.364;0.00890024011130047
59:23.0;-0.07269072256852022;0.13288887944059583;-0.9244893922871225;1.4;0.008930372155169964
59:23.0;-0.08522508283182002;0.11090109395202012;-0.9008143305442824;1.4680000000000002;0.008514096116241186
59:23.0;-0.10359981592326807;0.07906181558929899;-0.8699697561214879;1.419;0.00712573917995753
59:23.1;-0.1274965125489536;0.040303538435130945;-0.8343215119870189;0.627;0.004287211644107779
59:23.1;-0.156379070672056;-0.0016521180475025342;-0.7974931071846217;0.627;0.00020603767540997914
59:23.1;-0.18945515122253517;-0.04277393930462586;-0.763655798244402;0.627;0.006188470435841378
59:23.1;-0.22560767166772813;-0.07921839509736356;-0.7367809175510314;0.627;0.013167953141291709
59:23.1;-0.26334088069459305;-0.10778199036034296;-0.7200059224085874;0.515;0.02043621916856353
59:23.1;-0.3007806630528144;-0.12629338635336354;-0.715172044358414;0.5710000000000001;0.027166960449568605
59:23.1;-0.3357581209662027;-0.1339273174887984;-0.7225620813906749;0.6890000000000001;0.03249158240209137
59:23.1;-0.36598686643428285;-0.1313904128322559;-0.7408743675097585;0.8009999999999999;0.03562654830439334
59:23.1;-0.3893125733920319;-0.12091816605460773;-0.7674518300327535;0.892;0.03612776603996638
59:23.1;-0.40397942389752844;-0.10604752590196556;-0.7987451266268472;0.993;0.03421905468241387
59:23.2;-0.4088456211469615;-0.09117502437695713;-0.8309499213556413;1.272;0.03097491261623728
59:23.2;-0.4035038330623627;-0.0809611450807183;-0.8607160394418212;1.272;0.028117985508768557
59:23.2;-0.38830736078225814;-0.07968266160972945;-0.8857847607918553;1.272;0.02740738873569222
59:23.2;-0.3643316030402246;-0.09064035782522994;-0.9054116848330009;1.3019999999999998;0.029899543042981005
59:23.2;-0.33329480572147074;-0.11569833847169533;-0.9204907047131731;1.2409999999999999;0.03549564520973861
59:23.2;-0.2974414763604748;-0.15500060144156969;-0.9333633227332774;1.119;0.04303141650043696
59:23.2;-0.2593785123061818;-0.2069011229802634;-0.9473454123876333;0.963;0.05083995988248632
59:23.2;-0.2218508359225969;-0.26813550477434445;-0.9660448773127398;0.8170000000000001;0.057466228530654924
59:23.2;-0.18745081941036754;-0.33423632032401784;-0.9925851605821803;0.733;0.06218831113559753
59:23.2;-0.15827916796726654;-0.40015004143568655;-1.0288796291210953;0.716;0.0651645189338584
59:23.3;-0.13560807115101384;-0.460961031390836;-1.0751104026704645;1.252;0.06720519034333827
59:23.3;-0.1196215001484535;-0.5125883350421079;-1.1295290962051359;1.252;0.06925886751101318
59:23.3;-0.10930866167932919;-0.5523164704276983;-1.188607894353899;1.252;0.07175979374676002
59:23.3;-0.10256435479786895;-0.5790616737818723;-1.2474876577090674;1.496;0.07408964796004167
59:23.3;-0.09651058900539343;-0.5933445194585449;-1.3006428322061694;1.735;0.07448004893501844
59:23.3;-0.08800182565200639;-0.5970047537694774;-1.3426620307448858;1.788;0.07054011752345188
59:23.3;-0.07421758189635563;-0.5927358578360236;-1.3689994858199397;1.7830000000000001;0.060224234196852904
59:23.3;-0.05320452997842798;-0.5835409376858173;-1.3765463640524658;1.7209999999999999;0.042737664302718595
59:23.3;-0.024237389621560947;-0.5722201937188035;-1.3639297643049808;1.633;0.018916510734492943
59:23.3;0.01207642879229262;-0.5609854736823656;-1.3315208971545414;1.551;0.009020656121825458
59:23.4;0.053952714581961256;-0.551259123799928;-1.2811847319689196;1.225;0.03810490170460923
59:23.4;0.09878868602070306;-0.5436615618213199;-1.21584594447045;1.139;0.06530018142556168
59:23.4;0.14361938022065443;-0.5381401671634012;-1.1389934323766406;1.139;0.08802979234749274
59:23.4;0.1855599409450018;-0.534166663152039;-1.0542609602403628;1.139;0.10449827729254603
59:23.4;0.22216278928171357;-0.5309432336682258;-0.9651693179906421;1.099;0.11384734774509261
59:23.4;0.25167302221423793;-0.5275863657955041;-0.8750346622392235;1.092;0.11618645069023958
59:23.4;0.27319021290027173;-0.5232748359919275;-0.7869993282406914;1.113;0.11250435871955448
59:23.4;0.2867437684338657;-0.5173539003177571;-0.7041258612562024;1.103;0.10445566818822981
59:23.4;0.29328521293210963;-0.509391789362367;-0.6294846075307444;1.047;0.09404316189802019
59:23.4;0.2945973236313265;-0.4991890968960333;-0.5661630336706579;0.956;0.08325980660765896
59:23.5;0.29311558947139815;-0.4867457736511328;-0.5171506243709714;0.64;0.07378331434435534
59:23.5;0.2916649139587582;-0.47219703648442596;-0.4851080374678961;0.64;0.06681068366610671
59:23.5;0.2931378421576183;-0.455738103562493;-0.4720856373218923;0.64;0.06306784841376968
59:23.5;0.30015721760029435;-0.43755870745397096;-0.47927408820823353;0.599;0.06294613535528683
59:23.5;0.3147594348858476;-0.4177971494454732;-0.5068430918933612;0.598;0.06665270219691227
59:23.5;0.33812004729734535;-0.3965114826748464;-0.5538926085371011;0.64;0.07425954081654876
59:23.5;0.37034068402693165;-0.3736633535637565;-0.6185238955971205;0.752;0.08559303263716954
59:23.5;0.41032243117228817;-0.3491156674184635;-0.698017515694764;0.8420000000000001;0.09999100173509455
59:23.5;0.4557549986848118;-0.322650737647648;-0.7890775241066582;0.981;0.1160336025537523
59:23.5;0.5032468405581212;-0.29401677005255794;-0.8880835336996209;1.173;0.13140351331052988
59:23.6;0.5486046660546692;-0.2630091554950739;-0.9912918438298188;1.2770000000000001;0.14303156704750397
59:23.6;0.5872369771492666;-0.22959066172391857;-1.0949417230652634;1.2770000000000001;0.147624561022035
59:23.6;0.6146161668326944;-0.19404555240043114;-1.1952615093487589;1.2770000000000001;0.14255111118971076
59:23.6;0.6267221890626076;-0.15714584144014437;-1.2884243791817815;1.2770000000000001;0.12689277578684774
59:23.6;0.6204209380347329;-0.12029201414892486;-1.3705401849083858;1.55;0.10228572234074045
59:23.6;0.5937605692388799;-0.0855722502787801;-1.4377577088059796;1.84;0.0730516468396161
59:23.6;0.5461645439225151;-0.055659391561099114;-1.4864893461956532;1.758;0.0451880664296823
59:23.6;0.4784881090258879;-0.03347446278931702;-1.5136978702619817;1.524;0.02424509920267064
59:23.6;0.3929234324580426;-0.02163933978789692;-1.5171717640033133;1.595;0.012899910201938678
59:23.6;0.2927734860824742;-0.02187707853152708;-1.4957672448178332;1.93;0.009580431902688721
59:23.7;0.18212948878575771;-0.034576507165284855;-1.449622287473198;1.515;0.009128853674854302
59:23.7;0.0654933256544873;-0.058653876302945655;-1.3803116094157675;1.515;0.0053023806698880875
59:23.7;-0.0525863347621391;-0.09168760736690712;-1.2908876439026329;1.515;0.006224034415332751
59:23.7;-0.16778691128951115;-0.13020902567135917;-1.1857744727520194;1.515;0.02590605392665932
59:23.7;-0.2761723099233159;-0.1700570470134691;-1.0704922130583123;1.197;0.050275717626579064
59:23.7;-0.3742882201686296;-0.20677067427974075;-0.9511878454761181;0.897;0.07361416580864356
59:23.7;-0.4592517285299334;-0.2360165311731066;-0.833997017535283;0.731;0.09039777064667583
59:23.7;-0.5288648159578287;-0.25403179918726393;-0.7243503942873051;0.767;0.09731537498477054
59:23.7;-0.5817548554854365;-0.25803941348077614;-0.6263879720456321;0.883;0.09403065743171912
59:23.7;-0.6175267317044597;-0.24657497857750124;-0.5426147093832576;1.026;0.08262211896021451
59:23.8;-0.6368868190387932;-0.2196629625499908;-0.4738499524535444;0.97;0.06629181943850178
59:23.8;-0.6416762651318736;-0.17881197528763318;-0.41944037696979536;0.97;0.04812633738366576
59:23.8;-0.6347500346078145;-0.1268581366081962;-0.377654206156817;0.97;0.03040992766660634
59:23.8;-0.6196640464704442;-0.06771920865267242;-0.34616414020695935;0.7290000000000001;0.014526140806271529
59:23.8;-0.6001798107864106;-0.006099538135408191;-0.3225469870913523;0.524;0.0011807863464550316
59:23.8;-0.5796612887612642;0.052852384545870414;-0.3047574815951198;0.43;0.009336696898103665
59:23.8;-0.5604999884924975;0.10393968804223666;-0.2915555494348879;0.491;0.016985499746639335
59:23.8;-0.543718339103266;0.14235384833829487;-0.2828711425913299;0.618;0.021894339014603838
59:23.8;-0.5288551045786222;0.16411788488226497;-0.28007474677569144;0.782;0.024308970343427248
59:23.8;-0.5141620164661743;0.16648506772382682;-0.2860924514098359;0.919;0.024489599134108368
59:23.9;-0.49706990517118077;0.14823651624065143;-0.30528564572045774;0.884;0.022494640370411195
59:23.9;-0.4748225935532165;0.10983417635512523;-0.3430379581575121;0.884;0.017890029312141866
59:23.9;-0.44513491163316365;0.05341379763181719;-0.4050602294763243;0.884;0.00963085220285024
59:23.9;-0.40673022470911185;-0.017380713460678595;-0.4964903743919172;0.884;0.0035098202845725603
59:23.9;-0.3596546415083388;-0.09773055005832866;-0.6208860461639325;0.775;0.02182367634083265
59:23.9;-0.30531499408765833;-0.1821580260179425;-0.779210267877384;0.635;0.04333622836922855
59:23.9;-0.2462283987675039;-0.26519965731833633;-0.9689417063903277;0.61;0.06327159012448973
59:23.9;-0.18552295374511263;-0.3421346954477865;-1.183496923626031;0.805;0.07512109351643301
59:23.9;-0.1262989900931961;-0.4096136622019593;-1.4121806856106667;1.168;0.07305746166442517
59:23.9;-0.07101686877472155;-0.4660294739762078;-1.6408378246555362;1.5190000000000001;0.05430509316383266
59:24.0;-0.021078900928748194;-0.5115190017044887;-1.8532464360689516;2.8169999999999997;0.019982181878632016
59:24.0;0.02329833157527431;-0.5475853504559772;-2.033063683981022;2.8169999999999997;0.025937470817463976
59:24.0;0.06293638301806063;-0.5764727323831291;-2.1658985964236;2.8169999999999997;0.07858120237695439
59:24.0;0.09936489976530874;-0.6005078220244203;-2.241039562388388;2.8169999999999997;0.13372148504148182
59:24.0;0.13440652103748704;-0.6215809923381532;-2.252564583495311;2.87;0.18818946907233305
59:24.0;0.1697430315921319;-0.640842515294524;-2.19979591310858;2.7439999999999998;0.23929061262589127
59:24.0;0.2065146356426348;-0.6586120590085413;-2.0871544017958996;2.4619999999999997;0.28388019300544476
59:24.0;0.24501549082572166;-0.6744557453346164;-1.9234829036783965;2.095;0.31785959969415767
59:24.0;0.28456095489672456;-0.6873681593261782;-1.7209430739228546;1.7209999999999999;0.33661326393254193
59:24.0;0.32358387977051717;-0.6960047940906166;-1.4936454757355933;1.433;0.33639275731393115
59:24.1;0.3599569274121101;-0.6989269257832943;-1.2562107737923247;1.138;0.3160420146224014
59:24.1;0.3914587167635906;-0.6948315577726518;-1.022468617939225;1.138;0.2781092861932247
59:24.1;0.4162501220202708;-0.6827449873444196;-0.8044733786271181;1.138;0.22862544891256428
59:24.1;0.43323883522457607;-0.6621645526569809;-0.6119279506707442;1.05;0.17554707532619368
59:24.1;0.4422719084118455;-0.6331400488859041;-0.4519806300949472;0.96;0.12656364212422677
59:24.1;0.4441557942923576;-0.5962937607452021;-0.32927981743857687;0.8690000000000001;0.08720888012093081
59:24.1;0.44053190904301764;-0.5527848810265995;-0.24617469907568518;0.789;0.05994830982688654
59:24.1;0.4336429891915092;-0.5042275324077377;-0.2029912137107415;0.7140000000000001;0.044384989916603786
59:24.1;0.42602736504922417;-0.452570009369197;-0.19834665160650816;0.649;0.03824266422979334
59:24.1;0.4201805227214241;-0.39993744179352303;-0.22948745842144685;0.584;0.038564431847371926
59:24.2;0.4182255499750474;-0.3484378164660029;-0.2926443859788704;0.66;0.04264577797943309
59:24.2;0.4216311019498923;-0.2999455894102971;-0.3833862016640367;0.66;0.04848546866565854
59:24.2;0.4310041706840863;-0.2559057032775992;-0.4969222188805954;0.66;0.05480874445156622
59:24.2;0.4459714382144074;-0.2172102254737324;-0.6283003376345857;0.66;0.06086317514932822
59:24.2;0.46515609084945897;-0.18417115039363466;-0.7724983046412747;0.857;0.06617864151290631
59:24.2;0.4862558515674191;-0.15657889846320316;-0.9244596990952935;1.055;0.07038596307985187
59:24.2;0.5062254312927107;-0.13383134393719343;-1.0791224383011082;1.205;0.07310928241131427
59:24.2;0.5215597918354797;-0.11513165054614319;-1.2314459014931556;1.306;0.0739459123720541
59:24.2;0.5286634856648429;-0.09975162460811726;-1.3764238197733418;1.432;0.07258576734825978
59:24.2;0.524271788388341;-0.08732520946051853;-1.5090939924069258;1.5330000000000001;0.06908955807037995
59:24.3;0.5058613131498549;-0.07809334394398508;-1.6245898129769276;1.886;0.06417844827026628
59:24.3;0.47196919960497674;-0.07300750395673448;-1.7182751396114253;1.886;0.05920711029695017
59:24.3;0.4223507645611693;-0.07363117354967019;-1.785955940775752;1.886;0.05553998368361747
59:24.3;0.35793828592574717;-0.0818288683858003;-1.8241263734733921;1.7990000000000002;0.053428086677218635
59:24.3;0.2806066609129648;-0.09928154319031829;-1.8302262852442954;1.814;0.05098838814933042
59:24.3;0.19281469374035298;-0.12692748357567415;-1.8029190810511138;1.959;0.04412371105420718
59:24.3;0.09725350199614517;-0.16448366684564228;-1.7423858404146129;2.086;0.027872271327006603
59:24.3;-0.0033677275089564265;-0.2102006131313964;-1.6505774294629123;2.0469999999999997;0.001168441100335025
59:24.3;-0.10635253855411302;-0.2609275087567055;-1.531315682911316;1.892;0.04249447408971582
59:24.3;-0.2089241741379086;-0.31246045564574615;-1.3901316316896102;1.631;0.0907485472668208
59:24.4;-0.30812162130927667;-0.3600735848446872;-1.2337946763974956;0.972;0.13688514770700208
59:24.4;-0.4007716912902469;-0.39911042321431134;-1.0696129658169864;0.972;0.1710869035224825
59:24.4;-0.4835554805486843;-0.42552501452419733;-0.904709267893832;0.972;0.18615745988165192
59:24.4;-0.5531497659398005;-0.4362952243068227;-0.7454860731547338;0.972;0.17991307514154986
59:24.4;-0.6064450545323672;-0.42967629442861355;-0.5973628222723049;0.963;0.1556578555289536
59:24.4;-0.6408652189524852;-0.4053007963860078;-0.46472516431699334;1.031;0.12070919368687816
59:24.4;-0.6547792561266647;-0.3641498585926026;-0.3509792495482581;1.16;0.08368671081677793
59:24.4;-0.6479206837650829;-0.30842764145138374;-0.25862355729889824;1.182;0.0516824648726985
59:24.4;-0.6216757435947037;-0.24137252028125028;-0.18927528002069555;1.05;0.02840178561942587
59:24.4;-0.5791066719343626;-0.1670334526962422;-0.14361789910424055;0.853;0.01389218622147958
59:24.5;-0.524644253810139;-0.09002978793687878;-0.12129060468889558;0.266;0.005728993229257025
59:24.5;-0.46349892386361496;-0.015304367892464556;-0.12079822588945908;0.266;0.0008568892275111715
59:24.5;-0.40095020657080077;0.05212253327023333;-0.13954192314528005;0.266;0.0029162225297449966
59:24.5;-0.34169935369600934;0.1073978614715619;-0.1740466011717912;0.12300000000000001;0.006387123853994219
59:24.5;-0.2893996671364025;0.14609472486605024;-0.22040992927202263;0.335;0.009318879957440103
59:24.5;-0.24640289809625854;0.16450530318886575;-0.2749327166419263;0.624;0.011144283148040387
59:24.5;-0.21373269822508154;0.1599652560273987;-0.3348186156027293;0.877;0.011447383443339074
59:24.5;-0.1912801561029912;0.13117473453903755;-0.39877569247048644;1.024;0.010005730228089088
59:24.5;-0.1781785541945194;0.0784561543343241;-0.46734183466386;1.065;0.006533066913177161
59:24.5;-0.17326852237978563;0.0038763354594783116;-0.5428002455482462;1.02;0.0003645701116387709
59:24.6;-0.17553511171155317;-0.08883145650925776;-0.6286405893260583;0.69;0.009802417629838769
59:24.6;-0.18440003395773033;-0.1945640338349158;-0.7286373038665195;0.69;0.02614176825917715
59:24.6;-0.1997863550542003;-0.3073104186410073;-0.8457236217390687;0.69;0.05192440979714378
59:24.6;-0.22192315540977134;-0.42069457233131957;-0.9808877933232223;0.6509999999999999;0.09157751565854678
59:24.6;-0.25091302073116073;-0.5285450783243656;-1.1323010970414982;0.75;0.15016446050572033
59:24.6;-0.2861539957601216;-0.6254640818054874;-1.2948556199508008;1.071;0.2317520238424353
59:24.6;-0.3257832217502294;-0.7073429682065779;-1.4602586720473631;1.56;0.33650269626292084
59:24.6;-0.36634812412085027;-0.7717333067340988;-1.617753032278411;2.052;0.45737607020886134
59:24.6;-0.402869408279333;-0.8179739688307406;-1.7553830065278901;2.49;0.5784631035658391
59:24.6;-0.4293403859210239;-0.8470205466698622;-1.8615548152359982;2.767;0.6769732631142582
59:24.7;-0.4395624222104817;-0.8610138412754335;-1.9265419978688139;2.559;0.7291370584331753
59:24.7;-0.4281157813546125;-0.8627125759747319;-1.9436326080114528;2.559;0.7178629555809173
59:24.7;-0.39124698100735206;-0.8549501078373825;-1.9097725524427505;2.559;0.6388125183866432
59:24.7;-0.32750608908666606;-0.8402424772840209;-1.8257072799613003;2.261;0.5024063954081467
59:24.7;-0.23804682065753344;-0.8206003804868811;-1.6956901575719192;1.9380000000000002;0.33123833945623593
59:24.7;-0.12657169734824927;-0.7975207332960749;-1.526856455115499;1.641;0.15412631532277715
59:24.7;0.0010448113582760183;-0.7720869321135259;-1.3284031128641005;1.403;0.0010716031257981568
59:24.7;0.1373844451449185;-0.7451017997844986;-1.1107334746777362;1.244;0.11370067347408476
59:24.7;0.27426731641538654;-0.7172016030250499;-0.8846908912083974;1.173;0.1740230854744112
59:24.7;0.4035792771124103;-0.6889307949870918;-0.6609368897870246;1.138;0.18376569800879827
59:24.8;0.5180415148664829;-0.660779509759609;-0.4494693986528931;1.043;0.15385841740934797
59:24.8;0.611837057312731;-0.6331982055079948;-0.2592573025235317;1.043;0.10043994146167733
59:24.8;0.6810333613265563;-0.6066104263825378;-0.09798441917120088;1.043;0.04047951311192907
59:24.8;0.7237758464499868;-0.5814414285284585;0.028104009292707444;1.058;0.01182710190857788
59:24.8;0.7402672033979749;-0.5581643351871629;0.11429481666188894;1.074;0.04722556118285051
59:24.8;0.7325671017889369;-0.5373479137383284;0.15749690086069038;1.0659999999999998;0.061997616145843225
59:24.8;0.7042418309232584;-0.5196828708332036;0.15634431540787064;0.998;0.05721927035197996
59:24.8;0.6598877916258348;-0.5059659520612622;0.1112790613831822;0.889;0.03715393700177285
59:24.8;0.6045635005841388;-0.4970283442700756;0.024560748663408332;0.741;0.007380141368698511
59:24.8;0.5431853119795971;-0.4936060255590773;-0.09984368696609511;0.6;0.02677004371961794
59:24.9;0.479958966899372;-0.4961655675190751;-0.2565148065756399;0.7859999999999999;0.06108620855995007
59:24.9;0.41792677702327247;-0.5047165240408347;-0.4389493833641035;0.7859999999999999;0.09258959074169264
59:24.9;0.35870524210150617;-0.5186522581537881;-0.6399364710806136;0.7859999999999999;0.11905588252084971
59:24.9;0.3024606717751922;-0.5366583153734791;-0.8518254164205153;0.7859999999999999;0.13826662740003567
59:24.9;0.2481239837077511;-0.5567162860917859;-1.0666716377252035;1.0290000000000001;0.14734432688891075
59:24.9;0.19380501294367833;-0.5762230926463636;-1.2763534940645498;1.324;0.1425366793558846
59:24.9;0.1373464864637753;-0.5922439648661889;-1.472756319765221;1.6030000000000002;0.1197978690170024
59:24.9;0.07694634604077472;-0.6019079096936634;-1.6480453073863766;1.817;0.07632858276706442
59:24.9;0.01175531942355501;-0.6029137755840547;-1.7949944573413321;2.094;0.012721922726966551
59:24.9;-0.05767945055009354;-0.5940395739357739;-1.907342731296054;2.326;0.06535295527260691
59:25.0;-0.12927333248168016;-0.5754833832635223;-1.9801697675012717;2.342;0.1473140461844124
59:25.0;-0.19965540671429133;-0.5488873940054614;-2.010269889482618;2.342;0.22030213187919526
59:25.0;-0.2647632034079993;-0.517019249287721;-1.9964590462573217;2.342;0.2732906324131823
59:25.0;-0.3206269720674374;-0.4832027067197033;-1.939728202322855;2.271;0.3005178632338321
59:25.0;-0.364178891830909;-0.4506257412714349;-1.843188073778667;2.166;0.3024826145125303
59:25.0;-0.39391875148137795;-0.4216683034208459;-1.7118094888286153;1.905;0.2843367798913163
59:25.0;-0.4102426691576173;-0.39742416704399014;-1.552017662601313;1.6019999999999999;0.2530415045864681
59:25.0;-0.41530613386692866;-0.37756256840575503;-1.3712259824907351;1.4709999999999999;0.21501378831160714
59:25.0;-0.41247049154342086;-0.3605470417333438;-1.1773778734247144;1.3230000000000002;0.17509376872900803
59:25.0;-0.4055408854167199;-0.3440929609385694;-0.9785135660792348;1.161;0.1365454661794872
59:25.1;-0.39803546538247947;-0.32569996610539464;-0.7823417101778541;0.619;0.1014228869450169
59:25.1;-0.392647193420737;-0.30313620008809755;-0.5958218871252557;0.619;0.0709180446126365
59:25.1;-0.39095445898879244;-0.27481024259653114;-0.42483071325353683;0.619;0.04564308525202282
59:25.1;-0.3933698871580843;-0.24000152409958855;-0.27399804378020204;0.5;0.025867983366590106
59:25.1;-0.3992943191544692;-0.19893848949267495;-0.1467276248042547;0.462;0.011655310155144696
59:25.1;-0.40743194218218914;-0.15273706940863457;-0.04534443177940895;0.507;0.002821782213598956
59:25.1;-0.41620302227432004;-0.10323909033441113;0.028698952335709543;0.613;0.0012331486781020275
59:25.1;-0.4241706343153361;-0.052803043576988756;0.07461125954771344;0.721;0.0016711057221176458
59:25.1;-0.4303867358352802;-0.00409252002040096;0.09210591562351247;0.763;0.0001622322588421083
59:25.1;-0.43456570054739885;0.04010779315118882;0.0813647030003946;0.664;0.0014181437499328794
59:25.2;-0.43702428951900407;0.07703400288904617;0.04316013490095572;0.365;0.0014530174648000093
59:25.2;-0.4384007269504673;0.1040450060342671;-0.02089565006647891;0.365;0.000953121775987666
59:25.2;-0.4392563015257812;0.11870353997380985;-0.10808481498069823;0.365;0.005635680379749299
59:25.2;-0.4397028840377266;0.11886330618768165;-0.21444134846498292;0.252;0.011207678120770694
59:25.2;-0.4391645698884462;0.1027840743801901;-0.33484471687058265;0.27;0.015114597134141622
59:25.2;-0.43632541935887226;0.06928326822932464;-0.4633981382962931;0.545;0.014008549383990017
59:25.2;-0.42927995515998085;0.017917884173328978;-0.5940610513732092;0.924;0.004569391971857351
59:25.2;-0.4158734438595794;-0.05082336308339777;-0.7214242538747863;1.2830000000000001;0.015248085818349301
59:25.2;-0.3941772916831331;-0.13535356668084023;-0.8414540418575444;1.526;0.04489435189531272
59:25.2;-0.3629987646009398;-0.232901192419222;-0.9520123092407816;1.672;0.0804858292146317
59:25.3;-0.32229581390277984;-0.3395671312999315;-1.0529968733276833;1.3619999999999999;0.11524109921331344
59:25.3;-0.2733845479771517;-0.4505593001848044;-1.1460411218876796;1.3619999999999999;0.14116470463574768
59:25.3;-0.21888739811131122;-0.5605720134541705;-1.233835767619684;1.3619999999999999;0.15139430079101004
59:25.3;-0.1624258074881165;-0.6642393104709519;-1.3192246106842338;1.2309999999999999;0.14233062395848375
59:25.3;-0.10808628297078136;-0.7566166362596233;-1.4042495084386577;1.263;0.11483935607554467
59:25.3;-0.05972329615994559;-0.8336672120870985;-1.489317000959203;1.5119999999999998;0.07415213109051617
59:25.3;-0.02022933819331385;-0.8926968523860586;-1.5726561993145682;1.736;0.028400073871369953
59:25.3;0.009048625106511568;-0.9326357943774998;-1.650202872094875;1.876;0.013926180298136071
59:25.3;0.028587887857302537;-0.9540689435045276;-1.715958793026169;1.972;0.0468024602833853
59:25.3;0.04059008472920078;-0.9589840340340698;-1.7627656975012673;2.066;0.06861608347173456
59:25.4;0.048534308668320834;-0.9503066145779516;-1.7833425888245673;2.296;0.08225217318745305
59:25.4;0.05650317620141096;-0.9313583403201999;-1.7713903943820093;2.296;0.09321889589865193
59:25.4;0.06844800831052889;-0.9053744844658924;-1.7225699165110198;2.296;0.10674951850970944
59:25.4;0.08754732136028667;-0.8751651147922542;-1.6351974924792783;2.23;0.12528615268120885
59:25.4;0.11575625048516541;-0.8429420762636296;-1.510563568482672;1.964;0.14739446998144334
59:25.4;0.15358608135367827;-0.8102879397885112;-1.3528471534693638;1.6380000000000001;0.1683604070025121
59:25.4;0.20011269933765688;-0.7782200221055238;-1.1686713030318199;1.358;0.18199917963351314
59:25.4;0.2531788790296001;-0.7472989992432998;-0.966414126880297;1.1420000000000001;0.1828458648882819
59:25.4;0.30972738200952155;-0.7177427939966389;-0.7554253658849829;1.0070000000000001;0.16793453117973092
59:25.4;0.36619371617633384;-0.6895260981221868;-0.5452792890967086;0.92;0.13768308825982914
59:25.5;0.4188993925504886;-0.6624650826433232;-0.34514134856246526;0.8440000000000001;0.09577887124866491
59:25.5;0.46440257849171535;-0.6362982236536129;-0.16328363266260773;0.8440000000000001;0.04825007436446578
59:25.5;0.49977369824853757;-0.6107753877099831;-0.006768831629587185;0.8440000000000001;0.002066182296658251
59:25.5;0.5227769782091441;-0.5857589593988101;0.11870040351040623;0.86;0.0363485917255143
59:25.5;0.5319594170268392;-0.5613270582207204;0.20881654124821705;0.883;0.06235329048933085
59:25.5;0.5266624855282426;-0.5378577253557277;0.26066203177303343;0.883;0.07383759988945925
59:25.5;0.5069706789786108;-0.51606968578523;0.27271491266888465;0.872;0.07135100230242133
59:25.5;0.4736043957445031;-0.4969997001384532;0.24487310588959535;0.831;0.057638535960577025
59:25.5;0.42776236395527123;-0.4819060902621549;0.17847581578041213;0.7240000000000001;0.03679123460875005
59:25.5;0.3709227314056255;-0.4721011722732315;0.07628707306792146;0.586;0.013358862522583953
59:25.6;0.30462317852123155;-0.46873179187764247;-0.057590065670876336;0.473;0.008223087846221376
59:25.6;0.23026071092704553;-0.47254313974753837;-0.21786937001603818;0.473;0.023705956404949345
59:25.6;0.14896901497797607;-0.48366766027658176;-0.39826509494327295;0.473;0.028695595468346387
59:25.6;0.061618989561688445;-0.5014740141137292;-0.591662712203331;0.569;0.018282568346812456
59:25.6;-0.031054637578361487;-0.5244987711229225;-0.7902972393986669;0.757;0.01287245567631003
59:25.6;-0.12823280284524732;-0.5504793960839403;-0.986006447724711;1.021;0.06960171778801089
59:25.6;-0.22873445168420944;-0.5765163862328819;-1.1706010942703373;1.278;0.1543661824017748
59:25.6;-0.33071479934899733;-0.5993965584593582;-1.3363324027632146;1.626;0.2649002535532308
59:25.6;-0.4313943034247451;-0.6160702948952289;-1.4763933776259413;2.028;0.3923799100761897
59:25.6;-0.5269252423275743;-0.6241866689354065;-1.5853722590234114;2.134;0.5214284790670022
59:25.7;-0.6125357941133017;-0.6225195325982609;-1.6595730384747605;2.094;0.6328209167309776
59:25.7;-0.6830226940906503;-0.611148114069317;-1.6971424940968682;2.094;0.7084348502483324
59:25.7;-0.7334988872556487;-0.5913734621647088;-1.6979990216395702;2.094;0.736544052027526
59:25.7;-0.7601909890536416;-0.5654460560622485;-1.6636069428150915;2.032;0.715096447916
59:25.7;-0.7611127964359472;-0.5361866600604644;-1.5966560236557525;1.88;0.651592973375842
59:25.7;-0.7365132550958627;-0.5065580103497088;-1.500715572251453;1.768;0.5598970041284262
59:25.7;-0.6890190249469624;-0.47925125122575546;-1.379947112943953;1.669;0.4556767931517776
59:25.7;-0.6234161809359223;-0.45636429468012574;-1.238941434833774;1.504;0.3524848913125714
59:25.7;-0.5460929147073409;-0.4392199373203538;-1.0826798979205476;1.3780000000000001;0.25968607406675953
59:25.7;-0.4642529272587821;-0.4283102512488108;-0.9165515742581269;1.278;0.18225104512275034
59:25.8;-0.38505129228940627;-0.42331685982018114;-0.7463343466945254;0.68;0.12165153120342215
59:25.8;-0.3147970415432156;-0.42316750015499227;-0.5780844715754481;0.68;0.07700771759597445
59:25.8;-0.2583343203130423;-0.42611855092163986;-0.4179502939003323;0.68;0.04600840562264512
59:25.8;-0.21866676617704509;-0.4298706441607148;-0.2719578933265896;0.512;0.02556361326726915
59:25.8;-0.1968353995601898;-0.4317261404898168;-0.14577801532788234;0.42;0.012388068122481328
59:25.8;-0.19202208576921198;-0.42879164686066196;-0.04444992706666461;0.435;0.003659894375916105
59:25.8;-0.2018367581281832;-0.4182213157751658;0.02793545982210369;0.525;0.0023581001740296394
59:25.8;-0.222738879916955;-0.397487014840306;0.06854534208572516;0.625;0.0060687175523925
59:25.8;-0.2505315038411751;-0.36465002693322995;0.07603999855735155;0.6659999999999999;0.00694673441236122
59:25.8;-0.2808594023803653;-0.31859977845285203;0.050669436881223086;0.6779999999999999;0.004533989547950461
59:25.9;-0.30964976946680783;-0.25922410494291426;-0.005807817586151876;0.557;0.00046618587650280836
59:25.9;-0.33345084912968465;-0.18749018718038626;-0.09036960375411408;0.557;0.005649795759872166
59:25.9;-0.349643399546892;-0.10544017332771159;-0.19905889727561463;0.557;0.0073385970036657115
59:25.9;-0.3565191268745301;-0.016113695197790517;-0.32729988352350753;0.569;0.0018802856404667322
59:25.9;-0.35323643660159;0.07660718697261852;-0.47015744199165627;0.602;0.012722671830914224
59:25.9;-0.33967610524438857;0.16824212200944666;-0.6225545433033011;0.688;0.035577640423388075
59:25.9;-0.3162318694426366;0.2540335239280037;-0.7794766396041157;0.8390000000000001;0.06261808364446583
59:25.9;-0.28358548065891137;0.32930446406826785;-0.936182191493339;1.0390000000000001;0.08742627711183608
59:25.9;-0.24252568225351537;0.389809269524118;-1.088425049982852;1.2890000000000001;0.10289835353351715
59:25.9;-0.1938653527655579;0.4320470763334926;-1.2326721981430167;1.548;0.10324733993794549
59:26.0;-0.1384836126876461;0.4535190514020426;-1.3662693663301797;1.834;0.08580848833938541
59:26.0;-0.07746769491367753;0.4529047883015039;-1.487481918676226;1.834;0.05218903193095953
59:26.0;-0.012266990450083799;0.4301213850780965;-1.5953410126012662;1.834;0.008417489685448856
59:26.0;0.05526042901990747;0.38622974058379633;-1.6892715272016785;1.551;0.03605449581264758
59:26.0;0.12299331435097767;0.3231841003784523;-1.7685605904919202;1.311;0.07029937027771165
59:26.0;0.18887301346552765;0.2434850421102542;-1.8318154287537087;1.287;0.08424107664624599
59:26.0;0.2512914327825243;0.1498583484326764;-1.8766205096423403;1.4669999999999999;0.07066999864273237
59:26.0;0.3093758352067782;0.04508108961506895;-1.899590275031173;1.835;0.026493585094179296
59:26.0;0.3630544690993044;-0.06801048028587053;-1.8968943904666904;2.273;0.04683718456025071
59:26.0;0.4128973242230907;-0.18641375604796273;-1.8651413177953244;2.5780000000000003;0.14355944429074613
59:26.1;0.4598176406069002;-0.3068950460720259;-1.8023454780064798;2.1630000000000003;0.25433934469987574
59:26.1;0.5047417892461971;-0.42605774029991017;-1.7086824722369054;2.1630000000000003;0.36745070671510055
59:26.1;0.5483229805396466;-0.5405148775796992;-1.5868630137021265;2.1630000000000003;0.4703092688968892
59:26.1;0.5907372549325206;-0.6470721810616464;-1.442099680648611;1.808;0.5512420895167313
59:26.1;0.6315822472724133;-0.742866262561615;-1.2817029612791284;1.5659999999999998;0.6013508610406814
59:26.1;0.6698845884255524;-0.825458905027568;-1.1143800115955833;1.4340000000000002;0.6162100215737367
59:26.1;0.7041994203970422;-0.8928925750845268;-0.9493742510313128;1.324;0.5969422572052595
59:26.1;0.7327712344846307;-0.9437003373154746;-0.7956185180221145;1.2819999999999998;0.5501833020146022
59:26.1;0.7537307415638086;-0.9768755074324571;-0.6610362829672463;1.29;0.4867217427068581
59:26.1;0.7653145967990082;-0.9918279597277936;-0.5520519805615889;1.3030000000000002;0.41904080551802514
59:26.2;0.7660956102788167;-0.9883603641053408;-0.4733082843021962;1.3730000000000002;0.3583788739335467
59:26.2;0.755199361966757;-0.966685579023721;-0.4275500477048048;1.3730000000000002;0.3121287789873107
59:26.2;0.7324713300675105;-0.9274852113043707;-0.41561998297115954;1.3730000000000002;0.28235406478563585
59:26.2;0.698557782455616;-0.8719896413320716;-0.43651488359934326;1.3159999999999998;0.2658965591741228
59:26.2;0.654875191839287;-0.8020486590725041;-0.4874710486662811;1.199;0.2560401561690915
59:26.2;0.6034629187462044;-0.7201607290460535;-0.564079419424308;1.08;0.24514344158240037
59:26.2;0.5467381968243578;-0.6294365799700742;-0.660460011808962;1.026;0.22728874078721026
59:26.2;0.48719342724558834;-0.5334845731223614;-0.7695341423057516;0.978;0.20000975556681158
59:26.2;0.4270847042809605;-0.43621387302979947;-0.8834208887443155;0.951;0.16458155271709515
59:26.2;0.36815810258002585;-0.34155695955496446;-0.9939658424082356;1.0270000000000001;0.12498818516644297
59:26.3;0.31145532545977217;-0.253125726699546;-1.0933884931844604;1.4569999999999999;0.08619985743678131
59:26.3;0.2572361045246621;-0.17384576943827634;-1.1749914027951067;1.4569999999999999;0.05254492054719611
59:26.3;0.20504431005515208;-0.1056490996911162;-1.233818166141163;1.4569999999999999;0.02672789047374001
59:26.3;0.1539215969261743;-0.04930627769472974;-1.267135992658083;1.5590000000000002;0.009616676457810305
59:26.3;0.10274191720447363;-0.00443543250646663;-1.2746713555390004;1.5919999999999999;0.0005808739052941159
59:26.3;0.05061473717430584;0.030313004312193994;-1.2585805476738414;1.528;0.001931020936191857
59:26.3;-0.0027103868422600616;0.05690338277169109;-1.2231534055677642;1.367;0.00018864716984041906
59:26.3;-0.056515722560699116;0.07741235280045519;-1.1742637650349244;1.198;0.005137421648973521
59:26.3;-0.10895495124042455;0.09344915246206605;-1.1186215773929107;1.1520000000000001;0.011389522840542942
59:26.3;-0.1571615037023043;0.1056559535278819;-1.0629299073486576;0.963;0.017650002697152646
59:26.4;-0.19769700063938433;0.11349482608140482;-1.013077950239027;1.001;0.02273102434678607
59:26.4;-0.2272965567545032;0.1154491857009948;-0.9734969587906672;1.001;0.025545730721624128
59:26.4;-0.2437053648943103;0.10957018166273869;-0.9467711562611282;1.001;0.0252814797471633
59:26.4;-0.24633021361394228;0.09415040251437971;-0.9335426046775275;1.162;0.021650802951915564
59:26.4;-0.2365152383239532;0.06832150156639087;-0.9326924061407094;1.1640000000000001;0.015071447685889574
59:26.4;-0.21739383653769773;0.03246143264405807;-0.9417287542046059;1.1179999999999999;0.006645700131219918
59:26.4;-0.1933741421821998;-0.011640556712312358;-0.9572768927108359;1.105;0.002154813694702884
59:26.4;-0.16938611901752168;-0.06087034533566678;-0.9755649744773229;1.083;0.010058651991750588
59:26.4;-0.15006170962934084;-0.11109859627921764;-0.9928341050740996;1.063;0.016552178036652907
59:26.4;-0.13902330865738013;-0.1576629745101666;-1.0056490176941764;1.09;0.022042648218460588
59:26.5;-0.13842220432487243;-0.19595405306880692;-1.0111238352934797;1.1740000000000002;0.02742611924091157
59:26.5;-0.1487978149321061;-0.22201089751473366;-1.0070897416642046;1.1740000000000002;0.03326894418862207
59:26.5;-0.16923208508459717;-0.23301707151037399;-0.9922181636677729;1.1740000000000002;0.03912709621144252
59:26.5;-0.19770787976757925;-0.22760734108655836;-0.9660928464074069;1.178;0.04347395088818208
59:26.5;-0.23157831999966946;-0.20594659249498926;-0.9292147336430495;1.119;0.04431682076214001
59:26.5;-0.2680679483570705;-0.1695967943795763;-0.8829276131515224;1.004;0.04014094838841674
59:26.5;-0.30472128968638534;-0.12122500057479174;-0.8292692808210997;0.8859999999999999;0.03063307332095804
59:26.5;-0.3397217832975439;-0.06422220368807235;-0.7707792676146005;0.831;0.016816616617110387
59:26.5;-0.3720434882778685;-0.0023016005297711254;-0.71031274799493;0.7959999999999999;0.0006082376023974272
59:26.5;-0.4014436199062097;0.06086825494812098;-0.6509031666453804;0.77;0.015904931225305854
59:26.6;-0.42833319975884104;0.12195789252122857;-0.5956873971642032;0.8029999999999999;0.031117884207339134
59:26.6;-0.4535720164401783;0.17817994351254104;-0.547877328280455;0.8029999999999999;0.04427804106108658
59:26.6;-0.4782253086643828;0.22739747555969766;-0.5107446791294916;0.8029999999999999;0.055542068039945575
59:26.6;-0.5033052074539361;0.26814855654110503;-0.4875810644401164;0.78;0.06580421588084694
59:26.6;-0.5295156176580915;0.29961132602585594;-0.48159928559467713;0.7509999999999999;0.07640518551438262
59:26.6;-0.557025675907077;0.32153783704002004;-0.4957561355073958;0.754;0.08879231887069423
59:26.6;-0.5853034868887258;0.33417406196850014;-0.532500499997226;0.75;0.10415350006522822
59:26.6;-0.6130417989032735;0.33816755844241186;-0.5934735777731744;0.799;0.12303351088637099
59:26.6;-0.638198954419701;0.33445608593683557;-0.6792025948793652;0.843;0.14497547081034287
59:26.6;-0.6581603965369901;0.32413241293261286;-0.7888375155361348;0.93;0.16828358865704673
59:26.7;-0.669999406987982;0.30828922924713376;-0.9199813829256513;1.3030000000000002;0.19002546729051006
59:26.7;-0.6707881646252927;0.2878616715141125;-1.068641992130017;1.3030000000000002;0.20634857301561213
59:26.7;-0.657894602111794;0.2634979112392975;-1.2292880669813406;1.3030000000000002;0.21310182343844314
59:26.7;-0.6292079414087881;0.2354875843416353;-1.394979840277616;1.409;0.20669508106911136
59:26.7;-0.5832644270678847;0.2037599633522981;-1.5575853142653493;1.537;0.18511268813132442
59:26.7;-0.519279556137846;0.1679417942597026;-1.708127616136984;1.692;0.14896365781189203
59:26.7;-0.4371175593562694;0.12745010242546922;-1.8372891977638899;1.865;0.10235662636023019
59:26.7;-0.3372357934462434;0.08159394580855059;-1.9360545818686843;2.0469999999999997;0.05327325046726257
59:26.7;-0.2206345719247733;0.0296770151295421;-1.9964380469752365;2.194;0.013072228189371692
59:26.7;-0.088826626094971;-0.028880676345968376;-2.012217813942426;2.306;0.005162089328791702
59:26.8;0.05617957818199518;-0.09437709868988695;-1.9795863963364888;2.134;0.010495896923233952
59:26.8;0.2118936247295006;-0.16661718924522612;-1.897640119848143;2.134;0.0669964124733316
59:26.8;0.3753503298999618;-0.24469006792431033;-1.7686653773400078;2.134;0.1624421832141312
59:26.8;0.5431093443718258;-0.32679200516975376;-1.5982011232745938;1.9509999999999998;0.28365479521594017
59:26.8;0.711281404490844;-0.4101559913968841;-1.3948505486809972;1.7469999999999999;0.40692857944218586
59:26.8;0.8756306508865507;-0.491128182705847;-1.1698179449703885;1.585;0.5030765694416497
59:26.8;1.0317668293228626;-0.5653923535592511;-0.9361895847252016;1.5;0.5461290739266859
59:26.8;1.1753969849968204;-0.6283046207795245;-0.7080329848856952;1.508;0.5228875682828205
59:26.8;1.3025926164488955;-0.6752812773817123;-0.4994189198224297;1.6;0.43929707531443907
59:26.8;1.410037383228801;-0.7021853152129864;-0.32346515354833416;1.693;0.3202652888802013
59:26.9;1.495230815337351;-0.7056711444769941;-0.19147120738193654;1.844;0.20202916731843934
59:26.9;1.5566240099304045;-0.6834635474980115;-0.11218509660950102;1.844;0.11935324950964236
59:26.9;1.5936582063599747;-0.6345626833541729;-0.09123413828591762;1.844;0.09226289696345703
59:26.9;1.606684099110234;-0.5593737911626747;-0.13074814240514726;1.786;0.11750819008622015
59:26.9;1.5967657464306164;-0.4597536558655188;-0.2291913297158233;1.682;0.16825368444995412
59:26.9;1.5654014314712055;-0.3389581662471201;-0.38141802614663295;1.5390000000000001;0.20238254010023526
59:26.9;1.5142114931364692;-0.20147861089499322;-0.5789810836093928;1.4280000000000002;0.17663626011433559
59:26.9;1.444653089511247;-0.052766422101083836;-0.8107178129089327;1.444;0.061800349801380786
59:26.9;1.3578262712144282;0.10113757176978805;-1.0635943126906613;1.6740000000000002;0.14606048415768266
59:26.9;1.2544291658044637;0.2540332421324739;-1.3237231589764986;1.9869999999999999;0.4218265013940489
59:27.0;1.1348965537358895;0.3999936594127173;-1.5774145997729463;2.424;0.7160696063034705
59:27.0;0.9997154306573788;0.5337280168024737;-1.812101467036932;2.424;0.9668940955082398
59:27.0;0.849862339183601;0.650807763154161;-2.0170100191746516;2.424;1.1156022066168083
59:27.0;0.6872631982077098;0.7477304061847815;-2.183538859622793;2.508;1.1220935230108622
59:27.0;0.5151454365064015;0.8218632807058759;-2.305413755497711;2.5839999999999996;0.9760640435522964
59:27.0;0.33814592713608327;0.8713585003382128;-2.378731672969265;2.62;0.700884552653893
59:27.0;0.16207828165722546;0.8951256123810855;-2.401969649344592;2.783;0.34847876824941143
59:27.0;-0.006644880620971523;0.892897151162264;-2.3759590347173485;2.8939999999999997;0.014097028208629219
59:27.0;-0.16182727559789228;0.8653577136505426;-2.303762019877017;2.853;0.32261533435057127
59:27.0;-0.29834526373927517;0.8142606534557468;-2.1903652302509795;2.717;0.5321071982835056
59:27.1;-0.41281529440661013;0.742450566832243;-2.042147741069428;1.74;0.6259079684218288
59:27.1;-0.5038994153381864;0.6537561288414917;-1.8661902958125653;1.74;0.6147740884686239
59:27.1;-0.5722125450827239;0.5527846794149736;-1.6696096628725206;1.74;0.5281147805806649
59:27.1;-0.6199228600524296;0.44467077215742934;-1.45911414913989;1.494;0.40222170716707306
59:27.1;-0.6501851649747608;0.33479746677616257;-1.2408542137287468;1.355;0.270109574789725
59:27.1;-0.6665437405368961;0.228488043615447;-1.0205037742199943;1.2930000000000001;0.1554199442056365
59:27.1;-0.6724238666686444;0.1306881163117613;-0.8034479270819433;1.161;0.07060524307421893
59:27.1;-0.6707894032102754;0.04568193094690269;-0.5949511539367118;0.932;0.018231061554703783
59:27.1;-0.6639821709617355;-0.023121926064273615;-0.4002094970645349;0.708;0.0061442349794487
59:27.1;-0.6537160384493328;-0.07332796213297987;-0.22425209645587887;0.613;0.01074967335177688
59:27.2;-0.6411888174417091;-0.10362885341325108;-0.07172843547393866;0.7559999999999999;0.004766043377345055
59:27.2;-0.6272723110251044;-0.11383845169395614;0.0533393724316515;0.7559999999999999;0.0038088423676447165
59:27.2;-0.6127261893246314;-0.10489593377721708;0.1477614145504201;0.7559999999999999;0.009496993415371349
59:27.2;-0.598371689781987;-0.07884390918303262;0.20930743267648946;0.7559999999999999;0.00987469834936328
59:27.2;-0.5851746870876847;-0.038776132808879864;0.23678076489296673;0.7440000000000001;0.005372747675286703
59:27.2;-0.5742139396132538;0.011254032076481891;0.2300880421605897;0.698;0.0014868800298847061
59:27.2;-0.5665367902038799;0.06637739153742235;0.19032371502578;0.634;0.0071571679047113534
59:27.2;-0.5629363321022487;0.12112256486753564;0.1198292314186266;0.599;0.008170471353276337
59:27.2;-0.5637201016055796;0.16971909774982522;0.022138444722236056;0.514;0.0021180750442495295
59:27.2;-0.5685595843886735;0.20649905720877115;-0.09829036268582782;0.486;0.011539978395163757
59:27.3;-0.5764896722652465;0.22637673650828577;-0.23660394520470998;1.2209999999999999;0.030877725925389597
59:27.3;-0.5860680218871489;0.22534856364263972;-0.38825970119860587;1.2209999999999999;0.051277298358535915
59:27.3;-0.5956392890952837;0.200932636730565;-0.5496685417285366;1.2209999999999999;0.06578618505012529
59:27.3;-0.6036239726170375;0.1524750997492345;-0.7185085745578299;1.255;0.06612982305757274
59:27.3;-0.6087723371335649;0.0812818206303436;-0.8935863349670045;1.244;0.04421654975255472
59:27.3;-0.6103474037530968;-0.009432701808282758;-1.0743010216381264;1.261;0.006184992762751491
59:27.3;-0.6081986032863594;-0.1147673814890582;-1.2598646607925805;1.28;0.08794026815595087
59:27.3;-0.6026802488070981;-0.22851192242210647;-1.4484590751995305;1.247;0.19948123669662512
59:27.3;-0.5943869740261312;-0.3436670902159726;-1.6365122557115044;1.094;0.33429239073739125
59:27.3;-0.5837297113900142;-0.45309041122883764;-1.8182778588038027;1.044;0.480902373739214
59:27.4;-0.5704488899712099;-0.5502224887695178;-1.9858948510730983;2.529;0.6233203791060661
59:27.4;-0.5532203189937478;-0.6297972892316994;-2.13000794206459;2.529;0.7421302470904334
59:27.4;-0.5295073858247844;-0.6883954696346426;-2.2408165017657016;2.529;0.8168011110643562
59:27.4;-0.4957504298555277;-0.7247150922657664;-2.309273112867122;2.529;0.8296706063428763
59:27.4;-0.4479070719707186;-0.7395115134256969;-2.3282219127398087;2.958;0.7711826172586331
59:27.4;-0.38227904378975885;-0.7352478549846853;-2.2933953485356877;3.1660000000000004;0.644604279613393
59:27.4;-0.296460729877115;-0.7155683868730202;-2.204180053080132;3.034;0.46759018554063525
59:27.4;-0.19016108600247966;-0.684744157577758;-2.0639886433128525;2.654;0.2687554548331085
59:27.4;-0.06566608782543537;-0.647213649439308;-1.8801006385925614;2.162;0.07990425522930703
59:27.4;0.072172295800859;-0.6072573565265561;-1.6629743793004066;1.696;0.07288344014397014
59:27.5;0.2163910146847637;-0.568767804129208;-1.425181919583544;1.085;0.17540603519288586
59:27.5;0.358674539523443;-0.535061569122196;-1.1802124255668944;1.085;0.22649806228721217
59:27.5;0.49022163309472805;-0.5087190679490481;-0.9414002603438053;1.085;0.23477119079487657
59:27.5;0.6025554059139173;-0.4914741490608075;-0.7211377331100556;1.079;0.21355802062057314
59:27.5;0.6882105652984614;-0.4841744436124216;-0.5303707531274209;1.097;0.17672694291759988
59:27.5;0.7413029784658614;-0.4868157552773268;-0.37826560216183286;1.129;0.13650772238356743
59:27.5;0.7579809791800473;-0.4986427447745647;-0.27193378880987656;1.16;0.10278056144207443
59:27.5;0.7367249494075953;-0.5182980993443659;-0.21615942609642988;1.161;0.08253899422120758
59:27.5;0.6784500842961934;-0.5439899180576573;-0.21313313183743;1.105;0.0786610461954193
59:27.5;0.5863777002109324;-0.573643132099852;-0.26224268724457667;0.998;0.08821097670446518
59:27.6;0.4656692132900323;-0.6050118290443519;-0.35999438252227745;0.7240000000000001;0.10142315504417423
59:27.6;0.32287517775148705;-0.6357499398434521;-0.5001196858329633;0.7240000000000001;0.10265850507280581
59:27.6;0.16532400941301786;-0.663457998464436;-0.6738637246422466;0.865;0.07391310408661729
59:27.6;0.0005987822123117346;-0.685739386729703;-0.8704079311762518;0.865;0.0003573969359656935
59:27.6;-0.1638039471239149;-0.7003107514300015;-1.0773898780880777;1.127;0.12359134186996297
59:27.6;-0.3206231574401167;-0.7052088317383636;-1.2815217813880446;1.4680000000000002;0.2897601256589647
59:27.6;-0.462846445571455;-0.6991026776230425;-1.4693244492429378;1.656;0.4754398756428629
59:27.6;-0.5836956788161471;-0.6816562292387307;-1.6279758058428078;1.955;0.6477386806177484
59:27.6;-0.676737660981031;-0.6538193541333501;-1.7462465003332153;2.417;0.7726515265818088
59:27.6;-0.7362747277610716;-0.6178908294950177;-1.8154561740043516;2.825;0.825918915741124
59:27.7;-0.7580763685196632;-0.5772302112556434;-1.830313678296856;2.667;0.8009170464843062
59:27.7;-0.7403172954291163;-0.5356293930303663;-1.7894581494976616;2.667;0.7095840463748468
59:27.7;-0.6843974645134837;-0.4965387894455061;-1.6955720593044517;2.667;0.5762060639064865
59:27.7;-0.5952880114697383;-0.4624231018818788;-1.5550450704177732;1.935;0.42806492100417143
59:27.7;-0.4812086106838702;-0.434424475275544;-1.3772409811210333;1.28;0.2879105719274474
59:27.7;-0.3526871980237726;-0.4123494395547398;-1.1734822130581388;0.8959999999999999;0.17065995060662695
59:27.7;-0.22125023878180397;-0.3948957511476855;-0.9559426605802263;0.8490000000000001;0.08352145515920353
59:27.7;-0.09806360194873107;-0.3800081173700061;-0.7366562354020972;0.818;0.02745146865180019
59:27.7;0.007212712344311294;-0.36526511705804016;-0.5267620598785425;0.747;0.001387782153606775
59:27.7;0.08721479503704954;-0.34823167702944846;-0.33598522025316163;0.667;0.010204191782394196
59:27.8;0.1372826540454425;-0.32674510846970495;-0.17228204309611905;0.45399999999999996;0.00772795838618103
59:27.8;0.1555305893644873;-0.2991284991569813;-0.041593037525242724;0.45399999999999996;0.0019350591620035408
59:27.8;0.14265528092496838;-0.26434195332006816;0.05229180474860386;0.45399999999999996;0.001971912223370832
59:27.8;0.10155243090196998;-0.22208528985397472;0.10772051856348851;0.365;0.0024294532846657357
59:27.8;0.0367911461596399;-0.17285521178882302;0.1250185368783356;0.247;0.0007950605562167483
59:27.8;-0.0460139102283464;-0.11795089986467418;0.10622621681725945;0.253;0.0005765302695876569
59:27.8;-0.14087431198376937;-0.059425527796840995;0.05479663806415362;0.41200000000000003;0.0004587317182294001
59:27.8;-0.24205678660524796;1.0159024840654526e-05;-0.024691210157120388;0.5489999999999999;6.071718966788916e-08
59:27.8;-0.34457066461991837;0.05712250038093402;-0.12676849842817017;0.629;0.0024951511312016387
59:27.8;-0.44443288842492396;0.10832124844285582;-0.245265206378336;0.665;0.01180744114377534
59:27.9;-0.5386744663682003;0.14985639187721214;-0.37350147322978994;0.662;0.030150462679205434
59:27.9;-0.6251180311441146;0.17804450155031015;-0.5045458224792833;0.662;0.05615535884802825
59:27.9;-0.702026477530333;0.18951751663284777;-0.6315660122866859;0.662;0.08402753038160635
59:27.9;-0.7677624949904884;0.18148461658297768;-0.7482641388083623;0.662;0.10426094168935217
59:27.9;-0.8205872264875246;0.1520043140137044;-0.8494078497978979;1.165;0.10594901813123647
59:27.9;-0.8586809182083143;0.10026894031109712;-0.9314749919074143;1.7209999999999999;0.08019908929891408
59:27.9;-0.8804068226518902;0.026894879791003915;-0.9933294804892473;2.151;0.023520488195332135
59:27.9;-0.8847576344578953;-0.06581841964477719;-1.0366952943999017;2.362;0.06037023916397629
59:27.9;-0.8718303176566615;-0.17374816896465922;-1.0661385759917243;2.2640000000000002;0.16149752149095994
59:27.9;-0.8431087700603421;-0.2910613020023092;-1.0883709767026728;1.8769999999999998;0.26708225026524623
59:28.0;-0.80135060971262;-0.4107065106264237;-1.1109050194401264;1.0659999999999998;0.3656209630199336
59:28.0;-0.7500248757978478;-0.5252859207615185;-1.140341818114487;1.0659999999999998;0.44926902717312456
59:28.0;-0.6924806785645474;-0.6281027658415503;-1.1807473789162648;1.0659999999999998;0.5135649265422033
59:28.0;-0.6311568583599891;-0.7140768727489348;-1.2325680977814337;1.2919999999999998;0.5555116818127427
59:28.0;-0.5670745390785151;-0.7803094237411223;-1.2923539501450731;1.459;0.5718583606704745
59:28.0;-0.4997181732812697;-0.8262288321382908;-1.3533228883865878;1.682;0.5587620690061859
59:28.0;-0.42732147883448834;-0.8533430207295742;-1.4066051056160669;1.98;0.5129210858622187
59:28.0;-0.3474969752145199;-0.8646914393348138;-1.4428724769266075;2.287;0.43355094505868397
59:28.0;-0.2580570489500888;-0.8641491858689758;-1.4539994818397335;2.47;0.3242415773044579
59:28.0;-0.15781551404406624;-0.8557468225846374;-1.4344187466907623;2.457;0.19371843060940772
59:28.1;-0.04716673129922282;-0.8431289128091761;-1.3819190254655915;1.5290000000000001;0.054955651239928384
59:28.1;0.07167371386299723;-0.8292089183556027;-1.2977989594065804;1.5290000000000001;0.07713141426383081
59:28.1;0.19474986223073878;-0.8160138596444737;-1.1864972948035835;1.5290000000000001;0.18855647326592442
59:28.1;0.31667370743380574;-0.8046751908564281;-1.0549271811249614;1.294;0.2688159914792005
59:28.1;0.4310921320096981;-0.7955210617188525;-0.9116863427460621;1.1840000000000002;0.312656331427123
59:28.1;0.5312810041491898;-0.7882378396338023;-0.7662269821449769;1.1740000000000002;0.32087731049425444
59:28.1;0.6108142186744407;-0.7820746554518052;-0.6280550204426232;1.218;0.30002334011121
59:28.1;0.6642213000786854;-0.7760649338614131;-0.5060362760169643;1.27;0.2608510023331881
59:28.1;0.6875454880547334;-0.7692405893592885;-0.4078593644064499;1.305;0.2157118812853198
59:28.1;0.67873098653544;-0.7608189769563177;-0.339660309705063;1.328;0.17539766788151367
59:28.2;0.6377892036602694;-0.7503484396740605;-0.30578230452203325;0.993;0.14633644369723112
59:28.2;0.5667375586416894;-0.7378050872573833;-0.30863167867527086;0.993;0.1290518222952962
59:28.2;0.4693710913027935;-0.7236402456657222;-0.348594099593873;0.993;0.11840201189278018
59:28.2;0.3509560328144372;-0.7087804134270298;-0.4239909447980676;0.993;0.10546807061358002
59:28.2;0.21788447484616963;-0.6945773867143391;-0.5310812982508227;0.903;0.08037258456014505
59:28.2;0.07726205606119849;-0.6827021174189349;-0.6641392654307614;0.889;0.035031333424092745
59:28.2;-0.0636036280563221;-0.6749791561559665;-0.815643890744813;1.0190000000000001;0.035016508355929093
59:28.2;-0.19779426404430264;-0.6731658039985068;-0.9766049498243483;1.186;0.13003332280865418
59:28.2;-0.3193815402217483;-0.678684259373155;-1.1370254314945833;1.34;0.24646075029323902
59:28.2;-0.42394789449425685;-0.6923212498892077;-1.2864879747997577;1.493;0.3775946877325436
59:28.3;-0.5089419790032991;-0.7139302359639119;-1.4148459968099585;1.962;0.5140829731184567
59:28.3;-0.5737984472231918;-0.7422027789499993;-1.5129757856985322;1.962;0.6443382632956473
59:28.3;-0.6197774073634432;-0.7745957407104896;-1.5735017173530552;1.962;0.7554018894450942
59:28.3;-0.6495188149813332;-0.8074913567466171;-1.5913954205345036;1.9469999999999998;0.8346563896542912
59:28.3;-0.6663631886395591;-0.8366229284103072;-1.564397671218144;2.049;0.8721434452269239
59:28.3;-0.6735655270379732;-0.857718658390299;-1.4932610485130136;2.188;0.862701287726504
59:28.3;-0.6736059352720843;-0.8672160624498606;-1.381810347481279;2.237;0.8072009398252085
59:28.3;-0.6678207003835621;-0.8628330987945012;-1.236786287124682;2.1630000000000003;0.7126582788184876
59:28.3;-0.6564858938324815;-0.8438097831073378;-1.067412745926605;1.8969999999999998;0.5912924576908686
59:28.3;-0.6392936189918088;-0.8107624353328567;-0.8846317756872731;1.693;0.4585181412352682
59:28.4;-0.6159742214808557;-0.7652536946211665;-0.7000159448164209;0.8590000000000001;0.3299711001582705
59:28.4;-0.586781527549395;-0.7092758834028235;-0.5245068331822691;0.8590000000000001;0.21829449172533064
59:28.4;-0.5527039203360623;-0.6448266396497466;-0.36726147073579524;0.8590000000000001;0.13089133138609862
59:28.4;-0.515434046609539;-0.5736656784090952;-0.23487930200181792;0.8590000000000001;0.06945071436799345
59:28.4;-0.4771744399977798;-0.4972532254689028;-0.13112022321518474;0.669;0.03111175149868033
59:28.4;-0.44032555070274626;-0.41681981165315446;-0.05705676154821498;0.552;0.010471993358231388
59:28.4;-0.40711242385308394;-0.33349883013103304;-0.011531782484102096;0.449;0.0015656876025816758
59:28.4;-0.3792494194070955;-0.24845718412396803;0.008214962535721404;0.384;0.0007740732696643224
59:28.4;-0.35774549731561733;-0.16298205275009095;0.005881308118085273;0.35;0.000342916112883881
59:28.4;-0.34290199421009365;-0.0785125273797332;-0.014490238012533317;0.366;0.00039010766880594297
59:28.5;-0.3344902336581574;0.0033729178900804993;-0.04895688934580984;0.54;5.523355877601859e-05
59:28.5;-0.33204433028945907;0.08099093363805909;-0.09394057261820245;0.54;0.002526304394382371
59:28.5;-0.3351725997980041;0.1525830650966502;-0.14632153236083906;0.54;0.0074831264411018665
59:28.5;-0.3437918466906704;0.2163250176855666;-0.20339335582534113;0.593;0.01512652197354132
59:28.5;-0.3582212655235307;0.2703253044394593;-0.26272778244308564;0.599;0.025441579175841566
59:28.5;-0.3791096451772096;0.312636738815001;-0.3220125356201736;0.5429999999999999;0.03816608597199816
59:28.5;-0.40719953986273716;0.34129417283522107;-0.378940352398572;0.435;0.05266317110639466
59:28.5;-0.4429720371102608;0.35437958571489536;-0.4312335114345495;0.371;0.06769514313726553
59:28.5;-0.4862705228361243;0.3501161550515981;-0.47687364715002145;0.479;0.08118829435243262
59:28.5;-0.5360496303810767;0.3269976746889165;-0.5145624367026281;0.732;0.09019609691590381
59:28.6;-0.590398316380414;0.28395825615049286;-0.544358829585672;1.604;0.09126092836965019
59:28.6;-0.6468937712583492;0.22057997535314888;-0.568328378040712;1.604;0.08109580614200432
59:28.6;-0.7031699827477933;0.1373247896093604;-0.5909481037243989;1.604;0.05706352669187884
59:28.6;-0.7574749840444275;0.03575896592229722;-0.6190137186137108;1.604;0.016766928795083725
59:28.6;-0.8090451545900588;-0.08128424255112682;-0.660906078421831;1.493;0.04346291699642129
59:28.6;-0.8582361129147674;-0.20967067231240774;-0.7252237680164272;1.367;0.13050179989873137
59:28.6;-0.9063823455151514;-0.34411638453933463;-0.8189430776131165;1.226;0.2554291777481071
59:28.6;-0.9553461039190667;-0.4785488355237368;-0.9454290021208749;1.138;0.43223100953625787
59:28.6;-1.0067662551454508;-0.6066599351081698;-1.1027620980917352;1.25;0.6735282182704773
59:28.6;-1.061155173169301;-0.7225754819235334;-1.2829186997283373;1.385;0.9836967855826947
59:28.7;-1.1171351903076654;-0.8215036802387768;-1.4722661837973858;3.0039999999999996;1.3511438315132156
59:28.7;-1.1711109077441364;-0.9002052526267105;-1.6534613575181416;3.0039999999999996;1.743145416633037
59:28.7;-1.2174862883837128;-0.9571821776673386;-1.8082324788663162;3.0039999999999996;2.1072348883286436
59:28.7;-1.2493289367813034;-0.9925730737514462;-1.920178035395589;3.0039999999999996;2.381117277621785
59:28.7;-1.259340796152509;-1.0078082196864049;-1.9769460603036628;3.332;2.5090885505051452
59:28.7;-1.24102630372669;-1.0051174153467717;-1.9715959337440785;3.471;2.4593237183214036
59:28.7;-1.18988739560065;-0.9870308773043596;-1.9031468363954216;3.2560000000000002;2.235161459575709
59:28.7;-1.1043743931875367;-0.9560306239987367;-1.7763339077423594;2.82;1.8754812997293906
59:28.7;-0.9863417898950073;-0.9144356559349814;-1.6006408047695084;2.313;1.4436917339537163
59:28.7;-0.8409053510272072;-0.8644746330039671;-1.3887881035736822;1.824;1.0095674915434316
59:28.8;-0.6757606171878138;-0.808420692109144;-1.1549574367903976;0.8390000000000001;0.6309519378202387
59:28.8;-0.5001486370138992;-0.7486831024453495;-0.9130809373429556;0.8390000000000001;0.34190574396859
59:28.8;-0.32373242001182223;-0.6878231707296791;-0.6755081419354931;0.8390000000000001;0.15041584353030052
59:28.8;-0.15562096524169286;-0.6285090995386408;-0.4522477718904708;0.691;0.04423398948408148
59:28.8;-0.0036451338922401815;-0.5734225414251514;-0.250797724222659;0.599;0.0005242178897988744
59:28.8;0.126125038970704;-0.5251222622217779;-0.07643099463137312;0.578;0.005062106233604418
59:28.8;0.22965315110635534;-0.4858878034763213;0.06724783626774462;0.579;0.0075038945400015345
59:28.8;0.30501540295650953;-0.45758481061126555;0.17766206962685588;0.584;0.024796368857822
59:28.8;0.35230346649557603;-0.4415884235820267;0.252705797503233;0.61;0.039314232491263326
59:28.8;0.37337834706044637;-0.43877642182589444;0.2903927420397271;0.6779999999999999;0.04757493115923657
59:28.9;0.37150470546052583;-0.44957396181661996;0.28876654867792745;0.6990000000000001;0.048229454645741715
59:28.9;0.35089684014955874;-0.47400661947653894;0.24606082593743375;0.6990000000000001;0.0409266635676814
59:28.9;0.3162141859007766;-0.5117086175505683;0.16105015883402637;0.6990000000000001;0.02605944952771758
59:28.9;0.27204434757468143;-0.5618483565074784;0.03351460621570484;0.593;0.0051226294570283605
59:28.9;0.22240198253666338;-0.6229697056807296;-0.13525873046234518;0.528;0.01874005620381504
59:28.9;0.17027599639687963;-0.6927876224036648;-0.34200998759997375;0.502;0.04034524331036015
59:28.9;0.11728659361353803;-0.7680076790336223;-0.5811531841416048;0.568;0.052348538008040076
59:28.9;0.06354068508135026;-0.8442587368609104;-0.844615879519366;0.7759999999999999;0.04530923179640779
59:28.9;0.007769777757355147;-0.9162332388805489;-1.1219406896180615;1.1059999999999999;0.007987015707707356
59:28.9;-0.052205712907497835;-0.9781099953715997;-1.4006813843918133;1.495;0.07152289493769001
59:29.0;-0.11871461761921626;-1.0242719552665183;-1.667074440558684;2.546;0.20270967287524552
59:29.0;-0.19331167890054987;-1.0502113566173945;-1.9069120654619853;2.546;0.3871377035806499
59:29.0;-0.27593923387190133;-1.0533795307380247;-2.106511195525832;2.546;0.6122969564490746
59:29.0;-0.3644538558103863;-1.0336991345247117;-2.2537043809209885;2.872;0.8490507517818843
59:29.0;-0.4547087762512988;-0.9935589085549152;-2.338838675679063;3.031;1.0566404326856735
59:29.0;-0.5412122036841388;-0.9372778896664646;-2.355748739294961;3.1830000000000003;1.1949917868290523
59:29.0;-0.6181961734419411;-0.8701814502014454;-2.30256355177413;3.259;1.2386475825726149
59:29.0;-0.6807929496663673;-0.7975410708006394;-2.1821374361598442;3.1639999999999997;1.1848140800535132
59:29.0;-0.7259857999618273;-0.7236497179806002;-2.0019344634467378;2.8560000000000003;1.0517351273938227
59:29.0;-0.7530865926320178;-0.6512298049319999;-1.7732954659819233;2.355;0.8696816130308467
59:29.1;-0.7636465579591563;-0.5812564398515879;-1.5101413678291273;0.8909999999999999;0.6703132137438141
59:29.1;-0.7608816117948614;-0.513168170054838;-1.22733710587623;0.8909999999999999;0.47922632171737195
59:29.1;-0.74883757614952;-0.4453480785649246;-0.9391102429868597;0.8909999999999999;0.31318704508381906
59:29.1;-0.7315552378583257;-0.37571859348591263;-0.6579117442654994;0.8909999999999999;0.18083290163215457
59:29.1;-0.7124068465630804;-0.30231505063670866;-0.3938686465599124;0.728;0.08482800712299302
59:29.1;-0.6936630957893769;-0.22375171605899086;-0.15472241941237613;0.601;0.02401420493434558
59:29.1;-0.6762955535405553;-0.13953792940874846;0.05393964470994616;0.552;0.005090223924109744
59:29.1;-0.6600064933457822;-0.05023926058296801;0.2283155916344807;0.594;0.007570542773479951
59:29.1;-0.6434612684557297;0.042492619905410346;0.3659926397184685;0.706;0.010007100720758064
59:29.1;-0.6246677713149519;0.13598689797223243;0.46561422382433243;0.8270000000000001;0.0395523603506906
59:29.2;-0.6014193893983476;0.22668927921033538;0.5266828228939793;0.932;0.07180547535108595
59:29.2;-0.5717167604435482;0.31034560353095375;0.549524584669852;0.932;0.09750202784884242
59:29.2;-0.534117421755994;0.38221278207598236;0.5353718216412374;0.932;0.10929428665147738
59:29.2;-0.48800030347768236;0.43728643666496597;0.48647628543848326;0.932;0.10381205147277475
59:29.2;-0.433740297825797;0.47056314458262005;0.4061769934002591;0.9079999999999999;0.08290161732381515
59:29.2;-0.3727812527978463;0.47737276753902885;0.29887198237715956;0.7929999999999999;0.05318594842686718
59:29.2;-0.3076082960884498;0.4537965491417759;0.16984997140038458;0.662;0.023709626423140985
59:29.2;-0.24165015156928624;0.3971443897049422;0.02494860712542662;0.624;0.0023943178749033724
59:29.2;-0.17915812440951637;0.3064279073732398;-0.1299542160187115;0.684;0.007134362892684826
59:29.2;-0.1250949860249828;0.18274289746464983;-0.28955372019380926;0.85;0.006619261804664174
59:29.3;-0.08503150784814595;0.02947201935270523;-0.4497209564597732;1.245;0.0011270233130682985
59:29.3;-0.0650005456233423;-0.1477404505179224;-0.6079309139733033;1.245;0.005838088168121312
59:29.3;-0.0712137446252682;-0.3412164430549591;-0.7633299414812011;1.245;0.018548383733777762
59:29.3;-0.10953560418135672;-0.5416260365490009;-0.9163092649548912;1.245;0.05436218686646368
59:29.3;-0.18465072784086917;-0.7385424975220989;-1.0675797288157716;0.946;0.14558842017494752
59:29.3;-0.2989412476434197;-0.9212457910093893;-1.2168939615812961;1.171;0.33513060879801504
59:29.3;-0.45121045335950716;-1.079780864917262;-1.3617155667425018;1.7519999999999998;0.6634392810310235
59:29.3;-0.6355443963844262;-1.206115320042728;-1.496276764368234;2.283;1.1469557411502798
59:29.3;-0.8407403124368936;-1.295111538734532;-1.6114970805063542;2.603;1.754682592164916
59:29.3;-1.0507453886887836;-1.3450088536783356;-1.696030564538016;2.951;2.396935294564338
59:29.4;-1.2463412957779834;-1.3572251299923168;-1.7382853540565866;4.081;2.9404239289759735
59:29.4;-1.4078569047763192;-1.3355356786479768;-1.7288424277068843;4.081;3.250644091946391
59:29.4;-1.5182039556425169;-1.2849631085160786;-1.6625511110826698;4.081;3.2433646827077065
59:29.4;-1.5653960063444006;-1.210803791989519;-1.539746797866624;3.637;2.9184167113500243
59:29.4;-1.5440256871623477;-1.1180601217572517;-1.366358574692475;3.034;2.3587633186239025
59:29.4;-1.4555978475842455;-1.0113022819699677;-1.152989624099999;2.3409999999999997;1.6972577130634474
59:29.4;-1.3078737241506802;-0.8948059997836887;-0.9132910278506144;1.7619999999999998;1.0688183300464893
59:29.4;-1.113499291055462;-0.7727560097357106;-0.6620676196884896;1.288;0.5696848683359161
59:29.4;-0.8882344157094733;-0.6493623586224139;-0.4135327091067186;0.925;0.2385198751676812
59:29.4;-0.649078409546554;-0.528838631995409;-0.1800013870180119;0.675;0.06178686897388954
59:29.5;-0.41252948008527196;-0.4152626817130356;0.02885203365581195;0.43799999999999994;0.004942587014372561
59:29.5;-0.19315454618014305;-0.3123779228831015;0.20618832387708524;0.43799999999999994;0.012440829420260015
59:29.5;-0.002586247623595623;-0.2234130243194122;0.34775744800215896;0.43799999999999994;0.00020093474143807613
59:29.5;0.15101622584505375;-0.15098163286230487;0.4513651844283649;0.46;0.010291431493387097
59:29.5;0.2630983713947994;-0.09707160571787056;0.5162131854086459;0.499;0.013183765411948297
59:29.5;0.3325388809229784;-0.0630919187671834;0.5422582501351888;0.518;0.011376857926779838
59:29.5;0.36126701046091336;-0.049940995438312936;0.5297082282171734;0.517;0.009557013927902525
59:29.5;0.35372761286882737;-0.05806971735118702;0.4787337560660274;0.49700000000000005;0.009833604256791976
59:29.5;0.31623485273362734;-0.08751539268878757;0.38943056251765495;0.451;0.010777653334396176
59:29.5;0.25624894192039205;-0.13788384560498007;0.2620244274143443;0.381;0.009258001544382654
59:29.6;0.18160978718202211;-0.20826461090753176;0.0972765439318188;0.28600000000000003;0.003679280182626605
59:29.6;0.09977762979430187;-0.29708004835743523;-0.10297704492924102;0.28600000000000003;0.003052439704780058
59:29.6;0.017157053271467045;-0.401889073573529;-0.33523806577329884;0.28600000000000003;0.002311544320711095
59:29.6;-0.06142097020081079;-0.5191887015483065;-0.5938263834196178;0.44;0.018936573345300457
59:29.6;-0.13302052410577053;-0.6442782000032301;-0.8705791479917899;0.69;0.07461056900671194
59:29.6;-0.19670734981562907;-0.7712594012903755;-1.154919471499591;1.196;0.17521559656820285
59:29.6;-0.25340738191349627;-0.8932355375538301;-1.4343688559946668;1.7469999999999999;0.32467294635996574
59:29.6;-0.305478837289141;-1.0027463601482864;-1.695440080036709;2.254;0.5193434621140918
59:29.6;-0.3560011142097118;-1.0924416109087074;-1.9247193947900185;2.687;0.7485434487900947
59:29.6;-0.40787492688443905;-1.1559329433435155;-2.1099009874902186;2.861;0.9947678145930794
59:29.7;-0.4629378023783738;-1.1886737566742893;-2.240599906249246;2.8;1.2329618349382383
59:29.7;-0.5213425654091093;-1.1886494921699113;-2.3089069631716357;2.8;1.4308148117819695
59:29.7;-0.5813653360599639;-1.1566819383192795;-2.309773069095601;2.8;1.5532179497722032
59:29.7;-0.6396772345381679;-1.0962456812361523;-2.24134327151138;2.812;1.571727189164
59:29.7;-0.6920208849061418;-1.012805393690612;-2.105295326473641;2.9139999999999997;1.4755646196134944
59:29.7;-0.7341449486887291;-0.912802556924661;-1.9071220342277997;2.86;1.278018518427552
59:29.7;-0.7627401098710731;-0.8025435059208909;-1.6562023546135436;2.494;1.013814661596243
59:29.7;-0.7760854133942122;-0.687290217618356;-1.365501298658187;1.972;0.7283528114391208
59:29.7;-0.7742316679148176;-0.5707684041253684;-1.0508268867990953;1.466;0.46436772923784686
59:29.7;-0.758750070723493;-0.45513162054266065;-0.7296846901254519;1.107;0.25198285264957093
59:29.8;-0.7322242752510946;-0.3412679496769816;-0.4198506914173304;0.7090000000000001;0.10491425446286361
59:29.8;-0.6976930447389024;-0.2292826174028228;-0.1378472449745725;0.7090000000000001;0.02205127041545555
59:29.8;-0.6581878505001986;-0.11902283872303804;0.10244100849228098;0.7090000000000001;0.008025165745387378
59:29.8;-0.6164250187071789;-0.01055975986992853;0.2908103259704377;0.868;0.0018929717058370355
59:29.8;-0.5746521702425427;0.09543700048034694;0.4213717788945653;1.013;0.023109325946836387
59:29.8;-0.5346207624722558;0.19748220179690842;0.49279998108345685;1.079;0.05202887843835371
59:29.8;-0.49764417360402874;0.2932305824694777;0.5082072355459588;1.053;0.07415988211287125
59:29.8;-0.4646902655736002;0.3795818938194195;0.47462847889807197;0.9470000000000001;0.08371877337856051
59:29.8;-0.43645170732975896;0.45289351109333653;0.4021334351226971;0.84;0.07948816636087815
59:29.8;-0.4133475329575583;0.50926020261323;0.3026374133158277;0.732;0.06370561383806152
59:29.9;-0.3954414935431408;0.5448282055963873;0.1885251379344391;0.7190000000000001;0.04061730346625855
59:29.9;-0.3823144722576063;0.5561157340620352;0.07124174540746803;0.7190000000000001;0.015146785385529432
59:29.9;-0.37297860633785096;0.540316197197518;-0.039959966843238055;0.7190000000000001;0.008052987551249127
59:29.9;-0.3659315417792987;0.49556755037849426;-0.1389475804130366;0.812;0.025197281922467923
59:29.9;-0.3594086004562562;0.4211792371239757;-0.22322860895432753;0.9079999999999999;0.0337913289358644
59:29.9;-0.35182947219526145;0.31781258871995766;-0.29404361181276295;1.003;0.032878732083102664
59:29.9;-0.3423782066800254;0.1876088895709748;-0.3560197764010565;1.033;0.02286828778142948
59:29.9;-0.3315979123341755;0.03425136512857472;-0.4163757717941627;1.068;0.004729063263463318
59:29.9;-0.32182922602462566;-0.13706353337412283;-0.4837215184589529;1.093;0.021337464503784036
59:29.9;-0.31729728344117947;-0.3197790237191036;-0.5665761271784986;1.035;0.05748765554170214
59:30.0;-0.32368835500902315;-0.5062862653994088;-0.6717877015738855;0.7440000000000001;0.11009187552498827
59:30.0;-0.3471878507648386;-0.6883856758419035;-0.8030612858668629;0.7440000000000001;0.19193095933383583
59:30.0;-0.39314166779551446;-0.8578423613065865;-0.9597979979017885;0.7440000000000001;0.3236953076344167
59:30.0;-0.4646219226270402;-1.006962422423878;-1.1364361800628355;1.081;0.5316894136093668
59:30.0;-0.56117009929796;-1.1291627608733925;-1.322474388228416;1.474;0.8379890417952238
59:30.0;-0.6779661917951826;-1.2195228909214308;-1.5033338844724844;2.059;1.242949375227386
59:30.0;-0.8056889215400383;-1.2752453858293669;-1.6621188555617452;2.8;1.7077458125833507
59:30.0;-0.9312780311030967;-1.2958928141161408;-1.782092384564099;3.5789999999999997;2.1506941511239743
59:30.0;-1.0395973861254855;-1.2832986903498838;-1.8493751789868083;4.141;2.46727725115733
59:30.0;-1.115698633966413;-1.2411595786551;-1.855185546552665;4.256;2.5689868235987583
59:30.1;-1.1471632273960244;-1.174431806925582;-1.7970293560463193;2.667;2.4210747230079788
59:30.1;-1.125993260310103;-1.0887076757255965;-1.6786315694800553;2.667;2.057796680737044
59:30.1;-1.049723660303963;-0.9897097268731674;-1.5088824704637809;2.667;1.5676107671642083
59:30.1;-0.9216700526095846;-0.8829532847038186;-1.3003063752379829;1.944;1.0581784060694364
59:30.1;-0.7503698646593185;-0.7735493800687087;-1.0674339074649675;1.3259999999999998;0.6195900300351777
59:30.1;-0.5483633610942356;-0.6660904921439363;-0.8252506136044019;0.8320000000000001;0.30143072640877155
59:30.1;-0.3305602092362787;-0.564572846857011;-0.5878333071489136;0.5529999999999999;0.10970457810466426
59:30.1;-0.1124922912395745;-0.47233326032803474;-0.3672962034866366;0.556;0.019515861632476688
59:30.1;0.09128307950957709;-0.391998975402524;-0.1731399108614176;0.617;0.006195443552280932
59:30.1;0.2684571038753608;-0.3254626852255744;-0.012028171926771074;0.684;0.001050934698017143
59:30.2;0.4098435177065327;-0.2738996585356353;0.11206063929691094;0.7959999999999999;0.012579479074807566
59:30.2;0.5098474513231663;-0.237836606783653;0.19742251060617017;0.7959999999999999;0.023939530196552934
59:30.2;0.5665639970292918;-0.21726648238344418;0.2440957569309927;0.7959999999999999;0.0300470567043693
59:30.2;0.5815591536170092;-0.21178962710586505;0.2533291892278438;0.7709999999999999;0.03120209930342069
59:30.2;0.559393644145318;-0.22075650687595286;0.2271325857484471;0.722;0.02804855460079466
59:30.2;0.5069501841845899;-0.24338863824215626;0.1679475682112376;0.6579999999999999;0.02072236437329924
59:30.2;0.4326198716217572;-0.2788548597862386;0.07843956894329143;0.561;0.009462804769779367
59:30.2;0.34540249270172635;-0.3262783600906085;-0.038608636856031026;0.447;0.004351091404015016
59:30.2;0.2539837096917136;-0.3846561602701639;-0.18032308497702426;0.418;0.017616915976091614
59:30.2;0.16586445913153308;-0.4526969202000137;-0.3437022731862198;0.446;0.0258073422441676
59:30.3;0.08662708954851425;-0.5286172765245477;-0.5255374376468372;0.937;0.02406571313332033
59:30.3;0.019429411743927205;-0.609960359110736;-0.7223016054678054;0.937;0.008560119814430162
59:30.3;-0.03518120522953556;-0.6935027385960162;-0.93000025504905;0.937;0.022690390044379588
59:30.3;-0.07906692948602449;-0.775308275433241;-1.1439840793424407;1.213;0.07012764803056583
59:30.3;-0.11590723769826788;-0.8509716811227234;-1.3587706731478841;1.556;0.13402068345851373
59:30.3;-0.15029166356274065;-0.9160512659507744;-1.5679444371952511;1.7890000000000001;0.21586654447035575
59:30.3;-0.18665209410631473;-0.9666195708896177;-1.7641775370013566;1.9240000000000002;0.31829567588727
59:30.3;-0.22824812850527382;-0.999803127984567;-1.9394009577921396;2.161;0.4425774907577432
59:30.3;-0.2764346566827893;-1.014170298950723;-2.0851778363091142;2.424;0.5845833981139967
59:30.3;-0.3303948858235551;-1.0098550314718036;-2.1933265404302253;2.622;0.7318054571632632
59:30.4;-0.3874105792287295;-0.9883682666346265;-2.256761352525194;2.918;0.8641236771124665
59:30.4;-0.44357695169472344;-0.9521478085015903;-2.270406896888913;2.918;0.9589082202152269
59:30.4;-0.49471858357926274;-0.9039929787267418;-2.231979405393016;2.918;0.9981905748709649
59:30.4;-0.537231648286142;-0.8465500509910431;-2.1424517562013947;2.784;0.9743730883294669
59:30.4;-0.5686790295213496;-0.7819499886392874;-2.006102141228144;2.469;0.892070612725599
59:30.4;-0.5880822428986109;-0.7116266446693146;-1.8301395256248245;2.1;0.7659042285209109
59:30.4;-0.5959141930610767;-0.6363054590498648;-1.6239816752222134;1.757;0.6157869811196365
59:30.4;-0.5938352881088935;-0.5561275174388158;-1.3983231404610186;1.4409999999999998;0.46179362260957924
59:30.4;-0.5842597100707044;-0.47085186598070344;-1.164149580594708;1.172;0.32025728734351855
59:30.4;-0.569867393448039;-0.38007700401288497;-0.9318263041015798;0.932;0.2018275127573769
59:30.5;-0.553172736885364;-0.2834429207879333;-0.7103434021187944;0.501;0.11137679934534195
59:30.5;-0.5362244273543667;-0.18080935881256407;-0.5067788107168664;0.501;0.04913443293591345
59:30.5;-0.5204574355500543;-0.07243880240141307;-0.3260440796198188;0.501;0.012292290005841389
59:30.5;-0.5066772933122592;0.04078908411060156;-0.17094975247243294;0.501;0.003533001906722766
59:30.5;-0.49514541184068994;0.15715107057636063;-0.04254535814359303;0.501;0.003310566277889569
59:30.5;-0.4857381398059098;0.27390608515450976;0.05938340644444073;0.545;0.007900762241012773
59:30.5;-0.47815038070533616;0.3872369006559804;0.13578660376873739;0.617;0.02514190421356416
59:30.5;-0.47210584223025376;0.4923388806008908;0.18788372511863624;0.7140000000000001;0.0436709531595706
59:30.5;-0.46753111787503565;0.5836543982960678;0.21681262479357213;0.799;0.05916309043550841
59:30.5;-0.4646556852780781;0.6552313704936854;0.22341179647696743;0.87;0.06801928118071209
59:30.6;-0.4640151335515647;0.7011733867291349;0.20812412391954063;0.888;0.06771423738429483
59:30.6;-0.4663609863770432;0.71614217200382;0.17099879804226992;0.888;0.05711031019167697
59:30.6;-0.47251050267481604;0.6958685587481538;0.11178089666507648;0.888;0.036754140362439576
59:30.6;-0.48318438657749474;0.6376302476179562;0.030090789988123624;0.888;0.009270761159756634
59:30.6;-0.4988696059263561;0.5406622556763808;-0.07431772762960101;0.883;0.02004497500130069
59:30.6;-0.5197229717273004;0.4064653968609486;-0.20125553170093308;0.89;0.04251511111565386
59:30.6;-0.5455141579741153;0.23896451580186454;-0.3497885018444481;0.897;0.0455979137302299
59:30.6;-0.5755956384772815;0.044456281394524684;-0.517930631265876;0.9079999999999999;0.013253244921373893
59:30.6;-0.6088803476288108;-0.16870608895273903;-0.7023273849962597;0.809;0.07214434868956614
59:30.6;-0.6438089311022588;-0.39071213235780367;-0.897937199782574;0.682;0.22587067933576258
59:30.7;-0.6783038498061504;-0.6111429423039272;-1.0977955866958076;1.63;0.455080852764256
59:30.7;-0.7097391443778999;-0.819945856968566;-1.2930108528296056;1.63;0.7524646543315809
59:30.7;-0.7349857906729994;-1.008319486726215;-1.4731137497591125;1.63;1.0917253294360312
59:30.7;-0.7505966153024921;-1.1693018480086579;-1.6268068344273778;2.1959999999999997;1.427806076862319
59:30.7;-0.7531567537431685;-1.2979961844998538;-1.7430955183133179;2.725;1.704040753243405
59:30.7;-0.7397517635230643;-1.391522586383956;-1.8126786165890503;3.0610000000000004;1.8659374477325814
59:30.7;-0.7084319448214333;-1.4488389884579407;-1.8293243824633612;3.197;1.8776255384352332
59:30.7;-0.6585325360892617;-1.470543852108124;-1.7908886976031846;3.03;1.7342983561460878
59:30.7;-0.5907633281347431;-1.458705558622688;-1.6997186126800645;2.673;1.46473209053423
59:30.7;-0.5070661448497694;-1.4166980851660738;-1.5623643624861008;2.335;1.1223394954554675
59:30.8;-0.410304674653349;-1.3489920590682765;-1.3887093232567012;1.496;0.7686474829185946
59:30.8;-0.30388708950491067;-1.2608738451859827;-1.1907658698688734;1.496;0.45625776003859986
59:30.8;-0.19143009807570888;-1.1581211724068212;-0.9814315213405457;1.496;0.21758263183205515
59:30.8;-0.07653902088468048;-1.0466896622617954;-0.7734201124340232;1.22;0.06196069758406603
59:30.8;0.03728889448697832;-0.9324352495077617;-0.5784264620430428;0.9690000000000001;0.020111587092254794
59:30.8;0.14668010481180765;-0.8208662964479225;-0.406481486468072;0.772;0.048942303546116304
59:30.8;0.24836816618458657;-0.7169257560822097;-0.26546427286002433;0.665;0.04726897600035605
59:30.8;0.33918451404786665;-0.6248203308205019;-0.16078647351481193;0.617;0.03407537768885071
59:30.8;0.4160917708778148;-0.5479121889289177;-0.09528153981827966;0.604;0.021722452474116673
59:30.8;0.4762871341634447;-0.48867689211012466;-0.06931444530706714;0.63;0.016132972944400102
59:30.9;0.517383148913289;-0.4487216322035105;-0.0810959842998468;0.821;0.018827325707549834
59:30.9;0.5376409332818173;-0.42885089414887984;-0.12714465694566418;0.888;0.029315463194044822
59:30.9;0.5362003162380026;-0.4291569055901678;-0.20279676188412707;0.888;0.046666387954397225
59:30.9;0.5132450432764367;-0.4491023779125955;-0.30265534485297285;0.888;0.06976192666137523
59:30.9;0.4700623086197622;-0.4875648925398163;-0.42091554680377036;0.8959999999999999;0.09646789957444706
59:30.9;0.40898113277879805;-0.5428289193755951;-0.5515752484816134;0.893;0.12245344834633473
59:30.9;0.3331913205234311;-0.6125311905502557;-0.6885824883158955;0.8859999999999999;0.14053285253876638
59:30.9;0.24646279418025846;-0.6935810346807957;-0.8259742636887912;0.976;0.14119362633858884
59:30.9;0.15280626071013986;-0.7820949718592773;-0.958044214375242;1.143;0.1144949138430095
59:30.9;0.056131133153778344;-0.8734056492205012;-1.07954763782495;1.357;0.052925091528974164
59:31.0;-0.040040808519879095;-0.9622122231628266;-1.1859151781826198;1.719;0.04569064989018462
59:31.0;-0.13275745520625534;-1.0429044975864536;-1.2734215200930927;1.719;0.1763094717550109
59:31.0;-0.2196878420800964;-1.1100217995219466;-1.3392657681734284;1.719;0.32659106516996744
59:31.0;-0.2990518335960113;-1.1587638217149883;-1.381562875519687;1.8119999999999998;0.4787535988624891
59:31.0;-0.36947689677414985;-1.185487245074019;-1.3992902103363545;1.949;0.6129033127894389
59:31.0;-0.4298607269014746;-1.1881375623120034;-1.392251268056172;2.125;0.7110696083206213
59:31.0;-0.4793249209178573;-1.1665365362553093;-1.361098654737041;2.1830000000000003;0.7610583576966388
59:31.0;-0.5173127680779326;-1.1224233150360508;-1.3074070024163826;2.124;0.7591379165331219
59:31.0;-0.5438059087976533;-1.0591897773443577;-1.2337294933206202;2.03;0.710620365638925
59:31.0;-0.5595449936139945;-0.9813432723143609;-1.143544466548492;1.8319999999999999;0.62792680198446
59:31.1;-0.5661083972042783;-0.8938119331557078;-1.0410256095052124;0.963;0.5267531712242207
59:31.1;-0.5657699460683356;-0.8012458195988053;-0.9306555750448512;0.963;0.42188553365847004
59:31.1;-0.5611780360800406;-0.7074654537820345;-0.8168052400721246;0.963;0.32428317598300777
59:31.1;-0.5549739274633119;-0.6151638114822079;-0.703425622558011;0.963;0.24014942066231865
59:31.1;-0.5494486693786368;-0.5258834682634836;-0.5939150091946435;0.899;0.17160934954918755
59:31.1;-0.5462847626194758;-0.4402122755925602;-0.49111995921050494;0.857;0.11810514585276996
59:31.1;-0.546405873827929;-0.3581035605271385;-0.39738945029617295;0.8009999999999999;0.07775714959374576
59:31.1;-0.5499544974092816;-0.27922496449219286;-0.31461606293028854;0.74;0.04831276510863518
59:31.1;-0.5563979531410942;-0.203259830732694;-0.2442291631052044;0.691;0.02762069514534536
59:31.1;-0.5647299921915737;-0.13011639725846932;-0.18713954686588435;0.6759999999999999;0.01375113217735308
59:31.2;-0.5737138637485026;-0.06003279892236924;-0.14366513737690065;0.6409999999999999;0.004948064238144904
59:31.2;-0.5821149051103836;0.006402418622082162;-0.1134815584726459;0.6409999999999999;0.0004229393350071062
59:31.2;-0.5888888989163977;0.06826977928309134;-0.09563665484895115;0.6409999999999999;0.003844910574907067
59:31.2;-0.5933126680422967;0.12433647527637601;-0.0886500217173683;0.659;0.006539748083467605
59:31.2;-0.5950558995931803;0.1730613484300123;-0.09069547183402041;0.685;0.009339926381337663
59:31.2;-0.594196434683099;0.21260167324573875;-0.09984397680532967;0.6779999999999999;0.01261300565853613
59:31.2;-0.5911816674220794;0.24083638157997947;-0.11433145465738427;0.637;0.01627828998375992
59:31.2;-0.586744733081233;0.25541473063764336;-0.13281207241466597;0.599;0.019903648539430756
59:31.2;-0.5817969148391983;0.25384284372328164;-0.15456542574355625;0.5710000000000001;0.022826992324673667
59:31.2;-0.5773290566531228;0.23362514498209985;-0.1796414001955092;0.5579999999999999;0.02422977778727938
59:31.3;-0.574354921985456;0.19247432763038802;-0.20893789792359882;0.747;0.02309778738674249
59:31.3;-0.5739120356426751;0.12859263614575028;-0.2442017771751562;0.747;0.018022301554665474
59:31.3;-0.5771056072709806;0.04101143317737726;-0.28792664091584397;0.747;0.006814627020552924
59:31.3;-0.5851601432367499;-0.07004431912818915;-0.343116921644844;0.82;0.014063382612464507
59:31.3;-0.5994437063029694;-0.20282124549252184;-0.41290763423944343;0.8859999999999999;0.0502012767728065
59:31.3;-0.6214354676748274;-0.3538010724473164;-0.5000541472766495;0.914;0.10994417252587452
59:31.3;-0.6526059537896762;-0.5176328564075646;-0.6063242170349263;0.89;0.2048225559336883
59:31.3;-0.6941853092152843;-0.6872925401417;-0.7318518077069245;0.8690000000000001;0.3491726336681804
59:31.3;-0.7468223110714886;-0.8545032222857716;-0.8745620889945017;0.934;0.5581123541804995
59:31.3;-0.8101824706909573;-1.0104131108573131;-1.0298338542949663;1.1520000000000001;0.8430415502607589
59:31.4;-0.8825789839694026;-1.1464771724345817;-1.1905788049487325;2.434;1.2046950906508511
59:31.4;-0.9607397776695634;-1.2554144682268609;-1.3478108638679553;2.434;1.6256305577107402
59:31.4;-1.0397693656928022;-1.3320463664236195;-1.491567513991772;2.434;2.0658523379846394
59:31.4;-1.1133141324534142;-1.3738330722256589;-1.6119197883083305;2.434;2.4654438487983876
59:31.4;-1.1739378360811916;-1.3810259263406341;-1.699895900263434;2.6860000000000004;2.755936828308717
59:31.4;-1.213727071126423;-1.3564567734055883;-1.7482906977108292;2.846;2.8783303956010826
59:31.4;-1.2251096603027072;-1.3050391153674232;-1.752351004679707;2.9189999999999996;2.8016868717538714
59:31.4;-1.2017880192484356;-1.2330795454073975;-1.710257806265851;2.878;2.534431426974299
59:31.4;-1.1396184105264775;-1.1475120690178877;-1.6233033425683274;2.721;2.1228357924172827
59:31.4;-1.0372424948526278;-1.055163666605766;-1.4957143740082102;2.448;1.6370004422732605
59:31.5;-0.8963202476729161;-0.9621317596993554;-1.33415536834684;1.325;1.1505464745867724
59:31.5;-0.7213392156043653;-0.8733211435736699;-1.1470278891429895;1.325;0.7225825936780438
59:31.5;-0.5191313026023738;-0.7921689725727212;-0.9437395323780309;1.325;0.3881031721890581
59:31.5;-0.29827968002266464;-0.7205703970308989;-0.7340884307320554;0.997;0.15777873302631928
59:31.5;-0.0685076186944399;-0.6589905211212513;-0.5277975664365508;0.772;0.023827881030139535
59:31.5;0.15995206170966664;-0.606728355328584;-0.3341421291805583;0.725;0.03242764201979559
59:31.5;0.3770060159778199;-0.5622965998999794;-0.16160547222660593;0.8;0.03425861492261381
59:31.5;0.57332903528969;-0.5238784847867409;-0.017527633826401653;0.968;0.005264508011024558
59:31.5;0.7409245069467066;-0.48980787111281676;0.0922648469670348;1.182;0.033483896083453
59:31.5;0.8735789988414135;-0.45900103762226757;0.16382645272541546;1.324;0.06569009348669684
59:31.6;0.9671833471310977;-0.4312628849472835;0.1953992764118743;1.298;0.08150304700473836
59:31.6;1.0199036827824646;-0.40741196030033494;0.18758950087368573;1.298;0.07794736924882795
59:31.6;1.0322003873829921;-0.3892157700353929;0.1433671784830861;1.298;0.05759757307739326
59:31.6;1.0067069739572583;-0.3791656522833278;0.06787091594932122;1.212;0.02590691953182371
59:31.6;0.9479874377547121;-0.38012628189053294;-0.031987375904348796;1.12;0.011526808924533364
59:31.6;0.8621859293157207;-0.39489312985387115;-0.14811074221578807;1.035;0.05042745696742124
59:31.6;0.7565726378283146;-0.42570394162880065;-0.2719653665662995;0.968;0.08759350490594624
59:31.6;0.6389871227340616;-0.47376421932314766;-0.3954198198035135;0.981;0.11970513969516704
59:31.6;0.5171945640956233;-0.5388507182343845;-0.5115701171896501;1.107;0.14256981478774053
59:31.6;0.3982031167921578;-0.6190598918560738;-0.615411194883056;1.25;0.15170598502679397
59:31.7;0.28763202027762996;-0.7107686634760368;-0.7042030002129378;1.1340000000000001;0.1439671392727909
59:31.7;0.1892476947367871;-0.8088426284104516;-0.7774331114605135;1.1340000000000001;0.11900293246555785
59:31.7;0.1047730508273803;-0.9070546201562273;-0.8364028953612254;1.1340000000000001;0.07948744864245544
59:31.7;0.0340191867192302;-0.998633855147797;-0.8835733298780672;1.1340000000000001;0.030017381897863897
59:31.7;-0.024682980771103494;-1.0769028343520377;-0.9218215573120606;1.3519999999999999;0.024503097324579046
59:31.7;-0.0738325653793586;-1.1359987530690485;-0.9537247700784369;1.608;0.07999242735284612
59:31.7;-0.11601964000122451;-1.1716258117513567;-0.9809853500934895;1.8130000000000002;0.13334691301721616
59:31.7;-0.15326529091859314;-1.1816843818434088;-1.0041280311209377;1.9869999999999999;0.18185883322943844
59:31.7;-0.18661146360429207;-1.1665793418245411;-1.022563879355059;1.942;0.22260916900111427
59:31.7;-0.21607610988084017;-1.1290637705192474;-1.03500419503009;1.886;0.25250346053322753
59:31.8;-0.2409818168734315;-1.0736015531359104;-1.0400784664196492;1.617;0.26908749169843693
59:31.8;-0.26053225772221966;-1.0053996404361891;-1.0369442147152448;1.617;0.2716161703068418
59:31.8;-0.27440609592823595;-0.9293991143365442;-1.0257025567480642;1.617;0.2615877770896976
59:31.8;-0.283135476691875;-0.8495185637658537;-1.0075152687738116;1.3769999999999998;0.24233648241727704
59:31.8;-0.2881458981828272;-0.7682970601814397;-0.9844079069942012;1.192;0.21792984325555714
59:31.8;-0.2914778578801501;-0.6869063404418516;-0.9588254443804921;1.042;0.19197410196550638
59:31.8;-0.2953102465766818;-0.6054029488586649;-0.9330749221136457;0.946;0.1668167153030241
59:31.8;-0.30143912117028016;-0.5230802833266669;-0.9088151072100229;0.8590000000000001;0.14329911325018185
59:31.8;-0.3108454021582946;-0.43881918026533684;-0.8867233359472808;0.8340000000000001;0.12095342974933922
59:31.8;-0.3234365258307286;-0.3513873756433177;-0.8664072600852899;0.863;0.0984684951154757
59:31.9;-0.33799492202119674;-0.25967965248790975;-0.8465609248096622;1.016;0.07430299429069631
59:31.9;-0.3523194402703873;-0.16291785565950248;-0.8253036300229692;1.016;0.04737170846417315
59:31.9;-0.36350846745056525;-0.06084330506366203;-0.8005990291974394;1.016;0.01770689402530703
59:31.9;-0.3683211727585775;0.04607918601806978;-0.7706483276352687;1.004;0.013079397049749262
59:31.9;-0.3635688236681235;0.15646364798766327;-0.7341843867972564;0.955;0.041764302362240095
59:31.9;-0.3465033093328941;0.26785547170267027;-0.6906370104507137;0.888;0.06409995981210348
59:31.9;-0.3151677723093466;0.37667413510855163;-0.6401741219579207;0.7959999999999999;0.07599862173483758
59:31.9;-0.2686699955442377;0.47827318329417123;-0.5836494019213286;0.721;0.07499757891973605
59:31.9;-0.20734616931031716;0.5671381568028867;-0.5225056932936398;0.6859999999999999;0.061443494934500305
59:31.9;-0.13279703634464138;0.6372367033857514;-0.45868875043314944;0.698;0.03881568494035051
59:32.0;-0.047797184192906635;0.6825184080997712;-0.3946121815052401;0.9159999999999999;0.012873219343879791
59:32.0;0.04389531499399779;0.6975289456327874;-0.33318565729178573;0.9159999999999999;0.010201562679623584
59:32.0;0.1377781837822458;0.6780632579837216;-0.2778870308712822;0.9159999999999999;0.025960852281937747
59:32.0;0.22885050643321578;0.62176632385503;-0.2328356444322963;0.973;0.03313054197015737
59:32.0;0.31186164976029107;0.5286076560341612;-0.20281033204008828;0.996;0.03343378127545046
59:32.0;0.3815879190524696;0.4011743984178766;-0.1931472337795848;0.963;0.02956761668021497
59:32.0;0.43315478635661975;0.2447278817208975;-0.2094501693236562;0.86;0.022202776367523852
59:32.0;0.4624065356369374;0.06696948603365499;-0.2570605609562861;0.69;0.00796042730265057
59:32.0;0.46631577797963575;-0.12251536773691482;-0.3402767899020616;0.5660000000000001;0.01944030190914334
59:32.0;0.44341330468737045;-0.313117157657019;-0.4613871165947953;0.747;0.06405913197333114
59:32.1;0.3941970278083714;-0.4942751195878551;-0.6196712624155466;1.338;0.12073785368080496
59:32.1;0.3214485365774486;-0.6565887380912009;-0.8105933777935828;1.338;0.17108342409793983
59:32.1;0.23035438913058207;-0.7927473014137135;-1.0254162113594563;1.338;0.1872541463910881
59:32.1;0.12831645911644832;-0.8981039659556871;-1.2514237353149615;1.551;0.14421597446029663
59:32.1;0.02436738181029832;-0.9708373106291656;-1.4728609523833895;1.8619999999999999;0.03484312310666313
59:32.1;-0.07179964551989691;-1.0117378900947487;-1.6725525956295275;2.367;0.12149827124788998
59:32.1;-0.15103663603875261;-1.0237050937807302;-1.8339624050205523;2.8339999999999996;0.28356171687118487
59:32.1;-0.20591446829267765;-1.0110794308778082;-1.9433095029508738;3.116;0.40458903870759005
59:32.1;-0.23159185122369433;-0.9789549674045026;-1.9913394574404373;3.215;0.4514724855028488
59:32.1;-0.22622214607018976;-0.9325788046885483;-1.974425923270007;3.1;0.41654459473259836
59:32.2;-0.1908887261701223;-0.8768753486525627;-1.8948156067696866;1.8090000000000002;0.3171648819306718
59:32.2;-0.12916957486686537;-0.8160950413335694;-1.760033868613101;1.8090000000000002;0.1855333534384052
59:32.2;-0.046490944434614004;-0.7535951807392839;-1.5816952465529672;1.8090000000000002;0.055415249203987105
59:32.2;0.05057593360951749;-0.6917698052146808;-1.3740502834789585;1.392;0.04807376500420551
59:32.2;0.15498534144240506;-0.632124370044967;-1.152491769842511;1.08;0.11290963174399837
59:32.2;0.2598196474085148;-0.5754601992941891;-0.9321213767678007;0.89;0.1393669349374884
59:32.2;0.3587955949433498;-0.5221193750057675;-0.7264730614973224;0.8370000000000001;0.13609320024198635
59:32.2;0.44664359134506365;-0.4722393279008546;-0.5465188858922843;0.8170000000000001;0.11527322228336556
59:32.2;0.5193470571176356;-0.425969438484026;-0.4000557389890223;0.8;0.08850272063164513
59:32.2;0.5742521032124934;-0.38361170420046253;-0.29150718539565573;0.7709999999999999;0.06421606771817677
59:32.3;0.6100713387138444;-0.34566780037363076;-0.22211232095714517;0.7609999999999999;0.0468394944048503
59:32.3;0.6268090038236109;-0.31280388196304765;-0.19041888290610662;0.7609999999999999;0.037335104687591124
59:32.3;0.6256312533872931;-0.28576958888792586;-0.19295483332318975;0.7609999999999999;0.03449769732573547
59:32.3;0.6086984520222787;-0.2653094830605888;-0.2249462537677526;0.804;0.03632735145467405
59:32.3;0.5789670294672059;-0.2520824134791426;-0.28098619479826586;0.841;0.04100920628435307
59:32.3;0.5399574222654921;-0.24658084637107408;-0.35560208828568907;0.833;0.047345985092095595
59:32.3;0.4954781472947864;-0.24903521402114712;-0.4436918030508142;0.7759999999999999;0.05474779997989054
59:32.3;0.4493039211139728;-0.2592944886210442;-0.5408149586615801;0.722;0.0630060407875815
59:32.3;0.404828163187862;-0.27668712549128655;-0.6433513688995748;0.721;0.07206226341893805
59:32.3;0.36473312723567713;-0.29988436862154283;-0.7485616843654193;0.853;0.08187600293489646
59:32.4;0.33072937326322943;-0.32680694283877315;-0.85458429866888;1.163;0.09236744941746784
59:32.4;0.3034086269533533;-0.35462702597282003;-0.9603664944614418;1.163;0.10333245673728908
59:32.4;0.2822381144320701;-0.37991233664904656;-1.0654839111667573;1.163;0.11424730247945142
59:32.4;0.2657060035820532;-0.3989404853891969;-1.1698054073633777;1.147;0.12400040499550173
59:32.4;0.2516086639111657;-0.40817633531580405;-1.2730254766498386;1.214;0.1307406105855254
59:32.4;0.23744943463830434;-0.40484253856257535;-1.374166916861378;1.268;0.13209815988596954
59:32.4;0.22089020662146583;-0.3874491584581221;-1.4712016225594553;1.383;0.12591091459495987
59:32.4;0.20016771998296776;-0.3561373345929875;-1.5609246419343676;1.695;0.1112739444283124
59:32.4;0.17438070504961467;-0.31274222911648303;-1.639141694530965;1.7730000000000001;0.08939257634822036
59:32.4;0.1435857475839163;-0.2605510277882237;-1.701124900313346;1.682;0.06364148809629436
59:32.5;0.10869249568924007;-0.20380364259675282;-1.742224327776521;1.982;0.03859362533277039
59:32.5;0.07120152756981954;-0.14705385859897485;-1.7585209935477686;1.982;0.018412522609456486
59:32.5;0.032867926494714525;-0.09453968950139469;-1.7474243467924462;1.982;0.005429812851480666
59:32.5;-0.00462111516401892;-0.0496731969574249;-1.7081273569723296;1.979;0.0003920930570365802
59:32.5;-0.03989789581378721;-0.014693443639845725;-1.6418547982146368;1.939;0.0009625168251585704
59:32.5;-0.072068667082202;0.009504637578114835;-1.5518722586465468;1.7690000000000001;0.001063011642111188
59:32.5;-0.10075578027317456;0.023351440585431687;-1.443247490401496;1.5590000000000002;0.0033956620394699024
59:32.5;-0.12602870586362847;0.02839594645803489;-1.3223812038793;1.305;0.004732411411482069
59:32.5;-0.14825456695808004;0.026957314874947798;-1.1963605968853606;1.0490000000000002;0.004781309013287801
59:32.5;-0.16792005303579227;0.02171739073459993;-1.0722240931535474;0.8690000000000001;0.003910171172679145
59:32.6;-0.18547679242886803;0.015336693013050653;-0.956245820199949;0.605;0.002720137459254472
59:32.6;-0.20124282909838795;0.010146344688803686;-0.8533500143254653;0.612;0.0017424375679248969
59:32.6;-0.21536198894028283;0.007932798085280468;-0.7667478354827031;0.612;0.0013099297703754956
59:32.6;-0.22780020938018655;0.009810476793188713;-0.6978454886031503;0.612;0.0015595651034911273
59:32.6;-0.23835851341428207;0.016172326239539226;-0.6464113017415204;0.664;0.002491793810767291
59:32.6;-0.24669612643598102;0.026709152050258103;-0.6109406198946407;0.708;0.0040255148404282695
59:32.6;-0.25236592656257084;0.04048472664267962;-0.5891364176717897;0.765;0.006019186484081607
59:32.6;-0.2548661876753275;0.05604660303354842;-0.578419749177494;0.777;0.008262369837801741
59:32.6;-0.25371397884546176;0.0715543512772123;-0.5763901363172554;0.769;0.010463982026783017
59:32.6;-0.24854608738489586;0.0849211992453837;-0.5811744434394737;0.768;0.012266751229060045
59:32.7;-0.23924697688836727;0.0939782862331344;-0.5916318146622052;0.747;0.013302262070840187
59:32.7;-0.22608695769131992;0.096669174753701;-0.6074134055063803;0.747;0.013275408492680496
59:32.7;-0.2098348510133604;0.09126975370004115;-0.6288998330163007;0.747;0.012044422426207258
59:32.7;-0.1918032369087877;0.0766191133519734;-0.6570497763469315;0.746;0.009655868128081396
59:32.7;-0.17379708450109993;0.05234325733517326;-0.693189997758696;0.772;0.00630602255373281
59:32.7;-0.15795939080021837;0.01904559453717272;-0.7387675687838012;0.8109999999999999;0.0022225308941117
59:32.7;-0.1465284109537813;-0.021577580353620358;-0.7950757357442118;0.865;0.002513813662213196
59:32.7;-0.14153231520472714;-0.06675310609507974;-0.8629581470153316;0.9109999999999999;0.008152988370968086
59:32.7;-0.14444828553495748;-0.11283667539229127;-0.9424949385730839;0.877;0.015361785611770056
59:32.7;-0.15585515696544275;-0.1557392806356068;-1.0326839139092463;0.8440000000000001;0.02506609915511923
59:32.8;-0.17512347358483715;-0.19153702526423652;-1.1311546028835893;1.1;0.03794189939472864
59:32.8;-0.2002081993799181;-0.21713957895925226;-1.2339803469372472;1.1;0.05364498078101474
59:32.8;-0.22761790621925596;-0.23084481767151266;-1.3356623075060208;1.1;0.07018159332987212
59:32.8;-0.2526194585112827;-0.2326371983193033;-1.4293504603587157;1.2570000000000001;0.08400104419935674
59:32.8;-0.26969766369579573;-0.22417043949584614;-1.5073483122457496;1.547;0.09113163175581863
59:32.8;-0.2732251270860078;-0.20845929563170768;-1.5618988914083451;1.883;0.08896000922635351
59:32.8;-0.2582290346041957;-0.18936244093134377;-1.5861590467502005;2.11;0.07756140138282604
59:32.8;-0.22110803594286;-0.17096503581573097;-1.5751819999392758;2.165;0.05954462558746649
59:32.8;-0.16016661746036776;-0.15697342673804418;-1.5267002213190355;2.083;0.03838414855661569
59:32.8;-0.07587349059367783;-0.15022624235196358;-1.4415427086799257;1.9340000000000002;0.01643097680156324
59:32.9;0.029198406809441465;-0.15240213762194535;-1.323608978461212;1.128;0.005889927080904101
59:32.9;0.15071658403937988;-0.16395157969149893;-1.1794396717066156;1.128;0.029144216169431962
59:32.9;0.28310142264123184;-0.18421177206297273;-1.017536349025929;1.128;0.05306514612025732
59:32.9;0.42007249727158247;-0.211627431166785;-0.8476075821775377;0.924;0.07535135075075372
59:32.9;0.5551614460752153;-0.2440175060824931;-0.679837531586774;0.9079999999999999;0.09209698639861491
59:32.9;0.6821808188320451;-0.2788611656138443;-0.5241993383674868;1.006;0.09972039975146268
59:32.9;0.7956268855397978;-0.31358804531548107;-0.3898368076760433;1.093;0.09726392480171533
59:32.9;0.8909662447354614;-0.3458530285941657;-0.2845542440733019;1.14;0.08768350488803967
59:32.9;0.9647645318932413;-0.3737698129787626;-0.21443909617992346;1.153;0.07732670777243202
59:32.9;1.0146533048233497;-0.3960745107732461;-0.18361794540984241;1.128;0.07379206982795361
59:33.0;1.0391716905156212;-0.4121952316762672;-0.19413414401643045;1.0190000000000001;0.08315573291509738
59:33.0;1.0375485357925585;-0.4222216144935559;-0.24592816258072606;1.0190000000000001;0.10773508259537957
59:33.0;1.0095020857063357;-0.4267935623159865;-0.3368949355654895;1.0190000000000001;0.14515084317056365
59:33.0;0.9551203470686515;-0.4269425486870894;-0.46300025375372206;1.046;0.1888029450508967
59:33.0;0.8748492290011551;-0.4239128288309858;-0.6184643520278148;1.078;0.22936357299177818
59:33.0;0.7695776643617134;-0.418976021229171;-0.7960380522388228;1.146;0.2566702012794641
59:33.0;0.6407869710429408;-0.4132455009225048;-0.9873845737148751;1.276;0.2614617385232676
59:33.0;0.49072528891881295;-0.40749887514284727;-1.1835500935394938;1.469;0.23667451603809653
59:33.0;0.32256642388277684;-0.4020241438161432;-1.3754758269440397;1.6640000000000001;0.17837100427541383
59:33.0;0.14050730610753875;-0.396516835220535;-1.5544826025779785;1.8090000000000002;0.08660568566590006
59:33.1;-0.05024134591301896;-0.3900663956478718;-1.712655766687904;1.869;0.03356370410219814
59:33.1;-0.2435806246194083;-0.381263024373607;-1.843084387378282;1.869;0.17116408731103525
59:33.1;-0.4327103779830485;-0.3684212300547037;-1.9399619638588421;1.869;0.30926813433524264
59:33.1;-0.6103105717512342;-0.34988026669490396;-1.9986126001535698;1.869;0.42677499192790214
59:33.1;-0.7687313794037393;-0.3243341577625175;-2.0155376461055843;1.859;0.5025256257056367
59:33.1;-0.9002944252410218;-0.2911479965303081;-1.9885743867845662;2.065;0.5212429670168982
59:33.1;-0.997808073489534;-0.2506014419894218;-1.9172214580800906;2.4819999999999998;0.4794053323678796
59:33.1;-1.0553159525806899;-0.20397841835699235;-1.803103256548427;2.795;0.3881390341883535
59:33.1;-1.0689772212473188;-0.15344041872861028;-1.650426575516112;3.003;0.2707100842809664
59:33.1;-1.0378636693427876;-0.10169749633559669;-1.4661913122875976;2.766;0.1547537610721068
59:33.2;-0.9644208302704016;-0.05157630163876968;-1.25993554597389;1.291;0.0626707811329629
59:33.2;-0.8544426973491898;-0.005610342662221477;-1.0429644795176913;1.291;0.004999675843892665
59:33.2;-0.7165980073841509;0.03425776680349792;-0.8272494857592405;1.291;0.020308186861368503
59:33.2;-0.5616526800398148;0.06682323228576663;-0.6242823918304449;0.716;0.023430221815547117
59:33.2;-0.40150010415267123;0.09162058128799966;-0.444064677924437;0.256;0.016335218001743212
59:33.2;-0.24806836893485482;0.10882051568817028;-0.2942912742152918;0.125;0.007944371709445305
59:33.2;-0.11220730821489663;0.11907966477114146;-0.17978201991630802;0.355;0.002402176991907212
59:33.2;-0.0027032826438965056;0.1233916780875502;-0.10223156419801097;0.523;3.410062449281987e-05
59:33.2;0.07443490730367144;0.12296159371154403;-0.0603141731358124;0.5870000000000001;0.0005520336017752629
59:33.2;0.11631453391189776;0.1191000053173443;-0.05012685136055672;0.535;0.0006944103600823461
59:33.3;0.12307529322604895;0.11312257630634415;-0.06591139728620396;0.414;0.0009176576408261236
59:33.3;0.0974279802653698;0.106245763481963;-0.1009470913097071;0.414;0.001044934650665048
59:33.3;0.043965545127237916;0.09948371916839882;-0.1484535065064035;0.414;0.0006493142519184209
59:33.3;-0.031566077434734705;0.09356025741089184;-0.20234099151877297;0.414;0.0005975797873044253
59:33.3;-0.1229204940760316;0.08884637440094281;-0.2577187775656296;0.446;0.0028145571399411664
59:33.3;-0.2239072640124427;0.08532801518694867;-0.31115907102029167;0.489;0.005944869055209943
59:33.3;-0.32886865843762664;0.08261046940199504;-0.36076402037523586;0.613;0.009801234829406792
59:33.3;-0.43307421496288284;0.07996761580110325;-0.4060962316356106;0.765;0.014063889134397574
59:33.3;-0.5330039978251587;0.07643605459782245;-0.4480302036823053;0.889;0.018253074279867092
59:33.3;-0.6264811747879364;0.07094150408396319;-0.4885637696646197;0.978;0.021713492114607276
59:33.4;-0.7126248447292358;0.062438946201839304;-0.5306010207062566;1.0170000000000001;0.023609381244821495
59:33.4;-0.791623612430631;0.05005004163183689;-0.5776938155009623;1.0170000000000001;0.022888688097448425
59:33.4;-0.8643691481747456;0.03318601941099309;-0.6337191188586908;1.0170000000000001;0.01817821475547501
59:33.4;-0.9320187951084045;0.011647613546271106;-0.7024804557460709;1.062;0.0076259836387478925
59:33.4;-0.9955643008307178;-0.014304803893626289;-0.7872455771277163;1.162;0.011211441442713738
59:33.4;-1.0554696306460085;-0.04391540843131599;-0.8902492999013594;1.29;0.041264283520277126
59:33.4;-1.11141037977463;-0.07593407227261567;-1.0121960711339493;1.329;0.0854231903063987
59:33.4;-1.1621133330552254;-0.10866146528309031;-1.1518097304349617;1.2930000000000001;0.1454470054512153
59:33.4;-1.2052797455553534;-0.14005469321410416;-1.3055120803935505;1.27;0.22037707770057235
59:33.4;-1.2375936255162456;-0.1679154934788459;-1.4673527116559841;1.301;0.3049322461813994
59:33.5;-1.2548507559778015;-0.19017241389547487;-1.6293108116343247;2.375;0.3888154691374851
59:33.5;-1.2522559725110207;-0.20523023287762834;-1.7819857054213668;2.375;0.45797172490408483
59:33.5;-1.2249032497628831;-0.21230612413786892;-1.9155193244073456;2.375;0.4981393462120319
59:33.5;-1.1684061882024885;-0.21164974787577268;-2.020514741083456;2.375;0.499658899604575
59:33.5;-1.079622465004838;-0.20457805736169227;-2.088815149879599;2.6189999999999998;0.4613504747707648
59:33.5;-0.9573893165778676;-0.19331361668150607;-2.1141497103519824;2.7760000000000002;0.391279199186529
59:33.5;-0.8031235108520992;-0.18066692584118862;-2.0926887642789214;2.7439999999999998;0.30364465250430106
59:33.5;-0.6210893359346856;-0.1696421157159451;-2.0235001528520207;2.583;0.21320186245949585
59:33.5;-0.41818757571507714;-0.16305617265040895;-1.9088426528662463;2.379;0.1301602879307464
59:33.5;-0.2032607545425196;-0.16323465250554348;-1.7542078643109915;2.214;0.05820321117839154
59:33.6;0.013944586597083586;-0.17180388508972103;-1.5680380560835108;1.4780000000000002;0.003756602324710261
