Time;AccX;AccY;AccZ;Acc-old;Acc-trns
11:45.0;0.14541459643660043;-0.255915871963684;-0.3776882621007604;0.47100000000000003;0.01405525444195531
11:45.0;0.15174836716516468;-0.25938249259922785;-0.3581219135869776;0.47100000000000003;0.014095989985706946
11:45.0;0.15776975661492432;-0.26260520310941077;-0.3402499441024992;0.5589999999999999;0.014096949527177584
11:45.0;0.16324200731526378;-0.266431226899193;-0.32698331610854564;0.542;0.014221409602365929
11:45.0;0.16794350350708312;-0.2717429372215056;-0.3210861595592682;0.43200000000000005;0.014653557062141357
11:45.0;0.17169012928302083;-0.2794089929490121;-0.3250062676062433;0.39799999999999996;0.015591124657873576
11:45.0;0.17435846249297704;-0.290215847907652;-0.34066812923662987;0.41100000000000003;0.017238348672025505
11:45.0;0.17590474230650574;-0.3048001374596816;-0.36926895284617584;0.41;0.019798646494475564
11:45.1;0.17637340777314794;-0.32360296291333834;-0.4111271522666866;0.387;0.023465064674681006
11:45.1;0.17589212549324243;-0.3468552242997559;-0.4656313332448922;0.41200000000000003;0.02840774980257953
11:45.1;0.17465728511886391;-0.37459361303676836;-0.5313311268077852;0.89;0.03476260648379973
11:45.1;0.1729188495918426;-0.4066942353030124;-0.6061757525822746;0.89;0.04262936999616545
11:45.1;0.17097124473904418;-0.4428896777556122;-0.687836069685543;1.113;0.05208390981488124
11:45.1;0.16914895994675422;-0.48272900013725684;-0.773994846578875;1.025;0.06319908503858637
11:45.1;0.16781708531358366;-0.5254702377323942;-0.8625079386793895;0.946;0.07605843726007587
11:45.1;0.16734313474294865;-0.5699452517022061;-0.9514095048326947;0.982;0.09074203733115628
11:45.1;0.16803824511496118;-0.6144722515971954;-1.0388077582909736;1.028;0.10726192765792869
11:45.1;0.17006398957101507;-0.6568894647894162;-1.122757228277116;1.045;0.12542685117274183
11:45.2;0.1733209462013232;-0.6947430422771692;-1.201194757470167;1.318;0.1446400906993844
11:45.2;0.17736243312591882;-0.7256008993605483;-1.2720020546591078;1.716;0.1636994661609338
11:45.2;0.18138494990487028;-0.7474083606825952;-1.3332001460128096;1.874;0.1807401147255398
11:45.2;0.1843144881762677;-0.7587780280804115;-1.3831969772036066;1.874;0.19344533112027204
11:45.2;0.18495502537412406;-0.7591293630345362;-1.4209627697799045;1.7109999999999999;0.199509980144605
11:45.2;0.18213671392199;-0.7486494697246859;-1.446050338079807;1.57;0.19717844143781915
11:45.2;0.1748138945821984;-0.728104904209053;-1.4584726897002978;1.547;0.18563856638116466
11:45.2;0.16210129969694811;-0.6985749675278681;-1.4585158953453052;1.4780000000000002;0.16516220897336675
11:45.2;0.14328175349755173;-0.6611980890874751;-1.4465643599311842;1.376;0.13704406697100133
11:45.2;0.11784510409862259;-0.6170245015740691;-1.4229831019106767;1.3630000000000002;0.10346982083328253
11:45.3;0.08559246103080752;-0.5670344687648249;-1.388084174469464;1.6740000000000002;0.06736910474441418
11:45.3;0.04676480922118335;-0.5122940850700889;-1.3421927974119336;1.8319999999999999;0.03215536268813543
11:45.3;0.002097619645685489;-0.454116496248084;-1.2857917550997595;1.335;0.0012247985310430173
11:45.3;-0.047263061346966374;-0.39408271868097894;-1.2196838167336594;1.335;0.02271728887569263
11:45.3;-0.0999432888451653;-0.3338996231604058;-1.1451159807216473;1.3019999999999998;0.038213695718553646
11:45.3;-0.154516923431346;-0.27520315372905285;-1.0638394381360308;1.187;0.04523822382972846
11:45.3;-0.2095967605820317;-0.21941593487576327;-0.9780942942767765;1.043;0.04498145053545534
11:45.3;-0.26383507354636204;-0.167691457022424;-0.890514368196459;0.8909999999999999;0.0393989273624345
11:45.3;-0.31587973111777073;-0.12093374315863585;-0.8039646627106074;0.8340000000000001;0.030711866787931287
11:45.3;-0.3643452926599341;-0.07987848183565134;-0.7213434057087047;0.6559999999999999;0.02099350877095825
11:45.4;-0.4078391462083994;-0.04521676182386588;-0.6453866452061958;0.909;0.011901681959328708
11:45.4;-0.44504866747733024;-0.017727804080009457;-0.5785012023431629;0.654;0.0045642215209972595
11:45.4;-0.4748657359653567;0.0016211550061202861;-0.5226320532149701;0.6509999999999999;0.00040233833791618307
11:45.4;-0.4965135797300061;0.0116441337439632;-0.4791722332529981;0.6509999999999999;0.0027703201444217525
11:45.4;-0.5096489185087903;0.010998074021032329;-0.4489446995459945;0.772;0.00251640531449303
11:45.4;-0.5144256747346448;-0.0016602630043380283;-0.43227779455382753;0.665;0.00036920064712207243
11:45.4;-0.5115141549505069;-0.027450007535316474;-0.42915052084137495;0.9229999999999999;0.006025731391231568
11:45.4;-0.502070638624505;-0.06702948405901725;-0.43934407003381004;0.889;0.014785481419355831
11:45.4;-0.4876471530492032;-0.12041070997541767;-0.46252334412816115;0.731;0.027158417930332156
11:45.4;-0.47003076403279087;-0.18687683630661323;-0.4981972634249661;0.473;0.04376058254784491
11:45.5;-0.45102671929588517;-0.2650143335139181;-0.5455826429171239;0.6729999999999999;0.06521269970946451
11:45.5;-0.4322412820865249;-0.3528122061978989;-0.6034701956020457;0.862;0.09202920503615453
11:45.5;-0.41492845176853227;-0.4477587162965255;-0.6701750506132729;0.915;0.12451036898932547
11:45.5;-0.3999197202734408;-0.5469114526987461;-0.7435677926134201;0.915;0.1626336496407425
11:45.5;-0.3876096815876047;-0.6469660897649894;-0.8211373420891822;1.082;0.20591687408217646
11:45.5;-0.37796841134831544;-0.7443493481295611;-0.9000656539743556;1.185;0.2532249576652537
11:45.5;-0.3705697796918522;-0.8353452867677251;-0.977323035496207;1.325;0.30253398018899014
11:45.5;-0.36462958899453246;-0.9162668054806841;-1.0497811363871152;1.4569999999999999;0.3507297662334802
11:45.5;-0.3590504102099974;-0.983682259339829;-1.1143213423188916;1.693;0.3935688472493828
11:45.5;-0.35248864185635903;-1.034668414115936;-1.167919921751269;1.72;0.42595074797891924
11:45.6;-0.3434681335208845;-1.0670172721612532;-1.2077075842367813;1.5930000000000002;0.4426084421223537
11:45.6;-0.3305297465561753;-1.0793436753668555;-1.231014708203601;1.5819999999999999;0.4391708879226593
11:45.6;-0.3123606207456591;-1.0711116251477832;-1.2354295506024253;1.625;0.4133414848403059
11:45.6;-0.2878604637843854;-1.0426332954627426;-1.2189073725154849;1.625;0.36583420940661
11:45.6;-0.25616571295596224;-0.9950710352573827;-1.1799478331201716;1.625;0.3007723383040669
11:45.6;-0.21668795237975777;-0.9304378321275305;-1.1178186068507434;1.585;0.22536862804261504
11:45.6;-0.16920434679542423;-0.8515706030811833;-1.0327859512093989;1.45;0.14881355724480014
11:45.6;-0.11399858234885565;-0.7620461023343066;-0.9263202452967626;1.306;0.08047145478021442
11:45.6;-0.05201137117438117;-0.6660306789957806;-0.8012490619984577;1.2109999999999999;0.027756204054623382
11:45.6;0.01506419683890797;-0.568082423802813;-0.6618264114670138;1.02;0.005663715490277562
11:45.7;0.0847923853023822;-0.4729246492066183;-0.5136852215982064;0.882;0.020598987521624312
11:45.7;0.1541192399697465;-0.38519477699929855;-0.3636426520268648;0.6659999999999999;0.021587982869380632
11:45.7;0.21959205150167543;-0.3091717594541389;-0.2193383823199552;0.34700000000000003;0.01489124708028618
11:45.7;0.27764412108171255;-0.24849899212253848;-0.08872443670789947;0.391;0.00612147900681614
11:45.7;0.32490996638304986;-0.20593396505972345;0.02051049957635029;0.391;0.0013723574787550775
11:45.7;0.3585346251784193;-0.18315809438922165;0.10146622185065413;0.5;0.006663136489071008
11:45.7;0.37644909107518487;-0.1806652834984197;0.14843113387582516;0.516;0.010094991668255273
11:45.7;0.37759205814845037;-0.19772875935980028;0.15715656689034732;0.563;0.011733436455411188
11:45.7;0.3620542685216314;-0.23243983239482682;0.12504689159899704;0.58;0.010523425388222369
11:45.7;0.33111387937005776;-0.28181613362830427;0.05130822150386023;0.562;0.00478773604210166
11:45.8;0.28713438543818376;-0.3419762151826001;-0.06292868568248614;0.5329999999999999;0.006179164637921048
11:45.8;0.23331574693821788;-0.4083700232903307;-0.21454215378821848;0.491;0.020441395556300302
11:45.8;0.17332037028968322;-0.47604897660669354;-0.3984754419045849;0.731;0.03287780421972269
11:45.8;0.11083354186631252;-0.5399619801549976;-0.6079561019943774;0.731;0.03638367931450627
11:45.8;0.049149925002798474;-0.5952745684695603;-0.8348448866254715;1.071;0.024425641570314596
11:45.8;-0.009124020197018363;-0.6377148692627153;-1.0700343411168212;1.358;0.006226019795978365
11:45.8;-0.06220368137159391;-0.66393401946949;-1.303840641681004;1.5430000000000001;0.053847497457731625
11:45.8;-0.10909872185598173;-0.6718322266840819;-1.52637676759527;1.704;0.11187736838908352
11:45.8;-0.14946640282355575;-0.6607727652196723;-1.727925284524283;1.86;0.17065565215534426
11:45.8;-0.18341650358632391;-0.6316116179577231;-1.8993471344367763;1.9969999999999999;0.22003555655534596
11:45.9;-0.21133696046624667;-0.5865161525781989;-2.0325583013103836;2.124;0.25194076607691324
11:45.9;-0.23375731626377536;-0.5286101370037244;-2.1210655146367565;2.9939999999999998;0.2620926142892178
11:45.9;-0.25120650135995803;-0.4615236542422213;-2.1604758137612308;2.248;0.25048068852374755
11:45.9;-0.2640248589014145;-0.3889313701042843;-2.1488339958561977;2.248;0.22065849863640263
11:45.9;-0.27215096847009357;-0.31415539745482635;-2.086688377427289;2.2880000000000003;0.17840704784605868
11:45.9;-0.2749476848843925;-0.2398918150805885;-1.976908820391464;1.983;0.13039235727993428
11:45.9;-0.27113204262101553;-0.1680745164762816;-1.8243444800830577;1.676;0.08313608391439745
11:45.9;-0.25885446920743194;-0.09984136044818716;-1.635401206675766;1.5519999999999998;0.04226593410348851
11:45.9;-0.23594415728125426;-0.035558493583799825;-1.4176138977366322;1.442;0.011893523734370507
11:45.9;-0.20030240886217912;0.02511361108056462;-1.179272625531903;1.205;0.005932114893701828
11:46.0;-0.15039137942390654;0.08309884746616264;-0.9291063091687146;1.4069999999999998;0.011611367010667336
11:46.0;-0.08571947600578343;0.13970616871024302;-0.6759587140203752;1.605;0.008094970331910548
11:46.0;-0.007174369355344913;0.19634588432663788;-0.42833857427188277;0.503;0.0006033825146214843
11:46.0;0.08292557396963933;0.2541896379971537;-0.19378021100696632;0.503;0.004084658502861504
11:46.0;0.1810635040232486;0.31383480373935213;0.021832221747912026;0.718;0.0012405948071848275
11:46.0;0.28289897842734646;0.37504869851794037;0.21466109088483973;0.865;0.02277573357932287
11:46.0;0.3835879669554765;0.4366698161359886;0.3828396452384954;0.415;0.06412613329300001
11:46.0;0.477908234057358;0.49673442054843675;0.5259987861659985;0.611;0.12486867691635395
11:46.0;0.5602052299401671;0.5528493911492169;0.6446177265696458;1.037;0.1996439890198877
11:46.0;0.624319176048266;0.6027288515675461;0.7394120475674437;1.189;0.2782371895270293
11:46.1;0.6636597679413515;0.6447121659433014;0.8109001856679696;1.2009999999999998;0.3469594784309682
11:46.1;0.6714875560421526;0.6780821203168786;0.8592115078456027;1.242;0.3912193677903083
11:46.1;0.6413659534931323;0.7031172294321518;0.8841299349460594;1.4680000000000002;0.39870321468099235
11:46.1;0.5677141227058375;0.7209432740000365;0.8852950494714786;1.4680000000000002;0.36234212601612026
11:46.1;0.4463953954518347;0.7332982237471325;0.8624280975910427;1.1640000000000001;0.28230803326694476
11:46.1;0.27528910622910135;0.7422850967484416;0.8154800718490758;1.1540000000000001;0.16663764501587855
11:46.1;0.0547950002765884;0.7501213952920924;0.744720028315952;0.958;0.030610154387856584
11:46.1;-0.21178840068159754;0.7588605966142657;0.6508815184283249;0.892;0.10460829262920673
11:46.1;-0.5180639815621114;0.7700820401401529;0.5354593593928764;1.046;0.2136224580386615
11:46.1;-0.8545460528367286;0.7845959446698183;0.40112544084138735;1.196;0.26894392514666654
11:46.2;-1.2088976080585778;0.8022378078644259;0.25211465622817825;1.361;0.24450668477867005
11:46.2;-1.56640986710136;0.8218112542009672;0.09438665832658506;1.661;0.12150330885944152
11:46.2;-1.9107289898964177;0.841207514905602;-0.06460107325434;2.2119999999999997;0.10383457026979677
11:46.2;-2.224801153700693;0.8576990154214374;-0.21657714984305795;2.2119999999999997;0.4132746309150636
11:46.2;-2.4919678779904775;0.8683669731048107;-0.3535222679729314;2.872;0.7650018968765658
11:46.2;-2.6971369114738697;0.8705826299872588;-0.4689135410959362;3.522;1.1010467635220456
11:46.2;-2.827964242289184;0.8624327073978765;-0.5588566914607394;3.69;1.3630117122351448
11:46.2;-2.8759663961826143;0.8429796147005546;-0.6227694418991451;3.333;1.509830430062631
11:46.2;-2.8374664520390818;0.8122974514758431;-0.6633556849783583;3.576;1.5289464734313873
11:46.2;-2.7142878195414095;0.7713247345310181;-0.6858357011476481;3.576;1.4358637940091983
11:46.3;-2.5140882102575315;0.72166084769644;-0.696609627200793;3.987;1.2638721024136543
11:46.3;-2.2501506257039545;0.6654065674599539;-0.7016384724342997;3.253;1.0505387303183633
11:46.3;-1.9404343112192204;0.6050362974515859;-0.7049351392459724;1.4480000000000002;0.8276172510531786
11:46.3;-1.6058716324274858;0.5432639005955302;-0.707637153258022;1.4480000000000002;0.6173512056335037
11:46.3;-1.26819506979089;0.4829523909154755;-0.7079723047743065;1.264;0.43361734878869024
11:46.3;-0.9477165347591007;0.427141009709065;-0.7020615574326331;1.3130000000000002;0.28420055447560943
11:46.3;-0.6613819569212458;0.37915985486672943;-0.6852208197576244;1.237;0.1718324733137414
11:46.3;-0.42130040272701536;0.3427037726964731;-0.6533697444890619;1.2770000000000001;0.09433433222374106
11:46.3;-0.2339165155319584;0.32174033911384464;-0.6042594512047059;1.345;0.04547679533108141
11:46.3;-0.09996000149080361;0.32020260500369857;-0.5383572842244354;1.517;0.017231445403934627
11:46.4;-0.015185651013745322;0.3414905468282209;-0.459264686076183;1.656;0.0023816347247783095
11:46.4;0.028245437833109215;0.38783938169813453;-0.37349495316216325;1.413;0.0040915226030924816
11:46.4;0.04001922816207603;0.4596339187065741;-0.28945189653501285;1.992;0.005324234530655925
11:46.4;0.02992024725352522;0.5548038171299664;-0.21573079628549097;1.992;0.0035811026093566923
11:46.5;0.006498702361687249;0.6685065455112291;-0.15933162885238517;0.7659999999999999;0.0006922043222115861
11:46.5;-0.023547557326573782;0.7932694446811319;-0.1245137924242955;0.7659999999999999;0.002325862573029796
11:46.5;-0.05532574398571646;0.9195750158005941;-0.11256183679353145;0.7659999999999999;0.005726715358069985
11:46.5;-0.0853806354896321;1.0367228606771335;-0.12219244185080974;0.7659999999999999;0.010815993107663836
11:46.5;-0.11133616364549878;1.133836589750706;-0.15023599394149598;1.6280000000000001;0.018965343586553843
11:46.5;-0.1316755289690114;1.2009605405358261;-0.19239258361071204;1.6280000000000001;0.03042440801300202
11:46.5;-0.1456349756958149;1.2301495764965666;-0.2439491779725951;1.6280000000000001;0.0437041791880738
11:46.5;-0.15313619561866126;1.2163885851989837;-0.3003553089834614;1.6280000000000001;0.05594812061243257
11:46.5;-0.15470225448947753;1.158213026401137;-0.35760050521012693;1.6280000000000001;0.06407420281415337
11:46.5;-0.15134104367408902;1.0579800898178402;-0.41240381866211245;1.6280000000000001;0.06603237187610138
11:46.5;-0.1443992057405009;0.9217627930612865;-0.4622630388321171;1.6280000000000001;0.06152804956805097
11:46.5;-0.13538803137455818;0.7588077994230057;-0.505421368819479;1.736;0.05192370323970165
12:10.8;-0.12578250263496737;0.5804877021776308;-0.5408101925866398;1.263;0.03948736217196446
12:10.8;-0.11681960664676777;0.3988183145422243;-0.5680021735963103;0.625;0.026463106888316937
12:10.8;-0.10935885463349486;0.2248912009887994;-0.5871555719186601;0.625;0.014440412631849768
12:10.8;-0.10385343800922826;0.06768020877941382;-0.5989091884157749;0.625;0.004209626299293386
12:10.8;-0.1004121352199048;-0.06655799792109253;-0.6042291929542074;0.625;0.004038203084465061
12:10.8;-0.09889438082604307;-0.17436825080500867;-0.6042484335043247;0.625;0.01041968427758061
12:10.8;-0.09900128862674022;-0.2548402741694857;-0.6001312145518409;0.625;0.015141019801636837
12:10.8;-0.10035235351240634;-0.3091542740041062;-0.5929747094757728;0.625;0.018396660261572932
12:10.8;-0.10254608666868552;-0.3400368671777739;-0.5837478899020939;0.625;0.02035496788999504
12:10.8;-0.10520441530398796;-0.3512094450033391;-0.5732646321048689;0.625;0.02118143124466117
12:10.8;-0.10800191610253732;-0.3468858076557708;-0.5621844991842398;0.625;0.021061866663999722
12:10.8;-0.11068181784559283;-0.3313529956584874;-0.5510324937762542;0.625;0.02020898000252606
12:10.8;-0.11306121542530198;-0.3086497199747652;-0.5402276932998319;0.625;0.01885195439629484
12:10.8;-0.11502812806206035;-0.2823412099843688;-0.5301099764273142;0.625;0.017216477579738033
12:10.8;-0.11653297014945228;-0.25537875097087703;-0.5209549696967416;0.541;0.015503643009661696
12:10.8;-0.11757675222752245;-0.230029331405059;-0.51297299909214;0.541;0.01387391990468534
12:10.8;-0.11819795950070401;-0.20786525054583047;-0.5062981351313212;0.541;0.01243936467972136
12:10.8;-0.11845962656288979;-0.1898071049214221;-0.5009797086564776;0.541;0.011264267622472821
12:10.8;-0.11843768960421722;-0.17620994975769513;-0.4969844349969813;0.541;0.01037201512923843
12:10.8;-0.11821128927962969;-0.16697663937501483;-0.49420888132636337;0.541;0.009754953776165538
12:10.8;-0.11785534431177852;-0.16168133961705577;-0.49249795447694855;0.541;0.009384553422596573
12:10.8;-0.11743543222638615;-0.15968942452600074;-0.4916652978062396;0.541;0.00922029598682824
12:10.8;-0.11700480428125923;-0.1602641286412963;-0.4915126792413252;0.541;0.00921668503893565
12:10.8;-0.11660322409374846;-0.16265414425724373;-0.4918465043678486;0.541;0.009328359637445308
12:10.8;-0.11625724584905828;-0.1661596094676565;-0.49249046622688625;0.541;0.009513565678411573
12:10.8;-0.11598152719780198;-0.1701765108373537;-0.4932940333261922;0.541;0.009736307921980443
12:10.8;-0.1157807914855528;-0.17422139349204918;-0.49413698115050486;0.541;0.00996747958514094
12:10.8;-0.11565210124174585;-0.17793946728515353;-0.4949305045768224;0.541;0.010185211124849058
12:10.8;-0.11558716837173462;-0.1810998026249947;-0.49561563217128957;0.541;0.01037462953551223
12:10.8;-0.1155744964550927;-0.18358143286559916;-0.49615972642851225;0.541;0.010527185472934153
12:10.8;-0.11560121925651085;-0.18535394211250242;-0.4965518263230617;0.541;0.010639686345113432
12:10.8;-0.11565456148278802;-0.1864556360761239;-0.49679749876280394;0.541;0.010713162251953286
12:10.8;-0.11572289951053102;-0.18697177604776144;-0.4969137393761323;0.541;0.01075168086341054
12:10.8;-0.1157964396038509;-0.18701469171466717;-0.4969243220344941;0.541;0.010761211966289706
12:10.8;-0.11586755883587711;-0.1867069467242276;-0.49685585731707216;0.541;0.010748620954163448
12:10.8;-0.11593087040126362;-0.18616816039557013;-0.49673469462650705;0.541;0.01072084453766601
12:10.8;-0.11598308185535783;-0.18550561931301462;-0.496584698224789;0.541;0.010684274743495072
12:10.8;-0.11602271402502523;-0.18480845674078508;-0.4964258475624085;0.541;0.010644352462391421
12:10.8;-0.11604974200842472;-0.1841449357019227;-0.49627355730472;0.541;0.010605352163080537
12:10.8;-0.11606520982552693;-0.18356223336394045;-0.4961385805206409;0.541;0.010570326293390518
12:10.8;-0.11607085866895424;-0.1830880740542507;-0.49602734620463623;0.541;0.010541171363280508
12:10.8;-0.11606879678291952;-0.18273357658983633;-0.4959425854810717;0.541;0.01051877677505333
12:10.8;-0.1160612278546586;-0.18249674874868207;-0.49588411511042396;0.541;0.010503220648379304
12:10.8;-0.11605024517159435;-0.1823661589142711;-0.4958496681322471;0.541;0.010493982607542782
12:10.8;-0.1160376910918926;-0.18232442592076928;-0.4958356860273625;0.541;0.01049015037564482
12:10.8;-0.11602507574087542;-0.18235127982420957;-0.49583801175736875;0.541;0.010490604005056374
12:10.8;-0.11601354521782732;-0.1824260490705813;-0.49585244631360054;0.541;0.010494167965223318
12:10.8;-0.11600388776773778;-0.18252951700856576;-0.49587515160449236;0.541;0.010499726711652184
12:10.8;-0.11599656604197195;-0.1826451595660598;-0.49590289892564005;0.541;0.010506303607789886
12:10.8;-0.11599176440167183;-0.18275982530500468;-0.4959331747349529;0.541;0.01051310615666322
12:10.8;-0.11598944186623948;-0.18286394999875136;-0.4959641642461653;0.541;0.010519542512272767
12:10.8;-0.1159893834592947;-0.18295141264395945;-0.4959946389668401;0.541;0.01052521532818399
12:10.8;-0.11599124507955483;-0.18301914148238674;-0.4960237773728791;0.541;0.010529899335359015
12:10.8;-0.11599458939571948;-0.18306657051975378;-0.49605094906422215;0.541;0.010533508802750675
12:10.8;-0.11599891245240888;-0.1830950324769816;-0.49607549252777;0.541;0.010536060395372249
12:10.8;-0.11600366254165517;-0.183107156058193;-0.49609651542706384;0.541;0.010537636061116318
12:10.8;-0.11600825434050463;-0.18310631634999364;-0.49611274433192193;0.541;0.010538349580291477
12:10.8;-0.11601208226705509;-0.1830961689956872;-0.4961224479803242;0.541;0.010538319401462822
12:10.8;-0.11601453741307634;-0.18308028286241596;-0.4961234543330722;0.541;0.010537649432431078
12:10.8;-0.11601503223676195;-0.18306187305330723;-0.4961132765091002;0.541;0.010536418593855698
12:10.8;-0.11601303642635022;-0.18304362666619492;-0.4960893557832975;0.541;0.010534679186300041
12:10.8;-0.11600812597670135;-0.18302760765195017;-0.4960494208251992;0.541;0.010532463460837464
12:10.8;-0.11600004558622018;-0.1830152241906073;-0.4959919510248059;0.541;0.010529797199217934
12:10.8;-0.11598878204823578;-0.18300724170823876;-0.49591671810446114;0.541;0.010526718580522338
12:10.8;-0.11597464349612809;-0.1830038264196449;-0.49582536461979076;0.541;0.010523300122614529
12:10.8;-0.1159583363433704;-0.18300460747376116;-0.495721961223032;0.541;0.010519671037797
12:10.8;-0.11594102878669392;-0.18300874977458742;-0.49561346802911194;0.541;0.010516036950563865
12:10.8;-0.1159243871351265;-0.1830150337598657;-0.4955100109595111;0.541;0.010512693628822591
12:10.8;-0.11591056938142741;-0.18302194230894872;-0.4954248739190212;0.541;0.010510031234202096
12:10.8;-0.11590215979104837;-0.18302775805728408;-0.4953741048631909;0.541;0.010508525671329457
12:10.8;-0.1159020293179298;-0.18303067633523726;-0.4953756412221892;0.541;0.010508713985973892
12:10.8;-0.11591310981845648;-0.18302893943121615;-0.495447880659429;0.541;0.010511151501670715
12:10.8;-0.11593807569981654;-0.18302099671285885;-0.49560765919285854;0.541;0.010516349557416642
12:10.8;-0.11597893503223598;-0.18300569225313484;-0.49586765178886916;0.541;0.010524694359996383
12:10.8;-0.11603654326907772;-0.18298247706707757;-0.49623328067925654;0.541;0.010536349610342766
12:10.8;-0.11611006622799262;-0.1829516370987136;-0.4966993018485008;0.541;0.010551148181413622
12:10.8;-0.11619643416089022;-0.18291452112287943;-0.49724633583090777;0.541;0.010568481135502962
12:10.8;-0.1162898443803638;-0.18287374536684464;-0.4978377075914929;0.541;0.010587195607516814
12:10.8;-0.11638138430448537;-0.18283334475408208;-0.4984170510409919;0.541;0.010605516262166886
12:10.8;-0.11645885771144877;-0.18279883528200103;-0.498907202624024;0.541;0.010621007709435035
12:10.8;-0.11650690179253897;-0.18277714940606038;-0.49921093853847565;0.541;0.010630596792351954
12:10.8;-0.11650747826922078;-0.18277640777991616;-0.49921408258172195;0.541;0.010630673210106148
12:10.8;-0.11644080529975535;-0.1828054976955497;-0.4987914067548851;0.541;0.010617283543226396
12:10.8;-0.11628676522369033;-0.18287344238707937;-0.49781554609901624;0.541;0.01058642645555115
12:10.8;-0.11602677400373619;-0.18298856706379718;-0.49616883773759457;0.541;0.01053444495629592
12:10.8;-0.1156460301136143;-0.18315749774208356;-0.4937575628171479;0.541;0.010458494956675012
12:10.8;-0.11513597358510119;-0.18338406764127832;-0.4905275189471877;0.541;0.0103570486417325
12:10.8;-0.11449668178819347;-0.18366825227072978;-0.4864791913606851;0.541;0.010230368150734716
12:10.8;-0.11373881123617291;-0.18400530658610037;-0.48168004842154216;0.541;0.010080862488190883
12:10.8;-0.11288457051821633;-0.18438533294258078;-0.4762707007757533;0.541;0.009913221776773087
12:10.8;-0.11196708672508214;-0.1847935632870077;-0.47046088630259625;0.541;0.009734210660486232
12:10.8;-0.11102755845651852;-0.18521162553206047;-0.46451143777148746;0.489;0.009552024884378743
12:10.8;-0.11011020937390832;-0.18561978824027592;-0.45870232244132075;0.489;0.009375248767311915
12:10.8;-0.10925627675995689;-0.18599963538637523;-0.4532945727166749;0.489;0.009211683518445745
12:10.8;-0.10849895977062401;-0.18633631622410798;-0.4484982983530102;0.489;0.009067423067594194
12:10.8;-0.1078605620055159;-0.18661982192545992;-0.44445460017768557;0.489;0.008946390590263588
12:10.8;-0.10735184272416738;-0.18684528287818794;-0.4412314764496087;0.489;0.008850302768336595
12:10.8;-0.10697297042525146;-0.18701255612613507;-0.43882988201789636;0.489;0.008778918451708233
12:10.8;-0.10671544213170173;-0.1871253856176827;-0.43719590749568754;0.489;0.008730438639476784
12:10.8;-0.10656445490023492;-0.18719036278420115;-0.4362358250712189;0.489;0.008701961992632961
12:10.8;-0.10650134077655932;-0.18721585908921556;-0.4358315365613534;0.489;0.008689931694625704
12:10.8;-0.10650579425291695;-0.18721104933536778;-0.4358547047637775;0.489;0.008690533764388976
12:10.8;-0.10655772595790716;-0.18718509753576934;-0.4361785112994291;0.489;0.008700024580056517
12:10.8;-0.10663866377745049;-0.1871465379072846;-0.43668653746206815;0.489;0.008714978002671674
12:10.8;-0.10673269094915887;-0.18710285295304505;-0.4372786970687881;0.489;0.008732451636185046
12:10.8;-0.10682695977866406;-0.1870602288012284;-0.43787446137010505;0.489;0.008750078437867228
12:10.8;-0.10691185078802737;-0.18702345446575608;-0.43841381406321545;0.489;0.008766094584058385
12:10.8;-0.10698086258928144;-0.18699592556124903;-0.4388564738438424;0.489;0.008779317359500187
12:10.8;-0.10703032041546355;-0.18697971303747163;-0.43917994078903194;0.489;0.008789087949131047
12:10.8;-0.10705898409520015;-0.1869756623651942;-0.4393768806003796;0.489;0.008795193518358183
12:10.8;-0.10706762233652106;-0.18698349694832306;-0.4394522763940454;0.489;0.008797781151140166
12:10.8;-0.10705860226809567;-0.18700191004259076;-0.4394206687478277;0.489;0.008797273462510958
12:10.8;-0.10703552370230648;-0.1870286408961267;-0.43930368623198346;0.489;0.008794292448920597
12:10.8;-0.1070029085720044;-0.18706054205164288;-0.4391279531484365;0.489;0.00878959480554142
12:10.8;-0.10696593909663626;-0.18709365471315473;-0.43892335853691583;0.489;0.008784018882047578
12:10.8;-0.1069302247377209;-0.18712331681344418;-0.4387215881039628;0.489;0.008778440940574488
12:10.8;-0.10690156887438483;-0.18714433303357372;-0.43855476389711656;0.489;0.008773736608749201
12:10.8;-0.10688570205404462;-0.18715123672861278;-0.43845400876883434;0.489;0.008770742498345821
12:10.8;-0.10688795008200896;-0.18713866984088495;-0.4384477558444344;0.489;0.008770212935971156
12:10.8;-0.10691281227762964;-0.18710189796363402;-0.4385596577100214;0.489;0.008772767624497198
12:10.8;-0.10696343782203555;-0.1870374635676269;-0.4388060146737665;0.489;0.008778827772531972
12:10.8;-0.10704100577883206;-0.1869439612302997;-0.4391927332184956;0.489;0.008788540690251432
12:10.8;-0.10714403617554044;-0.18682289524276083;-0.4397119394783515;0.489;0.008801695884711516
12:10.8;-0.10726768405705057;-0.18667955359235736;-0.4403385004746759;0.489;0.008817639049676296
12:10.8;-0.10740309362490624;-0.18652380515831127;-0.44102683719787;0.489;0.008835193701390132
12:10.8;-0.10753691276321305;-0.186370701962167;-0.4417085344551739;0.489;0.008852603150257793
12:10.8;-0.10765108607354482;-0.1862407492433085;-0.4422913455257359;0.489;0.008867507557779085
12:10.8;-0.10772305307006941;-0.1861596974594725;-0.4426602350382423;0.489;0.008876971557692966
12:10.8;-0.10772647309212253;-0.18615771702632422;-0.44268107910623433;0.489;0.008877576956244021
12:10.8;-0.10763257532882241;-0.18626784385731865;-0.44220752508425637;0.489;0.008865592143113582
12:10.8;-0.1074121869621522;-0.18652363638206598;-0.44109128331159114;0.489;0.008837224914521326
12:10.8;-0.10703842146711154;-0.18695606663127448;-0.4391957629545249;0.489;0.008788958217236097
12:10.8;-0.10648991060520072;-0.18758978149216726;-0.43641246372012255;0.489;0.008717958258956666
12:10.8;-0.10575433768606493;-0.18843901532909363;-0.43267889527656683;0.489;0.008622530278687696
12:10.8;-0.10483187894961365;-0.18950360876700972;-0.4279960304638733;0.489;0.008502577433523428
12:10.8;-0.10373799021234692;-0.19076578392883234;-0.4224424362074215;0.489;0.008359991770682931
12:10.8;-0.10250479627021976;-0.1921885333988016;-0.4161813134237496;0.489;0.008198874447125505
12:10.8;-0.10118016304794406;-0.1937166847229494;-0.4094557755616519;0.489;0.00802545020110259
12:10.8;-0.09982357669880448;-0.195281651020288;-0.4025679195028244;0.434;0.007847543432854617
12:10.8;-0.0984988505514106;-0.19680984346785393;-0.3958417946922907;0.434;0.007673608274227327
12:10.8;-0.09726544362435535;-0.19823268728374527;-0.3895793258984749;0.434;0.007511553107712662
12:10.8;-0.09617117127578012;-0.19949503256417536;-0.3840233058060269;0.434;0.007367744780557859
12:10.8;-0.09524809159507185;-0.20055990164908474;-0.3793365121222831;0.434;0.007246445621028093
12:10.8;-0.09451158818099492;-0.20140954889123905;-0.3755970534733805;0.434;0.007149691360788054
12:10.8;-0.09396177307422852;-0.2020438435959542;-0.37280549505545646;0.434;0.0070774878138239955
12:10.8;-0.09358628915469241;-0.2024770382443195;-0.37089908938349875;0.434;0.00702819453172131
12:10.8;-0.09336376851022528;-0.2027337797101331;-0.36976933718628263;0.434;0.006998990197524998
12:10.8;-0.09326738257521633;-0.2028450143596797;-0.36928001384090303;0.434;0.006986343425263029
12:10.8;-0.0932680891587794;-0.20284424260288325;-0.369283656454034;0.434;0.006986438686377796
12:10.8;-0.09333733182976547;-0.20276440502857906;-0.36963527007058256;0.434;0.006995528073399449
12:10.8;-0.09344907278209261;-0.2026355373021588;-0.3702026494903574;0.434;0.007010195528864734
12:10.8;-0.0935811386408741;-0.20248321756218646;-0.3708732124590811;0.434;0.0070275318827831956
12:10.8;-0.09371592969200059;-0.20232774811919763;-0.3715576005950426;0.434;0.007045227400058252
12:10.8;-0.09384058876265199;-0.20218396048484688;-0.372190536663566;0.434;0.007061594087087962
12:10.8;-0.09394674987832229;-0.20206150518571547;-0.3727295481386163;0.434;0.007075533095969329
12:10.8;-0.09402999308930772;-0.20196548058022795;-0.37315219880197137;0.434;0.007086463532175589
12:10.8;-0.09408912497051823;-0.20189726283792253;-0.3734524351445085;0.434;0.007094228234680036
12:10.8;-0.0941253885665477;-0.20185541738167817;-0.37363657445433696;0.434;0.007098990145185737
12:10.8;-0.09414168583088121;-0.2018365959921022;-0.37371935626009106;0.434;0.007101130212660179
12:10.8;-0.09414187309638218;-0.2018363497347588;-0.3737203645051314;0.434;0.007101154832076971
12:10.8;-0.09413016828062354;-0.20184981304954916;-0.37366101698458853;0.434;0.007099617938823653
12:10.8;-0.09411068910144847;-0.2018722367449198;-0.3735622199512631;0.434;0.007097060313974508
12:10.8;-0.0940871256005879;-0.2018993660622128;-0.37344270469396745;0.434;0.007093966544355527
12:10.8;-0.09406253820778959;-0.20192767388544863;-0.37331800165441203;0.434;0.007090738487659772
12:10.8;-0.09403926442297728;-0.20195446857196017;-0.3731999662645404;0.434;0.0070876830166895334
12:10.8;-0.0940189126109494;-0.20197790116112838;-0.3730967474331279;0.434;0.007085011213057987
12:10.8;-0.09400241983736674;-0.20199689852316174;-0.3730130816682343;0.434;0.007082845975582874
12:10.8;-0.09399015146158513;-0.2020110481056065;-0.3729507998116962;0.434;0.007081235113731554
12:10.8;-0.09398202265327359;-0.20202045711717098;-0.37290944578595575;0.434;0.007080167320424404
12:10.8;-0.0939776254695939;-0.20202560500312458;-0.37288692432797926;0.434;0.007079588875668923
12:10.8;-0.09397634905766507;-0.20202720356126538;-0.37288011456234327;0.434;0.007079419448954711
12:10.8;-0.09397748448321278;-0.20202607454143207;-0.3728854061609617;0.434;0.007079565885031847
12:10.8;-0.09398030929979856;-0.20202305044578228;-0.37289913307215905;0.434;0.007079933331403324
12:10.8;-0.09398415004786431;-0.20201890074878828;-0.3729178952854552;0.434;0.007080433468524241
12:10.8;-0.09398842329515217;-0.20201428301311924;-0.3729387712613277;0.434;0.00708098992062426
12:10.8;-0.09399265756995212;-0.20200971641988935;-0.37295943235851897;0.434;0.007081541152512164
12:10.8;-0.09399649962965016;-0.20200557401397254;-0.37297817602275224;0.434;0.007082041300212679
12:10.8;-0.09399970902588575;-0.20200208939089906;-0.3729938970701858;0.434;0.007082459450990092
12:10.8;-0.094002144975623;-0.2019993734955214;-0.37300601664452615;0.434;0.007082777894630858
12:10.8;-0.09400374923518606;-0.2019974375274538;-0.37301438693412187;0.434;0.007082989827413819
12:10.8;-0.09400452810987615;-0.20199621852108382;-0.3730191870757603;0.434;0.007083096917290097
12:10.8;-0.09400453601273387;-0.2019956048695463;-0.37302082235817535;0.434;0.007083107046328232
12:10.8;-0.09400386219493648;-0.20199545979382208;-0.37301983529864097;0.434;0.007083032445349783
12:10.8;-0.094002621473466;-0.20199564144524326;-0.3730168337326223;0.434;0.007082888334563136
12:10.8;-0.09400094902990547;-0.2019960189215804;-0.37301243796612227;0.434;0.007082692089456992
12:10.8;-0.09399899868560382;-0.20199648394568698;-0.37300724644404404;0.434;0.007082462868001207
12:10.8;-0.09399694350178184;-0.20199695829325018;-0.3730018173655358;0.434;0.007082221566726087
12:10.8;-0.0939949771315351;-0.20199739727038288;-0.3729966622551439;0.434;0.00708199092202687
12:10.8;-0.09399331408464136;-0.20199778965226833;-0.3729922466663936;0.434;0.007081795541105088
12:10.8;-0.09399218697555473;-0.2019981545282249;-0.3729889929203932;0.434;0.007081661636160376
12:10.9;-0.09399183892993206;-0.2019985354875985;-0.37298728002440357;0.434;0.007081616247562578
12:10.9;-0.09399250964429483;-0.20199899255628012;-0.3729874366291813;0.434;0.007081685778395612
12:10.9;-0.09399441414166416;-0.20199959228399397;-0.3729897240236066;0.434;0.0070818937251775895
12:10.9;-0.09399771404913368;-0.20200039641085699;-0.3729943076818212;0.434;0.007082257578044302
12:10.9;-0.09400248223251244;-0.20200144962327887;-0.3730012177137;0.434;0.007082784977048698
12:10.9;-0.09400866282797572;-0.2020027670495876;-0.37301030064756713;0.434;0.007083469346070777
12:10.9;-0.09401603005235103;-0.20200432233930338;-0.37302116718983125;0.434;0.007084285375772332
12:10.9;-0.0940241505593298;-0.2020060373993552;-0.37303314281674255;0.434;0.0070851848820278574
12:10.9;-0.0940323554078098;-0.20200777509636;-0.37304523007065865;0.434;0.0070860937120838866
12:10.9;-0.09403972875199643;-0.20200933643575839;-0.37305609302131987;0.434;0.007086910488709908
12:10.9;-0.09404512094860054;-0.20201046384613142;-0.3730640752326699;0.434;0.00708750805005605
12:10.9;-0.09404719367921693;-0.20201085217417578;-0.3730672624384078;0.434;0.007087738433969437
12:10.9;-0.09404450367478268;-0.20201016877471;-0.37306359965812014;0.434;0.007087442143133784
12:10.9;-0.09403562949175269;-0.20200808360734154;-0.37305106939029453;0.434;0.007086462186513334
12:10.9;-0.09401934236451401;-0.20200430948577447;-0.3730279325789408;0.434;0.0070846630043420525
12:10.9;-0.09399481737152833;-0.20199865154683913;-0.37299302717010885;0.434;0.0070819538409067784
12:10.9;-0.09396187505828862;-0.20199106362430017;-0.3729461103374334;0.434;0.007078315441371993
12:10.9;-0.09392123648245865;-0.20198170757736894;-0.3728882201852518;0.434;0.0070738281478574735
12:10.9;-0.09387476681526945;-0.20197100983380933;-0.37282202154794036;0.434;0.007068698613294484
12:10.9;-0.09382567480919259;-0.2019597076147141;-0.37275208933625703;0.434;0.007063281521886388
12:10.9;-0.09377862852475467;-0.20194887572016565;-0.37268507301565323;0.434;0.00705809200563618
12:10.9;-0.09373974282027799;-0.20193992363126367;-0.37262967883206694;0.434;0.0070538039925143155
12:10.9;-0.09371639254040347;-0.201934552323459;-0.37259640416603473;0.434;0.0070512296285862005
12:10.9;-0.09371680846938496;-0.20193466090728548;-0.3725969628535246;0.434;0.007051275287686185
12:10.9;-0.09374942227359336;-0.2019421953231744;-0.3726433533527302;0.434;0.007054870604251598
12:10.9;-0.09382194295455996;-0.20195893507395324;-0.37274654483811587;0.434;0.007062868508806059
12:10.9;-0.09394017144688478;-0.2019862195388609;-0.3729147906290427;0.434;0.007075916479391675
12:10.9;-0.0941065919285138;-0.20202462277786562;-0.37315162381488404;0.434;0.007094302227288403
12:10.9;-0.09431881724175313;-0.20207359469221062;-0.3734536452079774;0.434;0.0071177809121585525
12:10.9;-0.09456800946232617;-0.20213109647443006;-0.3738082758657995;0.434;0.007145395823271946
12:10.9;-0.0948374416475041;-0.20219326866176712;-0.37419171045983035;0.434;0.007175310269467244
12:10.9;-0.09510140821090067;-0.20225417966285714;-0.3745673667121046;0.434;0.007204674935399021
12:10.9;-0.09532472280835992;-0.2023057098811459;-0.37488517086023787;0.434;0.007229561444250348
12:10.9;-0.09546305637611811;-0.20233762973268996;-0.37508203868980783;0.434;0.007244997848163026
12:10.9;-0.09546435541551339;-0.20233792696055644;-0.3750838938176795;0.434;0.0072451429130221965
12:10.9;-0.0952715328235285;-0.20229342761877514;-0.37480949689293175;0.434;0.0072236303192913685
12:10.9;-0.09482653209774433;-0.2021907339907348;-0.3741762292106167;0.434;0.007174098102146965
12:10.9;-0.09407572374058998;-0.20201746993750253;-0.3731077721495365;0.434;0.007090890708547294
12:10.9;-0.09297639607927834;-0.20176377880104365;-0.3715433440542841;0.434;0.006969881540828146
12:10.9;-0.091503851497328;-0.2014239610140049;-0.36944779867390837;0.434;0.006809317579842254
12:10.9;-0.08965831849551226;-0.20099806920411487;-0.36682146152229866;0.434;0.006610544179894545
12:10.9;-0.0874705514968247;-0.20049320046557428;-0.3637080988079663;0.434;0.006378440152637535
12:10.9;-0.08500463187801222;-0.19992414275506568;-0.36019890350361794;0.434;0.006121392398279616
12:10.9;-0.08235612947067443;-0.1993129506226721;-0.35642987901519274;0.434;0.005850669277971226
12:10.9;-0.0796438728264613;-0.19868704603851486;-0.3525701276369125;0.395;0.005579142268162912
12:10.9;-0.07699537039183156;-0.19807585404163575;-0.34880110376669926;0.395;0.005319539036629567
12:10.9;-0.07452945069868984;-0.1975067966210085;-0.34529190956996453;0.395;0.005082722136387663
12:10.9;-0.07234168354144162;-0.19700192836115385;-0.34217854820219157;0.395;0.004876540867209251
12:10.9;-0.07049615024674152;-0.19657603726239392;-0.3395522122788437;0.395;0.004705464934838904
12:10.9;-0.0690236051812955;-0.19623622046258843;-0.3374566675678845;0.395;0.004570827413853735
12:10.9;-0.06792427679205157;-0.19598253062167892;-0.3358922390925545;0.395;0.004471387966389246
12:10.9;-0.06717346742144117;-0.19580926818007843;-0.3348237801049879;0.395;0.004403999958145317
12:10.9;-0.06672846537969492;-0.19570657644955694;-0.3341905085013792;0.395;0.00436426052526651
12:10.9;-0.06653564118805735;-0.19566207921030643;-0.33391610532562455;0.395;0.004347087450435574
12:10.9;-0.06653693840970736;-0.1956623786038429;-0.33391795172426164;0.395;0.00434720289375007
12:10.9;-0.06667527006297144;-0.19569430047526237;-0.3341148084608659;0.395;0.004359520108938248
12:10.9;-0.06689858283165447;-0.19574583229184328;-0.33443259960373445;0.395;0.0043794346142191735
12:10.9;-0.06716254789562968;-0.1958067441355043;-0.3348082417893259;0.395;0.00440302295429628
12:10.9;-0.06743197920847002;-0.19586891603584244;-0.33519166254583277;0.395;0.00442715405176288
12:10.9;-0.06768117151974155;-0.19592641601807;-0.33554628133105713;0.395;0.00444952131783557
12:10.9;-0.06789339823494021;-0.195975384268641;-0.33584829495494484;0.395;0.004468607594034064
12:10.9;-0.06805982175362141;-0.1960137817156416;-0.33608512691298587;0.395;0.0044835984325216505
12:10.9;-0.0681780551704999;-0.19604105814534062;-0.33625338058087445;0.395;0.0044942611625226215
12:10.9;-0.06825058278876357;-0.1960577877208726;-0.3363565914853907;0.395;0.004500807150913075
12:10.9;-0.06828320547988069;-0.19606531021105966;-0.33640301492962493;0.395;0.004503752753438541
12:10.9;-0.06828363193226536;-0.1960654058545877;-0.33640362122367556;0.395;0.004503791195052203
12:10.9;-0.06826029319411869;-0.1960600217154878;-0.33637040867321316;0.395;0.004501683715867175
12:10.9;-0.06822141908668056;-0.1960510584272262;-0.3363150892218837;0.395;0.004498174437881178
12:10.9;-0.06817438313237384;-0.1960402188570141;-0.33624815620277704;0.395;0.004493930040586621
12:10.9;-0.06812529853009888;-0.19602891466212374;-0.3361783093414953;0.395;0.004489502756667361
12:10.9;-0.06807883141283609;-0.1960182229549979;-0.33611218896243816;0.395;0.004485313489376944
12:10.9;-0.06803818846273782;-0.19600888318711;-0.3360543583158997;0.395;0.004481650943801118
12:10.9;-0.06800523282560923;-0.19600132364623002;-0.3360074684861397;0.395;0.004478682406275136
12:10.9;-0.06798068382960606;-0.19599570733031155;-0.33597254256625253;0.395;0.004476472022514531
12:10.9;-0.0679643608951072;-0.1959919880950045;-0.33594932273465555;0.395;0.004475002946039898
12:10.9;-0.06795543893106826;-0.19598996957133347;-0.335936633700133;0.395;0.004474200411777623
12:10.9;-0.06795269032689326;-0.19598936115542218;-0.3359327271023258;0.395;0.00447395352621764
12:10.9;-0.0679546964689577;-0.19598982717442937;-0.33593558258271805;0.395;0.004474134277979265
12:10.9;-0.06796001887753594;-0.19599102697843737;-0.33594315143826825;0.395;0.004474612910661098
12:10.9;-0.06796732614461581;-0.19599264509683487;-0.3359535374259858;0.395;0.004475269334087183
12:10.9;-0.06797547763350553;-0.19599441167761222;-0.3359651160852767;0.395;0.004476000667188657
12:10.9;-0.06798356832459305;-0.19599611418658938;-0.3359765988108113;0.395;0.004476725304471823
12:10.9;-0.06799094133416997;-0.19599760179914205;-0.33598705095036935;0.395;0.004477384085878287
12:10.9;-0.06799717565858553;-0.19599878410903526;-0.33599587465288444;0.395;0.004477939240647289
12:10.9;-0.06800205681790153;-0.19599962575992386;-0.33600276735651935;0.395;0.004478371787276714
12:10.9;-0.06800553752362354;-0.19600013843297304;-0.33600766601596616;0.395;0.0044786780233832015
12:10.9;-0.06800769449924163;-0.19600037135680934;-0.33601068574396503;0.395;0.004478865650643364
12:10.9;-0.06800868634113504;-0.19600040119719842;-0.33601205977153037;0.395;0.00447894996890236
12:10.9;-0.06800871598664554;-0.19600032187980423;-0.3360120857519835;0.395;0.0044789504550824385
12:10.9;-0.06800800008163566;-0.19600023463752414;-0.3360110816262621;0.395;0.004478887928472882
12:10.9;-0.06800674639758815;-0.19600023838183508;-0.3360093526549087;0.395;0.0044787824025512984
12:10.9;-0.06800513948808293;-0.19600042039289828;-0.336007169877659;0.395;0.004478651639547012
12:10.9;-0.06800333401607381;-0.19600084731346623;-0.33600475921336453;0.395;0.004478510359509757
12:10.9;-0.06800145462391494;-0.19600155651480436;-0.3360022996567374;0.395;0.004478370010447595
12:10.9;-0.06799960083980353;-0.19600254806738088;-0.3359999285374455;0.395;0.004478238978348161
12:10.9;-0.06799785529189854;-0.19600377777445102;-0.3359977515426289;0.395;0.004478123102899321
12:10.9;-0.06799629340828792;-0.1960051519837947;-0.3359958551238392;0.395;0.004478026363455326
12:10.9;-0.06799499279432503;-0.19600652514492653;-0.3359943189752318;0.395;0.0044779516073530845
12:10.9;-0.06799404058269208;-0.19600770128275777;-0.3359932264514061;0.395;0.004477901206610692
12:10.9;-0.0679935372383748;-0.1960084406660994;-0.3359926710712526;0.395;0.004477877547495712
12:10.9;-0.0679935955712483;-0.1960084729111124;-0.33599275762018727;0.395;0.00447788327926109
12:10.9;-0.06799433407016905;-0.1960075175288155;-0.3359935968180403;0.395;0.004477921272940652
12:10.9;-0.06799586413424887;-0.19600531246268044;-0.3359952930698738;0.395;0.00447799426834054
12:10.9;-0.06799827134761177;-0.19600165044175866;-0.33599792546874796;0.395;0.004478104217320539
12:10.9;-0.0680015916246239;-0.19599642199240636;-0.336001522973814;0.395;0.004478251364099807
12:10.9;-0.06800578383179337;-0.19598966273185944;-0.3360060355327331;0.395;0.004478433138214389
12:10.9;-0.0680107013404401;-0.19598160116982583;-0.3360113038244766;0.395;0.004478642971785745
12:10.9;-0.06801606582814296;-0.1959727017716967;-0.33601703121350635;0.395;0.004478869187919923
12:10.9;-0.06802144744839399;-0.19596369663562357;-0.3360227623484568;0.395;0.0044790941383344805
12:10.9;-0.06802625612209673;-0.19595559799659526;-0.33602787349918706;0.395;0.0044792937917338075
12:10.9;-0.06802974904343112;-0.19594968312332633;-0.3360315800718673;0.395;0.004479437985289967
12:10.9;-0.0680310593915729;-0.19594744327398078;-0.33603296662121473;0.395;0.00447949154468036
12:10.9;-0.06802925054918152;-0.19595048948663266;-0.33603104393497585;0.395;0.004479416448341562
12:10.9;-0.06802339871009046;-0.19596041034065492;-0.33602483625264307;0.395;0.004479175154255754
12:10.9;-0.06801270450601174;-0.19597858061986792;-0.33601349928622737;0.395;0.004478735118953002
12:10.9;-0.06799663114586883;-0.19600592512261003;-0.33599646638352365;0.395;0.00447807441610606
12:10.9;-0.06797506257593869;-0.19604264863902904;-0.33597361595001435;0.395;0.004477188205605215
12:10.9;-0.06794847047937136;-0.19608795110312588;-0.33594544827770656;0.395;0.004476095615512538
12:10.9;-0.06791807381943565;-0.1961397556476549;-0.33591325451346404;0.395;0.00447484638510053
12:10.9;-0.06788596952282329;-0.1961944860068752;-0.3358792550915278;0.395;0.00447352638992245
12:10.9;-0.06785520838472103;-0.1962469374215468;-0.33584668017625335;0.395;0.004472260951541324
12:10.9;-0.06782978708840277;-0.19629029065134287;-0.33581976128660124;0.395;0.004471214659666162
12:10.9;-0.06781452621372061;-0.19631632044900568;-0.335803602197904;0.395;0.004470586351877603
12:10.9;-0.06781480616104761;-0.19631584636156735;-0.33580389939155475;0.395;0.004470597967488556
12:10.9;-0.06783613890959836;-0.19627946351232636;-0.3358264886701425;0.395;0.004471476284085924
12:10.9;-0.06788356418750287;-0.19619857284417697;-0.335876705842666;0.395;0.004473427114057282
12:10.9;-0.06796087439876061;-0.19606670341397434;-0.33595856608103164;0.395;0.004476602405750422
12:10.9;-0.068069693532127;-0.19588108371396032;-0.3360737886581136;0.395;0.004481061819176562
12:10.9;-0.06820846066615407;-0.19564437568857118;-0.33622072066086456;0.395;0.004486731601752965
12:10.9;-0.06837139721697998;-0.19536643644378443;-0.3363932434829601;0.395;0.004493364753407691
12:10.9;-0.06854756649334304;-0.195065922463236;-0.3365797770498096;0.395;0.004500507251208973
12:10.9;-0.0687201612021405;-0.1947715049516935;-0.33676252540030677;0.395;0.004507475213207115
12:10.9;-0.0688661751015144;-0.19452242986348156;-0.33691712901210863;0.395;0.004513347155286538
12:10.9;-0.06895662399217715;-0.19436814083005757;-0.3370128987796571;0.395;0.00451697404267143
12:10.9;-0.06895747303304892;-0.19436669719580835;-0.3370137978665305;0.395;0.004517008159801424
12:10.9;-0.06883139611600655;-0.19458177268079754;-0.3368803045637894;0.395;0.0045119507982970455
12:10.9;-0.06854043322624459;-0.19507812221372917;-0.3365722259592435;0.395;0.004500219391144573
12:10.9;-0.06804951886577904;-0.19591556286629255;-0.3360524339116378;0.395;0.0044802375367018095
12:10.9;-0.06733072606558703;-0.19714173411294167;-0.3352913587096269;0.395;0.004450555599010255
12:10.9;-0.06636790625200621;-0.19878418284602056;-0.33427190187302974;0.395;0.004410012435347927
12:10.9;-0.06516120870084398;-0.20084265383424857;-0.3329942214608336;0.395;0.004357945352871441
12:10.9;-0.0637307419831407;-0.20328284387141615;-0.3314796089014189;0.395;0.004294439811435199
12:10.9;-0.06211840544655478;-0.20603327764883408;-0.3297724282145228;0.395;0.004220578795143685
12:10.9;-0.060386687157496885;-0.20898735849523342;-0.3279388432508878;0.395;0.0041386059883512715
12:10.9;-0.058613282954408485;-0.21201254779778664;-0.32606112022574263;0.39299999999999996;0.004051880499844005
12:10.9;-0.056881564164391135;-0.21496662608102446;-0.3242275347182185;0.39299999999999996;0.003964536902972207
12:10.9;-0.05526922697074067;-0.21771705591529458;-0.3225203533579423;0.39299999999999996;0.0038809046277003506
12:10.9;-0.053838760099065464;-0.22015724289928612;-0.3210057407872185;0.39299999999999996;0.0038048787935435844
12:10.9;-0.05263206380929231;-0.22221571488655373;-0.3197280621197989;0.39299999999999996;0.0037394344431420736
12:10.9;-0.05166924774559046;-0.2238581724305159;-0.3187086100682496;0.39299999999999996;0.0036863697094696754
12:10.9;-0.050950462295127154;-0.22508436426085324;-0.3179475440168569;0.39299999999999996;0.003646270894599758
12:10.9;-0.05045955988284629;-0.22592184093878745;-0.3174277666687271;0.39299999999999996;0.0036186500861310165
12:10.9;-0.0501686142508402;-0.22641824473659372;-0.31711970914240234;0.39299999999999996;0.0036021911835870113
12:10.9;-0.05004256013440806;-0.22663339401166335;-0.3169862435435649;0.39299999999999996;0.00359504091739996
12:10.9;-0.050043437080825176;-0.22663204280152685;-0.3169871763917366;0.39299999999999996;0.0035950930624311104
12:10.9;-0.050133917694023256;-0.22647786112542267;-0.31708298438090377;0.39299999999999996;0.003600230739510766
12:10.9;-0.050279964853345044;-0.22622890129022172;-0.31723762788145526;0.39299999999999996;0.0036085086073615025
12:10.9;-0.05045259101109525;-0.2259345962223468;-0.3174204137103009;0.39299999999999996;0.0036182707816775636
12:10.9;-0.05062878552569587;-0.22563417747202366;-0.31760697701057905;0.39299999999999996;0.003628210101079988
12:10.9;-0.05079173579631578;-0.22535629851691855;-0.31777951540983446;0.39299999999999996;0.0036373798296291168
12:10.9;-0.0509304992135134;-0.2251195956769945;-0.31792644171211126;0.39299999999999996;0.003645170799081133
12:10.9;-0.05103929113813834;-0.22493390493773385;-0.31804163005842684;0.39299999999999996;0.00365126645789831
12:10.9;-0.051116545114941334;-0.22480186828523605;-0.3181234209528659;0.39299999999999996;0.003655586401670754
12:10.9;-0.051163880955993425;-0.22472069816341333;-0.3181735287675663;0.39299999999999996;0.00365822657105595
12:10.9;-0.05118508922686578;-0.22468391478114025;-0.31819596664004773;0.39299999999999996;0.003659401967565981
12:10.9;-0.051185211222370554;-0.22468292108602686;-0.31819607249381726;0.39299999999999996;0.003659395722578176
12:10.9;-0.05116976495453302;-0.2247083287847854;-0.3181796896639547;0.39299999999999996;0.0036585167334811297
12:10.9;-0.051144142253472434;-0.22475099198377108;-0.3181525286868287;0.39299999999999996;0.0036570668233833993
12:10.9;-0.05111318117148285;-0.22480274052761504;-0.3181197146677504;0.39299999999999996;0.0036553174264176043
12:10.9;-0.05108090208916519;-0.22485683191469555;-0.31808550791593704;0.39299999999999996;0.003653495095707164
12:10.9;-0.0510503852523261;-0.22490815878793807;-0.3180531742359215;0.39299999999999996;0.003651774640367581
12:10.9;-0.05102376148205476;-0.22495325921409803;-0.3180249749261792;0.39299999999999996;0.0036502784000345305
12:10.9;-0.051002285777833944;-0.22499018053338227;-0.3180022443977233;0.39299999999999996;0.0036490800426510045
12:10.9;-0.05098646461026691;-0.22501824598727432;-0.3179855244732744;0.39299999999999996;0.003648211301699791
12:10.9;-0.05097621097979234;-0.2250377681669099;-0.317974727913067;0.39299999999999996;0.0036476702234386044
12:10.9;-0.05097100595705522;-0.2250497460175103;-0.3179693086435707;0.39299999999999996;0.0036474297375595397
12:10.9;-0.05097005068506056;-0.2250555739336232;-0.3179684217626777;0.39299999999999996;0.0036474456583629844
12:10.9;-0.05097239811916982;-0.22505678337079196;-0.317971062029829;0.39299999999999996;0.0036476635324755673
12:10.9;-0.050977058665791844;-0.2250548300828457;-0.3179761747518588;0.39299999999999996;0.00364802404348203
12:10.9;-0.050983078057024574;-0.22505093399305842;-0.31798273742780764;0.39299999999999996;0.0036484669412779453
12:10.9;-0.05098958909781596;-0.22504597399386053;-0.31798981403651505;0.39299999999999996;0.0036489336700278483
12:10.9;-0.05099584128103056;-0.22504043660610573;-0.3179965863680012;0.39299999999999996;0.003649369015786998
12:10.9;-0.051001213700471934;-0.22503441521781947;-0.31800236832575557;0.39299999999999996;0.00364972218089587
12:10.9;-0.051005217273893615;-0.2250276552597228;-0.31800660973233463;0.39299999999999996;0.00364994771859298
12:10.9;-0.051007492122679896;-0.22501963980228243;-0.31800889596137266;0.39299999999999996;0.003650006731547583
12:10.9;-0.05100780516500019;-0.22500970931403283;-0.31800894882070896;0.39299999999999996;0.003649868657174804
12:10.9;-0.05100605169420283;-0.22499720838238832;-0.3180066326578245;0.39299999999999996;0.0036495138367288386
12:10.9;-0.051002263064471365;-0.22498165082675084;-0.318001967787785;0.39299999999999996;0.003648936901691363
12:10.9;-0.05099662072213361;-0.22496289270551648;-0.3179951511968487;0.39299999999999996;0.003648150819288791
12:10.9;-0.050989474837461086;-0.2249413002513259;-0.3179865822009733;0.39299999999999996;0.0036471912312565895
12:10.9;-0.05098136385022408;-0.22491789693908382;-0.31797688850030453;0.39299999999999996;0.003646120511797614
12:10.9;-0.050973029497434506;-0.22489447104028434;-0.3179669460501759;0.39299999999999996;0.0036450307812651932
12:10.9;-0.05096542051444394;-0.2248736226441125;-0.31795788457053414;0.39299999999999996;0.0036440449639123414
12:10.9;-0.05095967737739717;-0.22485872786428782;-0.3179510695647788;0.39299999999999996;0.003643314895771775
12:10.9;-0.050957090382629605;-0.22485379852725831;-0.3179480516555239;0.39299999999999996;0.0036430154976552823
12:10.9;-0.050959024231697486;-0.22486321880970414;-0.3179504751073315;0.39299999999999996;0.003643334152386841
12:10.9;-0.05096680428302445;-0.22489134676680514;-0.3179599398086811;0.39299999999999996;0.003644454685641118
12:10.9;-0.05098156286900203;-0.22494197901763424;-0.31797781488388827;0.39299999999999996;0.0036465357626104763
12:10.9;-0.0510040486075347;-0.22501769130612911;-0.31800500756044936;0.39299999999999996;0.0036496840890848994
12:10.9;-0.05103440739032067;-0.22511908610802142;-0.3180416978479177;0.39299999999999996;0.0036539235492976997
12:10.9;-0.05107195048463754;-0.2252440002480762;-0.3180870577251661;0.39299999999999996;0.003659162317624132
12:10.9;-0.05111493253319833;-0.22538674932821925;-0.3181389823927342;0.39299999999999996;0.0036651610229935985
12:10.9;-0.05116036956043364;-0.22553750962618022;-0.318193869981104;0.39299999999999996;0.0036715061695650982
12:10.9;-0.051203933558986;-0.22568195924435136;-0.31824649390657606;0.39299999999999996;0.0036775941221049145
12:10.9;-0.051239964801273775;-0.22580131522023938;-0.3182900175821547;0.39299999999999996;0.003682631877526497
12:10.9;-0.05126164450518115;-0.2258729080703761;-0.318316202980217;0.39299999999999996;0.0036856613090725764
12:10.9;-0.051261367611831574;-0.2258714255851629;-0.31831586107345217;0.39299999999999996;0.0036856132517644343
12:10.9;-0.05123134698249628;-0.2257709295211301;-0.3182795819702145;0.39299999999999996;0.003681396326086912
12:10.9;-0.051164465269986116;-0.2255476987246234;-0.31819876437547634;0.39299999999999996;0.0036720224589413364
12:10.9;-0.051055368445482405;-0.22518387807313509;-0.31806693709666006;0.39299999999999996;0.0036567665499188844
12:10.9;-0.05090176546417579;-0.22467181441705508;-0.31788132967334615;0.39299999999999996;0.0036353519205891745
12:10.9;-0.05070586268653411;-0.22401884127751567;-0.3176446058726878;0.39299999999999996;0.0036081468701205537
12:10.9;-0.05047582136744638;-0.22325213982979764;-0.31736662509096975;0.39299999999999996;0.003576352173898482
12:10.9;-0.05022708497197946;-0.2224231652983989;-0.31706604648926884;0.39299999999999996;0.003542156359147213
12:10.9;-0.049983384827494926;-0.2216110004823639;-0.31677154446958483;0.39299999999999996;0.0035088365586240216
12:10.9;-0.049777203587911864;-0.22092390141700471;-0.31652236900912495;0.39299999999999996;0.003480788268194621
12:10.9;-0.04964946327514042;-0.2204982578541605;-0.31636796900413305;0.39299999999999996;0.0034634763540440463
12:10.9;-0.04964821623535274;-0.2204942298426013;-0.3163664107500796;0.39299999999999996;0.0034633090354765283
12:10.9;-0.049826161460123364;-0.22108746873599466;-0.31658137697960764;0.39299999999999996;0.0034874414267144576
12:10.9;-0.05023689315389953;-0.22245661238145664;-0.31707763389472093;0.39299999999999996;0.003543510314271744
12:10.9;-0.05092991950963251;-0.22476668114917978;-0.31791501201544237;0.39299999999999996;0.0036392840883229527
12:10.9;-0.05194467114254219;-0.2281491063849202;-0.319141165967138;0.39299999999999996;0.0037821835428096763
12:10.9;-0.0533039505348674;-0.23267989582805074;-0.32078365855294627;0.39299999999999996;0.0039786019775750435
12:10.9;-0.05500755131221586;-0.23835836537499883;-0.32284224974744913;0.39299999999999996;0.004232949390525708
12:10.9;-0.057027088652114234;-0.24508990810878908;-0.32528264885274144;0.39299999999999996;0.004546398789460303
12:10.9;-0.05930341300560337;-0.2526773743905883;-0.3280333879058922;0.39299999999999996;0.004915459171974669
12:10.9;-0.06174830632717107;-0.26082672680292107;-0.33098786961195314;0.39299999999999996;0.005330761087572832
12:10.9;-0.0642520778343749;-0.26917235977668924;-0.334013543832447;0.46799999999999997;0.005776725298355335
12:10.9;-0.06669702048547164;-0.27732195426255407;-0.33696816591351075;0.46799999999999997;0.006232747877032604
12:10.9;-0.06897343465922047;-0.2849098887885296;-0.33971915742108355;0.46799999999999997;0.006675893725855547
12:10.9;-0.07099308505634588;-0.2916420933889293;-0.34215986599809917;0.46799999999999997;0.007084273561212811
12:10.9;-0.07269679735004941;-0.2973213679788966;-0.344218745031746;0.46799999999999997;0.007440051088313095
12:10.9;-0.0740561558517291;-0.3018530359832566;-0.34586140662891074;0.46799999999999997;0.007731411988396446
12:10.9;-0.07507091930898077;-0.30523632368205217;-0.3470875021837644;0.46799999999999997;0.007953291942120234
12:10.9;-0.07576385412084609;-0.30754712982286164;-0.34792448403016407;0.46799999999999997;0.008106973051674782
12:10.9;-0.076174357205182;-0.3089167601156358;-0.34841990635814496;0.46799999999999997;0.008198855441265826
12:10.9;-0.0763519098040365;-0.3095100983200723;-0.3486335234952085;0.46799999999999997;0.008238798343425512
12:10.9;-0.07635009093044796;-0.30950564395620916;-0.3486300657147657;0.46799999999999997;0.00823840179957006
12:10.9;-0.07622160155907762;-0.30907892157085326;-0.3484732370202687;0.46799999999999997;0.008209503412582267
12:10.9;-0.07601451860348146;-0.30838999313965554;-0.3482211986401853;0.46799999999999997;0.00816304203535822
12:10.9;-0.07576981606664136;-0.30757519974174236;-0.34792358215613817;0.46799999999999997;0.008108329964804246
12:10.9;-0.07552005950895227;-0.3067428210995623;-0.3476199173215297;0.46799999999999997;0.00805269745899166
12:10.9;-0.0752890954127232;-0.3059720594305774;-0.34733925723975967;0.46799999999999997;0.008001432024669264
12:10.9;-0.07509251283118756;-0.30531460625905354;-0.3471007300945725;0.46799999999999997;0.00795792324571674
12:10.9;-0.0749386431432644;-0.30479801152532693;-0.3469147327511494;0.46799999999999997;0.007923931245544826
12:10.9;-0.07482987656675123;-0.30443011607853593;-0.34678449738991624;0.46799999999999997;0.007899913148932486
12:10.9;-0.07476410337973627;-0.3042039050257025;-0.34670779835762755;0.46799999999999997;0.007885359977276482
12:10.9;-0.07473612647574075;-0.30410226686837516;-0.3466786140901174;0.46799999999999997;0.007879112366630709
12:10.9;-0.0747389340317515;-0.30410228231821923;-0.3466886111547776;0.46799999999999997;0.007879635971736033
12:10.9;-0.07476476213973056;-0.30417880209074494;-0.34672836863998874;0.46799999999999997;0.007885246556616762
12:10.9;-0.07480591402390924;-0.30430719430019276;-0.34678830732317906;0.46799999999999997;0.007894281333947541
12:10.9;-0.07485533295254168;-0.30446524293489335;-0.3468593267551826;0.46799999999999997;0.007905217892513425
12:10.9;-0.07490694921528565;-0.3046342564180337;-0.34693318329103;0.46799999999999997;0.007916745597468399
12:10.9;-0.07495583746159172;-0.304799499347858;-0.3470026628006272;0.46799999999999997;0.007927796936507064
12:10.9;-0.07499822975988565;-0.30495009301642556;-0.3470616135983007;0.46799999999999997;0.007937547995225296
12:10.9;-0.07503143279715606;-0.30507854428126974;-0.34710490875021943;0.46799999999999997;0.00794539807338319
12:10.9;-0.07505369574123999;-0.30518006140679604;-0.3471284032881602;0.46799999999999997;0.007950938405246515
12:10.9;-0.0750640695300093;-0.30525180321675777;-0.3471289419961784;0.46799999999999997;0.007953919080571418
12:10.9;-0.07506228978003893;-0.3052921875624241;-0.34710445837308673;0.46799999999999997;0.007954221696519765
12:10.9;-0.0750487050662798;-0.30530035938803507;-0.3470541861358025;0.46799999999999997;0.007951843164269893
12:10.9;-0.07502426083973261;-0.30527588957658947;-0.34697898228201973;0.46799999999999997;0.007946893623929424
12:10.9;-0.07499053744607748;-0.3052187446723936;-0.3468817364562955;0.46799999999999997;0.007939608765241628
12:10.9;-0.07494982924387074;-0.3051295354056888;-0.34676781655509226;0.46799999999999997;0.007930374184241749
12:10.9;-0.07490524133813681;-0.30501001931857696;-0.34664547686432684;0.46799999999999997;0.007919756903754018
12:10.9;-0.07486077161456685;-0.30486380031520505;-0.3465261346241676;0.46799999999999997;0.007908537030740594
12:10.9;-0.0748213393141517;-0.30469713646997465;-0.34642440623177434;0.46799999999999997;0.007897730899903732
12:10.9;-0.07479271813467972;-0.30451973822732936;-0.3463577881371187;0.46799999999999997;0.007888596128042522
12:10.9;-0.07478133264500011;-0.30434541415736066;-0.34634587287226365;0.46799999999999997;0.007882608900369636
12:10.9;-0.07479388250896306;-0.3041924033626389;-0.34640901054450923;0.46799999999999997;0.007881404581354234
12:10.9;-0.07483677039928929;-0.3040832258324003;-0.34656636307993605;0.46799999999999997;0.007886674369424279
12:10.9;-0.07491532706656698;-0.30404388841203606;-0.3468333542306328;0.46799999999999997;0.007900013146112262
12:10.9;-0.07503285094763522;-0.30410230871095795;-0.34721859317209225;0.46799999999999997;0.00792271691659148
12:10.9;-0.07518950950156109;-0.3042858660518363;-0.3477204417727662;0.46799999999999997;0.007955532503770797
12:10.9;-0.07538118393237163;-0.30461806040805184;-0.3483235011573978;0.46799999999999997;0.007998367959812987
12:10.9;-0.07559837594411921;-0.3051143584665919;-0.348995404874538;0.46799999999999997;0.008049980350226782
12:10.9;-0.07582533147653299;-0.30577742928939416;-0.34968441342347206;0.46799999999999997;0.008107669139091772
12:10.9;-0.07603956771180553;-0.3065921160153014;-0.3503183944464674;0.46799999999999997;0.008167018959725561
12:10.9;-0.07621201076028093;-0.3075206460958313;-0.3508058280301968;0.46799999999999997;0.008221754379858387
12:10.9;-0.07630795631415961;-0.308498737590656;-0.3510394787727002;0.46799999999999997;0.00826378814121908
12:10.9;-0.0762890478692341;-0.30943339526312885;-0.35090330649081786;0.46799999999999997;0.008283556481717925
12:10.9;-0.07611642081623121;-0.3102032854679454;-0.3502830280873843;0.46799999999999997;0.008270730071086255
12:10.9;-0.07575508086928374;-0.31066260762741116;-0.3490804807137266;0.46799999999999997;0.008215354621317316
12:10.9;-0.07517946910778414;-0.3106493153995168;-0.34723156477238615;0.46799999999999997;0.008109402429859804
12:10.9;-0.07438001375933483;-0.30999835645630663;-0.3447270690927398;0.46799999999999997;0.007948607142341337
12:10.9;-0.07337028552632417;-0.30856027465633545;-0.34163511868744556;0.46799999999999997;0.00773433056037975
12:10.9;-0.07219416900259631;-0.30622503963803915;-0.33812337435290307;0.46799999999999997;0.007475117363911986
12:10.9;-0.07093225411063313;-0.302950337417209;-0.3344785095811872;0.46799999999999997;0.007187592074353698
12:10.9;-0.06970646186776372;-0.2987927910401355;-0.331119971636584;0.46799999999999997;0.006896496669493805
12:10.9;-0.06868177816215446;-0.2939397257927758;-0.3286046986192707;0.46799999999999997;0.006633971236075284
12:10.9;-0.06806391330552339;-0.2887382193695299;-0.32761942873894084;0.46799999999999997;0.0064385909920348285
12:10.9;-0.06809177348559872;-0.28371738396867735;-0.3289576291374062;0.46799999999999997;0.006355073173326031
12:10.9;-0.06902386330262691;-0.2795992443495992;-0.33347901901423416;0.46799999999999997;0.00643581826470739
12:10.9;-0.07111817359860398;-0.2772933596228481;-0.34205128518886596;0.46799999999999997;0.006745455646846493
12:10.9;-0.07460577479775733;-0.2778706621799555;-0.3554759825259613;0.46799999999999997;0.007369285873780645
12:10.9;-0.07965924796262784;-0.2825130373539175;-0.37440383075413086;0.46799999999999997;0.008425874380325911
12:10.9;-0.08635823861597314;-0.2924371160554046;-0.3992486597976278;0.46799999999999997;0.010082767087760033
12:10.9;-0.09465543389303432;-0.3087938394986105;-0.43011244930954234;0.547;0.01257176317287165
12:10.9;-0.10434603879065568;-0.3325499575122457;-0.4667313185652697;0.547;0.016195703129375474
12:10.9;-0.11504226855223568;-0.3643637574431632;-0.5084437188263873;0.547;0.02131255394865105
12:10.9;-0.1261541340561593;-0.40447415266177633;-0.5541799162690751;0.547;0.0282776323314429
12:10.9;-0.13688113541997304;-0.45262798879028765;-0.6024840326282557;0.649;0.03732764112145058
12:10.9;-0.14622489036048733;-0.5080689895367217;-0.6515905630870119;0.873;0.04840818263026037
12:10.9;-0.15303652437439583;-0.5695939112655414;-0.6995673083082594;0.873;0.06098035357906327
12:10.9;-0.15611041267948295;-0.6356533036835764;-0.7445122246709;1.15;0.07387951120152451
12:10.9;-0.1543236263480782;-0.7044615732538583;-0.7847692643611682;1.15;0.08531624127693224
12:10.9;-0.14680150357000424;-0.7740951883899404;-0.8191125280115122;1.237;0.09308258595939359
12:11.0;-0.13307707581108713;-0.8425794727282052;-0.8468486112664849;1.209;0.09495545155885814
12:11.0;-0.11321359033339742;-0.9079708920823292;-0.8678208353716551;1.209;0.08920733435792738
12:11.0;-0.08786836979188146;-0.968432037016609;-0.8823502612586696;1.433;0.0750831934361574
12:11.0;-0.058284660575860375;-1.0222873129466725;-0.8911645225413133;1.433;0.053098851976731934
12:11.0;-0.02620615290165345;-1.0680493848394514;-0.89532653471529;1.445;0.025059711141772984
12:11.0;0.006279993401174338;-1.1044158303371423;-0.8961336224947704;1.3519999999999999;0.006215335586256924
12:11.0;0.036950724859217736;-1.130248777290008;-0.8949655472517641;1.3519999999999999;0.03737690400718843
12:11.0;0.06367348359252575;-1.1445646152770794;-0.893097912622126;1.3619999999999999;0.06508756142935916
12:11.0;0.08462103881650151;-1.146564054789689;-0.8915219556004921;1.3619999999999999;0.08649852820350402
12:11.0;0.09845171476790486;-1.1357168752895266;-0.8908140299918392;1.429;0.09960483309656987
12:11.1;0.10443715614124312;-1.1118908305048578;-0.8910842314263965;1.557;0.10347512138523911
12:11.1;0.10252302512291757;-1.0754924446031806;-0.892003709089267;1.557;0.09835477208880491
12:11.1;0.09331026820893996;-1.0275721684468246;-0.8928787805383168;1.405;0.08561192704529719
12:11.1;0.07795460435240689;-0.9698462038949319;-0.8927351841751698;1.405;0.06749433042727253
12:11.1;0.05800600595777246;-0.9046085569519706;-0.8904010646862903;1.215;0.04672177407490023
12:11.1;0.035228221635619006;-0.8345400356685683;-0.8846023819494334;1.131;0.02600674506944775
12:11.1;0.011432809763855478;-0.7624545325987231;-0.874086319894432;1.131;0.007619408374381673
12:11.1;-0.011654352931907296;-0.6910429971238925;-0.8577739731187385;1.072;0.00690821906107905
12:11.1;-0.032488806062749044;-0.6226669338728132;-0.8349281916452599;1.072;0.016890351227142813
12:11.2;-0.049770080719682065;-0.5592267045955419;-0.8053106657598452;1.07;0.022414017058782734
12:11.2;-0.06248190023985565;-0.5021085553530075;-0.7692939710360104;1.012;0.02413482639963733
12:11.2;-0.06991935945864239;-0.45220257866986635;-0.727893003341285;0.907;0.023014313272569052
12:11.2;-0.07170646935461662;-0.4099764333413384;-0.6826948196384549;0.769;0.020069836743203628
12:11.2;-0.06780217164371102;-0.3755831479750617;-0.6356985160431932;0.769;0.01618828715424826
12:11.2;-0.05848876170991409;-0.34897528361534014;-0.589107270538887;0.684;0.012024346382501125
12:11.2;-0.04433472037740186;-0.3299989855484422;-0.5451185324943696;0.547;0.00797530912758528
12:11.2;-0.02612979540983926;-0.3184556690440121;-0.5057429446010824;0.547;0.004208378823862493
12:11.2;-0.0048024273205260004;-0.3141375344184413;-0.47267148493458505;0.551;0.0007130829212715179
12:11.2;0.01866470901393573;-0.3168490418317672;-0.44720241060161836;0.57;0.0026447081747877125
12:11.3;0.043311741881820014;-0.3264165166168368;-0.4302243129533616;0.561;0.006082368464921998
12:11.3;0.06826755235558497;-0.3426779188510422;-0.4222369807079313;0.586;0.009877720202565572
12:11.3;0.09279555275744597;-0.3654474110296664;-0.42338732097752035;0.611;0.014357866165977801
12:11.3;0.11630472546362526;-0.394457930291352;-0.4335012339077214;0.575;0.01988787538737295
12:11.3;0.13832099588476895;-0.4292885710167288;-0.45210262021910835;0.575;0.026845682994460898
12:11.3;0.1584342852197732;-0.4692859900409482;-0.4784264122869286;0.6;0.035571477585038286
12:11.3;0.17625008775449919;-0.513496513187449;-0.5114441397478832;0.6679999999999999;0.046287640953440796
12:11.3;0.19137294272077535;-0.560632211990375;-0.5499177066280849;0.7709999999999999;0.05900058066356808
12:11.3;0.20343665750809228;-0.609092856566777;-0.5924803223289622;0.882;0.07341531200388024
12:11.3;0.2121777238554515;-0.6570556146591235;-0.6377253378039041;0.9790000000000001;0.08890692495875187
12:11.3;0.21752900785976398;-0.7026258973624672;-0.6842800141184029;1.0490000000000002;0.10458639359718237
12:11.4;0.21969861368087615;-0.7440224325671884;-0.7308548206202358;1.129;0.11946603837159238
12:11.4;0.21920025104447952;-0.7797606505294338;-0.7762741254745988;1.198;0.1326836693008136
12:11.4;0.21681655497700383;-0.8088019752970158;-0.8195001810059432;1.162;0.14370891042537673
12:11.4;0.2135005684178565;-0.8306429572996462;-0.859666010951979;1.271;0.15245552890666988
12:11.4;0.21024180600612652;-0.8453281681281292;-0.8961308456459265;1.4180000000000001;0.15926334970135494
12:11.4;0.20792753376791634;-0.8533886513685947;-0.9285434162039149;1.415;0.16476352719580928
12:11.4;0.20721607100160488;-0.8557229033577199;-0.9568590649481624;1.2590000000000001;0.16966980723191252
12:11.4;0.2084270635041451;-0.8534412994467596;-0.9812636144147437;1.169;0.17454743070409665
12:11.4;0.21146099680916328;-0.8476966212795065;-1.002020844473499;1.2009999999999998;0.17961701854393478
12:11.4;0.21577560466577345;-0.8395273270330678;-1.0193158520955587;1.247;0.1846485738942919
12:11.5;0.22044516410786955;-0.8297371404435296;-1.0331620278663054;1.249;0.1889772576810504
12:11.5;0.22430485333423353;-0.8188240098561256;-1.0433962953964542;1.297;0.19163663208245355
12:11.5;0.22615386336854632;-0.8069636292974751;-1.0497502444849047;1.449;0.191577259614105
12:11.5;0.22497204154670736;-0.7940483761143577;-1.0519614679385867;1.484;0.18792101252612936
12:11.5;0.2200978452599793;-0.7797736214015475;-1.04987157754245;1.3730000000000002;0.18018577785798176
12:11.5;0.2113233331886694;-0.7637495618287967;-1.0434635911496517;1.297;0.16841304429369036
12:11.5;0.19888800418379224;-0.7456096703126331;-1.0328336134358884;1.291;0.15316180833048537
12:11.5;0.18338738060092774;-0.7250940751807146;-1.018133278257354;1.247;0.13538434141656402
12:11.5;0.16563458375023607;-0.7020996094709362;-0.9995229522625516;1.212;0.11623649974161765
12:11.5;0.14651460514578132;-0.6766977960159117;-0.9771536709207488;1.216;0.0968809857214788
12:11.6;0.12685988224165073;-0.6491277816504144;-0.9511764755358715;1.114;0.07832774097266937
12:11.6;0.10736362500086016;-0.6197761029727671;-0.9217692579493513;1.114;0.06133582529275605
12:11.6;0.08853688008831528;-0.5891567892077771;-0.8891710718314034;1.114;0.04638103392204389
12:11.6;0.07070535226162801;-0.5578988244810271;-0.8537160396412258;1.052;0.03367605248299058
12:11.6;0.05403465990471936;-0.5267356339605109;-0.815858311987655;0.973;0.023220943644561683
12:11.6;0.03857101714352809;-0.4964845872195395;-0.7761822550684938;0.909;0.01486382461667613
12:11.6;0.024287053312917337;-0.4680099429931488;-0.7354016833206394;0.88;0.00835900385736815
12:11.6;0.011125458225306539;-0.4421731242164796;-0.6943567747203649;0.84;0.0034158038734778337
12:11.6;-0.0009656002460152956;-0.4197799344069717;-0.654010199354281;0.7859999999999999;0.0002650962377921848
12:11.6;-0.0120105825850372;-0.40153288226788586;-0.6154352362474714;0.745;0.0029680249529073304
12:11.7;-0.022001421638940942;-0.3879922224862075;-0.579788746036841;0.6890000000000001;0.004949297333930986
12:11.7;-0.030907950860063916;-0.3795462666486457;-0.5482679104242392;0.6890000000000001;0.006431729409045105
12:11.7;-0.038697485686725146;-0.3763908178512457;-0.5220532833682796;0.64;0.007603903557923135
12:11.7;-0.04535498923866858;-0.37851774147297557;-0.5022400863591758;0.612;0.00862229110468582
12:11.7;-0.050897739701382984;-0.38571340965546413;-0.4897601553327706;0.6;0.009614942338458582
12:11.7;-0.05538203648227799;-0.3975692870752466;-0.48530132574523743;0.595;0.010685460078649563
12:11.7;-0.05890175554541349;-0.4135076099943395;-0.4892351754868844;0.608;0.011915970524659836
12:11.7;-0.06158040235307791;-0.4328229356128839;-0.5015647985957667;0.638;0.013368412480699149
12:11.7;-0.06356012603071068;-0.45473598677822835;-0.5219028052944571;0.6729999999999999;0.015084596775006644
12:11.7;-0.064991847490015;-0.47845259090679004;-0.5494864099045591;0.7240000000000001;0.017086564450714496
12:11.8;-0.06602964517541761;-0.5032190382436142;-0.5832301699313288;0.8390000000000001;0.01937920729976814
12:11.8;-0.06683045421203607;-0.5283641820953698;-0.6218073725942637;0.8390000000000001;0.021956527138096926
12:11.8;-0.06755778482630075;-0.5533181649776672;-0.6637427389520009;0.878;0.024811333825698455
12:11.8;-0.06838579754990196;-0.577602372725857;-0.707500801828404;0.9059999999999999;0.02794613941190396
12:11.8;-0.06949810183220897;-0.6007960599501124;-0.7515652403885312;0.956;0.03138099465403578
12:11.8;-0.07107647734211422;-0.6224943862560145;-0.7945118410433991;1.025;0.03515294452099264
12:11.8;-0.07328094931978492;-0.6422726312097298;-0.8350753310794599;1.08;0.039303946253344275
12:11.8;-0.0762305899253766;-0.6596640318557339;-0.8722036057203907;1.1159999999999999;0.04386013491339883
12:11.8;-0.0799950457192137;-0.6741538481731426;-0.9050880219106877;1.138;0.04881046288608347
12:11.8;-0.08459743377819948;-0.68519427132568;-0.9331600016815252;1.124;0.054091251240889315
12:11.9;-0.09001815832312252;-0.6922455660782876;-0.9560553240996028;1.19;0.05957627294628663
12:11.9;-0.09618664117026479;-0.6948425877678721;-0.973560753682485;1.19;0.06506751887749908
12:11.9;-0.10295671178916957;-0.6926791512813145;-0.9855588624185908;1.217;0.07028608403894013
12:11.9;-0.11007506947661239;-0.685698980081609;-0.9919788660039371;1.198;0.07487294081012139
12:11.9;-0.11716145167822259;-0.6741749957857673;-0.9927613535980563;1.194;0.07841555990307865
12:11.9;-0.12371810848028691;-0.6587514973747981;-0.9878531719643232;1.202;0.0805095289332916
12:11.9;-0.12917465211571447;-0.6404281374952678;-0.9772479814653219;1.205;0.0808448737661296
12:11.9;-0.13295933337652785;-0.6204796370336726;-0.9610720263381353;1.207;0.07928705718517248
12:11.9;-0.13457912897946964;-0.6003196507663244;-0.9396945275452359;1.195;0.07591838669578191
12:11.9;-0.13369128650800655;-0.5813287200123143;-0.9138270629016718;1.212;0.07102134577224099
12:12.0;-0.13015403587813343;-0.5646782178893993;-0.8845692269192748;0.998;0.0650115471604716
12:12.0;-0.12405044993684372;-0.5511876047682398;-0.8533698271264405;0.998;0.05834922198235348
12:12.0;-0.11568447006296034;-0.5412408692399566;-0.8219100071362063;0.925;0.05146238535864835
12:12.0;-0.10555069996594613;-0.5347676592881868;-0.7919494457943275;0.9009999999999999;0.04470166626232595
12:12.0;-0.09428228678616468;-0.5312834490836268;-0.7651777202216274;0.9329999999999999;0.03832822527692587
12:12.0;-0.08258585129886792;-0.5299820245273233;-0.7430888331839515;0.9209999999999999;0.032524267525943173
12:12.0;-0.07117436058135293;-0.5298699248588712;-0.7268757651689608;0.875;0.02741277701149553
12:12.0;-0.06070394091459687;-0.5299244164749941;-0.7173385165067474;0.867;0.023075704403172848
12:12.0;-0.05171365046504905;-0.5292525178968118;-0.7148113142689088;0.882;0.01956408524939913
12:12.0;-0.044565945392770055;-0.52723010596231;-0.7191262524873033;0.899;0.016896955824933595
12:12.1;-0.03939170788856648;-0.5236024168316868;-0.7296279084431222;0.9309999999999999;0.015049008611934629
12:12.1;-0.036052676126462485;-0.5185301277678487;-0.745240203854244;0.9309999999999999;0.01393181754151396
12:12.1;-0.034138883893684475;-0.512571404062926;-0.7645750051096086;0.9420000000000001;0.013379004150412805
12:12.1;-0.033014104935963996;-0.5065996794454926;-0.7860677616221546;0.956;0.013146932201227543
12:12.1;-0.031909115248515064;-0.5016687599776877;-0.8081250145175942;0.98;0.01293630868137548
12:12.1;-0.030047146358976918;-0.4988489143677088;-0.8292658439187378;1.008;0.012429854407575111
12:12.1;-0.026775207379362998;-0.49906343054317026;-0.8482363654920365;1.004;0.011334581207549089
12:12.1;-0.021673437715957488;-0.502951083453515;-0.8640799421091535;0.998;0.009419058063201253
12:12.1;-0.014621996629484539;-0.5107705403695227;-0.8761578643302369;0.965;0.006543571972278795
12:12.1;-0.0058145693579043116;-0.5223539218830302;-0.8841311151341203;1.018;0.0026853388187751794
12:12.2;0.004285253199487156;-0.5371112183010736;-0.8879234903473541;0.992;0.002043695820213208
12:12.2;0.015037609778968073;-0.5540850474310809;-0.8876839650038086;0.992;0.007396284638288881
12:12.2;0.025746648063339747;-0.5720542331053401;-0.8837586800921126;1.0659999999999998;0.01301642117221099
12:12.2;0.035777392654810086;-0.589680643788105;-0.8766762520126298;1.135;0.018495445726224573
12:12.2;0.04464956588538747;-0.6056814758975869;-0.8671387816516505;1.224;0.023450393903277765
12:12.2;0.05210114750152489;-0.6189919813559674;-0.8559957998941132;1.097;0.02760602934536901
12:12.2;0.05811631654939355;-0.6288790545771005;-0.8441779769821912;0.981;0.030853129997411577
12:12.2;0.0629105859969486;-0.6349856982313117;-0.832596082803419;0.9690000000000001;0.03325998412825456
12:12.2;0.06687178767511703;-0.6373159693164262;-0.8220466579597306;1.069;0.035034361115983174
12:12.2;0.07046823594307922;-0.6361851973179711;-0.8131645283961618;1.111;0.036454855849739794
12:12.3;0.07414470832729533;-0.6321536354404996;-0.8064201969704979;1.005;0.03779759760360636
12:12.3;0.07822780331713397;-0.6259480199790608;-0.8021284124652426;1.005;0.03927745186605969
12:12.3;0.08285799904993012;-0.6183730834500785;-0.8004450768236767;0.963;0.041012529559614555
12:12.3;0.08795858175726091;-0.6102230111131537;-0.8013572807216542;0.99;0.04301233165186116
12:12.3;0.09324219679497374;-0.6022060762490321;-0.8046819174179307;0.996;0.045183708404933125
12:12.3;0.09824830877488325;-0.5948886806580976;-0.8100815515426086;1.006;0.047346679922277334
12:12.3;0.10240325286821536;-0.5886564911663504;-0.8170968447880763;0.976;0.04925487522244128
12:12.3;0.10509676427073734;-0.5836907878333149;-0.8251901864371277;0.9940000000000001;0.05062047763643049
12:12.3;0.10576813097639641;-0.579966400206506;-0.8337945780908697;1.061;0.05114659547426442
12:12.3;0.10398974581241559;-0.577279484991577;-0.8423613753338938;1.031;0.050567919471448404
12:12.4;0.0995346468014814;-0.5753021349976067;-0.850399645621282;1.036;0.048696005294771166
12:12.4;0.09242159322162469;-0.5736498406959041;-0.8575034455133714;1.036;0.045462802308853766
12:12.4;0.08293745367248279;-0.5719495558744488;-0.8633700646187129;1.062;0.04095485674162679
12:12.4;0.07163668581404464;-0.5699033285393377;-0.8678138803223807;1.067;0.03542935706045
12:12.4;0.05931550080065822;-0.5673434890730217;-0.8707761750094374;1.071;0.029303589012603975
12:12.4;0.046958396851707246;-0.5642719530499313;-0.8723278006859458;1.068;0.02311433693192699
12:12.4;0.035658030095161934;-0.560875610793126;-0.8726615750504717;1.064;0.017452986640290383
12:12.4;0.02651413321776643;-0.5575128538104902;-0.8720729234646986;1.055;0.012890955859223324
12:12.4;0.02052160697389399;-0.5546706734442535;-0.8709288351306713;1.03;0.009913550880334162
12:12.4;0.018461585315320883;-0.5528973253072355;-0.8696265095628067;1.02;0.008876591841566429
12:12.5;0.02081109061667536;-0.5527215997126712;-0.8685449523777959;0.998;0.00999064615528679
12:12.5;0.027685248164806733;-0.5545734338412668;-0.8679950971396593;0.998;0.01332676545074426
12:12.5;0.038821758454549826;-0.5587201670595319;-0.8681753715506721;0.997;0.01883115734903636
12:12.5;0.05361253223886603;-0.5652287577571375;-0.8691400829316415;0.958;0.026337851784310418
12:12.5;0.07118167905089791;-0.5739588064777132;-0.8707901572321006;0.992;0.03557643800098386
12:12.5;0.09050077968654645;-0.5845867882299756;-0.8728974246219137;1.101;0.04618112718501679
12:12.5;0.110522924461349;-0.5966581646587247;-0.8751642399018735;1.121;0.05771218530674475
12:12.5;0.13031053800992665;-0.6096579487669543;-0.8773000682229692;1.122;0.06969697697978623
12:12.5;0.14913245396586575;-0.6230835288553155;-0.8790865653734046;1.143;0.08168646045167463
12:12.5;0.1665139097748279;-0.636502524383495;-0.8804132179333328;1.136;0.09331193657902022
12:12.6;0.18223548207720117;-0.6495839058934769;-0.8812817853312234;1.1179999999999999;0.10432370209624166
12:12.6;0.19628836332444882;-0.6620983354185713;-0.88178655427832;1.1179999999999999;0.11459891930681781
