Time;AccX;AccY;AccZ;Acc-old;Acc-trns
29:44.5;0.010711576862563967;-0.21510399639037026;-0.8617188220248203;0.898;0.0019854889150389215
29:44.5;0.025877597597594105;-0.23158229080880008;-0.9303004764065841;1.058;0.005575098492025488
29:44.5;0.03898815267265702;-0.24720250725609438;-0.9971794846976288;1.058;0.009610785054650905
29:44.5;0.048344407584380446;-0.26090416552936985;-1.0597508533047093;1.181;0.013366910206565557
29:44.5;0.05268635194027944;-0.27181390173461595;-1.1158244896692815;1.2590000000000001;0.01597959184128833
29:44.5;0.05132433773338241;-0.27930418381217786;-1.1637684811809021;1.329;0.01668274018506894
29:44.5;0.044203307737054734;-0.2830003867967834;-1.2025833381635525;1.348;0.015043780230898186
29:44.5;0.03189438694634334;-0.2827484336105468;-1.2318866040292986;1.3019999999999998;0.011109261739621247
29:44.5;0.015510491738368758;-0.2785692700105631;-1.2517979859418817;1.248;0.005408701592543445
29:44.5;-0.0034468027501480714;-0.2706216212734319;-1.262743387854122;1.185;0.0011778609545881685
29:44.6;-0.023287196967193897;-0.25917646309930614;-1.2652268120967067;1.153;0.0076362680048999085
29:44.6;-0.042344950028714384;-0.24459706341108634;-1.2596337964463373;1.153;0.013046594603260677
29:44.6;-0.059167208972494965;-0.2273241075315562;-1.246121944219125;1.153;0.016760505852570395
29:44.6;-0.07264578130912731;-0.20787100207336678;-1.2246294907236521;1.236;0.018493070369925924
29:44.6;-0.08207952509408993;-0.1868300208050939;-1.195000433439452;1.278;0.018325235307055304
29:44.6;-0.08717301087879309;-0.16488418162990726;-1.1571903558163963;1.297;0.01663281836663786
29:44.6;-0.0879847627733827;-0.14281978051388858;-1.1114908958590928;1.2690000000000001;0.013966955148176067
29:44.6;-0.08483917517391037;-0.12153458302126928;-1.0587057722425717;1.195;0.010916202760415198
29:44.6;-0.0782173979551012;-0.10203373776183593;-1.0002288187808581;1.0959999999999999;0.007982639631372732
29:44.6;-0.06864444799092588;-0.08540636980417846;-0.9380030432240136;1.0090000000000001;0.005499205218717067
29:44.7;-0.056590013391151266;-0.07278212336134175;-0.8743690639687816;0.722;0.003601300006385976
29:44.7;-0.042398535010207176;-0.06527173771782695;-0.8118411422014633;0.722;0.0022467103309157556
29:44.7;-0.026260216147823128;-0.06389696627015948;-0.7528736109578571;0.722;0.0012632828792608793
29:44.7;-0.008227328549731138;-0.06951505643128368;-0.6996766206341491;0.648;0.00040016129772483795
29:44.7;0.011729551535318322;-0.08274198125434495;-0.6541045459715524;0.6;0.0006348256865686244
29:44.7;0.03363918507259989;-0.10387818373798767;-0.6176098058312723;0.586;0.0021581617770169885
29:44.7;0.05743993648777908;-0.13284212592769867;-0.5912500641626482;0.629;0.004511500076635935
29:44.7;0.08290273749186652;-0.16911926994526325;-0.5757360282099426;0.6759999999999999;0.008072078450666499
29:44.7;0.1095845923354659;-0.21173782856499193;-0.5714928284176418;0.708;0.013260464468168266
29:44.7;0.13682583285698421;-0.25928877194031796;-0.5786916911107998;0.718;0.0205304778586689
29:44.8;0.16379742717311865;-0.3100089604116747;-0.5972102104119436;0.7070000000000001;0.03032554026444221
29:44.8;0.18959148350759478;-0.3619284445361442;-0.6265094771438982;0.7070000000000001;0.04299017233596648
29:44.8;0.2133310917393548;-0.4130502553902837;-0.6654638267747529;0.7070000000000001;0.058638317954880594
29:44.8;0.2342706913253114;-0.46151754708657927;-0.712212733859135;0.752;0.07700446558034718
29:44.8;0.2518708782308906;-0.50574286487514;-0.7641077124460198;0.823;0.09733349186080019
29:44.8;0.2658445322055634;-0.5444951220999187;-0.8178138338864005;0.9470000000000001;0.11837941199609439
29:44.8;0.27617321929134114;-0.5769404144456873;-0.8696006239312574;1.171;0.13855824290692398
29:44.8;0.28309149887984203;-0.6026304172041759;-0.9158045588316974;1.4;0.1562358438634658
29:44.8;0.2870365817278875;-0.6214406384447927;-0.9533686898082239;1.5590000000000002;0.1700582808512262
29:44.8;0.2885604767184706;-0.6334744444982928;-0.9803017372326372;1.565;0.17919493020447044
29:44.9;0.2882069580401024;-0.6389572008359955;-0.9958974305935384;1.109;0.18339641517385044
29:44.9;0.28637258854571807;-0.638142401060503;-1.0006429633647482;1.109;0.18286399055138766
29:44.9;0.2831906173564443;-0.6312433106224415;-0.9958836187334582;1.109;0.1780263295366974
29:44.9;0.2784795858203071;-0.6183983064456354;-0.9833942546322832;0.9790000000000001;0.16935160718312606
29:44.9;0.2717796327550336;-0.5996775794784324;-0.9649890875872548;0.966;0.15727406848411174
29:44.9;0.2624717169634197;-0.5751393329985863;-0.9422444276869139;1.061;0.1422391536161516
29:44.9;0.24994982373970143;-0.544936596923393;-0.9163706801768563;1.14;0.12481592377995533
29:44.9;0.23379943651726706;-0.5094561714950516;-0.8882336167772104;1.13;0.105798008679819
29:44.9;0.213934178093025;-0.4694506853838622;-0.8584847514372627;1.0859999999999999;0.08621895126167398
29:44.9;0.19065741232636058;-0.4261199796311525;-0.8277450031503707;1.0290000000000001;0.06724843154814446
29:45.0;0.16463770800324068;-0.38111163952877597;-0.7967993968718878;0.9790000000000001;0.04999545450697617
29:45.0;0.1368103817776697;-0.3364367001823748;-0.7667747851197438;0.9790000000000001;0.03529313541667936
29:45.0;0.10823745375812953;-0.2943238565332863;-0.7392683303614244;0.9790000000000001;0.02355077125969985
29:45.0;0.07996180267946294;-0.2570427599045007;-0.7163841110015741;0.9179999999999999;0.014724274217352598
29:45.0;0.05287587366318976;-0.22671042978797445;-0.7006400825499398;0.792;0.008398931427793771
29:45.0;0.027613665506044136;-0.20508304460876997;-0.6947333089790749;0.662;0.003934340446898374
29:45.0;0.004479824760325731;-0.19334721070797897;-0.7011901346066161;0.589;0.000607343984229774
29:45.0;-0.016563203608758695;-0.19194483211458416;-0.721965241406738;0.541;0.00229528729930388
29:45.0;-0.035833840264018486;-0.2004741364365765;-0.7580727766956129;0.5379999999999999;0.005445811512241158
29:45.0;-0.053795134046583856;-0.21770276973553232;-0.8093288876647925;0.581;0.009478333609758452
29:45.1;-0.07086298347463865;-0.24170922222491117;-0.8742612812001952;1.052;0.014974554092268846
29:45.1;-0.08719847640081788;-0.27013374250476574;-0.9501929281926971;1.052;0.022382032704282854
29:45.1;-0.10253906324975678;-0.30047890073918654;-1.0334455082177836;1.052;0.031841308709118374
29:45.1;-0.11612354848812206;-0.33038667444666503;-1.1195860878502157;1.115;0.04295367375293565
29:45.1;-0.12674417748099817;-0.35784794378451235;-1.2036836606664263;1.148;0.05459324491526923
29:45.1;-0.1329213178106221;-0.3813376621669048;-1.2805988095455507;1.297;0.06491087027124999
29:45.1;-0.13316045665508053;-0.3998811529587825;-1.345343712102522;1.524;0.07163734218330411
29:45.1;-0.1262351219134375;-0.41304689286492474;-1.3935182492642773;1.682;0.07265946970112211
29:45.1;-0.111442653270091;-0.4208525131210764;-1.421774137858198;1.8030000000000002;0.0666825160895839
29:45.1;-0.08878425652352463;-0.4235906004875583;-1.428210301647371;1.8419999999999999;0.05371238515294751
29:45.2;-0.05902329571312438;-0.42162546736559003;-1.412589973962359;1.453;0.035153325121963265
29:45.2;-0.023602659027539975;-0.415233258306795;-1.3763165085338553;1.453;0.013488739977878068
29:45.2;0.015542784733209877;-0.404529702157514;-1.3221918978852352;1.453;0.008313305461627698
29:45.2;0.05620942690894816;-0.38948810857937605;-1.2540379692200128;1.295;0.027454532083820333
29:45.2;0.09613464654014135;-0.3700302229498046;-1.1762480515000586;1.168;0.04184234810604135
29:45.2;0.1331790072721358;-0.34616709333387846;-1.0933104280751933;0.998;0.050404004909706354
29:45.2;0.1654809748399164;-0.31815988081289126;-1.009353748799622;0.877;0.05314187656156476
29:45.2;0.19158671848619113;-0.2866632177404295;-0.9277858100850818;0.887;0.050954799407911616
29:45.2;0.2105577911778772;-0.2528149634150404;-0.8510902506659277;0.9059999999999999;0.04530537263056556
29:45.2;0.22205048196516658;-0.2182465312851807;-0.7808037203149372;0.86;0.03783911270902837
29:45.3;0.2263480969358702;-0.18500278388051744;-0.7176458889524333;0.759;0.0300514417364478
29:45.3;0.2243283781380864;-0.15538185224075837;-0.6617491719526819;0.759;0.02306629899267642
29:45.3;0.21736419357541048;-0.1317298916405497;-0.612936881185703;0.759;0.017550443397557784
29:45.3;0.2071694167736412;-0.11623278501603188;-0.5710057356376512;0.718;0.013749748612334245
29:45.3;0.1956044212751315;-0.1107293478193375;-0.5359709217444039;0.675;0.011608674588828955
29:45.3;0.1844570431009552;-0.11655339003907096;-0.5082367980378585;0.628;0.0109266305377212
29:45.3;0.17522278865241567;-0.13441113231065477;-0.48866899916547946;0.594;0.01150908019059778
29:45.3;0.16891515067992446;-0.16430422670211703;-0.4785593995955217;0.5660000000000001;0.013281685476420486
29:45.3;0.16593560136550659;-0.20550573409592096;-0.47948880151268036;0.5329999999999999;0.01635091219896899
29:45.3;0.16602465453792803;-0.256591058085777;-0.4931030862675687;0.514;0.021006409316212275
29:45.4;0.168304273853822;-0.31552412958568765;-0.5208284376615371;0.625;0.027658104349786067
29:45.4;0.1714080491626633;-0.37979479374073366;-0.5635591841301947;0.625;0.036687637895672455
29:45.4;0.1736803886902023;-0.44659141352738496;-0.6213564947812729;0.625;0.04819500097023698
29:45.4;0.17341820119582096;-0.5129898774468554;-0.6931989854138441;0.765;0.061668216869462826
29:45.4;0.16913126343499177;-0.5761545063904854;-0.7768279004843225;0.8740000000000001;0.07569856930428906
29:45.4;0.15979815863269015;-0.6335513654278027;-0.8687275073714888;1.035;0.08795026959890576
29:45.4;0.14508388887748588;-0.6831550992256397;-0.9642733375075662;1.2329999999999999;0.09557375754804899
29:45.4;0.12547073235298795;-0.7236077001927502;-1.0580629126590926;1.4240000000000002;0.09606321212828287
29:45.4;0.10225157919019073;-0.7542822936702037;-1.1444089008803031;1.5590000000000002;0.08826431681783982
29:45.4;0.07735722561401322;-0.7752230861788477;-1.217925313709232;1.7309999999999999;0.07303789367351575
29:45.5;0.05303478211740566;-0.7869719297531131;-1.2740941811701283;1.6119999999999999;0.05317672209821109
29:45.5;0.03144673130627257;-0.7903339638169139;-1.3096965077680442;1.6119999999999999;0.03255043712125955
29:45.5;0.014293843644639474;-0.7861528271192807;-1.3230417649679833;1.6119999999999999;0.014867212936758018
29:45.5;0.0025574054873254244;-0.7751522055025845;-1.3139977837325172;1.6119999999999999;0.0026048409605972183
29:45.5;-0.0035892782224528886;-0.7578705959358208;-1.2838563732332857;1.47;0.003492356923510974
29:45.5;-0.004703291409817579;-0.7346866088363774;-1.2350735971011748;1.386;0.004267729152817639
29:45.5;-0.0018726402093291084;-0.7059075316173435;-1.170934419645445;1.3219999999999998;0.001547870887943628
29:45.5;0.003536610785698135;-0.6718784389394737;-1.0952078166256627;1.237;0.002602402732703322
29:45.5;0.010119294438029659;-0.6330707306882127;-1.011852014199201;1.187;0.006482155842472787
29:45.5;0.016614299382820902;-0.5901254672493768;-0.9247976789686461;1.153;0.009067198436496756
29:45.6;0.022019853265152958;-0.5438473389886669;-0.8378020482583244;0.846;0.010033046990531272
29:45.6;0.025647121389664733;-0.4951656720429134;-0.7543524388263985;0.846;0.009579954693546326
29:45.6;0.02712432740074997;-0.4450960268578248;-0.6776082368798394;0.846;0.008180717053359184
29:45.6;0.026362445509712524;-0.3947331783419316;-0.6103784011579175;0.846;0.006351678154360295
29:45.6;0.02348981894672045;-0.3452779250901531;-0.5551133980699712;0.72;0.0045022560672550085
29:45.6;0.018761947879510164;-0.29807160778431246;-0.5138725782304918;0.596;0.002873783046370476
29:45.6;0.012458133715600183;-0.2546072349659957;-0.4882456910398325;0.489;0.0015486816323651194
29:45.6;0.004786088921088877;-0.2164986890226339;-0.4792501164219096;0.42700000000000005;0.0004965903330930806
29:45.6;-0.004180060904187429;-0.18540231494148565;-0.48725678740430645;0.444;0.000377620583962017
29:45.6;-0.014510389686838808;-0.1628919622343378;-0.5119961695789471;0.5379999999999999;0.0012101673809413122
29:45.7;-0.026376907730545178;-0.15029395335715437;-0.5526610966501089;0.746;0.002190908715235889
29:45.7;-0.03997324125298828;-0.14850007604930293;-0.6080699754291181;0.746;0.0036095212307337273
29:45.7;-0.055419041169784924;-0.15779321523594814;-0.6768135996625092;0.746;0.005918564840020362
29:45.7;-0.07267110527229692;-0.177727023282775;-0.7573163905691426;0.7929999999999999;0.00978121012868232
29:45.7;-0.0914601865080124;-0.20708943839876923;-0.8477934087352174;0.8190000000000001;0.016057579054324485
29:45.7;-0.11127147906265232;-0.24395975819386911;-0.946134022560231;0.865;0.025683530061868465
29:45.7;-0.13138388937917708;-0.2858509374510793;-1.0497660664001556;0.958;0.03942523268333593
29:45.7;-0.150972011262855;-0.32991410478685546;-1.1555588440803364;1.09;0.05755583910684024
29:45.7;-0.16925469562996348;-0.37317293263798457;-1.2598158283419565;1.29;0.07957156910901017
29:45.7;-0.1856527121592158;-0.41275433196258154;-1.3583847153382527;1.465;0.10409160962502659
29:45.8;-0.1999075760411999;-0.4460869606614544;-1.4468769035108384;1.6440000000000001;0.1290269306020437
29:45.8;-0.21212289031756154;-0.4710493446619681;-1.5209544488650673;1.6440000000000001;0.15197429854046876
29:45.8;-0.2227133261448143;-0.48606746268206147;-1.5766292475392834;1.6440000000000001;0.17067595169442454
29:45.8;-0.23226946049722097;-0.49017976947128195;-1.610538766430113;1.671;0.18336594346912968
29:45.8;-0.24136395147499717;-0.48308889825480733;-1.6201994086490528;1.7369999999999999;0.18891564863971647
29:45.8;-0.2503427606382753;-0.465200810004899;-1.6042552233555722;1.8130000000000002;0.18683100988851728
29:45.8;-0.2591595094520075;-0.4376309522655793;-1.5627191023372344;1.85;0.1772376980566487
29:45.8;-0.26730490168399806;-0.40215009730822754;-1.4971654044381657;1.835;0.16094032868809133
29:45.8;-0.2738548845154373;-0.36105349001582804;-1.4108051872476188;1.765;0.13949514306027747
29:45.8;-0.2776267568671873;-0.3169585300848803;-1.3083712892554884;1.626;0.11513166078165185
29:45.9;-0.27740530332991864;-0.272558124808164;-1.1957680237473973;0.9740000000000001;0.09041090735922522
29:45.9;-0.2721862610909835;-0.2303726117480751;-1.079512525186408;0.9740000000000001;0.06769003389004966
29:45.9;-0.261383509246379;-0.19254811877649813;-0.9660874707725498;0.9740000000000001;0.04862212259113928
29:45.9;-0.24495846409169444;-0.16073567992724974;-0.8613527866681134;0.7959999999999999;0.03391453017473992
29:45.9;-0.22345067506810576;-0.13605634324903682;-0.7700973980010127;0.6629999999999999;0.02341241002715641
29:45.9;-0.1979112653391754;-0.1191335963981672;-0.695740884288788;0.565;0.016404095642712935
29:45.9;-0.16976059009728195;-0.11016826545364744;-0.640183939476661;0.531;0.011972867120532556
29:45.9;-0.14060397824132412;-0.10903358633495992;-0.603816855829893;0.535;0.009256848122414988
29:45.9;-0.1120415731126452;-0.11536963805713285;-0.5856855662708111;0.547;0.007570686270161669
29:45.9;-0.08550084765942913;-0.12865958761360952;-0.5837937770094778;0.603;0.006422025662687117
29:46.0;-0.06210874500859482;-0.1482792853033092;-0.5955010984395112;0.8320000000000001;0.005484231827144751
29:46.0;-0.042611053319043565;-0.17352111497287964;-0.6179562161141389;0.8320000000000001;0.0045691172694920625
29:46.0;-0.02734094905038581;-0.2035963122971205;-0.6484831608943895;0.8320000000000001;0.003609792151125698
29:46.0;-0.016233256577690414;-0.23762207705259042;-0.6848425680138996;0.8320000000000001;0.0026416981245256975
29:46.0;-0.00887506775665371;-0.2746071576597287;-0.7253295455217769;0.812;0.0017677420739701168
29:46.0;-0.004580158534603572;-0.3134561029321586;-0.7687179145352263;0.8390000000000001;0.0011036318939796645
29:46.0;-0.0024758077157687403;-0.3530081902925905;-0.8140892847330957;0.8759999999999999;0.0007114980797292047
29:46.0;-0.0015940643820264535;-0.3921134288867739;-0.860594028309681;0.87;0.0005379177834054935
29:46.0;-0.0009615335144350497;-0.42973342731898917;-0.9071927570779149;0.8740000000000001;0.00037485485284542643
29:46.0;0.0003189672303931871;-0.46504302567823375;-0.9524337425679625;0.9209999999999999;0.0001412778171374651
29:46.1;0.0030016704800622357;-0.49750053681342105;-0.9943297519929656;1.0759999999999998;0.001484865108542751
29:46.1;0.007649763411170242;-0.5268573749693671;-1.0303837928032138;1.0759999999999998;0.004152791111331593
29:46.1;0.014606542326231564;-0.5530969042460337;-1.0577733378052052;1.0759999999999998;0.00854557451013846
29:46.1;0.023986612857039034;-0.5763170873943723;-1.0736698043720514;1.238;0.014842298488090391
29:46.1;0.0356884121305322;-0.5965868600564589;-1.0756577338847633;1.411;0.02290208453186245
29:46.1;0.04942475173591262;-0.6138093393135069;-1.0621940966748096;1.5;0.032224179793153784
29:46.1;0.06475931781114982;-0.6276193310019257;-1.0330055364821393;1.466;0.04198568333744633
29:46.1;0.08113352450942514;-0.6373311966035415;-0.9893057555059896;1.355;0.05115593836030477
29:46.1;0.09787836145457034;-0.6419441375341025;-0.9337535528124085;1.229;0.058670014387401596
29:46.1;0.1142248547437755;-0.6402106903007254;-0.870138945205733;1.065;0.06363149738262887
29:46.2;0.12933749925189966;-0.630772100378146;-0.8028496560832774;0.8270000000000001;0.06549847087631411
29:46.2;0.14238503034886552;-0.6123503132680002;-0.7362290321055176;0.8270000000000001;0.0641914544018305
29:46.2;0.15263918825265485;-0.5839652806519184;-0.6739777508322202;0.8270000000000001;0.06007567163642554
29:46.2;0.15957718760728465;-0.5451346773379401;-0.6187364994053316;0.79;0.05382454312524273
29:46.2;0.16296754864573307;-0.4960192998273235;-0.5719118052380275;0.7509999999999999;0.04623051901389323
29:46.2;0.16292742179164327;-0.437494744295859;-0.5337314042542319;0.71;0.03804431617735653
29:46.2;0.15994129625559367;-0.37114870758907015;-0.5034791471418306;0.691;0.029887531849096774
29:46.2;0.15483229695406678;-0.29921684992065456;-0.4798473553972159;0.7;0.022230575651951343
29:46.2;0.148682917893119;-0.22447350871549993;-0.4613371562539317;0.711;0.015397301175243195
29:46.2;0.14270830898198528;-0.1500867173193176;-0.4466333566382033;0.7070000000000001;0.009566270872856568
29:46.3;0.13809143753993505;-0.07943981427422067;-0.4348858819562896;0.48100000000000004;0.004770679925535394
29:46.3;0.13580010669242765;-0.015929025798964613;-0.42585546588529516;0.48100000000000004;0.0009211949587730669
29:46.3;0.13641901692232347;0.03723463859474348;-0.4199254050439744;0.48100000000000004;0.00213301646683883
29:46.3;0.14003335240991235;0.0771883112346476;-0.4180135689196901;0.48100000000000004;0.004518282745033323
29:46.3;0.14618825088257034;0.10154132632457755;-0.42141761742734046;0.401;0.006255585856985461
29:46.3;0.15393129576605374;0.10848443454844515;-0.4316144326348322;0.377;0.007207593971667305
29:46.3;0.16193121083595707;0.09690805058640274;-0.4500419199927428;0.373;0.007062254913929639
29:46.3;0.16865380777025843;0.06653226723467637;-0.4779099403288807;0.423;0.0053625893073828675
29:46.3;0.17256634121723105;0.018027887471797763;-0.5160919363272879;0.518;0.0016055654102554095
29:46.4;0.1723378273475306;-0.04690918975360573;-0.5651297912593363;0.617;0.004568637994407476
29:46.4;0.16700675381813476;-0.12557067401427963;-0.6253445404264596;1.008;0.013114194560360533
29:46.4;0.15609768786310577;-0.21435427497196602;-0.696989221364181;1.008;0.023321403419184795
29:46.4;0.13968110923859678;-0.30897116423310395;-0.7803301484093094;1.008;0.03367704761389633
29:46.4;0.11837878401523737;-0.40471609556785004;-0.8755467680223314;1.044;0.04194726990282137
29:46.4;0.09331660937312591;-0.4967964820357619;-0.9824118893680467;1.04;0.04554398964236996
29:46.4;0.066024212980998;-0.5807230754647132;-1.099805941599429;1.063;0.042168521873927174
29:46.4;0.03828140940423804;-0.6527271128957018;-1.2251906982893441;1.17;0.03061422448956238
29:46.4;0.01191941619919811;-0.7101229249282307;-1.35421247723921;1.28;0.011462393901394379
29:46.4;-0.011395238993074316;-0.7515267459946877;-1.480605065579877;1.3840000000000001;0.012679645459716738
29:46.4;-0.030344349663194322;-0.7768776262733673;-1.5965066868028779;1.6059999999999999;0.03763580331092583
29:46.5;-0.044064925190575206;-0.7872574641785186;-1.6932110965874168;2.252;0.05873824009498595
29:46.5;-0.05217338421485511;-0.7845549099527149;-1.762250034658778;2.252;0.07213397757750237
29:46.5;-0.05473622943817533;-0.7710604602996566;-1.7965795164290748;2.252;0.07582453476656918
29:46.5;-0.05222012398729653;-0.7490961621602146;-1.7916063139525447;2.36;0.07008386671455732
29:46.5;-0.04543831653406281;-0.7207519672566859;-1.745875383130224;2.334;0.05717699285762058
29:46.5;-0.03549563756228436;-0.6877494593635491;-1.661341102825828;2.158;0.04055683434548285
29:46.5;-0.023725347241165182;-0.6514196774620625;-1.5431955542474318;1.8430000000000002;0.023850331189116964
29:46.5;-0.011606709285881667;-0.6127668457335541;-1.399272278586714;1.4909999999999999;0.009951913588771967
29:46.5;-0.0006548399878561796;-0.5725839828044592;-1.2391181768003316;1.183;0.00046460846115735057
29:46.5;0.007714809351801045;-0.5315862362059175;-1.0728953547179232;0.9620000000000001;0.0044000366190650566
29:46.6;0.012331273863356142;-0.4905310936684942;-0.9103020969318683;0.638;0.005506302007662654
29:46.6;0.012397300851777947;-0.45030367133996874;-0.7596862242759324;0.638;0.004240986398382828
29:46.6;0.007577942709702268;-0.4119614673036061;-0.6274756200102636;0.638;0.001958866189690078
29:46.6;-0.0019694123761208097;-0.37674330830837804;-0.5179726664324213;0.604;0.00038431651931966924
29:46.6;-0.015630683543150857;-0.3460428419401339;-0.4334700896053824;0.58;0.002344590366159942
29:46.6;-0.032431667427888965;-0.32134302616348287;-0.3745850392900663;0.5710000000000001;0.003903809216106715
29:46.6;-0.05117988659679631;-0.30411654389518517;-0.34069409361775677;0.578;0.005302784402166571
29:46.6;-0.07062826183808935;-0.2957068421883432;-0.330367866580093;0.55;0.006899818880812242
29:46.6;-0.08963383446404868;-0.29720543198919025;-0.34173306912189644;0.509;0.009103653624013856
29:46.7;-0.10728650036942873;-0.3093373122015161;-0.37272817336580893;0.498;0.012369997381512251
29:46.7;-0.12298913392376214;-0.3323629921235741;-0.42125738859039585;0.675;0.017219753670193842
29:46.7;-0.13647927679159474;-0.36600143036249116;-0.4852648330738773;0.675;0.02423975994103186
29:46.7;-0.14779099251766145;-0.40937387475628995;-0.5627400150643689;0.675;0.03404676767085467
29:46.7;-0.15716255280291705;-0.460971547137323;-0.6516556687737218;0.77;0.04721080133217826
29:46.7;-0.16490221983641523;-0.518662742898052;-0.7498505780627198;0.855;0.06413369838301887
29:46.7;-0.17123196460235937;-0.5797655586107636;-0.8548836357437986;0.943;0.08486805625509312
29:46.7;-0.17613707408284357;-0.6412081402528708;-0.9638857718577015;1.048;0.10886176579052034
29:46.7;-0.17925500690734367;-0.69977735861901;-1.0734398006379786;1.138;0.134650780680531
29:46.7;-0.1798355447609869;-0.7524278455962295;-1.1795350867771384;1.26;0.15960675144808584
29:46.8;-0.17679445169640876;-0.796598945919017;-1.2776608168432517;1.423;0.17993843338676344
29:46.8;-0.16886549062047473;-0.83047587154386;-1.363093208082499;1.932;0.1911584406037933
29:46.8;-0.15483139450068784;-0.853138288589073;-1.431369851094323;1.932;0.18907335220180171
29:46.8;-0.1337881122915199;-0.8645667156912925;-1.4788451335843766;1.932;0.17105616633340218
29:46.8;-0.10538397197225358;-0.8655120225872753;-1.503171283392887;1.993;0.13710589832494313
29:46.8;-0.06998485919090439;-0.8572595683836965;-1.5035934289570134;1.932;0.09020837372876923
29:46.8;-0.028735501604526887;-0.8413387110396277;-1.4810147163958445;1.7819999999999998;0.03580544110165708
29:46.8;0.016495747549379654;-0.8192423917798953;-1.4378251911098219;1.6219999999999999;0.019430792172798268
29:46.8;0.06328277399851875;-0.7922155810538544;-1.3775234484051182;1.476;0.06906020896605007
29:46.8;0.10889343475232209;-0.7611411623096471;-1.3042064668534046;1.3519999999999999;0.10809690389492627
29:46.9;0.15059134474104668;-0.7265169899479581;-1.2220317619528078;1.262;0.13369903732841923
29:46.9;0.1859499544143307;-0.6884988378227915;-1.134752259577772;1.1520000000000001;0.1452781644245429
29:46.9;0.21313977609983503;-0.6469854269300844;-1.045398538048015;1.1520000000000001;0.14415871157322085
29:46.9;0.23114698271371073;-0.6017336064872074;-0.9561462652383358;1.1520000000000001;0.13298933947754196
29:46.9;0.2398887871052332;-0.5524963534149898;-0.8683634474052848;1.114;0.11509087680341751
29:46.9;0.2402104608574166;-0.4991666692430467;-0.7827933409847286;1.055;0.09386087912381755
29:46.9;0.23376617819113865;-0.44190024957881274;-0.6998105088651191;0.97;0.07229135805329713
29:46.9;0.22279499777108702;-0.3811929964199874;-0.6196907693890391;0.866;0.05262903122422757
29:46.9;0.20981351972984666;-0.3179037168545278;-0.5428469170273571;0.76;0.03620815957779268
29:46.9;0.19726162681760975;-0.2532268391655196;-0.4699931352027007;0.631;0.02347706806647488
29:47.0;0.18714979574137866;-0.1886265698408712;-0.4022151498517775;0.49700000000000005;0.014198767551025424
29:47.0;0.18075878025881764;-0.12574392126156414;-0.3409447521461445;0.248;0.007749441634750761
29:47.0;0.17843341428020018;-0.06629160467838952;-0.2878654035264049;0.248;0.00340505546705675
29:47.0;0.17949553811644292;-0.011959459108884539;-0.24479717882264304;0.248;0.0005254986492958634
29:47.0;0.18228416967255043;0.03565230432281342;-0.21360362516263018;0.24600000000000002;0.0013881780668594877
29:47.0;0.18431768120429798;0.0750777515351571;-0.19613174762742117;0.278;0.0027141019306687938
29:47.0;0.18255891479479983;0.10503154211344864;-0.19416908845646783;0.309;0.003723084380604707
29:47.0;0.17374928855169344;0.12447848300162402;-0.20939677376829613;0.345;0.004528843445109891
29:47.0;0.15476979715649428;0.132732718528892;-0.24332507842651593;0.396;0.004998630960519498
29:47.0;0.1229883099215935;0.12957459929365575;-0.2972070148431489;0.434;0.004736338831705464
29:47.1;0.07655629951440393;0.11535883646535174;-0.37193313500744457;0.465;0.003284707262073045
29:47.1;0.014622600339022351;0.09108503708965783;-0.46791350183381375;0.653;0.0006232140371825861
29:47.1;-0.06254895629261427;0.058411199276634684;-0.5849423271504902;0.653;0.0021371216258836076
29:47.1;-0.1535372883939587;0.01960111117916819;-0.7220241467683953;0.653;0.0021729327238244112
29:47.1;-0.2557645697875526;-0.022601695900191822;-0.8771493894440463;0.785;0.0050705489033962105
29:47.1;-0.36553636756895574;-0.0651802438208789;-1.0470500973924384;0.8809999999999999;0.02494675340095549
29:47.1;-0.47814984176940517;-0.10512308585481187;-1.2270046875791745;1.044;0.06167488370600881
29:47.1;-0.5880956681253174;-0.13974729115323073;-1.4107694670427684;1.213;0.11594377342582192
29:47.1;-0.6893589894623767;-0.1670261171921062;-1.5907081806125927;1.479;0.18315565961688832
29:47.1;-0.7758175396321483;-0.18586996181587892;-1.7581738321756015;1.89;0.2535307350341237
29:47.2;-0.8417392384511775;-0.19628306865929773;-1.904151809091042;2.312;0.3146023638084115
29:47.2;-0.8823653807225807;-0.1993163978315577;-2.0200947667323463;2.7230000000000003;0.35527384291365244
29:47.2;-0.8945110202979846;-0.19680211701040612;-2.0987993835661167;2.7230000000000003;0.36947613270291546
29:47.2;-0.8770554970280302;-0.19095249185186985;-2.135147498206635;2.7230000000000003;0.3575858186072197
29:47.2;-0.8311907077133629;-0.18394978646952048;-2.126584619043826;2.562;0.32514915960619095
29:47.2;-0.7603528542700271;-0.17761960868994728;-2.0732995004398744;2.383;0.2800065125692504
29:47.2;-0.6698432296728078;-0.173226636390972;-1.9781382497102171;2.2;0.2295326577623013
29:47.2;-0.5662090809276105;-0.1714041069615136;-1.8463102536638318;2.01;0.17918544750422594
29:47.2;-0.4564959440826564;-0.17221414509776922;-1.6849348756200928;1.7830000000000001;0.13246125423813493
29:47.2;-0.3474947061069337;-0.17531513840674207;-1.502462347213627;1.5219999999999998;0.09153163260285786
29:47.3;-0.2450921547732646;-0.18018932819682493;-1.307999350889936;1.253;0.05776516318845635
29:47.3;-0.1538033567950877;-0.18637211399400877;-1.1105890279159163;0.659;0.03183465327027869
29:47.3;-0.07652802760721439;-0.19363172448925733;-0.918537371212899;0.659;0.013611120035946115
29:47.3;-0.014535597699080942;-0.2020699207602862;-0.7389143201440003;0.659;0.0021703443691354404
29:47.3;0.03235096294713125;-0.21213769793301696;-0.5773278027083131;0.581;0.003962119194488695
29:47.3;0.0654273328057733;-0.22457376303212154;-0.43796812575342575;0.531;0.0064351805653396045
29:47.3;0.08670262725200199;-0.24027953821309123;-0.3238330757086905;0.475;0.00674637147350355
29:47.3;0.09848495409759746;-0.260149274587211;-0.23702622946000312;0.42700000000000005;0.006072799099269936
29:47.3;0.10301934014124917;-0.28487949508757987;-0.17904290468995562;0.392;0.005254568642089827
29:47.3;0.10222524672617836;-0.314786826013774;-0.15098279476550444;0.36200000000000004;0.004858499654256595
29:47.4;0.09756063235874096;-0.3496659779895234;-0.15365006994623104;0.33799999999999997;0.00524156223900298
29:47.4;0.09001558868967273;-0.3887175424981234;-0.18752354919480932;0.48200000000000004;0.00656156870548035
29:47.4;0.08021313455062641;-0.4305623904009446;-0.25260035868171576;0.48200000000000004;0.008723997699401078
29:47.4;0.06857516368322397;-0.4733381112377453;-0.34813435403965215;0.48200000000000004;0.011300176012372034
29:47.4;0.0555075449268555;-0.514861663683772;-0.47230878214117916;0.597;0.013497974264353452
29:47.4;0.04156699458599481;-0.5528466440787595;-0.6219061726953199;0.7090000000000001;0.01429151172519612
29:47.4;0.027578695322483516;-0.5851605464522696;-0.7920612744659159;0.8490000000000001;0.012782256670024455
29:47.4;0.01467371725226152;-0.6100875342262373;-0.9761884195491844;1.07;0.008739084708214035
29:47.4;0.00422098090502176;-0.6265441207940332;-1.166152078390393;1.276;0.0030840416690401436
29:47.4;-0.0023508913962733764;-0.6341920381493659;-1.3527037303613096;1.52;0.002016768454689082
29:47.5;-0.003813552079579116;-0.6334070702429678;-1.5261545486710513;1.751;0.003686473394099095
29:47.5;0.0005801311797056837;-0.6250988406456439;-1.6772016655899313;2.189;0.0006082192846891885
29:47.5;0.010869045540218895;-0.6104298977408867;-1.7977769305532052;2.189;0.011927873044052356
29:47.5;0.026272462430035302;-0.5905271746493835;-1.8817586478895583;2.189;0.02919473838243543
29:47.5;0.04522744178704177;-0.5662805990705837;-1.9254179240136207;2.189;0.04931269257559571
29:47.5;0.06557675493480511;-0.5382779622497073;-1.9275583006346533;2.122;0.06803995911449558
29:47.5;0.0848730863147633;-0.5068676986234649;-1.8893856538184057;2.025;0.0812802861979139
29:47.5;0.10073043647957071;-0.47230413016454575;-1.81417648023215;1.9140000000000001;0.08631017386304304
29:47.5;0.11114245432419523;-0.43491765465766313;-1.7068152600769546;1.784;0.08250372124952314
29:47.5;0.11470750923310966;-0.39525846162683753;-1.573264115873256;1.626;0.07133040052984488
29:47.6;0.1107329917278043;-0.35417695447595987;-1.4200134475519517;1.459;0.05569161215416687
29:47.6;0.09921908481650388;-0.3128198457267153;-1.253553111905511;0.833;0.03890740392395107
29:47.6;0.08074637581783017;-0.27254409730652074;-1.0799209286670788;0.833;0.023765763837966653
29:47.6;0.05631396193960105;-0.23478303794731561;-0.9044161283309203;0.833;0.011957794875947829
29:47.6;0.027178582303136987;-0.20091273777291457;-0.7315478633774503;0.833;0.0039946342110566534
29:47.6;-0.005278595586821411;-0.17214329123627958;-0.5652003647298538;0.6990000000000001;0.0005135833382270347
29:47.6;-0.039659838938759344;-0.14942826824700667;-0.4089105079210739;0.555;0.0024233267730923236
29:47.6;-0.07464522835255338;-0.13338054579571382;-0.26613961553171145;0.42200000000000004;0.00264974490858712
29:47.6;-0.10907905047949476;-0.1241984906088432;-0.1404611133447738;0.302;0.0019028903912865752
29:47.6;-0.14204620106209054;-0.12161958584138417;-0.03562908676669369;0.217;0.0006155138564599462
29:47.7;-0.1729343124761883;-0.12491809186277229;0.04447923989763366;0.215;0.0009608683100870841
29:47.7;-0.20147811044126018;-0.1329518672755763;0.09603563913012371;0.331;0.0025724961973326503
29:47.7;-0.22778077518701886;-0.144248810099111;0.11552139721088388;0.331;0.0037956987684943547
29:47.7;-0.25230238317669806;-0.15711405945456866;0.10004177152505613;0.331;0.003965680996859544
29:47.7;-0.27580644090357953;-0.16974136292953182;0.04766296517967341;0.353;0.002231377995159408
29:47.7;-0.29926494982072954;-0.1803233683525974;-0.042251805110787265;0.37200000000000005;0.0022800960066059767
29:47.7;-0.3237294676462864;-0.18716556008873952;-0.16873066142086646;0.391;0.010223560709074228
29:47.7;-0.35017456533647606;-0.18880996120119173;-0.32893873715831806;0.408;0.02174826028382749
29:47.7;-0.37932095630313517;-0.18416840250895117;-0.5180236167972863;0.455;0.03618857794664347
29:47.7;-0.4114580211316924;-0.17265513713539768;-0.7291076606343552;0.605;0.051796056883804543
29:47.8;-0.4463038984359348;-0.1542994559597969;-0.9534710581578635;0.843;0.06566025879185233
29:47.8;-0.48294659506828463;-0.12981600062304202;-1.1809479240824476;1.489;0.07403858001154208
29:47.8;-0.5198861570370827;-0.10061653625160553;-1.4005071412820134;1.489;0.07325933023925625
29:47.8;-0.5551596342078698;-0.06875646965352376;-1.6009370023627756;1.489;0.0611090726129288
29:47.8;-0.5865142608931304;-0.036811695676238286;-1.7715628045149467;1.825;0.038249076395644434
29:47.8;-0.6116093717838653;-0.0076777588230829;-1.9029917656876172;2.222;0.008936048277094056
29:47.8;-0.6282412247856733;0.01570885633009961;-1.9878914355688566;2.523;0.019618403450851685
29:47.8;-0.6345742188928641;0.030698729830846566;-2.021725677494681;2.653;0.039384474728729815
29:47.8;-0.629341378883001;0.03524412732082839;-2.0032915310723824;2.59;0.04443418346480729
29:47.8;-0.6119692536148524;0.028123963073186434;-1.9349052057861886;2.377;0.03330165483301146
29:47.9;-0.5825960024444553;0.009021828405006573;-1.8221627078891103;2.1109999999999998;0.00957743508576203
29:47.9;-0.5419815140340624;-0.021555366345786517;-1.673302198183127;1.3159999999999998;0.019548537140178193
29:47.9;-0.4913433519950987;-0.06247702630533114;-1.4982992689798216;1.3159999999999998;0.045994298809106895
29:47.9;-0.432175510085229;-0.11222901310598149;-1.3079018634677448;1.3159999999999998;0.06343668144894457
29:47.9;-0.36609932418033947;-0.16912234700627796;-1.112789982650788;1.0759999999999998;0.06889903379198217
29:47.9;-0.2947609394469648;-0.23143932063731637;-0.9229288288911677;0.8590000000000001;0.06296153242346714
29:47.9;-0.21976161203142694;-0.2975197681943539;-0.7470916977402486;0.685;0.048847413142815495
29:47.9;-0.1426067054674856;-0.36579564781053053;-0.5925294033347246;0.573;0.03090924430597267
29:47.9;-0.06467163885645208;-0.4347778839127801;-0.4647962780729146;0.536;0.01306904799334531
29:47.9;0.012810731561549613;-0.5030046686612042;-0.3677459183084226;0.569;0.0023697023983822105
29:48.0;0.08873981424304929;-0.5689722271726323;-0.3036831561517276;0.619;0.015333111282547888
29:48.0;0.16211926987637412;-0.6310761283358756;-0.27362237053584454;0.809;0.027994195598583738
29:48.0;0.23201866800908613;-0.6875862781586555;-0.2775720771690659;0.809;0.04428186521728969
29:48.0;0.2975288726540226;-0.7366658664237853;-0.31475687421829535;0.809;0.06898821174493605
29:48.0;0.35771892516894777;-0.7764394103633865;-0.38371019130885586;0.873;0.10657438187704442
29:48.0;0.4116156476768049;-0.8051211083888019;-0.482219019370529;0.97;0.15980759832426564
29:48.0;0.4582293738116697;-0.8212112804052956;-0.6071556633878599;1.092;0.22847457700802987
29:48.0;0.49662851824877413;-0.8237430742123993;-0.7542749252455027;1.218;0.30856957433381166
29:48.0;0.5260393651715463;-0.8125285996744142;-0.9180789017914568;1.3719999999999999;0.39240714676220206
29:48.0;0.5459342580980292;-0.7883318152537696;-1.0918477716479194;1.524;0.46990654477368227
29:48.1;0.5560731211228955;-0.7528924253946404;-1.267899354738297;1.636;0.5308228529377507
29:48.1;0.5564779229406115;-0.7087503549809269;-1.438076450270634;1.9409999999999998;0.5671829970454099
29:48.1;0.5473502096995879;-0.6588866788709937;-1.5943779746648798;1.9409999999999998;0.5749992818352719
29:48.1;0.5289782756870284;-0.6062797894314622;-1.7295838395058563;1.9409999999999998;0.5546928226950839
29:48.1;0.5016927676222585;-0.5535049979210543;-1.8377371561413343;2.039;0.5103202280352912
29:48.1;0.46590326032147683;-0.5024574310580532;-1.9144386892926915;2.1069999999999998;0.44816350250163633
29:48.1;0.42220622940538854;-0.4542157684994094;-1.9569850026004671;2.1109999999999998;0.3752963505579593
29:48.1;0.37152307157040904;-0.40903734537986164;-1.9643924978811436;2.096;0.2985224633424328
29:48.1;0.31521280585593836;-0.3664649449561995;-1.9373343652096138;2.088;0.2237901011626099
29:48.1;0.2551089548673069;-0.3255116906266873;-1.878008124465013;2.064;0.15595157349146935
29:48.2;0.19345217398816686;-0.2848805278064722;-1.7899376544654384;1.989;0.09864481989196253
29:48.2;0.1327217281331202;-0.24317853977035342;-1.677698902111254;1.435;0.05414785964325066
29:48.2;0.07540239118009612;-0.19910493277026367;-1.546576185571548;1.435;0.023218729756256995
29:48.2;0.023746490613446053;-0.15161504261684716;-1.4022061751573016;1.435;0.005048398208885809
29:48.2;-0.020416339336914675;-0.10007047550926174;-1.2502825179249692;1.235;0.002554418186688321
29:48.2;-0.05580321984620849;-0.04437168826818855;-1.0963437304155985;1.073;0.0027146381556779186
29:48.2;-0.08174377670697196;0.014945152731454069;-0.9456173817349465;0.938;0.0011552354389432115
29:48.2;-0.0981979897882648;0.07666503776493937;-0.8028942963429361;0.8190000000000001;0.006044471359832419
29:48.2;-0.10573366962338139;0.13891514728231874;-0.6724231994640844;0.701;0.009876557527062473
29:48.2;-0.10547467479127974;0.19925357642229116;-0.5578173785032463;0.5920000000000001;0.01172320503414283
29:48.3;-0.0990333943141947;0.2548224076277698;-0.4619624922110391;0.51;0.011658052180447635
29:48.3;-0.08843645254305035;0.3025539488195108;-0.3869228467802702;0.462;0.010352816428310842
29:48.3;-0.0760441563353749;0.33940962992728857;-0.3338613666212878;0.462;0.008617001588617727
29:48.3;-0.064456471255536;0.3626235373524555;-0.3030042707525618;0.462;0.007082250206569093
29:48.3;-0.05639406530434724;0.3699268735110387;-0.2936775893325162;0.486;0.006126607968950366
29:48.3;-0.05454397377543882;0.35974517506797365;-0.30441814658236666;0.52;0.005973271987555601
29:48.3;-0.0613660511772166;0.3313684185909081;-0.3331386950640475;0.5489999999999999;0.006774299186555605
29:48.3;-0.07886704036390851;0.28508506087290175;-0.37732094609908257;0.573;0.008483614348852654
29:48.3;-0.10836195955543174;0.2222561591375938;-0.4342156350378539;0.579;0.010457698389100255
29:48.3;-0.1502558176766465;0.1452998710356534;-0.5010354710884926;0.596;0.010938682026475115
29:48.4;-0.2038883374567079;0.05756453362794559;-0.5751303635059807;0.655;0.006750153850468372
29:48.4;-0.2674820717688575;-0.03691074424261909;-0.6541319410121933;0.907;0.006458220019361762
29:48.4;-0.3382118447924987;-0.13371555661819556;-0.7360442847820753;0.907;0.03328700296301452
29:48.4;-0.4123812155115828;-0.22840336565020253;-0.8192495940136755;0.907;0.07716451101137314
29:48.4;-0.4856816605796527;-0.3167821441119746;-0.9024115353525278;1.042;0.1388407774564319
29:48.4;-0.553528057605337;-0.3951430285719201;-0.9842940922710527;1.215;0.21528751370358248
29:48.4;-0.6114660811412563;-0.4604436306725283;-1.0635390083494922;1.3459999999999999;0.2994347946299263
29:48.4;-0.6556081941056515;-0.5104657618177155;-1.13844737385902;1.358;0.3809991008741297
29:48.4;-0.6830166127527323;-0.5439562530495488;-1.2068139407895517;1.423;0.4483689802405792
29:48.4;-0.6919636277849618;-0.5607334491631979;-1.2658791293747995;1.54;0.4911701553894209
29:48.5;-0.6820490151673906;-0.5617034229813181;-1.312466965922827;1.631;0.5028182565684114
29:48.5;-0.6541891645622215;-0.5487239777997279;-1.3433363358477677;1.754;0.4822164780993178
29:48.5;-0.6104999357931551;-0.5243139216601541;-1.355692540371886;1.754;0.4339485267661928
29:48.5;-0.5541014069244129;-0.4912881517246461;-1.3477307693977028;1.754;0.36688392790530255
29:48.5;-0.48887525295788614;-0.45242723528827905;-1.3190666193943106;1.754;0.2917517868379589
29:48.5;-0.4191839703029569;-0.4102454522749819;-1.2709564491543066;1.579;0.21856424215569056
29:48.5;-0.34954000377495914;-0.3668622724632605;-1.206273185044;1.36;0.15468407771135043
29:48.5;-0.28423126361280476;-0.32395728261552137;-1.1292501970865203;1.173;0.10397998926429167
29:48.5;-0.22695154180630223;-0.2827902601694095;-1.0450438691924258;1.038;0.06707058691412457
29:48.5;-0.1805010438739729;-0.24427236474762598;-0.9591912572545748;0.9359999999999999;0.042292101539955974
29:48.6;-0.14660074771139617;-0.20907153089254735;-0.8770392967589502;0.8170000000000001;0.026881291942611935
29:48.6;-0.1258321653301357;-0.17772756650693775;-0.8032060015213623;0.564;0.017962774145533402
29:48.6;-0.11769240504250185;-0.15075039324491799;-0.7411271633060766;0.564;0.013149208823294772
29:48.6;-0.12074251140267729;-0.12868458853970427;-0.6927464803597524;0.564;0.01076368726436367
29:48.6;-0.13282264789043566;-0.11213496036634536;-0.6583954773200109;0.575;0.009806183294736159
29:48.6;-0.15130885734011257;-0.10175174829377492;-0.6368716434286333;0.612;0.009805238098211646
29:48.6;-0.17338354691424238;-0.09817844457781631;-0.6256860024228299;0.6509999999999999;0.01065075683937209
29:48.6;-0.19628491119235397;-0.10197621268076133;-0.6214353406176285;0.7140000000000001;0.012438893287101372
29:48.6;-0.21750390798067387;-0.11354541688031279;-0.620250083966042;0.773;0.015318050797602524
29:48.6;-0.23491531440479038;-0.13305921742825283;-0.6182641211059662;0.813;0.01932548220463942
29:48.7;-0.24684563893681807;-0.16041531654908378;-0.6120498970955831;0.843;0.02423584245726676
29:48.7;-0.25208470622272655;-0.19520827314424025;-0.5989691895936914;0.705;0.02947468694259309
29:48.7;-0.24984994673924435;-0.2367214017759395;-0.5774128030580217;0.705;0.0341509818605979
29:48.7;-0.23972211427684773;-0.2839310767996615;-0.5469343357018078;0.705;0.03722684383607092
29:48.7;-0.22157764151884127;-0.33551803323861623;-0.5083015755886141;0.665;0.03778881372475876
29:48.7;-0.19553536242528632;-0.38989256054133997;-0.4634825527267136;0.6629999999999999;0.0353348823404182
29:48.7;-0.16192185186956246;-0.4452464297954519;-0.41556961067609977;0.6970000000000001;0.029960543630799273
29:48.7;-0.12125108929888935;-0.4996353412643153;-0.3686383413066953;0.7140000000000001;0.022332600776989665
29:48.7;-0.07421225383629337;-0.5510828492546054;-0.3275330999569916;0.696;0.013395154038451016
29:48.7;-0.02166287652759209;-0.5976908393923867;-0.2975683919431816;0.691;0.003852827118048489
29:48.8;0.035371780917872984;-0.6377442504212496;-0.2841452518204359;0.705;0.006409791186079268
29:48.8;0.09569435746080672;-0.6698047013818618;-0.292299534541469;0.774;0.018735386037585667
29:48.8;0.15792996328790873;-0.6927908253220152;-0.32621250863780804;0.774;0.035691703139009254
29:48.8;0.22052101058619902;-0.7060403106294941;-0.38871996165327904;0.774;0.06052242412203638
29:48.8;0.28172589732379605;-0.7093479622853001;-0.48085972075764183;0.828;0.09609581982118152
29:48.8;0.3396368615205865;-0.7029777588742835;-0.6015052178507951;0.8740000000000001;0.1436136773845524
29:48.8;0.3922360040123611;-0.6876475518684825;-0.7471423704135957;0.9259999999999999;0.2015193357177571
29:48.8;0.4374962238369948;-0.6644833632113981;-0.9118458858500236;1.07;0.26508177116863246
29:48.8;0.47351962540249354;-0.6349426689360007;-1.0874905457474224;1.236;0.32696253104204503
29:48.8;0.4986974485610799;-0.6007085946764764;-1.2642031673376133;1.3419999999999999;0.3787196733901191
29:48.9;0.511870659510864;-0.5635558152508541;-1.431041451797259;1.432;0.41280921734869497
29:48.9;0.5124713149394989;-0.5251948924020579;-1.5768753056531835;2.112;0.4244117579316595
29:48.9;0.5006299303790652;-0.4871205509645624;-1.6914081205785048;2.112;0.41247883982204087
29:48.9;0.47723441003301503;-0.45050308322237786;-1.7662043904968803;2.112;0.3797261252167061
29:48.9;0.44392174305624815;-0.4161512549830086;-1.7955616263073424;2.295;0.33170952397674763
29:48.9;0.40298520660783715;-0.384548465196093;-1.7771159951940994;2.35;0.27539494344094007
29:48.9;0.3571927841331555;-0.3559446005309244;-1.7121226357994792;2.207;0.21768071499660843
29:48.9;0.309532046723223;-0.33047837075902786;-1.6053586452545;1.911;0.1642179897614531
29:48.9;0.26291437837890014;-0.3082988661227569;-1.4646222258596115;1.5430000000000001;0.11871671900835173
29:48.9;0.21988205457751953;-0.2896518666949153;-1.2998801292629314;1.179;0.08278838735237083
29:49.0;0.18236384319385346;-0.27490566692122576;-1.1222005687610397;0.8690000000000001;0.05625911720005929
29:49.0;0.15151631357772105;-0.2645115787062127;-0.9426535764595138;0.498;0.0377794997037915
29:49.0;0.12766739170047695;-0.2589139963607459;-0.7713611469502957;0.498;0.025497245976135625
29:49.0;0.1103524791624248;-0.25843442638879754;-0.616841462257667;0.498;0.017591627427059442
29:49.0;0.09841576144294994;-0.2631512154706315;-0.4857108167421396;0.498;0.012579049107429905
29:49.0;0.0901477150729614;-0.27278727017032783;-0.38270408517016113;0.529;0.009411133222218393
29:49.0;0.08343775499019569;-0.2866110523899337;-0.3109008546705637;0.5539999999999999;0.007434939860944143
29:49.0;0.07592934286485038;-0.30335655553833374;-0.272023125354692;0.5379999999999999;0.006265689246737394
29:49.0;0.06517195852543757;-0.32117535830430666;-0.2666844606002648;0.491;0.005582139690863486
29:49.0;0.04877180157483792;-0.33764638326587376;-0.294504365686563;0.43;0.004849786691370251
29:49.1;0.024551241930780423;-0.34988235429854003;-0.3540518489836706;0.326;0.0030413217851756233
29:49.1;-0.009267517365764118;-0.3547735469144666;-0.44264281426923896;0.507;0.0014553520328249153
29:49.1;-0.053845171123208906;-0.3493776637053054;-0.5560787619859949;0.507;0.01046112054351067
29:49.1;-0.10948696864014283;-0.33140038552601275;-0.6884648679785988;0.507;0.02498027552949791
29:49.1;-0.17542129778446625;-0.29966363304809535;-0.8322619741144999;0.7290000000000001;0.04374983428926324
29:49.1;-0.2496459175230159;-0.25446216601153643;-0.9786908975175033;1.107;0.06217177077827165
29:49.1;-0.3288919636257299;-0.19772982811145315;-1.118513790630915;1.4269999999999998;0.0727389108088777
29:49.1;-0.4087478653992909;-0.13294814013806108;-1.2430894354686153;1.78;0.0675522998596142
29:49.1;-0.48396500530711317;-0.0647656660294863;-1.3454895882509441;2.151;0.04217345069924865
29:49.1;-0.5489296454693563;0.0016227103492675134;-1.4214126362106974;2.258;0.0012661287308427971
29:49.2;-0.5982452453430706;0.06120137721677153;-1.469649518875178;2.1790000000000003;0.053808914087564164
29:49.2;-0.6273443669316479;0.10979165869240168;-1.4919562171620873;1.54;0.10276173485785908
29:49.2;-0.6330408016765194;0.14450228315122748;-1.4923704056587561;1.54;0.13651583819505844
29:49.2;-0.6139353559098547;0.16391806474213133;-1.4762032579774678;1.54;0.148557855722209
29:49.2;-0.5706076704558385;0.16805307069119987;-1.4490064460503969;1.357;0.13894866396695832
29:49.2;-0.5055632075103054;0.1581326667709827;-1.415727876189861;1.226;0.1131818632204834
29:49.2;-0.4229496825817518;0.13627866317719722;-1.380149106489112;1.161;0.07955043827168669
29:49.2;-0.3280983971926674;0.10517172006521829;-1.3446335580156177;1.234;0.04639883020001578
29:49.2;-0.22697069451819743;0.06774531607914742;-1.310176184768606;1.374;0.02014553293999185
29:49.2;-0.12559096390634686;0.026931381322907174;-1.2766907781403896;1.44;0.004318199911473422
29:49.3;-0.02953183171788146;-0.014543574834550497;-1.2434186268905447;1.4140000000000001;0.0005340463164874263
29:49.3;0.05650173673644247;-0.054314303849774724;-1.2093314760378588;1.25;0.0037112599201125527
29:49.3;0.12895716959301826;-0.09048271725397362;-1.1734467485150413;1.25;0.013692240307097259
29:49.3;0.1855695329345948;-0.12167163711852169;-1.1350412955929066;1.25;0.025627585363682856
29:49.3;0.22535021178063455;-0.1470298370066517;-1.0937873528268096;1.215;0.03624068048646581
29:49.3;0.2484565478481623;-0.1662000353370183;-1.0498259084886024;1.148;0.04335097253811376
29:49.3;0.255983070905218;-0.17926377811231461;-1.0037748986588269;1.068;0.046061716831766054
29:49.3;0.24971249529777367;-0.186671721657378;-0.956672443885796;0.998;0.04459457938934561
29:49.3;0.23185728643666964;-0.18916277211019314;-0.9098699736496652;0.929;0.03990577520763192
29:49.3;0.20481824202327478;-0.1876746033898744;-0.8648981806713837;0.8859999999999999;0.03324597887126265
29:49.4;0.1709832621420309;-0.18324747171720498;-0.823326338428852;0.84;0.025796667073538452
29:49.4;0.13258286953255846;-0.1769224203879332;-0.78662903847895;0.7070000000000001;0.018451864674713974
29:49.4;0.0916093216373279;-0.16963978628398796;-0.7560726851169663;0.7070000000000001;0.011749812391890671
29:49.4;0.04979629379569064;-0.16215496923372977;-0.7326382254961553;0.7070000000000001;0.005915845959441514
29:49.4;0.008645648236970208;-0.1549937122844261;-0.7169953211477366;0.69;0.0009607888699474991
29:49.4;-0.03052311319652646;-0.14845959512672777;-0.7095310261211634;0.7070000000000001;0.0032152036780591364
29:49.4;-0.06653047542142514;-0.142687967557419;-0.7104236527810097;0.774;0.006744121583646535
29:49.4;-0.09832674425305252;-0.1377225944836628;-0.7197451441178072;0.838;0.009746655103440164
29:49.4;-0.12502667101924358;-0.13358151749624272;-0.7375655273556604;0.8809999999999999;0.012318268065071136
29:49.4;-0.14598470796433122;-0.13028550942815736;-0.7640217010674668;0.912;0.014531457470652492
29:49.5;-0.16088987289253778;-0.12784410852348707;-0.7993118438944098;0.929;0.016440903335623917
29:49.5;-0.1698483337776166;-0.12621539429877474;-0.843591654963721;0.8959999999999999;0.018084474523140374
29:49.5;-0.173421546712513;-0.12526487425741875;-0.8967743118836999;0.8959999999999999;0.019481191768758357
29:49.5;-0.17259668575257908;-0.12474653340394236;-0.9582637874474821;0.8959999999999999;0.020632222584066235
29:49.5;-0.1686783447729173;-0.12432042918105857;-1.026673044459347;0.828;0.021529502338165342
29:49.5;-0.16310286534215043;-0.12360957185402577;-1.0995936276447815;0.813;0.022168989984743856
29:49.5;-0.15719179684946097;-0.12228557965120809;-1.1734955526040531;0.857;0.02255727181900192
29:49.5;-0.1518802167607701;-0.12016104977823398;-1.2438392238654685;1.013;0.022700173162102696
29:49.5;-0.14747384262535448;-0.11726186929485201;-1.3054542525936457;1.386;0.022575296704795546
29:49.5;-0.1434999071249166;-0.11385477815198147;-1.353169377624774;1.743;0.022108284389552535
29:49.6;-0.13871451447768376;-0.1104115975853404;-1.3825751296435582;1.9180000000000001;0.021175093679719606
29:49.6;-0.13130288765582582;-0.10750535364994045;-1.3907208559732194;1.568;0.019631086520393918
29:49.6;-0.1192512952990887;-0.10565713449923976;-1.3765643967563248;1.568;0.017344367459868396
29:49.6;-0.10080137208517974;-0.10517297845225525;-1.3411080740347214;1.568;0.014217865252042015
29:49.6;-0.07486743162870353;-0.10601175931970824;-1.2872648471993573;1.374;0.010216799866369069
29:49.6;-0.0413243791604319;-0.10771128180382294;-1.2195267388718507;1.226;0.005428237722440496
29:49.6;-0.0011213520055876236;-0.10938499746590209;-1.1434965239976527;1.0859999999999999;0.00014026023880887024
29:49.6;0.043788043174253076;-0.10978900117921832;-1.0653477224317034;0.9570000000000001;0.005121601139381606
29:49.6;0.0906786745867761;-0.10744559002336981;-0.9912836054941699;0.8809999999999999;0.009658099655320997
29:49.6;0.1364005367685228;-0.1008004453540872;-0.9270542085884625;0.8490000000000001;0.012746286035162788
29:49.7;0.17776912134602696;-0.08838838214161644;-0.8775706016794385;0.838;0.01378902555905
29:49.7;0.21192541358506004;-0.068985271103926;-0.8466362021919126;0.875;0.01237759447065409
29:49.7;0.23660702094821018;-0.04173344463810039;-0.8367941014648314;0.875;0.008262861440291295
29:49.7;0.2503043168722542;-0.006243228785557038;-0.849268631918269;0.875;0.001327158134703224
29:49.7;0.25230873964427325;0.03732123325589491;-0.8839701478829626;0.871;0.008323881317428295
29:49.7;0.24267925819573802;0.08817748272288731;-0.9395416442727771;0.94;0.02010510704728792
29:49.7;0.2221592281422461;0.14490579963440098;-1.0134415241132164;1.023;0.032624872303076445
29:49.7;0.1920746127315646;0.20550224163024103;-1.1020616270063062;1.111;0.04350031587782653
29:49.7;0.1542333043768044;0.26751088624162633;-1.2008769349568942;1.163;0.04954708706668189
29:49.7;0.11082755410753499;0.32821541751296696;-1.304629137188931;1.2009999999999998;0.047456291835625095
29:49.8;0.06432858781974866;0.3848554151868449;-1.4075651553946267;1.308;0.03484737962904303
29:49.8;0.017359661296820532;0.4348380432711784;-1.5037634909791682;1.818;0.011351370968113375
29:49.8;-0.02745795342486421;0.4759275540396693;-1.5875515185688196;1.818;0.020746117866716682
29:49.8;-0.06767531350266012;0.5063984435944174;-1.6539520118700881;1.818;0.05668204926357517
29:49.8;-0.10118434772177551;0.5251404888429353;-1.6990664059120266;1.903;0.09028158885054466
29:49.8;-0.12637677852176563;0.5317152580481522;-1.7203399558545958;1.952;0.1156007574436131
29:49.8;-0.1422917128587195;0.5263727067939757;-1.7167014624786632;1.982;0.12857831994213728
29:49.8;-0.1487336236996757;0.5100303480119001;-1.6885786436736436;1.9380000000000002;0.12809331634874319
29:49.8;-0.1463190715567923;0.4842018070898485;-1.6377839467516175;1.8119999999999998;0.11603364968022072
29:49.8;-0.1364078495109275;0.4508508656220383;-1.5672759526232818;1.653;0.09638683952058075
29:49.9;-0.12090328712078474;0.4121554125318337;-1.4808235129089307;1.486;0.07379083381178443
29:49.9;-0.10195468053758269;0.3701994158709963;-1.3826171709951331;1.21;0.052184898547659994
29:49.9;-0.08163497866626028;0.3266578664028649;-1.276883872777056;1.061;0.03405028932774913
29:49.9;-0.06167695115340158;0.2825694701696761;-1.1675707262091206;1.061;0.02034844994814973
29:49.9;-0.04332813616467717;0.2382783817053042;-1.0581558859793991;1.061;0.010924568732856101
29:49.9;-0.027345515997044503;0.19357592704033194;-0.9516019117632113;0.993;0.005037241542614786
29:49.9;-0.014115215599389611;0.1480172724331708;-0.8504116345286534;0.99;0.0017767613821595928
29:49.9;-0.003853187125772588;0.10134138698052449;-0.7567201070071367;0.929;0.000295489612342517
29:49.9;0.00318551485484885;0.05388170654796482;-0.6723675563316307;0.872;0.00011540582401175724
29:49.9;0.006576337525875233;0.006829568001971162;-0.598926836392901;0.759;2.6899927020879647e-05
29:50.0;0.0057402049135780705;-0.03777387368068414;-0.5376829867424561;0.607;0.00011658568120162385
29:50.0;0.00011228241964106081;-0.07737390791126464;-0.4895734019708195;0.636;4.253281334382804e-06
29:50.0;-0.010592927723504486;-0.10950322412460821;-0.4551063673910508;0.636;0.0005279050629735463
29:50.0;-0.026117126883800145;-0.13245703824582095;-0.4342923186301143;0.636;0.0015023896634133263
29:50.0;-0.04548939418736507;-0.1458109157731315;-0.42662688940791293;0.677;0.0028297522591548725
29:50.0;-0.06701439874418601;-0.15062645351991139;-0.4311432767904491;0.596;0.004352021120944159
29:50.0;-0.08843594322189456;-0.14930418813198143;-0.4465239835583018;0.46799999999999997;0.005895838693995509
29:50.0;-0.1072499398544947;-0.14513484507634608;-0.4712501422065594;0.6;0.007335339943259539
29:50.0;-0.12109496030938828;-0.14168080788941573;-0.5037653346194264;0.7090000000000001;0.008643017116751662
29:50.0;-0.12812010766184775;-0.14217013865644662;-0.5426258775640458;0.7240000000000001;0.009883850849382217
29:50.1;-0.12724319862527067;-0.14905558097284183;-0.5866017953209153;0.693;0.011125670848965008
29:50.1;-0.11825798002281471;-0.16379571720757158;-0.6346983099403158;0.6970000000000001;0.012294201882974108
29:50.1;-0.10179702478714915;-0.1868264930177899;-0.6860928652736762;0.6970000000000001;0.013048375609640384
29:50.1;-0.0791870665342467;-0.21765445958919125;-0.7400110636445855;0.6970000000000001;0.012754400134534898
29:50.1;-0.05223812623613794;-0.255013930479925;-0.7955802423389002;0.778;0.0105982823336884
29:50.1;-0.02299495144116296;-0.2970576038674289;-0.8517010765220181;0.8420000000000001;0.005817821156068963
29:50.1;0.006526043993794223;-0.34156171484685965;-0.9069702231635702;0.915;0.0020216790534002744
29:50.1;0.034580615910499934;-0.38612025118890686;-0.9596752975286836;1.002;0.012813849540516273
29:50.1;0.05988190991877462;-0.4283064534605235;-1.0078697172639266;1.082;0.02584964946480198
29:50.1;0.08169945270401943;-0.4658061098685926;-1.049516188857458;1.237;0.03994049748730074
29:50.2;0.09986144682036334;-0.4965477755203191;-1.0826660389044662;1.329;0.053685055771077
29:50.2;0.11466346700481157;-0.5188401992929303;-1.1056301379347226;1.247;0.06577616593613657
29:50.2;0.12670439570184108;-0.5314943553705208;-1.1171081216205125;1.247;0.07522904483548302
29:50.2;0.13669271959927137;-0.5338986922367895;-1.1162722005629213;1.247;0.0814656168978588
29:50.2;0.1452747572787811;-0.5260358784613489;-1.1028259907904614;1.2670000000000001;0.08427766948582883
29:50.2;0.15292138811336015;-0.5084480498833414;-1.0770561492971154;1.286;0.08374389610551596
29:50.2;0.1598847262071658;-0.4821635918611145;-1.0398711456479102;1.226;0.08016428416812348
29:50.2;0.16621511495178998;-0.44860040506626375;-0.9928017167922446;1.147;0.07402743389784609
29:50.2;0.17181513663767742;-0.40945927182892883;-0.9379398518992598;1.072;0.0659852885940426
29:50.2;0.17650327491462076;-0.3666133940620749;-0.8778135904297704;0.975;0.056801969711527955
29:50.3;0.18006775341055567;-0.32199439115076584;-0.8152130009843239;0.8690000000000001;0.04726670736851735
29:50.3;0.18230556730275976;-0.2774796596779442;-0.7529896328161798;0.667;0.038090798904480624
29:50.3;0.18305097558797706;-0.23479619037357613;-0.693859109457983;0.667;0.02982183673903986
29:50.3;0.1821954387802427;-0.1954587336713528;-0.6402465208626312;0.667;0.022800260461072554
29:50.3;0.17969410043188058;-0.16074814236559143;-0.5942064582846275;0.667;0.01716394639535966
29:50.3;0.17555245963706367;-0.13171591580203815;-0.5574173776151298;0.633;0.012889191561477158
29:50.3;0.16979214419532435;-0.10919068099561409;-0.5312197500473497;0.595;0.00984866534593608
29:50.3;0.16240293198603173;-0.09376994141629372;-0.5166614776971405;0.556;0.007867986245759618
29:50.3;0.153294934608231;-0.08579497195525398;-0.5145275795559857;0.521;0.006767033084241024
29:50.3;0.14226417660050245;-0.0853130081558949;-0.5253511011256583;0.506;0.006376178359816383
29:50.4;0.12897534890647436;-0.09202941339264686;-0.5494190936710782;0.5589999999999999;0.00652134405348456
29:50.4;0.1129558181287044;-0.10525511708861027;-0.5867903506679177;0.722;0.006976454847369253
29:50.4;0.09359689548752262;-0.12386339563169492;-0.6373223392666529;0.722;0.007388624014370723
29:50.4;0.0701721189889415;-0.14627573297651592;-0.7006773563220805;0.722;0.007192087406896626
29:50.4;0.041891109648977826;-0.17049532872973794;-0.7762752784721967;0.76;0.0055443431886190555
29:50.4;0.008000996328754416;-0.1942019335948577;-0.8631905899423703;0.843;0.001341233270880237
29:50.4;-0.0320633264395346;-0.21491201687855738;-0.960022476700499;0.937;0.006615317269154094
29:50.4;-0.07848723232403428;-0.23019257790518297;-1.0647732897328626;1.0270000000000001;0.019237448918669586
29:50.4;-0.13086726478577312;-0.23790163159379443;-1.174762496547194;1.105;0.03657451026008017
29:50.5;-0.18803828804664632;-0.2364202364024538;-1.2865993161302636;1.182;0.05719713190708923
29:50.5;-0.2480116625139304;-0.2248391391642293;-1.396242990457255;1.198;0.07785831907938594
29:50.5;-0.30808810557492894;-0.20306686825611492;-1.4991836114502568;1.79;0.09379265482126724
29:50.5;-0.36514921347888624;-0.1718429811118045;-1.5907494985708368;1.79;0.09981687352100342
29:50.5;-0.41604847933161404;-0.13266957788152103;-1.6664846656873036;1.79;0.09198491431490952
29:50.5;-0.45798732297632305;-0.08769082670854916;-1.7225035927200527;1.909;0.06917796110068164
29:50.5;-0.48880161153695345;-0.039538202281166335;-1.7557638599034362;1.964;0.03393248403540953
29:50.5;-0.5071371642280755;0.008857315768283157;-1.7642467753070445;1.9669999999999999;0.007924774222055038
29:50.5;-0.5125096525529982;0.054480868534757296;-1.7470481953303034;1.912;0.04878102905178919
29:50.5;-0.5052479460658635;0.09445700316944985;-1.7043775782898485;1.8259999999999998;0.08134006808470794
29:50.6;-0.4863361461800273;0.12625219104585575;-1.6374710883146841;1.726;0.10054236890903576
29:50.6;-0.45718931789246703;0.14782826302334678;-1.5484377768797564;1.611;0.10465194560718297
29:50.6;-0.41940877558001954;0.15772413529213603;-1.4400678189516387;1.251;0.09526176278947049
29:50.6;-0.37456577582527023;0.15506006442020814;-1.3156445889400679;1.251;0.07641289207798614
29:50.6;-0.32405838533677;0.13948637128721908;-1.1788133272230885;1.251;0.05328439968147873
29:50.6;-0.2690676937669969;0.11111519197103936;-1.0335388752878922;1.143;0.03090023725331797
29:50.6;-0.2106076509219822;0.07046261170126823;-0.8841303214025605;1.005;0.013120463138426441
29:50.6;-0.14963523205078122;0.018405854196111685;-0.735270949095459;0.83;0.002025056972156095
29:50.6;-0.08717711755711106;-0.043850448708226276;-0.5920003930910522;0.6559999999999999;0.002263072890096783
29:50.6;-0.02443305834546292;-0.11480253899504793;-0.45962866097030647;0.526;0.001289247883910656
29:50.7;0.03717199474661869;-0.1926700052459526;-0.3435858388162301;0.426;0.0024607371847010636
29:50.7;0.0960009542394829;-0.27541305392004467;-0.24921836966239203;0.389;0.0065893127561248875
29:50.7;0.15028375782953016;-0.360749246864125;-0.18154023060555777;0.495;0.009842158662525156
29:50.7;0.19824670176992337;-0.44617480102592655;-0.1449465371402495;0.495;0.012820910060484442
29:50.7;0.2382572259681501;-0.5289938642283649;-0.14290112584780743;0.495;0.01801077355924404
29:50.7;0.268948279444967;-0.6063679806899406;-0.1776104258885988;0.609;0.028964996891649122
29:50.7;0.28930941223781875;-0.6754134107490382;-0.24969342821759433;0.727;0.04879095903427183
29:50.7;0.2987538784667202;-0.7333689794009075;-0.35786675995965844;0.85;0.07840747157560547
29:50.7;0.29717301461922707;-0.7778248798232974;-0.49868938664609125;0.946;0.11527133579624654
29:50.7;0.2849782972047643;-0.8069719890853917;-0.6664356231774933;1.02;0.15325986927120888
29:50.8;0.2631197883440875;-0.8198238709132213;-0.8531707188499354;1.136;0.1840390626198325
29:50.8;0.23306274863130366;-0.816371999676427;-1.0490915733955881;1.232;0.19960635465030724
29:50.8;0.19670714965703653;-0.7976446997687221;-1.2431648352462568;1.8630000000000002;0.19505556530414045
29:50.8;0.15625203457803405;-0.7656542163813648;-1.4240189719747292;1.8630000000000002;0.1703625511409508
29:50.8;0.114029131186107;-0.7232373135203143;-1.5809402957661798;1.8630000000000002;0.13038033986033595
29:50.8;0.07233431918513808;-0.6738070346454483;-1.7047898822759566;2.065;0.08309039015191624
29:50.8;0.03326654620097713;-0.6210312354013324;-1.7887382412963855;2.201;0.03695455268461457
29:50.8;-0.001431537869968629;-0.5684611778431604;-1.8287892308448477;2.237;0.0014882205856520028
29:50.8;-0.030528538665404156;-0.5191594247921486;-1.8240580402207087;2.191;0.028909821607478035
29:50.8;-0.053429191589813144;-0.475393879192283;-1.7767491298057971;2.057;0.045129269148066406
29:50.9;-0.0702271144926713;-0.4384548285265561;-1.6918080253030383;1.8459999999999999;0.05209316714018333
29:50.9;-0.08165001844210934;-0.4086224523206193;-1.5762751740997798;1.584;0.05259089340724505
29:50.9;-0.08889241143677828;-0.38527922881580134;-1.4384256555524975;1.0170000000000001;0.049263776827407575
29:50.9;-0.09336904096189946;-0.36713421098753846;-1.2868367969544785;1.0170000000000001;0.04411143890791023
29:50.9;-0.0964478076424721;-0.3525084941991511;-1.1295661051729593;1.0170000000000001;0.03840374688050421
29:50.9;-0.09922097337253155;-0.33962857275681313;-0.9735877080374713;0.9109999999999999;0.03280822882813439
29:50.9;-0.10235299979613866;-0.3268874193733466;-0.8245265079102272;0.836;0.027586932019232936
29:50.9;-0.10602048214605785;-0.3130513122804938;-0.6866345148790531;0.774;0.022789297284535718
29:50.9;-0.10994324161406079;-0.2974032385837501;-0.5629273509264137;0.722;0.01840630361219453
29:50.9;-0.11349063675746197;-0.2798208542854135;-0.45540642637468354;0.67;0.014462363254999963
29:51.0;-0.11583269803652241;-0.2607909112521823;-0.365298959812776;0.6;0.011034992941283364
29:51.0;-0.116098491841302;-0.2413625636599889;-0.29325775859123826;0.52;0.008217618948296162
29:51.0;-0.11350861151726951;-0.22304098307353812;-0.23948583990491817;0.264;0.0060630803237287645
29:51.0;-0.10746562506031405;-0.2076275203991581;-0.2037878492192826;0.264;0.004547081854471208
29:51.0;-0.09761000459569716;-0.1970251517905423;-0.1855858432301771;0.264;0.0035691175226532554
29:51.0;-0.08386305826812317;-0.19303458585164104;-0.18394569785115528;0.264;0.00297779954392455
29:51.0;-0.06647220109546939;-0.19715736209031284;-0.19763841913453606;0.271;0.002590147104241196
29:51.0;-0.046058754322420195;-0.21041040057827876;-0.22523473064814076;0.299;0.0021828040443701213
29:51.0;-0.023659237872373656;-0.23315718788246553;-0.2652195690100384;0.34;0.0014630363762099296
29:51.0;-0.0007477368342006616;-0.26497134843403397;-0.31610994510180207;0.391;6.263049586047401e-05
29:51.1;0.020776972257728663;-0.3045586804719595;-0.376559450921972;0.43799999999999994;0.002382795625489028
29:51.1;0.03866147787378217;-0.3497692828365629;-0.4454373686714692;0.49700000000000005;0.006023470198699901
29:51.1;0.05044821074817736;-0.39772683248424157;-0.5218763091505958;0.887;0.01047124307983229
29:51.1;0.053714775387997724;-0.44507515393750097;-0.605276335511883;0.887;0.01447040909835279
29:51.1;0.046379222202352854;-0.48829859515675944;-0.6952358087941111;0.887;0.01574494212719355
29:51.1;0.027025380978641652;-0.5240537752824309;-0.7913809891579716;0.887;0.011208133423183272
29:51.1;-0.004794682704863366;-0.549477666777388;-0.8931063159157709;1.032;0.0023529520584218565
29:51.1;-0.048317772817174164;-0.5624670000370939;-0.9992833393883801;1.145;0.027157675930055847
29:51.1;-0.10143763400616758;-0.5619125135995114;-1.1080136486414573;1.1540000000000001;0.06315575405492647
29:51.1;-0.16075056381754835;-0.5478412273510673;-1.216495528028613;1.185;0.10713163505929864
29:51.2;-0.22182363486644702;-0.5214185079335273;-1.3210612461360918;1.3519999999999999;0.15279783916313408
29:51.2;-0.2796735216270062;-0.4847935848605226;-1.417416892486001;1.518;0.19217895151283562
29:51.2;-0.32938585608588217;-0.4408079901550306;-1.50106950712297;1.922;0.21794916387774654
29:51.2;-0.36676651647086683;-0.3926172106909859;-1.5678635220099255;1.922;0.2257705389079667
29:51.2;-0.38890026814774753;-0.3433060298539236;-1.614500247627754;1.922;0.21555484557078658
29:51.2;-0.3945108614066593;-0.2955817277401882;-1.6389207841880222;1.922;0.19111488375016916
29:51.2;-0.38406972949980794;-0.25158703970013463;-1.6404945174244865;1.8619999999999999;0.15851600842309493
29:51.2;-0.35965795344892837;-0.21282402953993568;-1.6200168485356579;1.78;0.12400233460459065
29:51.2;-0.3246275905819453;-0.18016217605922175;-1.5795434310682088;1.653;0.09238056602849544
29:51.2;-0.2831333516624867;-0.15390954345401198;-1.5220926438842497;1.508;0.0663281168196534
29:51.3;-0.2396123258846267;-0.13392859327311948;-1.4512583792264913;1.36;0.04657224809255099
29:51.3;-0.1982824172526241;-0.1197735238303005;-1.3707895337555809;1.2670000000000001;0.032554858468666265
29:51.3;-0.1627194383592644;-0.11082447685124978;-1.2841989787532324;1.048;0.023158341115407995
29:51.3;-0.13555575371049758;-0.10640325803618969;-1.194461332441163;1.048;0.017228401227905876
29:51.3;-0.11831502617493757;-0.10587152994370337;-1.1038471774065213;1.048;0.01382700260618714
29:51.3;-0.11136977980923947;-0.10872288893255766;-1.0139135033890234;1.002;0.012276915080064798
29:51.3;-0.11399620753959487;-0.11467718514408015;-0.9256281902915275;0.9690000000000001;0.012100519066462975
29:51.3;-0.12450295669625601;-0.12377297781797743;-0.8395761194966566;0.929;0.012937953384184088
29:51.3;-0.1404184739746696;-0.1364388373684246;-0.7561913956543754;0.872;0.014487518060643509
29:51.3;-0.15872930323911782;-0.15351229692694698;-0.675972118079514;0.805;0.016471344956612847
29:51.4;-0.17616445276897388;-0.17617478480589685;-0.5996484351424167;0.727;0.018610529660613998
29:51.4;-0.18951494503776076;-0.20578708360326103;-0.5282889999020721;0.644;0.020603127216282217
29:51.4;-0.1959660490460512;-0.24363837814133382;-0.4633445686641578;0.586;0.02212231709614881
29:51.4;-0.19340888292182784;-0.2906476746691169;-0.40663921044239637;0.586;0.022858752359987543
29:51.4;-0.18069297958457925;-0.34706492648587567;-0.36032479570893833;0.586;0.022596759095426574
29:51.4;-0.1577849698527346;-0.4122153101791633;-0.3268044880237165;0.586;0.02125581498585116
29:51.4;-0.1258083935554402;-0.4843298206523645;-0.30860977152336305;0.551;0.018804444119546588
29:51.4;-0.08694986353653794;-0.5605092169175749;-0.30820426829043246;0.54;0.015020704836202336
29:51.4;-0.0442278205236642;-0.6368616887855149;-0.3277003250653705;0.602;0.009230336520937871
29:51.4;-0.001137797403535762;-0.708828338782709;-0.36850446177298535;0.763;0.00029719996993358993
29:51.5;0.0387859831295441;-0.7716680414393062;-0.4309421537826757;0.9620000000000001;0.012898057135782105
29:51.5;0.07242403351141466;-0.8210277768939059;-0.5139418072658122;1.1059999999999999;0.030560081354274113
29:51.5;0.09745324848915786;-0.853496097998168;-0.6148669673694598;1.295;0.05114215478575571
29:51.5;0.11258200982335177;-0.8670400311938646;-0.7295508521446274;1.295;0.07121372707694561
29:51.5;0.11760825159559143;-0.86125453856824;-0.852518449496535;1.295;0.08635213975328143
29:51.5;0.11331541320972219;-0.8373905906839989;-0.9773449641580553;1.328;0.0927395411968218
29:51.5;0.1012405726812641;-0.7981617508368862;-1.0971227718041725;1.445;0.08865448970518179
29:51.5;0.08335546537275264;-0.7473622556103855;-1.2050230536603437;1.569;0.07506899415283481
29:51.5;0.06171618048349629;-0.6893608954880711;-1.294897602425612;1.6269999999999998;0.05509105779396842
29:51.5;0.038152442085527635;-0.6285540380868029;-1.3618220592848649;1.706;0.03265767985823537
29:51.6;0.014061740509748951;-0.5688638291954506;-1.4024826122358176;1.709;0.011218760722545176
29:51.6;-0.009656064915419708;-0.51335677651755;-1.4153409776840933;1.617;0.0070158542262843265
29:51.6;-0.032529035732400034;-0.4640315756392426;-1.4005578231498064;1.319;0.02114071964827329
29:51.6;-0.05435054600069612;-0.42178508919385943;-1.35971511549775;1.319;0.031170449090468344
29:51.6;-0.07498533202163886;-0.38652746512518144;-1.2954353066645061;1.319;0.03754675482933728
29:51.6;-0.0942017670636156;-0.3573979870455251;-1.2110027820118987;1.19;0.04077146271421914
29:51.6;-0.11156774430853916;-0.333033784592963;-1.1100455451552895;1.094;0.041244661487347706
29:51.6;-0.12642349579131704;-0.3118525760124745;-0.9962893251185928;1.002;0.03927919764508926
29:51.6;-0.13792373490658047;-0.2923185599283181;-0.8733852189417972;0.904;0.03521285491594892
29:51.6;-0.14512715196747672;-0.2731665759377508;-0.7448126615485783;0.8190000000000001;0.02952726912358979
29:51.7;-0.14710707748418836;-0.2535663856205017;-0.6138510719269794;0.731;0.02289751047412964
29:51.7;-0.14306325123352617;-0.23321733483330176;-0.48359947670608955;0.655;0.016135214408312143
29:51.7;-0.13242591800691095;-0.21237296407278583;-0.3570148590696355;0.29100000000000004;0.010040573339395661
29:51.7;-0.11495416889839122;-0.1918044143985413;-0.23695363090279647;0.29100000000000004;0.005224523561325762
29:51.7;-0.09083694268708345;-0.17271802679652445;-0.12623413512353898;0.29100000000000004;0.0019805097526563514
29:51.7;-0.060803220641271596;-0.15664033216065057;-0.02774665890231259;0.29100000000000004;0.0002642657464006513
29:51.7;-0.026236539908294314;-0.14527254942830467;0.05540420215317963;0.207;0.0002111702931450129
29:51.7;0.010725483391496407;-0.140309666504895;0.11978533173101508;0.159;0.00018026362781559352
29:51.7;0.04713668733995743;-0.14322797976545054;0.16161234850561032;0.134;0.001091092236460227
29:51.7;0.07926882040292128;-0.15506455495164778;0.17685992040710383;0.10400000000000001;0.0021739240030970914
29:51.8;0.10275503145719729;-0.17622682178379453;0.16153230682943828;0.106;0.002925058125773587
29:51.8;0.11288029433250726;-0.20637112514610703;0.11210910939355788;0.111;0.0026116078637844183
29:51.8;0.10503288512523437;-0.24437652723510023;0.02615182460500481;0.473;0.0006712538334587536
29:51.8;0.07529363078419642;-0.28841560625166845;-0.09699388350237857;0.473;0.0021063054174479488
29:51.8;0.0210821300489726;-0.33609425105808066;-0.25552322496067137;0.473;0.0018105309446617404
29:51.8;-0.058259881184194603;-0.3846226641061222;-0.444685511760709;0.473;0.009964544391945137
29:51.8;-0.16106263172836857;-0.43100326444616455;-0.6566433386006004;0.45;0.04558320876977059
29:51.8;-0.28318949170574936;-0.4722505790678185;-0.8807921384580352;0.73;0.11779397101750895
29:51.8;-0.4182225768845809;-0.5056586338249806;-1.1045781427259123;1.288;0.2335938183605274
29:51.8;-0.5579697346973005;-0.5290942997409344;-1.3147517914512155;1.9340000000000002;0.3881391911822552
29:51.9;-0.693216176734703;-0.5412438110836575;-1.4988840485216133;2.478;0.5623797442609714
29:51.9;-0.8146106780811824;-0.5417260041201815;-1.6468739152370149;2.721;0.7267585214209769
29:51.9;-0.913592732641257;-0.531038149297508;-1.7521288515628397;2.6689999999999996;0.8500498572764194
29:51.9;-0.9832729718611883;-0.5103747050404566;-1.8121709661855918;2.6689999999999996;0.9094156244834054
29:51.9;-1.0191394968579786;-0.4813930241497751;-1.828600039248264;2.6689999999999996;0.8971233292472518
29:51.9;-1.0194434314011456;-0.4459847933001548;-1.8064984020374852;2.51;0.8213358216809046
29:51.9;-0.9851855468164329;-0.4060844365755405;-1.753406953526414;1.62;0.7014829208244944
29:51.9;-0.9197427514341777;-0.36353320051928895;-1.67802455937766;1.382;0.5610593013682266
29:51.9;-0.8282613670048555;-0.32000834664819894;-1.5888695523590388;1.361;0.4211307497602882
29:51.9;-0.7169725031051415;-0.2770036526905297;-1.4931910189290036;1.262;0.2965537124663264
29:52.0;-0.5925559383056228;-0.23583149676462123;-1.3963169457334308;1.306;0.19512601303071914
29:52.0;-0.46161523758021034;-0.19763001410997383;-1.3014561049999718;1.286;0.11873057273204202
29:52.0;-0.33026909197559895;-0.16337884324953028;-1.209863695640937;1.151;0.0652830136272502
29:52.0;-0.20384789966155548;-0.13392765762020775;-1.121254900845917;1.151;0.030611236204974066
29:52.0;-0.08670499468378767;-0.11003029151430592;-1.0343628686720878;1.151;0.009868003650329658
29:52.0;0.01784220421812535;-0.09236922837354193;-0.947556723505662;1.071;0.0015616404120596043
29:52.0;0.10745820087023898;-0.08155549547231453;-0.8594480432206392;1.0;0.00753203661791653
29:52.0;0.18066816435066776;-0.07809890272376066;-0.769426901644303;0.9640000000000001;0.010856602343107888
29:52.0;0.2367086434925788;-0.08235731858964296;-0.6780851246091781;0.9259999999999999;0.013219058731693701
29:52.0;0.2753694153237993;-0.094479455762958;-0.5874946635119779;0.872;0.015284703251876393
29:52.1;0.296833916933529;-0.11435132150067112;-0.5013097724822798;0.7979999999999999;0.0170161334004455
29:52.1;0.3015235426469645;-0.14155034288180207;-0.42466294466049137;0.73;0.01812493758232242
29:52.1;0.28995660794338923;-0.17530776363042183;-0.36383612753673344;0.429;0.018494388686990156
29:52.1;0.2626438957278006;-0.21447795589767663;-0.32571813489936036;0.429;0.018348134403572934
29:52.1;0.22005109100183418;-0.25751399137659114;-0.3170996340748194;0.429;0.01796884230383077
29:52.1;0.16265178004462513;-0.30245678385867675;-0.3438770673206273;0.33899999999999997;0.01691707850305877
29:52.1;0.09107241869934563;-0.34695912285783126;-0.41022688232406973;0.281;0.012962515788376644
29:52.1;0.006308803261785893;-0.3883752800119655;-0.5178124679531715;0.302;0.0012687354269914533
29:52.1;-0.09001872674556123;-0.42394167925032444;-0.6651224553935386;0.41700000000000004;0.025382862197269946
29:52.1;-0.19541603275531103;-0.4510529139249304;-0.8470780462959773;0.5760000000000001;0.07466397567104012
29:52.2;-0.30633594676127296;-0.4676052210627855;-1.0550510539645417;0.812;0.15113003713935147
29:52.2;-0.4181536511141555;-0.4723456614281366;-1.2773967097847148;1.147;0.2523025367059804
29:52.2;-0.5253790712119787;-0.46514359546696726;-1.5005211162075667;2.5269999999999997;0.366692413914373
29:52.2;-0.6221237318296499;-0.44711102432664834;-1.7103465438134018;2.5269999999999997;0.47574722214901183
29:52.2;-0.7027204668030215;-0.42054458913517395;-1.893853117984113;2.5269999999999997;0.5596814918879827
29:52.2;-0.7623295025573787;-0.388707157861506;-2.040334704534731;2.5269999999999997;0.6045979665876836
29:52.2;-0.7974239930157535;-0.3554713932306602;-2.1421822408076925;2.62;0.6072260151500475
29:52.2;-0.8061410303559422;-0.3248338750848821;-2.195219264075049;2.609;0.5748443197987209
29:52.2;-0.788501729355675;-0.3003341671663872;-2.1986925897627945;2.625;0.5206812093684009
29:52.2;-0.7464667330549127;-0.2844898660214314;-2.1549995285946295;2.525;0.45764048587962247
29:52.3;-0.6837799790959006;-0.2784156670457403;-2.0691991271233032;2.323;0.3939239058933439
29:52.3;-0.6055895866366132;-0.2817462707384271;-1.948337607251037;2.094;0.33243044309840014
29:52.3;-0.5178887225342864;-0.29284853538670563;-1.8006295289155851;1.375;0.27308879321231916
29:52.3;-0.4268643996683658;-0.30920334602763716;-1.634588244319432;1.375;0.2157458708399033
29:52.3;-0.3382711791436068;-0.3278283096049219;-1.458257377864401;1.375;0.16171326066302338
29:52.3;-0.2569351598740319;-0.34566205563766905;-1.2786794749459556;1.206;0.1135630220330108
29:52.3;-0.18643562583170742;-0.3598823610102254;-1.1016374821819825;1.088;0.07391424921292544
29:52.3;-0.12896043383457212;-0.36815896507077867;-0.9316150186554772;1.0070000000000001;0.04423116182431212
29:52.3;-0.08532040633523758;-0.36884819353081755;-0.7719020334845015;0.915;0.024291971388055517
29:52.3;-0.0551079250748168;-0.3611316104513975;-0.6247843270322255;0.8240000000000001;0.012433966427987057
29:52.4;-0.03696943805854408;-0.3450942539847647;-0.49176160069186853;0.74;0.006273865314124785
29:52.4;-0.028939496655380245;-0.32173129119909233;-0.3737462610545396;0.648;0.0034798548702081196
29:52.4;-0.028772379218759532;-0.2928681470472862;-0.27121465517835447;0.315;0.0022853939228659205
29:52.4;-0.03421683473870415;-0.26098890459237273;-0.18431566476282318;0.315;0.0016459783698941587
29:52.4;-0.043206408582322574;-0.2289909781718248;-0.11297617541913986;0.315;0.0011177724699041834
29:52.4;-0.053964111541061004;-0.19989673319657622;-0.057046334500527936;0.24;0.0006153730494166904
29:52.4;-0.06503328002555316;-0.17654216983203486;-0.016491728162303;0.16899999999999998;0.0001893434501244223
29:52.4;-0.07525128844952367;-0.16125309698397422;0.008397115677566926;0.14;0.00010189482802184422
29:52.4;-0.08368706636744956;-0.15553042722119853;0.016820168781204715;0.166;0.0002189293856487885
29:52.4;-0.08956565584758176;-0.15978470845871665;0.007353032259532457;0.19399999999999998;0.00010523087856522893
29:52.5;-0.09219991073130818;-0.17316687824616356;-0.02205157938281923;0.247;0.00035207487066577983
29:52.5;-0.0909427068063636;-0.19353657604725782;-0.07390410722048112;0.29100000000000004;0.0013007669829022317
29:52.5;-0.08516657216014076;-0.21759621013564676;-0.15083310023594787;0.27699999999999997;0.0027952274495443062
29:52.5;-0.0742732522575411;-0.24119439939830778;-0.2550567336176664;0.27699999999999997;0.004569160922371976
29:52.5;-0.0577328866767833;-0.25976843315765524;-0.3877185424176593;0.27699999999999997;0.005814685356863459
29:52.5;-0.03515006774647872;-0.26887598819945085;-0.5481831141461655;0.354;0.005180883655415609
29:52.5;-0.006353374181629329;-0.2647704118345399;-0.733421121353516;0.49200000000000005;0.0012337503747143852
29:52.5;0.028492701466392347;-0.2449706713310704;-0.9376307200692394;0.665;0.006544546353267753
29:52.5;0.06875674960944662;-0.20874863051264475;-1.1522365985537266;0.958;0.016537910542048274
29:52.5;0.11321195284298252;-0.157427079834558;-1.3663601589509946;1.329;0.024352127649801037
29:52.6;0.15996313868768836;-0.09438237945274144;-1.567760286290242;1.8330000000000002;0.023669577067514002
29:52.6;0.2065041579837846;-0.02468699619191057;-1.74412019613929;2.385;0.008891467834903483
29:52.6;0.24996011270140928;0.04559628586234716;-1.8844394102030169;2.502;0.021477432255643452
29:52.6;0.2874921378961573;0.11035355412471842;-1.9802465492395835;2.502;0.06282486478225101
29:52.6;0.31675122580696735;0.16437522628906343;-2.02642280421549;2.502;0.10550784000091273
29:52.6;0.33624077286832305;0.204087512776269;-2.0215652631280947;2.502;0.1387249492542651
29:52.6;0.34550256617210096;0.22791520376715116;-1.9679202188229636;2.167;0.15496444394195358
29:52.6;0.3451103437183927;0.23626639107211098;-1.8709550675308164;1.909;0.15255388833070438
29:52.6;0.3364903497721842;0.23122007401134653;-1.7386641919617984;1.7280000000000002;0.13527385272143042
29:52.6;0.3216089375392641;0.2160356912603087;-1.5807290866330632;1.55;0.10982749065296572
29:52.7;0.30259482595488374;0.19460181418905098;-1.4076406075390324;1.355;0.08288962394430378
29:52.7;0.28138219103426637;0.17091155083224085;-1.229846358401195;1.1340000000000001;0.0591451151250512
29:52.7;0.25944990037151067;0.1486180587255739;-1.0569569249958446;0.609;0.0407551392134301
29:52.7;0.23769610107057135;0.13069810162965562;-0.8970615101679748;0.609;0.02786849787097781
29:52.7;0.21644730662536452;0.11923328198845075;-0.7562398144498558;0.609;0.019516827461188564
29:52.7;0.1955758334919089;0.11530527841453457;-0.6383461341400868;0.545;0.014395296389932827
29:52.7;0.17469110740124572;0.11899207680899974;-0.5450690224183601;0.542;0.011330272189193821
29:52.7;0.1533671928020157;0.12944516423111282;-0.4762035596106001;0.562;0.009453898530887678
29:52.7;0.13136480959427874;0.1450238367105672;-0.4300568765138501;0.575;0.008193025895427128
29:52.7;0.10880724406402831;0.163465054282884;-0.40391455498718665;0.565;0.007184097810594361
29:52.8;0.08627982676676323;0.18207498727859878;-0.39450291257589093;0.552;0.006197403408212906
29:52.8;0.06483763237233252;0.19793655037633887;-0.398395958134515;0.5429999999999999;0.005112909062641555
29:52.8;0.045921914591945535;0.20813057895393378;-0.4123373817426935;0.552;0.003941019536253262
29:52.8;0.031203333982532666;0.2099637912445576;-0.43346866074537643;0.552;0.0028399004047790174
29:52.8;0.02238541411010955;0.20118727249249316;-0.45946921110474415;0.552;0.002069293294944042
29:52.8;0.02100325958741394;0.18018443413823226;-0.48862359253049764;0.569;0.00184917665784722
29:52.8;0.028240116232980075;0.14611169291668097;-0.519834060940139;0.594;0.0021449451196957556
29:52.8;0.04477525706190463;0.09898170968490039;-0.5525935259832441;0.618;0.0024490566520522406
29:52.8;0.07067944636163632;0.03968169459338652;-0.5869260784921502;0.649;0.0016461399538823236
29:52.8;0.10537698088434208;-0.03007868076452071;-0.6232943998259781;0.6559999999999999;0.00197559428368793
29:52.9;0.147685172172466;-0.10788718091226139;-0.6624707008912499;0.665;0.010555368855881677
29:52.9;0.19592692416179608;-0.19080123642677205;-0.7053741893525332;0.716;0.026369073420204836
29:52.9;0.24809760804755188;-0.27554824172811593;-0.7528896467070277;0.9520000000000001;0.05146968926818193
29:52.9;0.302054112745157;-0.35872766649749055;-0.8056846574684309;0.9520000000000001;0.08730009562628128
29:52.9;0.3556850661741796;-0.43699166174453213;-0.8640332273465108;0.9520000000000001;0.13429790119340212
29:52.9;0.40703144550048265;-0.5071964212644859;-0.927649135815956;1.0490000000000002;0.19150842612120159
29:52.9;0.45435628687157525;-0.5665419887215278;-0.9955438627748273;1.179;0.2562648515386028
29:52.9;0.4961845091990239;-0.6127242320552784;-1.0659344400521735;1.298;0.32406994251680543
29:52.9;0.5313325576547102;-0.6440966098435363;-1.1362227897730581;1.38;0.3888489561928747
29:52.9;0.55893516557208;-0.6598109850449541;-1.2030583961708372;1.4409999999999998;0.44367778530843943
29:53.0;0.5784681694374945;-0.6599040398708731;-1.262490010373348;1.5290000000000001;0.4819347075850304
29:53.0;0.5897622971756091;-0.64530897724723;-1.3102086211446227;1.624;0.4986377621070143
29:53.0;0.5929993352017511;-0.6177811209223242;-1.3418760358749557;1.659;0.49158795806968014
29:53.0;0.5886839009654457;-0.5797370962271694;-1.3535132727074495;1.659;0.4619295750793261
29:53.0;0.5775964126897287;-0.5340326166811046;-1.341897101659366;1.6269999999999998;0.41391530480312694
29:53.0;0.560744965879823;-0.4837246655414442;-1.304904264809154;1.6269999999999998;0.3539502854479631
29:53.0;0.5393314245502633;-0.4318569920286055;-1.2417579139764194;1.545;0.2892228607818674
29:53.0;0.5147345273929665;-0.38128524649611967;-1.153150306901623;1.409;0.22631806470902094
29:53.0;0.4885032522327764;-0.33454347987937805;-1.0412301690886834;1.2429999999999999;0.1701636421459955
29:53.0;0.4623504244289803;-0.29374984371500795;-0.9094617732384853;1.067;0.12351888261097478
29:53.1;0.4381362303079829;-0.26054582202551485;-0.7623864969532184;0.892;0.08702989837627434
29:53.1;0.41783232508855067;-0.23605709955910695;-0.6053343209481676;0.735;0.05970550833090726
29:53.1;0.4034601746170797;-0.22086213538077085;-0.4441373997985934;0.507;0.03957667318297494
29:53.1;0.39700153434451046;-0.21496174205850835;-0.2848980462208089;0.507;0.024313239555505323
29:53.1;0.4002819733579317;-0.21775461351245812;-0.13385666968760696;0.507;0.011667381882874747
29:53.1;0.4148288470148935;-0.22802991934768965;0.0026302001480293285;0.486;0.00024879954450868165
29:53.1;0.44170551103724637;-0.2439856548493058;0.11805115404935217;0.486;0.01272235024869001
29:53.1;0.48132680141580203;-0.2632769117774391;0.2057266182104256;0.504;0.02607013661842382
29:53.1;0.533266954132106;-0.2830973488296466;0.25889781989178634;0.515;0.03908488761239954
29:53.1;0.5960796615516029;-0.3002989700643617;0.27096461114777;0.528;0.04850323670814591
29:53.2;0.6671611778065636;-0.3115573999728545;0.2358919098375505;0.561;0.04903225693989254
29:53.2;0.7426981981584865;-0.31359128066774566;0.14877994350855242;0.618;0.03465139622094168
29:53.2;0.8177427946473683;-0.30344205784328765;0.006566004109545748;0.875;0.0016292722150177347
29:53.2;0.8864359418455332;-0.27880753142171627;-0.19120242334795176;0.875;0.047254726113214414
29:53.2;0.9423674701335438;-0.23839974764634228;-0.4416108182190993;0.875;0.09921236020100407
29:53.2;0.9790457981852857;-0.18227929322320063;-0.7377597171806723;0.988;0.13166043396310814
29:53.2;0.9904631629032844;-0.11211130093852792;-1.0684467456826274;1.175;0.11864258504295747
29:53.2;0.9717407467991448;-0.03128177174490412;-1.418322303304464;1.465;0.0431138383339298
29:53.2;0.9197970263515708;0.05519811009583544;-1.7686545028378236;1.8869999999999998;0.08979645950786318
29:53.2;0.8339313397373607;0.14106401987472073;-2.098745155398077;2.5469999999999997;0.2468915678322979
29:53.3;0.7161957019714967;0.2194582913299875;-2.3878896105683096;3.3989999999999996;0.3753167525416486
29:53.3;0.5714517735718243;0.28379820736249267;-2.617587287320982;4.107;0.4245124245291126
29:53.3;0.40706415201387003;0.3286896569234706;-2.7735627326738035;3.485;0.3710965265353688
29:53.3;0.232262594250958;0.350695146726281;-2.8471735254418404;3.485;0.231911863161486
29:53.3;0.05729079817601046;0.3488070664763954;-2.8359973290977507;3.485;0.05667296898914422
29:53.3;-0.1075253831078191;0.32455538579220755;-2.74364290547819;3.0010000000000003;0.09574749152462307
29:53.3;-0.2527180682050491;0.2817517605065701;-2.578946718761751;2.668;0.1836307048366046
29:53.3;-0.37057594383355863;0.225930960494934;-2.35473423073476;2.381;0.19714913195239595
29:53.3;-0.4558905035475211;0.1635988471925908;-2.0863398480513577;2.093;0.1556058204257918
29:53.3;-0.5063971506749789;0.10141988843625432;-1.790078198808725;1.742;0.09193616531383239
29:53.4;-0.5228095674544156;0.04546895443438101;-1.4818180523755387;1.2990000000000002;0.03522519253450663
29:53.4;-0.508449810573328;0.0006430232662955721;-1.1757660678758586;0.8959999999999999;0.0003844109051881762
29:53.4;-0.4685691866100267;-0.029713071392288487;-0.8835507539155627;0.365;0.012301349962594632
29:53.4;-0.40951295144309235;-0.04396219801228814;-0.6136929479545371;0.365;0.011048369042958462
29:53.4;-0.3378989950106554;-0.04214933313274043;-0.3715186593625676;0.365;0.005291249479846616
29:53.4;-0.2599427277948548;-0.02584746139507467;-0.159489683763819;0.237;0.0010715887963037385
29:53.4;-0.18098259973490696;0.002083744977984572;0.02216789741068189;0.069;8.359992569952855e-06
29:53.4;-0.10519984787566282;0.03780015796656004;0.17469794961192361;0.10099999999999999;0.000694698777083855
29:53.4;-0.0355109509175104;0.07681446768003965;0.3000399533312356;0.204;0.000818435420352889
29:53.4;0.02638577471053641;0.11435476336344622;0.40011923801086063;0.266;0.0012072953907770548
29:53.5;0.07983524078235993;0.1457205269241363;0.47624337088549307;0.304;0.005540440764117139
29:53.5;0.12496200954985288;0.1666179499601845;0.5286451779346607;0.326;0.011006875709163722
29:53.5;0.16236411774595966;0.1734585507877813;0.5562217348976467;0.395;0.015665119996165683
29:53.5;0.19280673716155197;0.16360954989521792;0.5565148244453446;0.395;0.017555273206192924
29:53.5;0.2169522984019414;0.13558920294147628;0.5259556951192422;0.395;0.015471717438336363
29:53.5;0.23515990120736588;0.08920042581029988;0.46036873640035064;0.433;0.009656861876457848
29:53.5;0.2473818224360528;0.025590369056693173;0.3557040837492734;0.456;0.0022518174746347223
29:53.5;0.2531751388505396;-0.05278265533109815;0.20893906407275495;0.473;0.0027921062209003474
29:53.5;0.25183119788370817;-0.1422937313791702;0.019047494051998373;0.515;0.0006825479175650928
29:53.5;0.24260518456667124;-0.23841883819754184;-0.21210537209135702;0.583;0.012268523899190602
29:53.6;0.22500477973933417;-0.3361226557325976;-0.4791175762379037;0.63;0.03623528097006371
29:53.6;0.19907826395680864;-0.43034350613692757;-0.7728509977381846;0.622;0.06621172012912406
29:53.6;0.16563894314693736;-0.5165269844888952;-1.0808457182259525;1.903;0.09247389962359641
29:53.6;0.126380251101944;-0.5911304755979381;-1.3883625300554998;1.903;0.1037207021126957
29:53.6;0.08386367637376098;-0.651996949222262;-1.6798213611418655;1.903;0.09185071895638956
29:53.6;0.04137630931200873;-0.6985067756475819;-1.9402917489378086;2.513;0.056077598887668084
29:53.6;0.0026511056450005638;-0.7314670050177123;-2.156814924713091;2.84;0.0041824875350185515
29:53.6;-0.028551090638069234;-0.75275478686392;-2.3194729180113027;2.9339999999999997;0.04985004271297543
29:53.6;-0.0489583153957037;-0.7647819285299413;-2.4221181233138;2.88;0.09069000006970111
29:53.7;-0.056306148249159596;-0.7699010760679234;-2.462665377330668;2.81;0.10675694829536214
29:53.7;-0.049731114932441645;-0.7699070250792168;-2.4429201447315285;2.772;0.093535344272685
29:53.7;-0.029931482281372202;-0.7657620204839753;-2.3679980984069915;2.5989999999999998;0.05427544549448384
29:53.7;0.0009526907832431695;-0.7575940378530515;-2.245432544510726;1.875;0.0016206473548808168
29:53.7;0.03970663277683204;-0.7449206169458901;-2.0841132557327855;1.875;0.06164450498909886
29:53.7;0.08254544697622315;-0.7269851784329552;-1.8932673636534587;1.875;0.11361368044240032
29:53.7;0.12562756877746475;-0.7030872071123024;-1.6816863217681692;1.736;0.14853853723928084
29:53.7;0.16549646803261267;-0.6728290202548463;-1.4572796420657994;1.5730000000000002;0.16226929250115826
29:53.7;0.1994232479124845;-0.6362500184292926;-1.226907580350267;1.412;0.15567376992417428
29:53.7;0.225637802523247;-0.5938525240818273;-0.9964033794563637;1.2670000000000001;0.13351364730611365
29:53.7;0.24343379507630952;-0.5465436242722973;-0.7707041105243059;1.097;0.10254001517189641
29:53.8;0.25313829434471213;-0.4955265850067482;-0.5540155810512944;0.882;0.06949391644671836
29:53.8;0.25595016538123294;-0.4421733277535685;-0.34994384971086573;0.6759999999999999;0.03960466295628408
29:53.8;0.25366852140078294;-0.3879017653971953;-0.16155293018700556;0.387;0.01589656071451921
29:53.8;0.24835378697960778;-0.3340747988881482;0.00863472897653891;0.387;0.0007164125958444476
29:53.8;0.24198104894936692;-0.2819312079271373;0.15861660154775353;0.387;0.010821143285874564
29:53.8;0.2361424740218754;-0.23254644991639906;0.2867865886977076;0.426;0.01574862569205486
29:53.8;0.23183121974696466;-0.18680565591340378;0.39169801231821955;0.447;0.016963415865670094
29:53.8;0.22931320032203892;-0.14536656652872468;0.4717637376706732;0.43;0.015725995382588304
29:53.8;0.2280802895298939;-0.10860224793670324;0.524953363642274;0.386;0.013003111696244941
29:53.8;0.2268758249560718;-0.0765300678776863;0.5485415728003581;0.336;0.00952422984375075
29:53.9;0.22378315893475914;-0.048744138042514075;0.5389704508585591;0.299;0.005879152840292686
29:53.9;0.21636809755503078;-0.024372536104631238;0.49189677736149945;0.26;0.0025939877823034025
29:53.9;0.20186780221067163;-0.0020801988210582007;0.40248665053658733;0.196;0.00016901427280210517
29:53.9;0.1774252774699794;0.019863351007434176;0.2659942839226659;0.196;0.0009374331650721133
29:53.9;0.14037750631141013;0.04343409534382692;0.07862251531102417;0.196;0.0004793748411488798
29:53.9;0.08860440451382323;0.07061148366757171;-0.16139171953350717;0.237;0.0010097454311564491
29:53.9;0.02092658143111384;0.10305196083631436;-0.45259228809875846;0.256;0.0009760266972751359
29:53.9;-0.06249126929928834;0.1417099267701756;-0.7892164225549051;0.253;0.006989011150545645
29:53.9;-0.15980605408324558;0.1864634373898928;-1.1604581856247547;0.27399999999999997;0.034579316954594604
29:53.9;-0.2673285110235245;0.235827296445199;-1.5503569612909724;0.45799999999999996;0.09773971206614653
29:54.0;-0.3796205946069863;0.2868541101764303;-1.9385505112941785;1.2570000000000001;0.2110998689413701
29:54.0;-0.4899183525199705;0.33531089932923763;-2.302008570319915;2.5780000000000003;0.37816237359290344
29:54.0;-0.5908566385071069;0.37615352620430903;-2.617614515557242;4.5089999999999995;0.5817721764898871
29:54.0;-0.6753694764986082;0.40421992959222913;-2.8651199714824838;4.5089999999999995;0.7821714553658076
29:54.0;-0.7375806862905341;0.4149849423324699;-3.029743654325837;4.5089999999999995;0.9273587185198903
29:54.0;-0.7735297103988416;0.40521715783235657;-3.1037577760136585;3.937;0.9728651488522088
29:54.0;-0.7816606322199932;0.37343627492325127;-3.0867992576225793;3.4389999999999996;0.9010380452872051
29:54.0;-0.7630518469817835;0.3201238515250771;-2.98508018712256;3.116;0.7291688094611863
29:54.0;-0.7213586932070579;0.24767309105744956;-2.809910145252355;2.7760000000000002;0.5020217422833833
29:54.1;-0.6624381579479545;0.16010321238124273;-2.5759507602878804;2.373;0.27320141469851655
29:54.1;-0.5936642592050102;0.0626058181396689;-2.2995029675646323;2.037;0.08546525116662931
29:54.1;-0.5230113569905698;-0.038997780976385885;-1.9969973767926634;1.7469999999999999;0.04073132234543948
29:54.1;-0.4580462710986575;-0.13882207469829563;-1.6837732133790948;1.085;0.1070659756205405
29:54.1;-0.40500011098251115;-0.2314440201857707;-1.3731994814507278;1.085;0.12871665271643817
29:54.1;-0.36807171855091336;-0.3123248244865076;-1.0761907336943939;1.085;0.1237166642984931
29:54.1;-0.3490532897296865;-0.37807949142916136;-0.801130259512289;0.938;0.10572507243394559
29:54.1;-0.34729502037322446;-0.42659273075817583;-0.554115070359632;0.812;0.08209410432043719
29:54.1;-0.3599694556141247;-0.45701375386824616;-0.3393690301374863;0.735;0.05582993586583792
29:54.1;-0.38256522708997676;-0.4696628028493884;-0.1596906529406519;0.708;0.028692682647023425
29:54.2;-0.40952740508664753;-0.4658689703688848;-0.01685850148146093;0.72;0.0032163679272744533
29:54.2;-0.43496100789822356;-0.44775180325487696;0.08804476748688495;0.7490000000000001;0.017147121328525364
29:54.2;-0.4533192091770833;-0.4179592196478268;0.15440767809451128;0.778;0.029255459547147946
29:54.2;-0.4600060709997578;-0.37937908557995315;0.18196657643546;0.674;0.03175620325943153
29:54.2;-0.45183911453305603;-0.3348534527366379;0.1707789489101365;0.674;0.025838835771622475
29:54.2;-0.42733990096212415;-0.28693751956717106;0.12129468469605988;0.674;0.014873136188072502
29:54.2;-0.38684046224608304;-0.23774103562762505;0.03453089256574538;0.5820000000000001;0.003175732020956315
29:54.2;-0.332402971062192;-0.18886418003188604;-0.08765677364728061;0.478;0.005503005869946362
29:54.2;-0.2675583649774301;-0.14141750888770924;-0.24223753659327663;0.36200000000000004;0.009165647640628648
29:54.2;-0.19688580290344793;-0.09611072956303529;-0.42466001766576483;0.23199999999999998;0.008035772786315907
29:54.3;-0.12547503140931912;-0.053394850935812706;-0.6285815022179246;0.20600000000000002;0.004211320438099051
29:54.3;-0.05833313759841837;-0.013636574611619368;-0.845782238395865;0.40299999999999997;0.0006727894774227612
29:54.3;0.00018345143857912533;0.0227044969688438;-1.0663838075679966;0.69;4.441672649583519e-06
29:54.3;0.0468179479226928;0.05493255599071606;-1.2794530720635267;1.838;0.0032905352129848466
29:54.3;0.07966268827589146;0.08204342435183146;-1.4739546643258807;1.838;0.009633472510732969
29:54.3;0.09817584169139315;0.1027496794847396;-1.6398518170967415;1.838;0.016542064677362942
29:54.3;0.10298638939539533;0.11561234850487584;-1.7690952798718511;2.168;0.021063730016703735
29:54.3;0.09554453250670324;0.11926625554387353;-1.856338688332752;2.346;0.02115342233121555
29:54.3;0.07770076739851704;0.11269049238045165;-1.8993270547261403;2.2969999999999997;0.01663076929780085
29:54.3;0.05131465231100987;0.09544523730725775;-1.8989266110088023;2.126;0.009300447238307351
29:54.4;0.01798079820359433;0.06780529947492946;-1.8587803241191694;1.909;0.002266212716214379
29:54.4;-0.021087393050707146;0.030763719907463016;-1.7846400212282696;1.6769999999999998;0.0011577435484782317
29:54.4;-0.06502794974206276;-0.014080165164060904;-1.6834950100365158;1.464;0.0015414152241718555
29:54.4;-0.11319889821630662;-0.06471180530570848;-1.5626484000944005;1.093;0.011446876235641407
29:54.4;-0.16499593723387837;-0.11892487339347707;-1.4288964853755264;1.093;0.028037979655320143
29:54.4;-0.2196597454222047;-0.17452605377802013;-1.2879507145802636;1.093;0.04937532749961035
29:54.4;-0.27610567254562246;-0.22948283570238975;-1.1441854606834927;1.053;0.07249732158599241
29:54.4;-0.332811499960352;-0.2820069891664928;-1.0007033966103673;1.046;0.09392118647158812
29:54.4;-0.3878009850257574;-0.33059133949916053;-0.8596357600784789;1.0759999999999998;0.1102084396185748
29:54.4;-0.43874778896448163;-0.3740210549815868;-0.7225656542401742;1.087;0.1185736820453858
29:54.5;-0.48319525054775175;-0.4113745288120737;-0.5909596414083659;1.077;0.11746754089681057
29:54.5;-0.5188534126980263;-0.44202290252767523;-0.46650324793186493;1.044;0.10699023006666607
29:54.5;-0.543910965471314;-0.465628819065781;-0.35126556763312894;0.995;0.08896173562935594
29:54.5;-0.5572973413009327;-0.4821344982972507;-0.24766732827389043;0.83;0.06654629764192749
29:54.5;-0.5588492345491279;-0.4917247088209272;-0.15828981457510508;0.83;0.04349803742569976
29:54.5;-0.5493640429427779;-0.4947570358492276;-0.08561692995249719;0.83;0.02327082929211819
29:54.5;-0.5305432860377349;-0.49166357166893365;-0.0318057389769079;0.758;0.00829648906591695
29:54.5;-0.5048376181652972;-0.48283490165502146;0.0014720549833811237;0.677;0.000358818144746064
29:54.5;-0.4752128019462116;-0.46849981082758646;0.013123386780315115;0.602;0.0029217528775023352
29:54.5;-0.4448681565937783;-0.4486186809239583;0.0026732398723065946;0.527;0.0005335149634337552
29:54.6;-0.41694588629789275;-0.42281482058362885;-0.029747334862986415;0.47;0.005244184438813701
29:54.6;-0.39426466248734493;-0.39037146256883803;-0.08345577140926759;0.446;0.012844650482087935
29:54.6;-0.3790991910203683;-0.35031955185875474;-0.1572907248031228;0.467;0.020889129774325204
29:54.6;-0.37301633525489275;-0.30162928839902126;-0.24967051911600852;0.616;0.028091092173072537
29:54.6;-0.37677007803789003;-0.24349357540793573;-0.35860637065014556;0.616;0.032898940546580845
29:54.6;-0.3902529918971803;-0.1756594342596659;-0.48164837503895663;0.616;0.03301777627082115
29:54.6;-0.4125017438089414;-0.09874016857186875;-0.6157692024929541;0.643;0.025080582403499266
29:54.6;-0.44175633695349986;-0.014437237583137289;-0.7572355739935196;0.71;0.004829452511135645
29:54.6;-0.4755741373168356;0.07438973245810192;-0.9015500942542467;0.8220000000000001;0.03189488853050424
29:54.6;-0.511001018497153;0.16385033184531794;-1.043538550375864;1.0659999999999998;0.08737306854858835
29:54.7;-0.5448009050101245;0.24936065902786694;-1.1776161120223614;1.3419999999999999;0.15998140125906343
29:54.7;-0.5737323052237668;0.3261449803377074;-1.2982134573081576;1.6230000000000002;0.24292158711798573
29:54.7;-0.5948377086664659;0.3898006062835499;-1.4002998573959313;1.868;0.3246848666344176
29:54.7;-0.6056982530061258;0.43681218378333225;-1.4799117680690814;2.001;0.39154969329726186
29:54.7;-0.6046152004777043;0.4649313583814244;-1.534584823667061;2.001;0.43137880154712627
29:54.7;-0.5907026081804614;0.4733770170656657;-1.5636022105086578;2.001;0.43722232852071474
29:54.7;-0.563893791428769;0.462842065343948;-1.5680138580574008;1.8969999999999998;0.409241843615934
29:54.7;-0.5248738814696073;0.43531858174393134;-1.5504292877758457;1.675;0.35425348502533016
29:54.7;-0.474963887034408;0.39378071591542824;-1.51462644326587;1.4469999999999998;0.2832830365766831
29:54.7;-0.41599613181480405;0.3417903161028914;-1.4650543585661222;1.335;0.20830648224560844
29:54.8;-0.3502131716219635;0.2830993007016204;-1.406335921962297;1.3430000000000002;0.13943132121752227
29:54.8;-0.2801869944746776;0.22130762186804254;-1.3428699715875794;1.3969999999999998;0.08326803316345832
29:54.8;-0.20872350110516302;0.15960859284024567;-1.2785736491094304;1.4380000000000002;0.04259448476393958
29:54.8;-0.13871870723906415;0.10063110629846521;-1.216731687646443;0.998;0.016984864973043332
29:54.8;-0.07296586700229209;0.0463748085140028;-1.1598968984967548;0.998;0.003924833735325991
29:54.8;-0.013948674157508332;-0.0017763151413846309;-1.109835897460432;0.998;2.7498671621937698e-05
29:54.8;0.03633787301993143;-0.04298821834619759;-1.0675654565048571;1.032;0.001667644447575081
29:54.8;0.07651949623493759;-0.0768926739770569;-1.0335063145389045;1.324;0.0060809327509697315
29:54.8;0.10592158260289024;-0.10351138197076455;-1.0077087260053383;1.348;0.011048608556805577
29:54.8;0.12458249014380736;-0.12319408233175905;-0.9900423462874389;0.9490000000000001;0.015194997215825259
29:54.9;0.133190027161024;-0.13655948366377318;-0.9802562078860294;0.779;0.017829254113116713
29:54.9;0.13294923251815;-0.14442859890072401;-0.9779161030414656;0.9109999999999999;0.018777623645390124
29:54.9;0.12540923648241314;-0.14775131845504397;-0.9823222928102839;0.9990000000000001;0.01820182308202089
29:54.9;0.11228607348672602;-0.14753441253263494;-0.9924970332120758;1.0590000000000002;0.01644176529031802
29:54.9;0.09531511628823261;-0.1447801874380183;-1.007244578386858;1.0590000000000002;0.013899713702946589
29:54.9;0.07615112858871924;-0.14044394546475905;-1.0252322096204987;1.0590000000000002;0.010964822548111212
29:54.9;0.05631401359254646;-0.13541445888076573;-1.045049189691649;1.0859999999999999;0.007969264710940348
29:54.9;0.03716606082620881;-0.1305104701739045;-1.0652319066436258;1.0070000000000001;0.005166971354787795
29:54.9;0.019904939388121965;-0.12647092979282248;-1.084269443035628;0.99;0.002729535766875767
29:54.9;0.0055610671959192195;-0.12391479134536257;-1.1006209713204291;1.079;0.0007584362397576588
29:55.0;-0.005007368953375079;-0.12327008218213964;-1.1127769486996633;1.1420000000000001;0.0006868713444358512
29:55.0;-0.011125488794088055;-0.12470318001867775;-1.1193723073697186;1.131;0.0015529990411044924
29:55.0;-0.012319378025952723;-0.12808691066543654;-1.1193312820402688;1.113;0.0017662499971617548
29:55.0;-0.008337951150422135;-0.13302572129294987;-1.1120168200217067;1.24;0.00123340676219834
29:55.0;0.0008227018333957668;-0.13892840873195436;-1.0973635347574544;1.24;0.0001254249830695909
29:55.0;0.014892443055637604;-0.1451028990786998;-1.0759667249293179;1.24;0.0023250959427093556
29:55.0;0.03330020943627674;-0.15084868621182898;-1.0490874060537103;1.195;0.0052698732596032395
29:55.0;0.05515668100976406;-0.15553263722667532;-1.0185394742737794;1.043;0.00873770797972798
29:55.0;0.07926281555179196;-0.15864094178244068;-0.986455857371575;0.9009999999999999;0.012404019219537711
29:55.0;0.10416146472245283;-0.1598027214586912;-0.9549732765123442;0.809;0.01589580286466922
29:55.1;0.12824174686161305;-0.15878629987018444;-0.9259095703882444;0.802;0.018854326648918385
29:55.1;0.1498919946613271;-0.15547689630363332;-0.9005116980117701;0.841;0.020986192889836382
29:55.1;0.1676794140296602;-0.1498460192547466;-0.8793244052473449;0.828;0.022093986522530435
29:55.1;0.18051753973100385;-0.14191638130495648;-0.8621923294150491;0.86;0.022087984523718792
29:55.1;0.18777916222880722;-0.1317226259577028;-0.848383129298975;0.86;0.02098455678080605
29:55.1;0.18933102408730404;-0.11927533721435454;-0.836806288197096;0.86;0.018897196198017465
29:55.1;0.18549255838386924;-0.10454379832398222;-0.8262940601108248;1.01;0.01602357424547705
29:55.1;0.17693445315884207;-0.08747058503149967;-0.8159007398981684;1.038;0.012627336861171918
29:55.1;0.16453561352222143;-0.06802202001731755;-0.8051601843255874;0.958;0.00901138885138667
29:55.1;0.14922072989847646;-0.04626656425996203;-0.794237253249918;0.86;0.005483358788026109
29:55.2;0.1318071286367002;-0.02245854933743504;-0.7839405447899419;0.779;0.002320618371657582
29:55.2;0.11289370937875065;0.0029024342721266617;-0.7756156154976822;0.773;0.00025414330930581286
29:55.2;0.09281995439370724;0.029056848271608378;-0.7709678515687054;0.8009999999999999;0.0020793429544079586
29:55.2;0.07170570963222128;0.05501817783945898;-0.7718573375514606;0.748;0.003045067878029786
29:55.2;0.0495574873716851;0.07964317635777463;-0.780086854197669;0.748;0.003078937057338181
29:55.2;0.026405791794460735;0.10172328737289102;-0.7971951338463116;0.748;0.002141333051664373
29:55.2;0.0024308545758243696;0.12008420025223915;-0.8242712067367239;0.8170000000000001;0.00024061072280455096
29:55.2;-0.021957357725422934;0.13368861709636556;-0.861804714057366;0.851;0.002529783604580624
29:55.2;-0.04610234150788701;0.14173889988039515;-0.9095771510733248;0.856;0.005943627497918915
29:55.2;-0.06914765678149748;0.1437684453928889;-0.9665941676709899;0.885;0.00960915535004722
29:55.3;-0.0901335105351856;0.13970397294975637;-1.0310680957287002;0.943;0.012983219274785955
29:55.3;-0.10812285310350345;0.1298818582428156;-1.100472196399903;1.0290000000000001;0.015454147934661922
29:55.3;-0.12233664433596735;0.11500840325713858;-1.1716880009631623;1.114;0.016485348024410106
29:55.3;-0.1322814887713078;0.09606591361995916;-1.2412497836422574;1.44;0.015773482099715713
29:55.3;-0.13785234516105735;0.07418381369204605;-1.3056573264511613;1.44;0.01335219065258547
29:55.3;-0.1393862713846984;0.0505086090903056;-1.3616935971498767;1.44;0.009586604377729348
29:55.3;-0.1376403059551484;0.026103327425995776;-1.4066808601028733;1.496;0.005054021424365907
29:55.3;-0.13367669650479183;0.0018845257330530388;-1.4386457112096425;1.495;0.000362419562635347
29:55.3;-0.1286587766825639;-0.021415100583584968;-1.4564006896668782;1.52;0.004012734373563617
29:55.3;-0.12358650357709891;-0.04326830100945049;-1.459557770501185;1.5419999999999998;0.007804807166410503
29:55.4;-0.1190279813188551;-0.06335487926034958;-1.4484802247118869;1.4780000000000002;0.010922994277743663
29:55.4;-0.11491999270121149;-0.08153844893795058;-1.424174774786763;1.4269999999999998;0.013345084399812744
29:55.4;-0.11050465057249252;-0.09782858016023703;-1.3881323523097893;1.376;0.015006422932829146
29:55.4;-0.10443823230130275;-0.1123491836872208;-1.342139028911173;1.204;0.015748055597005917
29:55.4;-0.09505622177617716;-0.12532594835604638;-1.2880927463767209;1.204;0.01534506323853897
29:55.4;-0.08072470588372625;-0.1370858758094672;-1.2278704237045748;1.204;0.013587880563389672
29:55.4;-0.06018716556434843;-0.14805035006742556;-1.1632795859560414;1.204;0.010365671388407327
29:55.4;-0.03283764798820402;-0.15870985680107402;-1.0960937184720758;1.1640000000000001;0.0057124660459047195
29:55.4;0.0011146666934545156;-0.1695816082469417;-1.0281355581003757;1.1179999999999999;0.000194345349847352
29:55.4;0.04060365670471082;-0.1811568423383813;-0.9613616303306433;1.056;0.007071420675806732
29:55.5;0.08378794733337776;-0.19384376964693845;-0.8979103915090281;0.981;0.014583655462108429
29:55.5;0.12824237473181194;-0.20791244616096688;-0.8400911832937307;0.909;0.022399507335970723
29:55.5;0.1712334016156377;-0.22345020305413238;-0.7903060111702687;0.882;0.03023879794666132
29:55.5;0.21004408152020196;-0.2403356117299928;-0.7509097832369411;0.826;0.037906731450653305
29:55.5;0.24230311910931193;-0.25823204616630313;-0.7240275454408374;0.826;0.04530271502389872
29:55.5;0.2662620948551614;-0.2765936678270289;-0.7113579431486377;0.826;0.05238895832479383
29:55.5;0.2809721908740242;-0.2946763911360968;-0.7139924024701412;0.795;0.05911562300437728
29:55.5;0.2863403972637668;-0.3115553340023476;-0.7322684208932485;0.7929999999999999;0.06532630883855572
29:55.5;0.2830743472269537;-0.3261593245263023;-0.7656668143403785;0.8220000000000001;0.07069197867284326
29:55.5;0.27254028645359774;-0.3373350190006044;-0.8127617384675627;0.861;0.07472318700093139
29:55.6;0.2565647206385508;-0.34394799720563723;-0.8712296431684448;0.904;0.07688159174627296
29:55.6;0.23721087455204654;-0.34501730687625987;-0.9379195939729226;0.932;0.0767610813809494
29:55.6;0.21655558092098598;-0.33986603562270085;-1.0089918019678692;0.9790000000000001;0.07426168238636613
29:55.6;0.1964849100527201;-0.32825995190442303;-1.0801377548081859;1.284;0.06966686222088914
29:55.6;0.17852362547713216;-0.310504356861643;-1.1468809304174428;1.284;0.06357432064146976
29:55.6;0.16371252408559409;-0.2874743188168746;-1.2049203864198865;1.284;0.05670734447810149
29:55.6;0.15254294620450232;-0.26056078697358975;-1.2504621560311495;1.337;0.04970175681968969
29:55.6;0.14495170207037958;-0.2315280378182391;-1.2805068634015717;1.3880000000000001;0.04297430097319019
29:55.6;0.14037890284118962;-0.20230272600046853;-1.2930860735657372;1.446;0.03672239629620341
29:55.6;0.1378900507377453;-0.17474025205588167;-1.287432830491725;1.4769999999999999;0.03102061966529064
29:55.7;0.1363520285304249;-0.15041895668426578;-1.2640543120263046;1.433;0.0259256652957396
29:55.7;0.13463491386245818;-0.13049652694792233;-1.2246731208827093;1.345;0.02151675804834661
29:55.7;0.1318005273720084;-0.11564429085740621;-1.1720219120456292;1.2409999999999999;0.01786393281137864
29:55.7;0.12724083125436178;-0.1060618348790456;-1.1095079164081914;0.893;0.014973248735200137
29:55.7;0.12074618851769521;-0.10155963674589927;-1.0408047400336968;0.893;0.012763325084061099
29:55.7;0.1125082225110507;-0.10167984623524619;-0.9694628731734982;0.893;0.011090479568621699
29:55.7;0.1030764753222837;-0.10581808558492571;-0.8986231728850783;0.893;0.009801602216189469
29:55.7;0.09328334146264013;-0.11331986440425014;-0.8308619712061263;0.8029999999999999;0.008782921925905298
29:55.7;0.08414193771905523;-0.12354248204287506;-0.768142077483832;0.7290000000000001;0.00798491665141288
29:55.7;0.07672182027147963;-0.1358844881869231;-0.711833529390819;0.679;0.0074210818526947685
29:55.8;0.07201404750532893;-0.14979020995418119;-0.662786597348601;0.645;0.007149478558648703
29:55.8;0.07079945951191163;-0.1647406237713114;-0.6214533888375294;0.611;0.007248350885245777
29:55.8;0.07353139999753246;-0.18024470250545035;-0.5880540669349801;0.602;0.007793860030589955
29:55.8;0.08024190685436706;-0.19584520797532173;-0.5627756963760838;0.764;0.008844016093232026
29:55.8;0.09048044698840557;-0.2111443487198616;-0.5459757220621524;0.764;0.010430557721695087
29:55.8;0.10329488265284516;-0.22583843603505324;-0.5383388985018112;0.764;0.01255834546373835
29:55.8;0.117264608668996;-0.239741169997648;-0.5409260280063314;0.72;0.015207136988471879
29:55.8;0.1305947634343511;-0.2527807138901707;-0.5550741617297351;0.6579999999999999;0.018324018044818598
29:55.8;0.14127571392088337;-0.26496434421272413;-0.5821522727236424;0.585;0.02179172168023767
29:55.8;0.14730310753362846;-0.27630816471329156;-0.6232212412008418;0.547;0.025365759708855035
29:55.9;0.1469426935498457;-0.2867367787860146;-0.6786769276866216;0.5760000000000001;0.02859528857498584
29:55.9;0.1390071976978286;-0.29597472627111904;-0.7479639268462335;0.654;0.03077319358771115
29:55.9;0.12308145454592938;-0.30347148823770753;-0.8294404805300336;0.7070000000000001;0.030981022103773025
29:55.9;0.09960438910070224;-0.30840988637685485;-0.920454552142132;1.3;0.028275423436570746
29:55.9;0.06974822544712615;-0.30982305473844607;-1.0176304857586815;1.3;0.0219905961614802
29:55.9;0.035138735435913976;-0.306789720919772;-1.117263143635074;1.3;0.012044323311648699
29:55.9;-0.0024602698857376266;-0.2986370421127654;-1.2156639254253827;1.3;0.0008931819860081136
29:55.9;-0.04139883955800016;-0.28509007102043815;-1.3093690588860207;1.385;0.015453694905566731
29:55.9;-0.08029888448336546;-0.26634326223971605;-1.3952245424374818;1.4680000000000002;0.02983976055639652
29:55.9;-0.11811711405025789;-0.24305578543302564;-1.470402051100177;1.455;0.04221384295929923
29:56.0;-0.15410976099619933;-0.21628364174596643;-1.5323880173780082;1.456;0.0510766691263916
29:56.0;-0.18770850478404583;-0.18736557006214852;-1.5789786731497524;1.534;0.055532855208219566
29:56.0;-0.21834755155616434;-0.15778230113613018;-1.6083135985099015;1.5730000000000002;0.05540862154536989
29:56.0;-0.245303471796911;-0.1290125889797789;-1.6189675535012666;1.672;0.05123584821325677
29:56.0;-0.2676037936960989;-0.10241011881165014;-1.6100932774010412;1.672;0.0441251477525993
29:56.0;-0.28403330561703505;-0.0791174279719237;-1.5815846100927324;1.672;0.03554134499967635
29:56.0;-0.2932413603225665;-0.060019297460389205;-1.5342204560857535;1.7280000000000002;0.02700249548212072
29:56.0;-0.2939405225196184;-0.0457278270723704;-1.4697494098222517;1.682;0.01975528598542957
29:56.0;-0.2851719178723143;-0.03658958905225909;-1.3908745162945482;1.565;0.014512834350762267
29:56.0;-0.26658592577001006;-0.032706701658384685;-1.301107295863412;1.3769999999999998;0.011344544917304508
29:56.1;-0.23866574208228775;-0.03396292283131227;-1.2044932725324975;1.192;0.009763364923382908
29:56.1;-0.20282641536566748;-0.04004603991225819;-1.1052556427810902;1.045;0.008977322602694736
29:56.1;-0.16135310912401304;-0.05046212235395063;-1.0074297149416984;0.917;0.008202714710886405
29:56.1;-0.11718394627157283;-0.06454341469913807;-0.9145558904176018;0.731;0.006917199615336089
29:56.1;-0.07358235374972208;-0.08145668488490153;-0.829477784947122;0.731;0.004971702880737811
29:56.1;-0.03377112682861778;-0.10022068948726522;-0.7542695902736217;0.731;0.0025528749200769496
29:56.1;-0.0005967957702865793;-0.11974125555193875;-0.6902896088865366;0.735;4.932883740343474e-05
29:56.1;0.023741840810148893;-0.13887287889542757;-0.6383244773352932;0.718;0.0021046182194285426
29:56.1;0.03789744094867058;-0.15651331310135733;-0.5987683618197618;0.716;0.0035515670193025377
29:56.1;0.04150882494715623;-0.17172678376463796;-0.5717846078457484;0.72;0.004075781894044803
29:56.2;0.035254689490134224;-0.18387505305195376;-0.5574138051328461;0.7240000000000001;0.0036134115248356376
29:56.2;0.020808827397453794;-0.19272354068391703;-0.5556085592326461;0.684;0.002228185281964776
29:56.2;0.0006810219584373322;-0.1984893073668603;-0.5661906665800255;0.591;7.653514995176392e-05
29:56.2;-0.02206024915617091;-0.20181007539287948;-0.5887470078593027;0.555;0.0026210902251476947
29:56.2;-0.044155790988909954;-0.20363662832013937;-0.6225040148904398;0.555;0.0055973920084610345
29:56.2;-0.06254667814876436;-0.2050760473959906;-0.6662343517963523;0.555;0.008545671794248554
29:56.2;-0.07470907797367816;-0.20722399221735538;-0.7182435539973834;0.8190000000000001;0.011119497200347103
29:56.2;-0.07888497163502232;-0.2110162727106939;-0.7764538854576115;0.914;0.012924861228439496
29:56.2;-0.07419984823188251;-0.21711830770879087;-0.8385532165415349;0.937;0.013509214311504132
29:56.2;-0.06067525591398408;-0.225865084384804;-0.9021434192650193;0.9259999999999999;0.012363353939069247
29:56.3;-0.03914857755981551;-0.2372568110802881;-0.9648415090626313;0.895;0.00896170523062408
29:56.3;-0.011120825174906354;-0.25100248965303873;-1.0243409757194013;0.9540000000000001;0.0028592991054522746
29:56.3;0.021436608980422163;-0.2665918847756131;-1.0784807592426573;1.102;0.006163329874024577
29:56.3;0.05628088274232194;-0.28337200489207637;-1.1253644905716667;1.334;0.017947792953382332
29:56.3;0.09107248812667383;-0.30060877469748454;-1.1635257295338648;1.334;0.031854063878754925
29:56.3;0.12351476160548328;-0.31752730230159515;-1.1920822413420054;1.334;0.04675264183264894
29:56.3;0.15147086665946222;-0.33333721625051344;-1.210810814957219;1.375;0.06113489997103793
29:56.3;0.17308031519898778;-0.34725117495175517;-1.2201104644524725;1.181;0.07333149740531099
29:56.3;0.18688481753600408;-0.3584982545352019;-1.2208708331256548;1.288;0.08179575865468434
29:56.3;0.1919526535267769;-0.3663358176402178;-1.214291836574176;1.321;0.0853879482800837
29:56.4;0.18797503589947928;-0.3700713024200509;-1.2016971318436387;1.2309999999999999;0.0835950591912333
29:56.4;0.17530262345070544;-0.3691020842801958;-1.1843613511547233;1.188;0.0766335844842102
29:56.4;0.15489935637251373;-0.36297018739861175;-1.163362014999678;1.153;0.06540868957782413
29:56.4;0.12821266195235026;-0.3514228920306581;-1.139476589161789;1.1420000000000001;0.05134124223120497
29:56.4;0.09698635719482371;-0.33446977706322484;-1.113146360259252;1.1420000000000001;0.03610936064575939
29:56.4;0.06306339309545118;-0.312426996148419;-1.0845119435056951;1.1420000000000001;0.021367820487987643
29:56.4;0.028223437806517964;-0.2859403095774692;-1.0535056141459949;1.1159999999999999;0.008502020543211196
29:56.4;-0.00592490475224666;-0.2559800435436719;-1.0199753578834312;1.1;0.0015469531503537867
29:56.4;-0.03800118646477864;-0.22380624342114122;-0.9838142081755071;1.0490000000000002;0.00836724420221061
29:56.4;-0.06687109179084279;-0.19090972008537999;-0.9450725461250202;0.993;0.01206511878633629
29:56.5;-0.09163709922294594;-0.15893805566048894;-0.9040396489911929;0.945;0.013166996101267895
29:56.5;-0.11161394066059407;-0.12961353912430057;-0.8612913155778515;0.904;0.01246002401006753
29:56.5;-0.12629977178610627;-0.10464694239444228;-0.8177068361238261;0.86;0.01080753716977037
29:56.5;-0.1353508643053065;-0.08564973294072589;-0.7744592017672643;0.767;0.008978123823280006
29:56.5;-0.13856556827059469;-0.07404696923646378;-0.7329828505531982;0.767;0.007520668192413617
29:56.5;-0.13588387800126994;-0.07099183322342871;-0.6949249094897938;0.767;0.006703694323808883
29:56.5;-0.12740920954180768;-0.07728018256952497;-0.6620815179087872;0.708;0.006518991659274543
29:56.5;-0.1134541912305603;-0.09326256139024786;-0.6363117937798456;0.647;0.006732833208721744
29:56.5;-0.09460179885744;-0.11875516308530373;-0.6194234516465038;0.608;0.006958883067083888
29:56.5;-0.07176217130766503;-0.15296005712920419;-0.6130392738624588;0.595;0.006729176288665575
29:56.6;-0.04620048855257336;-0.19441532982810117;-0.6184658872983613;0.608;0.005555112068548901
29:56.6;-0.019514797230225932;-0.24100323287982012;-0.6365837649160282;0.644;0.0029939357066954414
29:56.6;0.006447681399380309;-0.2900433350268549;-0.6677653952196271;0.693;0.0012487927508204532
29:56.6;0.02973344440958547;-0.33848257345450333;-0.7118173349136755;0.871;0.007163909592769999
29:56.6;0.04846528806648736;-0.3831640387152207;-0.7679359582771005;0.871;0.014260690169270281
29:56.6;0.0610314255799615;-0.421125638268567;-0.8346685965990303;0.871;0.021452567176828786
29:56.6;0.06624978139615072;-0.44987552012493626;-0.909885250081509;0.9740000000000001;0.027118360901677224
29:56.6;0.0634915879608367;-0.46761468461550904;-0.990785365127485;1.081;0.029416020066853465
29:56.6;0.052759959118082095;-0.4733944015454244;-1.0739704561524386;1.22;0.026823775303321144
29:56.6;0.03471857379113907;-0.4671923390034797;-1.1555955216380478;1.3359999999999999;0.018744050220140734
29:56.7;0.010663412958875226;-0.4498905073900501;-1.2315819099099798;1.301;0.005908351972293676
29:56.7;-0.017564822869425713;-0.4231547592188608;-1.2978579913877852;1.315;0.009646509134196696
