Time;AccX;AccY;AccZ;Acc-old;Acc-trns
13:16.7;0.04202637060675396;-0.3363136080636748;-0.7806382101919289;0.8490000000000001;0.01103357194800469
13:16.7;0.05095510692008336;-0.3756611883242917;-0.7652207856930852;0.904;0.01464774610079184
13:16.7;0.05886780081299722;-0.4139024294069383;-0.750410561725135;0.904;0.018284147880051557
13:16.7;0.06517863667043208;-0.44989820613450493;-0.7368989277923813;0.903;0.02160864119860625
13:16.7;0.06945520023195018;-0.48258487589776905;-0.7253483920925493;0.843;0.024312248575008702
13:16.7;0.07149152073472495;-0.5110225470269356;-0.7163326944555947;0.8240000000000001;0.026170340361669472
13:16.7;0.07136272992179213;-0.5344365453436555;-0.7102703616117024;0.86;0.027088895381626496
13:16.7;0.06943872347464583;-0.5522565200642424;-0.7073821646903891;0.924;0.02712668261003291
13:16.7;0.06634880689654427;-0.5641604554492644;-0.707684896091262;0.93;0.026489617395048272
13:16.7;0.0629050783394711;-0.5701205832220139;-0.7110125706353184;0.9179999999999999;0.0254993850715515
13:16.8;0.0600007791318602;-0.5704335714330911;-0.7170539565946801;0.934;0.02454221765182178
13:16.8;0.05850160855373286;-0.565715097085716;-0.7254059607666855;0.945;0.024007486663205964
13:16.8;0.05914498683962059;-0.556851850574704;-0.7356437464610087;0.945;0.024228423386501798
13:16.8;0.06245499335106705;-0.5449211542629354;-0.7473967887671108;0.945;0.025436190089348
13:16.8;0.0686734760604495;-0.531095585671282;-0.760413345014765;0.9420000000000001;0.027733932384965288
13:16.8;0.07770722981898998;-0.5165439449254926;-0.7746033035676826;0.935;0.031091956178892825
13:16.8;0.08909733402666928;-0.5023323004193465;-0.7900598154795251;0.9440000000000001;0.03536028745229058
13:16.8;0.10202293371783187;-0.48932943939634854;-0.8070621400138593;0.977;0.04029082194914104
13:16.8;0.11535113298177883;-0.4781264593969614;-0.8260561467735151;0.985;0.04555900281973358
13:16.8;0.12773521340295863;-0.46898343262364894;-0.847602424642423;0.956;0.05077621559400087
13:16.9;0.1377497487975632;-0.4618148495902258;-0.872285302984747;0.9359999999999999;0.055490324458219116
13:16.9;0.144041730637001;-0.4562205247060203;-0.900591869091798;1.025;0.05918220909309975
13:16.9;0.14547617115885914;-0.4515595502612011;-0.9327839440466229;1.025;0.06127565411093035
13:16.9;0.1412604883122262;-0.4470534208560414;-0.9687847003282426;1.025;0.06117970762504969
13:16.9;0.13103896951902871;-0.4418979865596315;-1.0080943471563695;1.046;0.05837456689856357
13:16.9;0.11495300289951077;-0.4353666909894628;-1.0497502688551432;1.0859999999999999;0.052536545694437296
13:16.9;0.09366366365961733;-0.42689362153497445;-1.0923504111593971;1.147;0.04367699826696483
13:16.9;0.06833172840960756;-0.4161283076446576;-1.134151785107166;1.213;0.032249341186809305
13:16.9;0.040548297548176196;-0.4029568286321361;-1.1732386400532826;1.308;0.019169796493053472
13:16.9;0.01220989061304156;-0.3874884599049278;-1.2077342545836036;1.3869999999999998;0.005714022292269344
13:17.0;-0.014661928095826185;-0.3700115262308236;-1.2360129624199945;1.4040000000000001;0.006705472158984397
13:17.0;-0.03814351623253359;-0.3509241410388955;-1.256864596760364;1.327;0.01682373676487519
13:17.0;-0.05664404428110912;-0.3306503617745488;-1.2695809115993137;1.327;0.02377845537879731
13:17.0;-0.06910738704080735;-0.30956259266358505;-1.2739652079925698;1.327;0.02725401655883836
13:17.0;-0.07513935369968662;-0.28793411697574084;-1.2702886810074405;1.325;0.027482928657768572
13:17.0;-0.07504061616062364;-0.26593252167255305;-1.2592168018958765;1.296;0.02512860345919916
13:17.0;-0.06974898428776669;-0.2436478486271243;-1.241718533946913;1.23;0.021102000649751637
13:17.0;-0.060706290093980056;-0.22114126721241067;-1.218968052038516;1.208;0.01636423886473043
13:17.0;-0.049669457504440934;-0.19849854195125544;-1.1922532640762893;1.217;0.011754800364096022
13:17.0;-0.03849100444479938;-0.17587268818235788;-1.162903737728813;1.226;0.00787229595039527
13:17.1;-0.028902412222095403;-0.15350217960242113;-1.1322352212859177;1.22;0.005023255842567015
13:17.1;-0.02233738063925447;-0.13169770531096897;-1.1014914109913816;1.03;0.003240347355802497
13:17.1;-0.019821861995570532;-0.1108039840183158;-1.0717670851544678;1.03;0.002353966291424018
13:17.1;-0.021935401944128637;-0.09115715361364243;-1.043920971651699;1.03;0.002087391809380292
13:17.1;-0.028829747131793437;-0.073059056340034;-1.0185039053520741;0.971;0.0021452484169320898
13:17.1;-0.040287102808791574;-0.056775549135750544;-0.9957213453855186;0.914;0.0022775357225799466
13:17.1;-0.0558036314017187;-0.04255172061529154;-0.9754390111418026;0.905;0.002316219469157056
13:17.1;-0.0746833652805726;-0.030633148395736897;-0.9572418545215247;0.9309999999999999;0.002189965098581729
13:17.1;-0.09612588248293762;-0.021285554196010945;-0.9405551168970293;0.9670000000000001;0.0019244629409763897
13:17.1;-0.11929294889729708;-0.01480835283848347;-0.9248194743771048;1.024;0.0016337232682294561
13:17.2;-0.14334551832705092;-0.01153710869410584;-0.9096887917252808;1.074;0.0015044367974223905
13:17.2;-0.167452377494848;-0.011826535254023118;-0.8952012405614095;1.057;0.0017728399270764226
13:17.2;-0.19078283651499492;-0.016004571730772507;-0.8818715977961274;0.94;0.0026927046131678396
13:17.2;-0.21250176719762676;-0.024295265277526706;-0.870672324000642;0.94;0.004495095586708199
13:17.2;-0.23178152694148524;-0.036722840680969496;-0.8629074042777292;0.856;0.007344788317996053
13:17.2;-0.2478354600204644;-0.05302235773698125;-0.8600137616115141;0.821;0.011301286401023979
13:17.2;-0.25996730401615364;-0.0725866140616111;-0.8633376720932429;0.866;0.01629130823504067
13:17.2;-0.26762213167517296;-0.09447357292184186;-0.8739296629317267;0.945;0.022095755034302726
13:17.2;-0.2704206208759358;-0.11748342659073292;-0.892380956594627;0.9329999999999999;0.028350890484474506
13:17.2;-0.2681628430002767;-0.14029416299371272;-0.918699096172205;0.853;0.034563004886751465
13:17.3;-0.26079889782103627;-0.16163353160988111;-0.9522179651230371;0.818;0.04013965031225415
13:17.3;-0.24837691105657578;-0.1804700158136035;-0.9915611160646521;1.071;0.04444631559529116
13:17.3;-0.23098916127714172;-0.1962065534565744;-1.0346884176430609;1.071;0.04689372136574701
13:17.3;-0.20873918488057908;-0.20884130533853973;-1.079031760946369;1.071;0.04703862415606933
13:17.3;-0.18174335690708415;-0.21904332615215308;-1.1216989979496843;1.19;0.04465446627803715
13:17.3;-0.15016309854848853;-0.22810782315938852;-1.1597245845351425;1.287;0.03972448402347174
13:17.3;-0.11424799378079313;-0.2377931211579271;-1.1903457137256237;1.36;0.03233858270091245
13:17.3;-0.07436387075597899;-0.25007144544450316;-1.2112644364657223;1.347;0.022525013400422164
13:17.3;-0.030985865273138992;-0.2668420427267229;-1.2208446248068832;1.298;0.010094348171838454
13:17.4;0.015347371179818107;-0.28966129366961063;-1.2182103232725754;1.248;0.005415601977868248
13:17.4;0.06410182722991095;-0.3195397767624202;-1.2032476423625216;1.187;0.02464622200562539
13:17.4;0.11480734936686252;-0.3568379918144904;-1.1765424158715672;1.23;0.048200147305966744
13:17.4;0.16707602380245223;-0.40125887537262994;-1.139296453409601;1.23;0.07637927436825659
13:17.4;0.2205629089979744;-0.4519000328057034;-1.093253653058972;1.23;0.1089671998979695
13:17.4;0.2748765552185263;-0.5073213976956173;-1.0406410994585842;1.226;0.14511819032028103
13:17.4;0.3294688878690012;-0.5656097606216174;-0.9841065708552864;1.19;0.1833890652652014
13:17.4;0.3835434634859178;-0.6244474240934575;-0.9266275823096846;1.153;0.22192983361943078
13:17.4;0.43601494450483724;-0.6811979593432542;-0.8713783540341264;1.151;0.2588102550470597
13:17.4;0.4855359768779301;-0.7330194876792655;-0.8215575166422809;1.183;0.29239834467143777
13:17.5;0.5305876028708966;-0.7770125653400073;-0.7801895240096304;1.234;0.32165125854302506
13:17.5;0.5696124276685899;-0.8103997103074159;-0.749915358046987;1.263;0.3461712378885664
13:17.5;0.601161177702169;-0.8307195622073258;-0.7327892293844873;1.251;0.36595226673537484
13:17.5;0.6240247926355184;-0.8360125572458416;-0.7301028661675596;1.251;0.38088923526806556
13:17.5;0.6373340483867936;-0.8249806878337633;-0.7422658687169147;1.251;0.39027469561636896
13:17.5;0.6406226269477989;-0.7971127958801484;-0.7687704585922467;1.2890000000000001;0.39257147635096
13:17.5;0.6338607574703061;-0.7527694633083843;-0.808254945188743;1.3330000000000002;0.38565967330565704
13:17.5;0.6174683765289236;-0.6932171667309707;-0.858656640439106;1.361;0.36753911233549685
13:17.5;0.5923075738900644;-0.6205968756194006;-0.9174235292724706;1.39;0.3372304213730478
13:17.5;0.5596405471376799;-0.5378153243044;-0.9817428862640278;1.3780000000000001;0.2954881766993452
13:17.6;0.5210338336366674;-0.44835973315060773;-1.0487441672425863;1.31;0.24499774431019405
13:17.6;0.4782003132745272;-0.356053558613792;-1.1156441690908638;1.193;0.1899550688486924
13:17.6;0.4327942412028003;-0.26478482021096045;-1.1798281020663257;1.2670000000000001;0.13520516846049319
13:17.6;0.38620292716345306;-0.17824767176594988;-1.23888629908255;1.2670000000000001;0.0852846511012422
13:17.6;0.3393983735210296;-0.09973846555658972;-1.2906298867797432;1.2670000000000001;0.0436892064970877
13:17.6;0.2929030953282085;-0.03202835774148301;-1.3330991256116735;1.288;0.012506076343668328
13:17.6;0.24688293150476978;0.022698985012291107;-1.3645798541987768;1.391;0.007647094534460631
13:17.6;0.20133042331437553;0.06287536616917112;-1.3836476401748952;1.449;0.01751521371044435
13:17.6;0.1562690075332662;0.08756744268344833;-1.3892457512895913;1.433;0.019010546333210223
13:17.6;0.11190215194670237;0.09649825383611933;-1.380782965255101;1.432;0.01491019466590222
13:17.7;0.06865807797904602;0.0900643875654354;-1.3582296824129707;1.4809999999999999;0.00839881391230539
13:17.7;0.02712666648485792;0.06932817054058127;-1.3221889782600535;1.5090000000000001;0.0024865643363465523
13:17.7;-0.012075360653334083;0.035966672642344336;-1.2739122041516056;1.206;0.0005532735019560043
13:17.7;-0.048453503796444045;-0.007821706738181904;-1.2152353891538608;1.206;0.0004605609629396968
13:17.7;-0.0817393295807662;-0.0594367275901983;-1.1484475676390857;1.206;0.005579523795056765
13:17.7;-0.11191069444608512;-0.11601012904794407;-1.0761288857167113;1.073;0.013971138230625424
13:17.7;-0.13912756716730582;-0.17455826731121066;-1.000984796277548;0.924;0.024309783691426647
13:17.7;-0.16361799819948236;-0.2321606048039905;-0.9256876841510983;0.867;0.03516285154422453
13:17.7;-0.18556822956035643;-0.28615196808231314;-0.85274877316441;0.902;0.04528156880484476
13:17.7;-0.20506889038060214;-0.3342941792087015;-0.7844507751266051;0.963;0.05377671786945257
13:17.8;-0.22214297328508412;-0.37488654776095803;-0.7228456964257621;0.9890000000000001;0.06019744198263188
13:17.8;-0.23683929220210848;-0.4067891340028913;-0.6697802536527634;0.983;0.064529074718452
13:17.8;-0.24934105155474234;-0.4293596316947211;-0.6268907843976064;0.735;0.06711303546003665
13:17.8;-0.2600353068077487;-0.44233118784193876;-0.5955316422673917;0.735;0.0684990774652481
13:17.8;-0.2695142567124745;-0.445674121460554;-0.5766507865241648;0.735;0.06926471460689605
13:17.8;-0.27850942030659487;-0.4394841020665656;-0.570657740426455;0.6920000000000001;0.0698487713577018
13:17.8;-0.28777652254013497;-0.4239252887859899;-0.5773196733085136;0.6709999999999999;0.0704305438930129
13:17.8;-0.2979567632127864;-0.39923952564632875;-0.5957004619177181;0.647;0.07086221373057583
13:17.8;-0.3094472938040822;-0.36581956969211166;-0.6241541214658115;0.6659999999999999;0.07065541737680225
13:17.8;-0.3223157477058482;-0.3243334027414742;-0.6603900874324442;0.7490000000000001;0.06903570258664045
13:17.9;-0.33628319125316386;-0.2758731760346722;-0.7016259315701634;0.853;0.06509089854286179
13:17.9;-0.3507774915141831;-0.2220885005676737;-0.7448274161251569;0.9440000000000001;0.058024772193554786
13:17.9;-0.3650352183050294;-0.16525800128102422;-0.7870117556563638;0.993;0.04747647674181101
13:17.9;-0.3782201868853614;-0.10826079928333614;-0.8255708174631494;1.02;0.03380416921471364
13:17.9;-0.3895355682005537;-0.05443104353383509;-0.8585671793835796;1.02;0.018204051776476885
13:17.9;-0.39832192138430056;-0.007306168301509862;-0.8849675755440154;1.0270000000000001;0.002575438829417173
13:17.9;-0.40414210780468873;0.02970227880862021;-0.9047979845106155;1.082;0.010861142133578413
13:17.9;-0.4068530006214215;0.05367951780080032;-0.9192192552943228;1.203;0.02007544784905135
13:17.9;-0.40665586310767665;0.06257375675198192;-0.9305171899860227;1.32;0.023677926514333772
13:17.9;-0.4041072292125382;0.05549620119200812;-0.9419756957631302;1.374;0.021125138905054647
13:18.0;-0.40006684817458676;0.03288960197532716;-0.9575765883136607;1.324;0.012599830477535127
13:18.0;-0.3955624625297149;-0.003484786486798832;-0.9814719956569375;1.192;0.0013529107831054413
13:18.0;-0.39156530281621554;-0.05075943733897863;-1.0172232236836676;0.5670000000000001;0.020217956950446685
13:18.0;-0.38870065816691585;-0.10533935442321336;-1.0668995327439437;0.5670000000000001;0.04368470963399684
13:18.0;-0.3869570133918829;-0.1633639512750685;-1.1302471853531288;0.5670000000000001;0.07144837992912247
13:18.0;-0.38547403731520424;-0.22115750189688124;-1.2041868787798578;0.726;0.10265750357181407
13:18.0;-0.3824691037313655;-0.2756067892948757;-1.282830547034117;1.038;0.13522455558000313
13:18.0;-0.3753279856427615;-0.32443361612782246;-1.3580777358176404;1.443;0.16537178902059152
13:18.0;-0.3608571908328959;-0.3663398811778285;-1.4207143341466162;1.8459999999999999;0.18781329257346835
13:18.0;-0.3356685324118082;-0.4010235031693748;-1.4618100116495742;2.174;0.19677566475165592
13:18.1;-0.2966409077579091;-0.42909032064742825;-1.4741238027643704;2.372;0.1876349423693291
13:18.1;-0.24138582842110515;-0.4518927583192577;-1.4532123079306947;2.331;0.1585171365257373
13:18.1;-0.1686374171513451;-0.4713152753206967;-1.3980043771560189;1.3969999999999998;0.1111153320927399
13:18.1;-0.07850965068173782;-0.48951918689130364;-1.3107687540822683;1.3969999999999998;0.05037543901974153
13:18.1;0.027388891920808536;-0.5086594214196278;-1.1966061313580065;1.3969999999999998;0.016670659420132496
13:18.1;0.1459656321494144;-0.5305891789488572;-1.0626988212358959;1.043;0.08230366973853007
13:18.1;0.27278089483712703;-0.5565758224767622;-0.9174926187704382;0.802;0.13929671205840993
13:18.1;0.4023309022710776;-0.5870645872389073;-0.7699000272603969;0.728;0.18184594032416584
13:18.1;0.5284782362570136;-0.6215388168202461;-0.6286003800115888;0.862;0.206476201926971
13:18.1;0.6449928621717187;-0.6585209569329225;-0.5015102840009861;1.075;0.21301213842145164
13:18.2;0.7461331672967596;-0.695730132579173;-0.39545203252411143;1.281;0.20528204772050332
13:18.2;0.8271740058992919;-0.7303717027035992;-0.31599008494872144;1.42;0.19090366780661053
13:18.2;0.8847865384085136;-0.7595024642363117;-0.267375889705494;1.379;0.1796759444807594
13:18.2;0.9172071570218324;-0.7804037130170168;-0.2525397000539238;1.379;0.18076586438964382
13:18.2;0.924194137848293;-0.7909022407451337;-0.2730771835580391;1.379;0.19960500666736528
13:18.2;0.9068217312835115;-0.7896006975094941;-0.32919237259286893;1.3019999999999998;0.23571065052039308
13:18.2;0.867174060083524;-0.7760034931047513;-0.4195824543962344;1.2009999999999998;0.2823496628921564
13:18.2;0.8079949939073623;-0.7505414156196785;-0.5412852356584056;1.102;0.32825361175616175
13:18.2;0.7323491263271167;-0.7145061946864562;-0.6895503276003407;1.021;0.3608196121578435
13:18.2;0.6433457154351533;-0.6699109010675078;-0.8578279998525229;0.9990000000000001;0.3697104068351987
13:18.3;0.5439621544238419;-0.6192939225761445;-1.0379779328340706;1.079;0.3496661758668725
13:18.3;0.4369817290752488;-0.5654807243840365;-1.220772002692069;1.296;0.30165855406220526
13:18.3;0.3250380207690334;-0.5113133373046527;-1.3966953306359005;2.115;0.23212556147152213
13:18.3;0.21073715410348856;-0.45936602656154335;-1.5569320968326021;2.115;0.15071957317515358
13:18.3;0.09681015326212826;-0.4116867799673658;-1.6943009642681754;2.115;0.06752714475771923
13:18.3;-0.013769529663459106;-0.3696109918833387;-1.803891953536058;2.187;0.009180672719707456
13:18.3;-0.11777509111094896;-0.33367608107211605;-1.8832816679769224;2.121;0.0740105793842117
13:18.3;-0.21186996049399093;-0.30365340662300155;-1.9323449999786173;1.954;0.12431748371792749
13:18.3;-0.2928983773440183;-0.27871341557276713;-1.9527550094028507;1.8230000000000002;0.15941258335812072
13:18.3;-0.358262131376888;-0.2577139532523608;-1.947304983505342;1.7719999999999998;0.1797930142639544
13:18.4;-0.4063005731511152;-0.23953939048143527;-1.9192195910597682;1.834;0.18678803066457417
13:18.4;-0.43659206933231565;-0.22336726173828947;-1.8716121899838374;1.903;0.1825203226656147
13:18.4;-0.4501018729501999;-0.20875289935068073;-1.8071801567051835;1.8230000000000002;0.16980277580042424
13:18.4;-0.44912631847670553;-0.1955087372366302;-1.7281413995905344;1.8230000000000002;0.15174484632960938
13:18.4;-0.4370369933978;-0.1834625547939304;-1.6363461774185537;1.8230000000000002;0.13120211107656995
13:18.4;-0.41787593591143396;-0.17222798898896785;-1.5334707226875524;1.6440000000000001;0.11036378377215346
13:18.4;-0.3958666861100695;-0.16108334863473173;-1.4212085703908632;1.4969999999999999;0.09062696215475526
13:18.4;-0.37491398838918516;-0.14898465276266468;-1.3014065794743275;1.41;0.07269192599731311
13:18.4;-0.35818107624452517;-0.13468737448948542;-1.176125091446296;1.307;0.05673917797159229
13:18.4;-0.34782278869483224;-0.1169237233918267;-1.0476169944367584;1.192;0.04260525848843551
13:18.5;-0.3449015234201018;-0.09457718431701212;-0.9182205355825993;1.028;0.02995218395557476
13:18.5;-0.34945588283878837;-0.06681309783936697;-0.7901658318090212;0.7909999999999999;0.018448973650847134
13:18.5;-0.3606624810075916;-0.033151107800369145;-0.6653224745858773;0.469;0.007954835546135313
13:18.5;-0.3770339041793294;0.006507758788790152;-0.5449654814661395;0.469;0.0013371522122069166
13:18.5;-0.3966170268005722;0.051868211428965035;-0.429675788800082;0.469;0.008839211181954621
13:18.5;-0.4171805726085356;0.10221525694651215;-0.31946719430369763;0.5;0.013622790197716686
13:18.5;-0.4363979555064753;0.15637564399448753;-0.21414297874968524;0.568;0.014613547582119395
13:18.5;-0.45203467332428365;0.21268848610363514;-0.11379660369967617;0.6459999999999999;0.010940697975159116
13:18.5;-0.4621374545883581;0.2690087355948309;-0.019330481976558397;0.677;0.0024031464271852773
13:18.5;-0.46520288258427767;0.3227551994755186;0.06712927142035804;0.66;0.010079235164659582
13:18.6;-0.4602924245515893;0.3710057121060945;0.1420140299482347;0.617;0.024251894772144064
13:18.6;-0.4470691729006409;0.4106410076070969;0.20033729126057875;0.594;0.03677890872036003
13:18.6;-0.42575476052418115;0.4385392058853354;0.23596465913842457;0.626;0.044056997983665615
13:18.6;-0.39703055663676073;0.45181500252771145;0.2420958546975604;0.626;0.04342821042576267
13:18.6;-0.36192224854897975;0.4480820722615099;0.2119069463903099;0.626;0.0343651340940579
13:18.6;-0.32170055341325177;0.42570809421280154;0.13930015832227297;0.643;0.01907723044177484
13:18.6;-0.277808395150865;0.38403509121095875;0.01971277454028356;0.607;0.0021031198880631023
13:18.6;-0.23180831392993215;0.3235406045781969;-0.14907388710821015;0.531;0.01118045239217013
13:18.6;-0.18534244298254915;0.2459123058635869;-0.36620719125589235;0.431;0.016690986795808847
13:18.6;-0.14009767143157134;0.15401143056631067;-0.6272112260375939;0.39799999999999996;0.013533112581970574
13:18.7;-0.09776111289275295;0.05171380852108538;-0.9236973063335235;0.48100000000000004;0.004669843615059589
13:18.7;-0.059943551952366954;-0.056368332514633274;-1.2434171215190204;0.519;0.004201404578656507
13:18.7;-0.028053793955182225;-0.1652689343914033;-1.5707350953308332;1.825;0.007282588604354874
13:18.7;-0.0031314524595339958;-0.2701131699825405;-1.8875482289837042;1.825;0.001596576158377587
13:18.7;0.014321060651835305;-0.3665388874841779;-2.1745748524983486;1.825;0.011414834069478807
13:18.7;0.024454490613518766;-0.4509993359109196;-2.41288032404592;2.575;0.026611558230321818
13:18.7;0.028105388606880763;-0.520909841478946;-2.585553938896972;3.273;0.03785347543167991
13:18.7;0.026742953234932487;-0.574671329888884;-2.6794388720475997;3.674;0.04117871113821506
13:18.7;0.022338006065787;-0.6116310565935767;-2.686675716451154;3.7560000000000002;0.03670702468135768
13:18.7;0.017162951182813344;-0.6320324671006429;-2.6057213010984297;3.5039999999999996;0.028265672241010776
13:18.8;0.013544109305011577;-0.6369813209306951;-2.4415791190418425;3.0410000000000004;0.02106434451587897
13:18.8;0.013612162504804202;-0.6284208285788869;-2.205167877515448;2.5;0.01886337305245171
13:18.8;0.01910855808229061;-0.6090788530101052;-1.911959978466486;1.22;0.022252573043240555
13:18.8;0.031285432767007404;-0.5823463895355117;-1.5802011837485928;1.22;0.028789620289168198
13:18.8;0.05089613272915308;-0.552070173892414;-1.229123757153899;1.22;0.03453621044184439
13:18.8;0.07824779963334984;-0.5222664338686115;-0.8774857183983201;0.8490000000000001;0.03585950622690462
13:18.8;0.11329010329766234;-0.4967726337350906;-0.5425330908352134;0.54;0.030533449305892465
13:18.8;0.1557217912977007;-0.478868940835929;-0.23929885429659295;0.387;0.01784459435734788
13:18.8;0.20509190276085987;-0.47092733790024005;0.01986399939061643;0.439;0.0019185322767892841
13:18.8;0.26086815380688755;-0.47415630399862757;0.22556238295012968;0.581;0.027900325348136565
13:18.9;0.32245632628715826;-0.48848783841184457;0.3714712425165418;0.7120000000000001;0.05851266193691716
13:18.9;0.3891766329095693;-0.5126185312388403;0.4542784053206149;0.779;0.09062815752129877
13:18.9;0.46021997855112906;-0.5441877717023638;0.4734798555800029;0.8270000000000001;0.11858117597676186
13:18.9;0.5346074103457888;-0.5800590870700957;0.43105809624469077;0.92;0.13367279090366624
13:18.9;0.6111610092837432;-0.616661159153665;0.3311021419784089;0.92;0.12478552906605006
13:18.9;0.6884791736886376;-0.6503430690336115;0.17943799546302525;0.965;0.0803429423651753
13:18.9;0.7649111002125328;-0.6777075498517164;-0.016685909451743974;1.0590000000000002;0.008649742317239395
13:18.9;0.8385395055198541;-0.6958997250773234;-0.2488617440356037;1.171;0.14522063562399706
13:18.9;0.9071846742346898;-0.7028327838815875;-0.5077780138380913;1.27;0.32375881990051136
13:18.9;0.9684327325097868;-0.6973274508318159;-0.7835295384069688;1.403;0.5291290376288571
13:19.0;1.0196848783501007;-0.6791431775140668;-1.0660327507704463;1.679;0.7382405025190222
13:19.0;1.058230931431644;-0.6488902027237424;-1.3455522393489552;2.049;0.9239580038083818
13:19.0;1.0813585056977333;-0.6078299648589012;-1.613269552304207;2.47;1.060373203266987
13:19.0;1.0865049300433445;-0.5576035234717673;-1.8617517724213055;2.47;1.1279217897187226
13:19.0;1.0714452801225431;-0.499968596695446;-2.085160271673459;2.47;1.1169974064658381
13:19.0;1.0345010571668847;-0.43663465626168246;-2.2791218129327113;2.342;1.029477074544413
13:19.0;0.9747566333929307;-0.3692398225183876;-2.440331175612064;2.354;0.8783214741867713
13:19.0;0.8922746427685717;-0.2994497498106684;-2.5660696971609114;2.46;0.6856318024555268
13:19.0;0.78829192925627;-0.22911250647595924;-2.65384386555155;2.635;0.47930421142906743
13:19.0;0.6653513726366408;-0.16037747088066379;-2.701281313012799;2.8680000000000003;0.2882466255964377
13:19.1;0.5272996441873187;-0.09569035404656359;-2.7063090165682033;3.0069999999999997;0.1365535591685956
13:19.1;0.37908238159702795;-0.037622775917772584;-2.66752471470473;3.003;0.03804458825315122
13:19.1;0.22631294550458203;0.011434110972692283;-2.584607622371055;2.5639999999999996;0.0066881564063640585
13:19.1;0.0746807747124375;0.04962467104651576;-2.458638197272229;2.5639999999999996;0.009111734988364985
13:19.1;-0.07064343669300968;0.07593251464853278;-2.292283217318223;2.5639999999999996;0.012296113865738612
13:19.1;-0.20544447144108008;0.09036722279934074;-2.089858062494495;2.279;0.0387991476832028
13:19.1;-0.3266768931962784;0.09401587632012494;-1.85726303929734;1.965;0.05704177499448783
13:19.1;-0.4324876270174551;0.08896821043431752;-1.6017748460240127;1.7069999999999999;0.06163253224165397
13:19.1;-0.5221037473866638;0.07813254045753289;-1.3317044898806523;1.476;0.054324610334099944
13:19.1;-0.5956347206271897;0.06496771062667604;-1.055963096597525;1.219;0.04086262947050967
13:19.2;-0.6538318734808485;0.05316583286763772;-0.7835727653293328;0.965;0.027238177304582792
13:19.2;-0.6978401146106409;0.046321946283436076;-0.5231473538472389;0.778;0.01691090159382028
13:19.2;-0.7289674366211373;0.047619986954188114;-0.28237729857022403;0.6920000000000001;0.009802281713449676
13:19.2;-0.7484919916491669;0.05955610294976833;-0.06758771316555018;0.6920000000000001;0.0030128754756643403
13:19.2;-0.7575240738822714;0.08371264613384348;0.11652837104317625;0.6920000000000001;0.007389570292713644
13:19.2;-0.7569382245864478;0.12059091039195914;0.26692726720811055;0.745;0.02436508614700496
13:19.2;-0.7473858794428957;0.16951014412160822;0.3819989176599179;0.805;0.04839524734791831
13:19.2;-0.7293876296877485;0.2285821330813245;0.46120699539984733;0.846;0.07689472719327799
13:19.2;-0.703485883189698;0.2947720761323427;0.5046805497150586;0.882;0.1046545933655266
13:19.2;-0.6704197930482027;0.3640559664968154;0.5128337272591079;0.905;0.1251674948506697
13:19.3;-0.6312741355661605;0.4316766700802397;0.4860788917251406;0.8909999999999999;0.1324595684334453
13:19.3;-0.5875589232967742;0.4924840523331394;0.4246868274725593;0.879;0.12288882413293939
13:19.3;-0.5411958020212736;0.5413293633435994;0.32882433563959085;0.857;0.09633408033455833
13:19.3;-0.4944122261236412;0.5734797708068787;0.19876625710597348;0.835;0.05635727222685859
13:19.3;-0.44956657403571415;0.585020402685732;0.035244105432412055;0.835;0.0092693977363264
13:19.3;-0.4089403005137246;0.5732102075031116;-0.16013524272165908;0.799;0.03753710280015827
13:19.3;-0.3745323223644881;0.5367572808771229;-0.3844876811864303;0.76;0.07729469315396768
13:19.3;-0.34788217323719406;0.47598444302083975;-0.6333590473363299;0.809;0.10487570945310447
13:19.3;-0.32994195633319107;0.3928642943022908;-0.9006108313241638;1.015;0.11673934988268518
13:19.3;-0.3210085440967951;0.2909119869030165;-1.1785045236023104;1.29;0.11005491997132442
13:19.4;-0.3207102356793539;0.17493326468659265;-1.4579515619542007;1.534;0.08179529398548561
13:19.4;-0.32802341778048466;0.050632018032559116;-1.7288675743216428;1.6909999999999998;0.028713875677360653
13:19.4;-0.3412868924054347;-0.0759089908697125;-1.9805796148629866;2.117;0.05131036826076414
13:19.4;-0.3581966793544049;-0.19882420660617503;-2.202264836140654;2.117;0.15684127276613777
13:19.4;-0.3758036034157991;-0.31302821828427957;-2.3834248690284476;2.117;0.28037926688826104
13:19.4;-0.3905699326687419;-0.41462095208438626;-2.514430210407633;2.461;0.40718299964770943
13:19.4;-0.398537026254339;-0.5010767144030426;-2.5871929407996337;2.8360000000000003;0.5166562822883698
13:19.4;-0.39562012596448204;-0.5712369783204874;-2.5959832914810628;3.161;0.5866736504416649
13:19.4;-0.37800423733514094;-0.6251586707835259;-2.5382858856513155;3.299;0.5998290046059951
13:19.4;-0.34257992141695665;-0.6638746294070896;-2.415483407031117;3.1639999999999997;0.5493536771890849
13:19.5;-0.287339519670571;-0.6891226827232475;-2.233142867348144;2.775;0.44218948886167164
13:19.5;-0.21166129079701282;-0.7030900075137414;-2.000768633785507;2.326;0.29774826280049504
13:19.5;-0.11643804521662887;-0.7081991606906234;-1.7310264928267995;1.867;0.14274273975765048
13:19.5;-0.00404570411476229;-0.7069386950288739;-1.43857304668287;1.122;0.004114412114867183
13:19.5;0.12181714827347925;-0.701725163864451;-1.1387114506709655;1.122;0.09733951252266107
13:19.5;0.25637032083227135;-0.6947823193553242;-0.8461187466443598;0.83;0.1507119962772352
13:19.5;0.3940389576276705;-0.688033808326636;-0.5738308545725088;0.757;0.15557250217036697
13:19.5;0.5287803704684536;-0.6830179658939551;-0.33256529345310004;0.82;0.1201114407439448
13:19.5;0.6544532677645489;-0.6808396402937469;-0.13038801972276398;0.945;0.05809799751006569
13:19.5;0.765215743024144;-0.6821697892844706;0.027299154010751232;1.094;0.014250351185040776
13:19.6;0.855922541086801;-0.6872900857260139;0.1375015653366698;1.172;0.08088764387380327
13:19.6;0.9224897202976404;-0.6961656776915989;0.19918957433622378;1.214;0.12792067629336407
13:19.6;0.9622007136819745;-0.7085244998438863;0.21277991083787615;1.396;0.14506116781742812
13:19.6;0.9739298866584027;-0.723925423431639;0.1796585360885787;1.396;0.12666871898608106
13:19.6;0.958251727899754;-0.7418006077415313;0.10185334972116082;1.396;0.0724005911717076
13:19.6;0.9173984772637066;-0.7614596496425617;-0.018074186665489128;1.339;0.012625938595148116
13:19.6;0.8550417966721118;-0.7820524284546959;-0.17691732106354194;1.1909999999999998;0.11830240352019095
13:19.6;0.7759029218852174;-0.8025032030303901;-0.37056568283748886;1.015;0.23073812528625295
13:19.6;0.6852314391454186;-0.8214450644949147;-0.5937282295680635;0.917;0.33419773619500975
13:19.6;0.5882273330686733;-0.8371957025986345;-0.8397773256409993;1.054;0.41355791360721267
13:19.7;0.48950209987680926;-0.8478103988107972;-1.1008116015287812;1.392;0.4568422862353304
13:19.7;0.39267127865369456;-0.8512176792533804;-1.3679531596002743;1.768;0.4572366124859428
13:19.7;0.300141643922447;-0.8454027920694756;-1.6318094366800706;2.146;0.41405627909455445
13:19.7;0.21311468018037377;-0.828591462477355;-1.8829734419184523;2.146;0.33250487376360127
13:19.7;0.13179240526248195;-0.799418021748025;-2.1124343618623764;2.146;0.22256022002907197
13:19.7;0.0557451491039552;-0.7570990275104241;-2.3118458882778574;2.21;0.09757052675735782
13:19.7;-0.015629365765670793;-0.7016277766536032;-2.47371838510361;2.434;0.027126788767562377
13:19.7;-0.08266249576055609;-0.6339642415695252;-2.5916673133795385;2.696;0.1358164977249264
13:19.7;-0.14511350548591398;-0.5561570087047948;-2.6608071041709733;3.091;0.21474281379864626
13:19.7;-0.20211367006572387;-0.47131695182049616;-2.678260060888472;3.3539999999999996;0.2551299791411008
13:19.8;-0.2523841590435383;-0.38337524089461;-2.643623537694494;3.3310000000000004;0.25579129738863415
13:19.8;-0.29465306049062845;-0.2966138903923576;-2.559172181580414;3.1060000000000003;0.223667018073631
13:19.8;-0.3281121288547244;-0.2150433000894679;-2.429623626025464;1.98;0.17143014910812188
13:19.8;-0.3527426177113877;-0.1417729037822439;-2.2614803069034473;1.98;0.11309514933250456
13:19.8;-0.3694112852132977;-0.07853839710088378;-2.0621755713075456;1.98;0.05982983842149651
13:19.8;-0.37973118328973166;-0.025502096080841637;-1.839313455271315;1.7;0.0178118032041798
13:19.8;-0.38574180853657314;0.01864475373835662;-1.6001542557106212;1.5119999999999998;0.011508407059288857
13:19.8;-0.38949792426940577;0.056331643720061074;-1.3513346459258184;1.347;0.02964971224859189
13:19.8;-0.39267658635991043;0.09061204408649097;-1.0987519900257443;1.147;0.039094945242841
13:19.8;-0.39629549015456367;0.12463405768453091;-0.8475474531298917;0.8759999999999999;0.041861991746543877
13:19.9;-0.40058572750106;0.16117751615226852;-0.6021373975673797;0.584;0.038877249494554796
13:19.9;-0.4050179712895826;0.2023240027275888;-0.36627003060928204;0.39399999999999996;0.03001394532851503
13:19.9;-0.40846363351660486;0.2492860051751669;-0.14311957880836507;0.563;0.014573046271157717
13:19.9;-0.40946427216799614;0.30237781248207235;0.06455015733336007;0.563;0.007992142878994786
13:19.9;-0.40656564064830314;0.36107418532158847;0.2541347169933623;0.563;0.037307067301900074
13:19.9;-0.3986601728359385;0.42409879107305093;0.4228832589884442;0.6829999999999999;0.07149742122422047
13:19.9;-0.3852881348537895;0.48951587798168816;0.5676321713144037;0.8079999999999999;0.10705807245380246
13:19.9;-0.36685816612194605;0.5548269786943598;0.6846889911195209;0.958;0.13936351980355272
13:19.9;-0.34475021640466474;0.6170759870237063;0.7699287806406669;1.093;0.16379240065115092
13:19.9;-0.3212723693130549;0.6729609192432411;0.8190856706515158;1.176;0.17708939273095628
13:20.0;-0.2994684297451528;0.7189590589882463;0.8281587158764047;1.228;0.17830715989705231
13:20.0;-0.28280451027376496;0.7514881067141971;0.7938245960299382;1.2309999999999999;0.16870695784774467
13:20.0;-0.27478348724851276;0.7671304622381694;0.7137651745546063;0.9940000000000001;0.15045797550315176
13:20.0;-0.2785397261865198;0.7629258912524362;0.5868805222193989;0.9940000000000001;0.12471514446904484
13:20.0;-0.2964581327652677;0.7366988928729331;0.4134409355725382;0.9940000000000001;0.09029565668882782
13:20.0;-0.3298498525011408;0.6873629577581755;0.19525709080623427;0.917;0.04426997051183549
13:20.0;-0.37870910348875886;0.6151479190147314;-0.06411437461655757;0.84;0.014936220435870366
13:20.0;-0.4415756551785213;0.5217094152600668;-0.35918525880748886;0.7509999999999999;0.08274700833668057
13:20.0;-0.5155296185967028;0.41008939585477233;-0.6824451057727742;0.792;0.14427792399689462
13:20.0;-0.5963368260605993;0.28451445882045195;-1.0244258317879773;1.067;0.17381069349301229
13:20.1;-0.6787398126762588;0.15004765829452704;-1.3739578945227706;1.443;0.13992843280853773
13:20.1;-0.7568618845427119;0.012134226441390823;-1.7186213869252334;1.755;0.015783704515276668
13:20.1;-0.8246731598322554;-0.12390529369772718;-2.04536119419229;2.694;0.20899780911804164
13:20.1;-0.8764608094499587;-0.2533633803466177;-2.3411960952192756;2.694;0.5198932003916635
13:20.1;-0.9072508027441225;-0.3725189691508526;-2.593914087588709;2.694;0.8766603034186511
13:20.1;-0.9131489819886746;-0.4788115529027063;-2.792674950524436;2.694;1.2210308857246823
13:20.1;-0.8915960469543728;-0.5708047332943161;-2.928553489025508;3.21;1.4904206554556505
13:20.1;-0.8415381813293421;-0.648009057483324;-2.9951247782317103;3.554;1.6333145139495888
13:20.1;-0.7634981926788145;-0.7106665242983901;-2.989107988571252;3.697;1.6218678958219672
13:20.1;-0.6595245264545399;-0.7595798986834462;-2.9109290122691713;3.661;1.458263576829924
13:20.2;-0.5330182610779773;-0.7960156230846985;-2.7649879203057344;3.4610000000000003;1.173159111464854
13:20.2;-0.3884639372583257;-0.8216451608085209;-2.5594667808839398;3.153;0.8169293637257115
13:20.2;-0.23109296387875267;-0.8384555725031387;-2.305634654920549;1.797;0.4467424990649995
13:20.2;-0.0665132067309206;-0.8485827251229033;-2.016769289748632;1.797;0.11383040800022019
13:20.2;0.09963690637442281;-0.854082030453201;-1.7069678197413896;1.797;0.14525970337792724
13:20.2;0.2619539390680631;-0.8566966640496637;-1.3901253999223329;1.453;0.31196508300246056
13:20.2;0.41545151138948216;-0.8576791169806572;-1.0791951663278903;1.251;0.3845432306496121
13:20.2;0.555693865571347;-0.8576935089579883;-0.7856937163933895;1.125;0.3744734275063573
13:20.2;0.6789019213403399;-0.8568075550566838;-0.5194018756157998;1.155;0.30212999162693804
13:20.2;0.7820313345290211;-0.8545749068026419;-0.2882395442198592;1.195;0.19263174263400684
13:20.3;0.8628226071710797;-0.8501961250959384;-0.09828281250102014;1.275;0.07209716917609016
13:20.3;0.9198288341097666;-0.8427274827215852;0.0461317703374942;1.3130000000000002;0.035759735502244816
13:20.3;0.9524259824083623;-0.831292988037742;0.14226885525504088;1.335;0.11264066060861808
13:20.3;0.9608077449495649;-0.8152579065506106;0.1888500182139739;1.335;0.1479273732813472
13:20.3;0.9459641849550198;-0.7943386491503014;0.18590808945080262;1.335;0.13969429673561987
13:20.3;0.9096405288568624;-0.7686393664472574;0.1346403186223912;1.264;0.09413856116139964
13:20.3;0.8542696423976424;-0.7386135850372777;0.037270747594701024;1.171;0.02351691604465554
13:20.3;0.7828689545090207;-0.704959421479688;-0.1030576784464143;1.093;0.05687658926884917
13:20.3;0.6988921807680993;-0.6684732494643075;-0.2823377348058925;1.001;0.13190557161264882
13:20.3;0.6060319049020418;-0.6298974358257037;-0.49568518584529486;0.9109999999999999;0.18922184318365473
13:20.4;0.5079812235419932;-0.5897954314500586;-0.7372714618851136;0.9109999999999999;0.22089021995623334
13:20.4;0.40817546382002123;-0.5484772970405669;-1.0002509611358346;0.9890000000000001;0.22393115903232458
13:20.4;0.3095435276325263;-0.5059867978575995;-1.2767498886056647;1.605;0.19997087258398905
13:20.4;0.21430865474060787;-0.46215138085498225;-1.557948611970341;1.605;0.15430396781122208
13:20.4;0.12388985713585944;-0.4166904457473593;-1.834223510605806;1.605;0.0946894405501969
13:20.4;0.03894309730902442;-0.3693708220617816;-2.095310072035735;1.828;0.030139870114458567
13:20.4;-0.04046325836985528;-0.3201897023383995;-2.3305326964261415;2.081;0.030194192033253592
13:20.4;-0.11458842573781615;-0.26956080736425486;-2.5292091981475804;2.372;0.07812360112648922
13:20.4;-0.18374784853254086;-0.21847277340262192;-2.6813000794971495;2.872;0.10763784782681732
13:20.4;-0.24811479010209853;-0.16856482753830343;-2.778271497888288;3.332;0.11619683463152154
13:20.5;-0.3076660166320968;-0.12204541496969654;-2.8140270986074056;3.52;0.10566454138658497
13:20.5;-0.36228449883187014;-0.08141238755813326;-2.785674070618561;3.5;0.08216191351967027
13:20.5;-0.41195421228494256;-0.04901560145247123;-2.693890193636822;2.557;0.054395525081119396
13:20.5;-0.45693989443286787;-0.026572197901928846;-2.542801198180104;2.557;0.030874431013189284
13:20.5;-0.4978598811287204;-0.014757818656939018;-2.339486259574986;2.557;0.0171889678525942
13:20.5;-0.5356109062930814;-0.012961293254536271;-2.093322151724171;2.17;0.014532282031006547
13:20.5;-0.5711619433232528;-0.01923503565513518;-1.815292465705138;1.829;0.019943384547518983
13:20.5;-0.6052836190471882;-0.03042511047512224;-1.5172799944645243;1.524;0.02794195675200332
13:20.5;-0.6383037559688818;-0.042439152316945186;-1.2113461389223301;1.2429999999999999;0.03281424074402324
13:20.5;-0.6699639068122862;-0.050607752415107066;-0.9090284318802099;0.981;0.030820943071767654
13:20.6;-0.6994082141447141;-0.050103525996679464;-0.6206931627400498;0.7879999999999999;0.021750837312102516
13:20.6;-0.7252968242389297;-0.03638641070907826;-0.3549749483206604;0.715;0.009368125449555396
13:20.6;-0.746016995151277;-0.005641009486797004;-0.11833997710480654;0.92;0.0004980088176336743
13:20.6;-0.7599542273354504;0.04482699898190389;0.0851696776229241;0.92;0.0029014300440857043
13:20.6;-0.7657745692702266;0.11625995014197474;0.25393595349998355;0.92;0.02260764197351707
13:20.6;-0.7626696337084999;0.20820425424040723;0.3884654377884271;0.963;0.06168483954028344
13:20.6;-0.7505330500897263;0.3183804643989529;0.49082775793940703;0.9890000000000001;0.11728577685575417
13:20.6;-0.7300537162688595;0.4426931055977862;0.5639310931198797;0.985;0.18225674725911595
13:20.6;-0.7027165560912413;0.5753923433432782;0.6107419255887799;0.991;0.24694600131379485
13:20.6;-0.6707051681559163;0.7093861444122893;0.6335418623068374;1.005;0.3014322195231948
13:20.7;-0.6367107769614105;0.8366937066972457;0.6333068376224028;1.052;0.33738275493385866
13:20.7;-0.6036647715784873;0.9490225054485713;0.6092890805490223;1.1440000000000001;0.3490565072464885
13:20.7;-0.5744231563709867;1.0384359379471433;0.5588722068167075;1.4040000000000001;0.3333681930384613
13:20.7;-0.5514412158738904;1.098049852280529;0.4777515358321261;1.4040000000000001;0.2892833064871817
13:20.7;-0.5364841149070224;1.1226652855340096;0.3604598934050556;1.4040000000000001;0.21710214329780833
13:20.7;-0.5304140509203807;1.1092465863745995;0.2012138157982194;1.412;0.11838615570282911
13:20.7;-0.533076143606149;1.0571946973798025;-0.0049936144366560554;1.3719999999999999;0.002814227679855627
13:20.7;-0.5432902408081527;0.9684019096419642;-0.26116917518663657;1.286;0.1374071900542903
13:20.7;-0.558950597973825;0.8470836079889065;-0.5671117998278856;1.141;0.2685148979338226
13:20.7;-0.5772247158601886;0.6993895719464259;-0.918381893663899;1.014;0.37075531365440356
13:20.8;-0.5948175538860658;0.5328238941117786;-1.3056088696686001;0.9690000000000001;0.4137905428725737
13:20.8;-0.6082424171400301;0.35553394386040127;-1.7143076632698158;0.857;0.37072044715274827
13:20.8;-0.6140414435551179;0.17554548083605842;-2.125388062982438;2.553;0.22910025614486496
13:20.8;-0.6089416133888245;4.047850824071518e-05;-2.5164481707941295;2.553;6.202805204250415e-05
13:20.8;-0.5899935309346042;-0.16519368317362085;-2.8637075615611205;2.553;0.279106115482118
13:20.8;-0.5547661276813367;-0.3160298069730918;-3.1442807066065934;3.6639999999999997;0.5512635700036576
13:20.8;-0.5016337119887978;-0.4499656637407104;-3.3385479094501758;4.488;0.7535701773104254
13:20.8;-0.4301198156016368;-0.5658813732966466;-3.432410772762202;4.8469999999999995;0.835437770692612
13:20.8;-0.34119995430844596;-0.6637251355031546;-3.4190903272014306;4.69;0.7742974045839262
13:20.8;-0.2374444675917024;-0.7442371272624069;-3.3000687423081305;4.298;0.5831716096640277
13:20.9;-0.12291334385844845;-0.8087546907029884;-3.084940841383637;3.708;0.3066639226097505
13:20.9;-0.002778645166196379;-0.8590708579389802;-2.790201512897846;3.115;0.006660359134247023
13:20.9;0.11727750964217555;-0.8972858810812165;-2.4372075284902315;1.7109999999999999;0.2564708908754819
13:20.9;0.23176211731511875;-0.9256128763553552;-2.049709659594196;1.7109999999999999;0.43970781567387646
13:20.9;0.3359749024726119;-0.9461485651253105;-1.6514395632722778;1.7109999999999999;0.524963195122322
13:20.9;0.42633966003337265;-0.9606573271467086;-1.264144367042803;1.262;0.5177509541642699
13:20.9;0.5004034087387168;-0.970421150076048;-0.9062061940980772;0.981;0.44005558685465646
13:20.9;0.5565812290906437;-0.9761908078464453;-0.5918017168881515;0.997;0.3215433188976468
13:20.9;0.5938052103203328;-0.9782468163855828;-0.3305623104945999;1.083;0.19201969811156747
13:20.9;0.6112436229330055;-0.9765440347803486;-0.12773648481632255;1.146;0.0762467142860006
13:21.0;0.6082040851766626;-0.9708847615854033;0.015193704867840635;1.213;0.008971823138274531
13:21.0;0.5842484008630296;-0.9610608984518693;0.09958819799753038;1.268;0.05591860318378683
13:21.0;0.5394636142568009;-0.9469264135428533;0.12862176244422135;1.192;0.0657041565898035
13:21.0;0.4747829717875144;-0.9283940851979707;0.10635352695330252;1.192;0.04687911411914194
13:21.0;0.3922415164820478;-0.9053807140855971;0.037045068722792084;1.192;0.01315573761967578
13:21.0;0.295070817703003;-0.8777356687855368;-0.0751847012455757;1.048;0.019472400161595838
13:21.0;0.18756917388022737;-0.8451773769962581;-0.2263480392405581;0.897;0.035882778649276005
13:21.0;0.07472834310046364;-0.8072541667893588;-0.41226245166736686;0.759;0.024869636069697804
13:21.0;-0.03834340238867471;-0.763352075526897;-0.6280051469369983;0.7659999999999999;0.018381406568340884
13:21.0;-0.14710484992869416;-0.7127760004377027;-0.8672938036229965;0.9179999999999999;0.09093818943685412
13:21.1;-0.2482340728295664;-0.6549141586454531;-1.1219841140974838;1.1340000000000001;0.18240321144364927
13:21.1;-0.3400919894861763;-0.5894628065888451;-1.381888773011014;1.399;0.2770294238040241
13:21.1;-0.4228547808723292;-0.5166595889547678;-1.635070239104388;2.226;0.35721702811746414
13:21.1;-0.49824613556426894;-0.43747407037300706;-1.868604992418189;2.226;0.407299391024621
13:21.1;-0.5689232192917788;-0.3537319409357105;-2.069617664600401;2.226;0.4165029276390789
13:21.1;-0.6376722622573692;-0.26816493327593105;-2.2263176323737817;2.325;0.3807032976449509
13:21.1;-0.7066089931268895;-0.18434981673517886;-2.32889985900668;2.615;0.30337003751177377
13:21.1;-0.7765877133240833;-0.1064593032425787;-2.370309315569733;2.864;0.19596529153599906
13:21.1;-0.8469885792539592;-0.03876807202022954;-2.346858678684128;2.944;0.07706171968035394
13:21.1;-0.9159218069919219;0.015035488530015155;-2.258607791774003;2.909;0.031104037359476724
13:21.2;-0.9807138155983145;0.0525567679001643;-2.1093958497751792;2.7739999999999996;0.10872490328320418
13:21.2;-1.0384480293845602;0.07320475578351997;-1.906482759336854;2.464;0.14492955038121677
13:21.2;-1.0863656125813705;0.07835554902650503;-1.6598490214222588;1.53;0.1412909531534112
13:21.2;-1.1220489490399794;0.07115263533270358;-1.3812928748687805;1.53;0.1102779196955082
13:21.2;-1.1434454361401163;0.05604948753018406;-1.0835195959969415;1.53;0.06944226242728002
13:21.2;-1.148861135208579;0.03824314509816489;-0.7793702856275943;1.351;0.03424246204091522
13:21.2;-1.137026860291631;0.02310306736732944;-0.48119737374331284;1.276;0.012640481494003767
13:21.2;-1.107258772386429;0.015638118397401174;-0.20030354332557024;1.253;0.003468344743216455
13:21.2;-1.059665450889333;0.020022091061079016;0.053605675320403445;1.268;0.001137336504619849
13:21.2;-0.9953219463780815;0.03920382992949189;0.27292662610785123;1.273;0.010649714939882943
13:21.3;-0.9163416253762243;0.07463575007988578;0.4525462589891693;1.264;0.030950473391663545
13:21.3;-0.8258176362178757;0.1261573424088406;0.59003443865642;1.22;0.06147153331786848
13:21.3;-0.7276553195128445;0.1920607382538629;0.6855759493959552;1.0270000000000001;0.09581199347626014
13:21.3;-0.6263519318677532;0.2693262997810719;0.7416240922083918;1.0270000000000001;0.1251068287114382
13:21.3;-0.5267821441303523;0.3539581167890311;0.7623254268813306;1.0270000000000001;0.14214229627007227
13:21.3;-0.4340118713788147;0.44132989971215575;0.7528131636437766;0.9059999999999999;0.14419565191212555
13:21.3;-0.35311545011403445;0.5264962041863627;0.7184707365205252;0.795;0.1335737283646357
13:21.3;-0.28895474720265213;0.6044761874781559;0.6642554686778583;0.785;0.1160230210175175
13:21.3;-0.2459037609735828;0.6705291690445976;0.5941649792994257;0.828;0.09796927555738805
13:21.3;-0.22753964234566776;0.7204279130523497;0.5109054776822818;0.871;0.08375064518535694
13:21.4;-0.23634642094319977;0.7507211310442058;0.4157747493116034;0.879;0.07377101873216477
13:21.4;-0.27349180141353113;0.7589680234106468;0.3087297404206304;0.8640000000000001;0.06408350517388343
13:21.4;-0.33873926373763236;0.743927568430949;0.1885923527700229;0.946;0.047524797042656115
13:21.4;-0.43052349824603897;0.7056906382741779;0.053363534072313465;0.946;0.016212716934224373
13:21.4;-0.546147497092008;0.6457442043551421;-0.09935363597458993;0.946;0.03503920387429946
13:21.4;-0.682018645883168;0.566948049750593;-0.2718200118360215;1.202;0.10510441053135706
13:21.4;-0.8338592266579989;0.4733906310226153;-0.46555104541255066;1.371;0.18377215295099011
13:21.4;-0.9968398531544138;0.37008962732749817;-0.6806908996798513;1.443;0.25112054780810344
13:21.4;-1.1655691887512047;0.26253249929032346;-0.9154105217393935;1.379;0.28011542944701906
13:21.4;-1.3339024523237297;0.1561070950401117;-1.1653564565651846;1.167;0.24266408252154822
13:21.5;-1.49463857735034;0.0555198994233753;-1.4232205961479;0.978;0.11810195265456673
13:21.5;-1.6393042076874633;-0.035685596128193796;-1.6785946937045078;1.033;0.0981970306668676
13:21.5;-1.7582817858515876;-0.11541606528821281;-1.9183336514464244;2.984;0.3892950548308702
13:21.5;-1.8414421694251937;-0.18307153731677983;-2.1275516164013637;2.984;0.7172309435965376
13:21.5;-1.879210635138473;-0.2393592906498064;-2.291122745328702;2.984;1.0305619595273696
13:21.5;-1.863821016269861;-0.28594872601206356;-2.395388509912697;3.697;1.2766396612276905
13:21.5;-1.790514653930694;-0.3250545137930384;-2.4298183353209204;4.0760000000000005;1.41419040321816
13:21.5;-1.6584919916362932;-0.35902130456544296;-2.3884476942723087;4.086;1.4221628651479965
13:21.5;-1.4714221368711295;-0.38996490840233367;-2.2708919353535877;3.7260000000000004;1.3030446025159312
13:21.6;-1.2373475869740658;-0.4195091722150379;-2.0827217885311073;3.125;1.0810964392126794
13:21.6;-0.9679531863463009;-0.4486374083804539;-1.835079929377817;2.452;0.7969018265665995
13:21.6;-0.6773289493420858;-0.47765498931182804;-1.5435601697358141;1.786;0.4993873302901024
13:21.6;-0.3804618433112799;-0.5062482306412662;-1.226504936342556;0.708;0.2362348283607291
13:21.6;-0.09173591844520515;-0.5336218439574831;-0.9030144899266365;0.708;0.04420462714704106
13:21.6;0.17628694155501393;-0.5586914013974718;-0.5910718621285181;0.708;0.05821466677036255
13:21.6;0.41362937264438676;-0.5803055713347682;-0.30613967852747725;0.845;0.07348314463706095
13:21.6;0.6131963568931962;-0.5974831837798968;-0.06036319324317436;1.0859999999999999;0.022115535443010825
13:21.6;0.7707182235889691;-0.6096543123516435;0.13768093746375587;1.2590000000000001;0.06469237457674373
13:21.6;0.8844485033974177;-0.6168789165205512;0.28279587491648694;1.298;0.1542927603991026
13:21.6;0.9546794134604915;-0.6199986629019845;0.37263199340664316;1.246;0.22056086193456143
13:21.7;0.983119708098095;-0.6206789970004728;0.4069325426908328;1.158;0.24831095145356752
13:21.7;0.9721943354633883;-0.6213181060084905;0.38671863826034114;1.074;0.23359427771958763
13:21.7;0.9243494635685033;-0.6248229070442992;0.31358508880723196;0.794;0.18111254783350814
13:21.7;0.8414694689047908;-0.6342732613742021;0.18925685445697876;0.794;0.10101046821726832
13:21.7;0.7245230886732025;-0.6525140447797135;0.015511423487607801;0.794;0.0073332036974951866
13:21.7;0.5735262740640816;-0.6817236525673485;-0.20549829951191084;0.715;0.08034704575709116
13:21.7;0.38783893173029454;-0.723004675437475;-0.47057549604283677;0.667;0.1319537741277145
13:21.7;0.16674954819027968;-0.7760411542031798;-0.7745969587737315;0.691;0.10023634132320676
13:21.7;-0.0897302796341556;-0.8388729332766609;-1.109597654911356;0.722;0.08352197075591257
13:21.8;-0.37996751745709556;-0.9078390202303362;-1.464041822037437;0.789;0.5050202584399303
13:21.8;-0.6998475114492164;-0.9777317626666522;-1.8225347458031966;1.025;1.2470933496849932
13:21.8;-1.0421136820936119;-1.0421871219808305;-2.16623695523034;1.48;2.3527011281840537
13:21.8;-1.3960535560550158;-1.0943081005796564;-2.474161075581095;4.027;3.779807334702366
13:21.8;-1.7476193381718281;-1.127458842406308;-2.725273509128954;4.027;5.369794100926176
13:21.8;-2.0799971568297324;-1.13608910735261;-2.9009571224982573;4.027;6.855141868189429
13:21.8;-2.3746291769739423;-1.1164182340547504;-2.9872294877066956;4.666;7.91938229592825
13:21.8;-2.6127424502785455;-1.0668520230570362;-2.9762936055567186;5.04;8.296149275706885
13:21.8;-2.777386771769973;-0.9880773807227649;-2.8672529267307962;5.207000000000001;7.868524924912005
13:21.8;-2.8557497644746177;-0.8828527310473734;-2.665950711461814;5.175;6.721412205777186
13:21.9;-2.841264052383848;-0.755584749378461;-2.3840062051808446;4.934;5.118022157441535
13:21.9;-2.734956154502442;-0.6118035919237169;-2.0372755110658183;4.485;3.4088834706665363
13:21.9;-2.5456361925460813;-0.4575990536542625;-1.644063146397727;3.74;1.9151374496291027
13:21.9;-2.288801544652558;-0.2990345385955872;-1.2234065956838256;1.329;0.8373370496029469
13:21.9;-1.9844841212085447;-0.14158109127850632;-0.79369569729376;1.329;0.22300105089947544
13:21.9;-1.6546134640182146;0.01032924348540297;-0.3717902940965289;1.329;0.006354232724247792
13:21.9;-1.320535086891651;0.15353530205315305;0.027357456772353628;0.775;0.005546690257820361
13:21.9;-1.0010494095875189;0.2861470026759111;0.3907413154167549;0.535;0.11192679014348826
13:21.9;-0.7110455177708268;0.40736606353449034;0.7072383538237321;0.688;0.2048557007634089
13:21.9;-0.46072244004627383;0.5171894412667595;0.9676274420302521;0.9740000000000001;0.2305670229393711
13:22.0;-0.25539707773392595;0.6160463579347293;1.1647639355389396;1.371;0.18325981055159798
13:22.0;-0.09586336279172476;0.7044243978720883;1.293890756720847;1.703;0.08737449111278522
13:22.0;0.02078519386967609;0.782552379132845;1.3529866480793888;1.8880000000000001;0.022007008266197562
13:22.0;0.09999672032708075;0.8502032466548815;1.3430052195551998;1.6540000000000001;0.11417899497363279
13:22.0;0.14843634627156313;0.9066425738650923;1.2678898330582418;1.6540000000000001;0.17063097947215225
13:22.0;0.17271346926918058;0.9506914263804874;1.1343518228358036;1.6540000000000001;0.18625740952118197
13:22.0;0.17838122629552333;0.9808440283622523;0.9514734891592525;1.508;0.16647376034858274
13:22.0;0.16935614208713415;0.9953992649785021;0.7301813773237755;1.2990000000000002;0.12309177096914874
13:22.0;0.1477971727093348;0.9925904150141815;0.4825983697059187;1.094;0.07079817353948924
13:22.0;0.11438264508164427;0.9707041733370437;0.22129452093341564;0.995;0.024570709280460335
13:22.1;0.06884333645796091;0.9281877186358038;-0.04151429646674071;0.9229999999999999;0.002652744423162884
13:22.1;0.010565212499625212;0.8637605012408262;-0.2947707703744058;0.929;0.0026900230003424194
13:22.1;-0.06091607599129521;0.7765582680154923;-0.5293543266361713;1.078;0.025041044204445764
13:22.1;-0.14564383166567307;0.6663282712440062;-0.7388005125985133;1.672;0.07169807972550316
13:22.1;-0.2431986174536087;0.5336736490145888;-0.9198701719108006;1.672;0.11938874790473748
13:22.1;-0.3527812583534734;0.38032365840196536;-1.072801262810218;1.672;0.14393888130533025
13:22.1;-0.4732808516402417;0.2093805786352129;-1.2010826636758603;1.827;0.11902226973127925
13:22.1;-0.6032413230118239;0.025460533289874812;-1.3106981418576695;1.798;0.02013081063327453
13:22.1;-0.7406897080098734;-0.16536840942282321;-1.408903899320649;1.585;0.1725719595021797
13:22.1;-0.8827989591644407;-0.3559119282047335;-1.5026748193973818;1.19;0.4721384443833113
13:22.2;-1.025403207769359;-0.5384248746836254;-1.5970326416664171;0.892;0.8817258635972067
13:22.2;-1.1625057607289433;-0.7053455144150137;-1.6935792259235944;1.047;1.3886811497650875
13:22.2;-1.2860576901538674;-0.8500475132798654;-1.7896431685829575;1.405;1.9564560614711404
13:22.2;-1.3863230929042318;-0.9674555926763766;-1.8783992986908666;3.2769999999999997;2.519320465187612
13:22.2;-1.4529701389043572;-1.0544105009939773;-1.9500391832054134;3.2769999999999997;2.987512625305839
13:22.2;-1.4766752674534709;-1.1097667682256849;-1.9936505753239315;3.2769999999999997;3.2671250627476454
13:22.2;-1.4507876573667815;-1.13430531140552;-1.9992332053135167;3.8080000000000003;3.2900104258931906
13:22.2;-1.3726528372855333;-1.1305653189354548;-1.959391331202587;3.815;3.0407278607414994
13:22.2;-1.2443586056193188;-1.1026460922369181;-1.8704652030176137;3.323;2.566441276741856
13:22.2;-1.0727702557839844;-1.055961037240206;-1.7330027106355312;2.634;1.963151695585029
13:22.3;-0.8688328954645655;-0.996893659633494;-1.5515989536478925;1.973;1.3438926155194255
13:22.3;-0.6462845051994454;-0.932325867915742;-1.3342751273232039;1.526;0.8039644921685037
13:22.3;-0.4200595852728458;-0.8690638409166164;-1.0916305760664045;1.287;0.39850912609469236
13:22.3;-0.20469681761656366;-0.8132392570044941;-0.83595192546847;0.7809999999999999;0.13915881701255706
13:22.3;-0.0130000353733971;-0.769785610130445;-0.580385840651093;0.7809999999999999;0.005808060493803762
13:22.3;0.14491400422446468;-0.7420721479957707;-0.33824364869849666;0.7809999999999999;0.036373587643590145
13:22.3;0.2621697731476724;-0.7317351609477818;-0.12246292961745019;0.7809999999999999;0.023493146501627964
13:22.3;0.33536976198984375;-0.738705321849143;0.05484200673597503;0.8109999999999999;0.01358652737745226
13:22.3;0.36462327836971503;-0.7614049064300591;0.18287881720847945;0.991;0.05077190593832332
13:22.3;0.3534343247771297;-0.7970699262374977;0.25281916832173446;1.338;0.07122216097806358
13:22.4;0.3084353063820189;-0.842129817346715;0.2585420422022171;1.537;0.06715437403619721
13:22.4;0.23888805096195823;-0.8925629376791824;0.19730265880397235;1.399;0.04206938995029617
13:22.4;0.15586888803316193;-0.9441604563414309;0.07010222301466452;1.055;0.01031661050637063
13:22.4;0.07112921284844803;-0.9926778753068105;-0.11839141137505314;1.207;0.008359427643474629
13:22.4;-0.004245663193564265;-1.033906190502831;-0.3603387602956561;1.207;0.0015817493132098985
13:22.4;-0.06114499967183233;-1.0637203655398986;-0.6454262270805969;1.207;0.0419792843170662
13:22.4;-0.09347175029942943;-1.078157744498883;-0.9615368171112623;1.462;0.09690107608407664
13:22.4;-0.09877342025593626;-1.073564283954123;-1.2953155537542225;1.716;0.13735476416602455
13:22.4;-0.07841321736893696;-1.0468345989090029;-1.632683233958275;1.96;0.13401989544875215
13:22.4;-0.03725725318412479;-0.9957580330559154;-1.9593594147129114;2.208;0.07269068472193044
13:22.5;0.017114234166325782;-0.9194538321671639;-2.261414952355542;2.483;0.035585056240731855
13:22.5;0.07556995449765931;-0.8188211522874124;-2.5258627409273253;3.0180000000000002;0.15629603490297395
13:22.5;0.12873936761839047;-0.696852057283214;-2.74129114498819;3.5189999999999997;0.2459275148860262
13:22.5;0.1681832366741473;-0.5586161979298243;-2.8985008153005913;3.2769999999999997;0.2723138044337407
13:22.5;0.18720467734452406;-0.4108155548614733;-2.9910375644877556;3.2769999999999997;0.23003050980408357
13:22.5;0.18126066066477042;-0.261010183010642;-3.0154974941078825;3.2769999999999997;0.14266583469456554
13:22.5;0.1480785050792815;-0.11674268062551749;-2.9715457312363225;2.9130000000000003;0.05136935361119877
13:22.5;0.0876067064811731;0.015265612306492444;-2.861685023027287;2.6839999999999997;0.003827131746722122
13:22.5;0.0018902606145999633;0.1297680408789872;-2.6908848450675804;2.542;0.0006600617193823383
13:22.5;-0.10508458828632858;0.2234316947553614;-2.466210160822845;2.523;0.05790470980729445
13:22.6;-0.2275939938149948;0.2950027587761799;-2.1965446607425627;2.451;0.1474778888881777
13:22.6;-0.3585065010152102;0.3451974468239057;-1.8923962242702999;2.349;0.23419449547196336
13:22.6;-0.4898100881804471;0.3763876155477136;-1.5656648637024089;2.214;0.2886435493100848
13:22.6;-0.6133199750422703;0.3921795198887322;-1.2292186172630168;1.239;0.29566583883294356
13:22.6;-0.7214481890027225;0.3969664142799469;-0.8962175865369894;1.239;0.25666838256753255
13:22.6;-0.8078756807549009;0.39549301152720284;-0.5793052696987887;1.239;0.1850933551214051
13:22.6;-0.8680174394744831;0.3924348513730724;-0.28986102208584025;1.037;0.09873834402867013
13:22.6;-0.8992642919505982;0.3919893119127879;-0.03739880917197501;1.02;0.013183154695251848
13:22.6;-0.9010489685885259;0.3974920646161847;0.1709120494864469;1.109;0.06121382799876616
13:22.6;-0.8747909406583504;0.4110936263688347;0.3306044533642561;1.187;0.11889229754753343
13:22.7;-0.8237481428351582;0.43353846935670143;0.440089466317597;1.199;0.1571676147449539
13:22.7;-0.7527754164516262;0.4640776734728364;0.500595927896846;1.13;0.17488131714153365
13:22.7;-0.6679772333141484;0.5005233962409003;0.5158684946071048;1.011;0.17247456116913176
13:22.7;-0.5762541337628455;0.5394338284199425;0.49166707213596883;0.7090000000000001;0.1528351880204611
13:22.7;-0.4847793662591317;0.5764057563129796;0.43514696736820657;0.7090000000000001;0.12159295054072868
13:22.7;-0.40048263745574436;0.6064469914676048;0.35421773792597044;0.7090000000000001;0.08602939001414184
13:22.7;-0.32961701314923303;0.6244062887524847;0.2569586586425725;0.7290000000000001;0.05288592985495068
13:22.7;-0.27743583918431647;0.6254477880638148;0.15111228006254243;0.797;0.02622124944375383
13:22.7;-0.2479618481391302;0.6055488586608483;0.04363006711073543;0.789;0.0065511860834620685
13:22.7;-0.24382472473656214;0.561973233224973;-0.05975969288522867;0.797;0.008188450539709836
13:22.8;-0.2661583140398881;0.49365302233891334;-0.15496184989239958;0.856;0.02036041516554557
13:22.8;-0.3145629606537347;0.40141683827881547;-0.23986380759269915;0.9279999999999999;0.03028781145162353
13:22.8;-0.3871464793720191;0.28801451639861453;-0.31455033594024034;0.996;0.035073559645904966
13:22.8;-0.480654186654918;0.15791116438203553;-0.38128645871505484;0.8909999999999999;0.028939894734784026
13:22.8;-0.5906749633940609;0.016873704341129156;-0.4441866046774147;0.8909999999999999;0.0044271522295814
13:22.8;-0.7118738049523892;-0.12856381008356682;-0.5085572778188174;0.8909999999999999;0.046543776740528904
13:22.8;-0.8381930259485957;-0.271661150127866;-0.5799819286766426;1.056;0.13206448432452964
13:22.8;-0.9629973930447803;-0.40602471957133696;-0.6632643617502159;1.1909999999999998;0.2593368605439438
13:22.8;-1.0791660698820782;-0.5261635025491019;-0.7613733884756315;1.175;0.43232136178421693
13:22.8;-1.1791519128832333;-0.6280340859977094;-0.874550805811926;1.27;0.6476464949524089
13:22.9;-1.255089123894798;-0.7094994280236812;-0.9997382572256264;1.413;0.8902519375036015
13:22.9;-1.2991045946552713;-0.7705808797169545;-1.1304552611154355;1.666;1.13165937841699
13:22.9;-1.303960611654942;-0.8133896433520729;-1.2572456691624874;2.033;1.3334700310784084
13:22.9;-1.263992956666642;-0.8417008055829015;-1.3687613403652132;2.734;1.4562305143283898
13:22.9;-1.1761265012790332;-0.8602519942627617;-1.4533921960121838;2.734;1.4704915997032688
13:22.9;-1.0406854211039975;-0.8739393387368272;-1.5011294769237056;2.734;1.3652711477927566
13:22.9;-0.8617744819894309;-0.8870901403858182;-1.505258499669962;2.7310000000000003;1.150727443212665
13:22.9;-0.6471149372673258;-0.902928339386963;-1.4635857268826005;2.569;0.8551708214575903
13:22.9;-0.40733959561712046;-0.9232784205692937;-1.3790438920708197;2.272;0.5186416641143015
13:22.9;-0.15488176233898604;-0.9485084979115808;-1.2595811274398505;1.9569999999999999;0.1850408661930396
13:23.0;0.09731495658824824;-0.9776812660266736;-1.1173082111357122;1.557;0.10630406626106625
13:23.0;0.3370347854920751;-1.0088545178146169;-0.9670131060503508;1.301;0.3288028931332157
13:23.0;0.5538189580921874;-1.0394603055543057;-0.8243097986676212;1.3519999999999999;0.47453274915549953
13:23.0;0.7397217981315108;-1.0666961961662358;-0.7037979448193851;1.749;0.5553377001716006
13:23.0;0.8897740968098918;-1.087875018410833;-0.6176004577875643;1.749;0.59781439930085
13:23.0;1.0021203729069779;-1.1006945746362355;-0.574499782911336;1.749;0.6336896094311424
13:23.0;1.0777936739283422;-1.1034074791382906;-0.5797037964322705;1.642;0.6894101896628142
13:23.0;1.1201545432559177;-1.0948962691254218;-0.6351384032452232;1.734;0.778967419291296
13:23.0;1.1341140982947928;-1.0746822902166258;-0.7400687312778934;2.011;0.9020048995559858
13:23.0;1.1253156600426415;-1.0428981783911184;-0.891761467993891;2.116;1.0465620308663013
13:23.1;1.0994261201696771;-1.0002240801026943;-1.085890284517651;1.889;1.1941236618441873
13:23.1;1.0615923892223451;-0.9477553575540995;-1.3165415946167804;1.642;1.324611829265931
13:23.1;1.016012194723981;-0.8867777345563049;-1.5759575910986463;1.26;1.419901530450215
13:23.1;0.9655427595932656;-0.8184821461337511;-1.8543689002116641;2.3930000000000002;1.4654697459219876
13:23.1;0.9113594916905529;-0.7437134779382957;-2.140210784997925;2.3930000000000002;1.4506141896797569
13:23.1;0.8528006195328274;-0.662859336341083;-2.420713824992246;2.3930000000000002;1.368397699404644
13:23.1;0.7875657648829987;-0.5759348481823658;-2.682639764442385;2.87;1.2168093672374707
13:23.1;0.7123422201063645;-0.48285340945223937;-2.9129916540189598;3.147;1.001943490706157
13:23.1;0.6237815191949582;-0.3838332187511671;-3.099673616357787;3.303;0.7421488663563075
13:23.1;0.5196020048080796;-0.27985764150893516;-3.2321248672635154;3.549;0.46999811753746323
13:23.2;0.3994898433101579;-0.17305502810348636;-3.3019555954485442;3.742;0.22827649360164523
13:23.2;0.2654786784206989;-0.06682933180766255;-3.303597856502762;3.944;0.05861164918677849
13:23.2;0.12164805507690095;0.03437170438215739;-3.2348981057849038;4.09;0.013525920900140796
13:23.2;-0.02676392926416717;0.12562129931874894;-3.0974700799500012;3.012;0.010414064770315075
13:23.2;-0.17451002364158605;0.2022417897181542;-2.89665171011098;3.012;0.10223216463457245
13:23.2;-0.3173375037888716;0.26048102443228444;-2.6410942319952313;3.012;0.21831390057746752
13:23.2;-0.4525451593907139;0.2979879668633648;-2.3421504164073443;2.54;0.31584603811752915
13:23.2;-0.5790132721949374;0.31405147024376623;-2.0131750378142517;2.235;0.3660756873202448
13:23.2;-0.6968169894045646;0.30964389113475416;-1.6687377051339156;1.9069999999999998;0.3600553978851016
13:23.2;-0.8066153370990661;0.28732275431414217;-1.3237268722603066;1.466;0.3067855371978648
13:23.3;-0.9090014302353013;0.251015372936978;-0.9923626169339655;1.012;0.22643068586110354
13:23.3;-1.0039616280710046;0.20569152440835684;-0.6871781731158422;0.725;0.1419066891256881
13:23.3;-1.0905547879184416;0.156943426018182;-0.41807755855346307;0.895;0.07155623372036107
13:23.3;-1.1668744501881778;0.11052227698127794;-0.19162176177914067;1.295;0.02471261954061681
13:23.3;-1.2302769973968144;0.07189228862600262;-0.01070935615972841;1.5019999999999998;0.0009472150184317528
13:23.3;-1.2777693585151166;0.04584008726892178;0.12523278201081728;1.5019999999999998;0.007335267117417259
13:23.3;-1.3064070336451268;0.03613310642663956;0.2195491526064231;1.37;0.010363717718506013
13:23.3;-1.3135933059127565;0.045190507237998286;0.27727685311950273;1.23;0.016459694080650126
13:23.3;-1.2972654291544639;0.07374145649059055;0.3039070291055745;1.195;0.029072427824805167
13:23.3;-1.2560320640232727;0.12049440662095202;0.3042335653796462;1.271;0.04604417974302133
13:23.4;-1.189337161758375;0.1819015616778284;0.2815097796345569;1.3969999999999998;0.060902469563025724
13:23.4;-1.097669842258177;0.2521434378582991;0.23706462517795043;1.425;0.06561243502201024
13:23.4;-0.982758003369812;0.32345164334345883;0.17043808235581318;1.37;0.054177952797387165
13:23.4;-0.8476362828892208;0.3868182562435251;0.07999158567484137;1.003;0.026227736211139534
13:23.4;-0.6965218660756415;0.4330173065633646;-0.036159613352960356;1.003;0.010905957155290249
13:23.4;-0.5345425743511443;0.453748303954841;-0.17912637869848008;1.003;0.04344670665770156
13:23.4;-0.3674220466846656;0.44268975846336084;-0.34838403962937553;0.855;0.056666049604212315
13:23.4;-0.20117946076793586;0.39632663098674553;-0.5412571364056561;0.784;0.04315593504917314
13:23.4;-0.04184058077521791;0.314494808073943;-0.752842777956535;0.973;0.009906391172592904
13:23.4;0.10484478196541831;0.20060717750138038;-0.9763552962487118;1.27;0.020535305816459574
13:23.5;0.23367524367779782;0.061516607059362675;-1.2037728631413285;1.569;0.017304124334893096
13:23.5;0.34027593355379426;-0.09302926027294127;-1.4266045507408298;1.808;0.04516004924768604
13:23.5;0.4214086878153653;-0.2513625707920212;-1.6365936235859364;1.9569999999999999;0.17335842355009254
13:23.5;0.47530626788260194;-0.4012563021815158;-1.8262249718807015;2.5140000000000002;0.3482969608945716
13:23.5;0.5019540233878025;-0.5314997942340624;-1.988991047319033;2.5140000000000002;0.5306398587575828
13:23.5;0.5031940991427557;-0.6333643797031401;-2.1194578948692673;2.461;0.6754822914303975
13:23.5;0.48255470517975635;-0.7016077531841235;-2.213227685222426;2.461;0.7493194891170105
13:23.5;0.4448011004834049;-0.7348293412886207;-2.2669056594895656;2.3280000000000003;0.7409446880885597
13:23.5;0.39529954078230756;-0.7352030683853595;-2.2781566596384333;2.385;0.6620902709219925
13:23.5;0.33934334272837235;-0.7077442628889697;-2.24588693756948;2.478;0.539390856694492
13:23.6;0.28160734631175793;-0.6593170591488867;-2.1705168046466436;2.489;0.4029966588265274
13:23.6;0.22585345813220115;-0.5975867715756334;-2.054244002011194;2.414;0.2772552301180627
13:23.6;0.1749106182166825;-0.5300798174950853;-1.9011709336626383;2.269;0.17627008328093396
13:23.6;0.13085627678579795;-0.46345336298145723;-1.71719951809061;1.443;0.10414090684091629
13:23.6;0.09528175236518198;-0.4030158745726427;-1.5096891781985153;1.443;0.05797215315256337
13:23.6;0.06953010733056067;-0.3524888894988957;-1.286984456578405;1.443;0.03154217479408688
13:23.6;0.05482774738510297;-0.3139691312483797;-1.0579444734046792;1.1340000000000001;0.018211689140225543
13:23.6;0.05227093068216525;-0.2880397781514856;-0.8315195374209647;0.838;0.01251944735871609
13:23.6;0.06267221613177258;-0.2739833720078614;-0.6163431487352237;0.591;0.010583317642630746
13:23.6;0.08631714349152235;-0.27005862604119835;-0.42032283605848747;0.42;0.00979801498456495
13:23.7;0.12271425168138984;-0.27381280206465397;-0.2502602218957959;0.349;0.008408926923006146
13:23.7;0.17042809217969307;-0.2824062071185676;-0.11154468661488984;0.348;0.005368640312119086
13:23.7;0.22706317695429049;-0.29292511392251763;-0.007953774879850387;0.445;0.0005290255071890934
13:23.7;0.28942241923862755;-0.3026572426208935;0.05841879722791573;0.5920000000000001;0.005117240773445427
13:23.7;0.35380589921754263;-0.3093058626231812;0.08709841519120941;0.5920000000000001;0.009531548772244883
13:23.7;0.41636781457948213;-0.31112883707793965;0.07904063051247712;0.622;0.01023924212228461
13:23.7;0.4734444228098726;-0.30700395626792865;0.03635901059220236;0.622;0.005284757133695866
13:23.7;0.521805535318478;-0.29643277340694724;-0.037973062049226715;0.675;0.005873683187231301
13:23.7;0.5588260449510832;-0.2794974165657024;-0.14039481183715236;0.7290000000000001;0.021928326855216784
13:23.7;0.5825915985033977;-0.2567819570292979;-0.2669669552176125;0.768;0.039937992420187675
13:23.8;0.5919516491111128;-0.2292673708742179;-0.4134906514578373;0.768;0.05611696574802264
13:23.8;0.5865318713134577;-0.19820916953327147;-0.575528615476281;0.769;0.0669086519109855
13:23.8;0.566720018929423;-0.16500835244066786;-0.7483577604767943;0.789;0.06998158083822618
13:23.8;0.5336374271159046;-0.13108748651878807;-0.9269208564127256;1.196;0.06484106988724823
13:23.8;0.4890991486138517;-0.09778503153892915;-1.1058410781172718;1.196;0.05288859200474261
13:23.8;0.4355534637023992;-0.06628276888907807;-1.279513232370187;1.196;0.03693914982361509
13:23.8;0.37598000654922364;-0.03757675968762086;-1.4422553573076908;1.474;0.02037634284589794
13:23.8;0.313719226686275;-0.01248728608585977;-1.5885262140982843;1.7;0.006223054198657363
13:23.8;0.2522130114687848;0.008315070487823322;-1.713219735441657;1.867;0.0035929112650630334
13:23.8;0.19466205043371917;0.024298226412145595;-1.8120000756966614;1.9780000000000002;0.008570656304468178
13:23.9;0.14364410245788867;0.03508777686595996;-1.881600134665041;2.041;0.009483551086765109
13:23.9;0.10077092386046571;0.040501059173706985;-1.9200147872420272;2.028;0.007836212320104678
13:23.9;0.06646816218977586;0.040568856921901014;-1.9265564954146739;2.002;0.005195031569386094
13:23.9;0.03993601861725429;0.03553282652334024;-1.9017798669719357;1.77;0.0026987009827178702
13:23.9;0.019299046901657003;0.025820854689957387;-1.8473174151755236;1.77;0.0009205513085514117
13:23.9;0.0018962937730353689;0.012009339400206235;-1.7656923851217527;1.77;4.021052854733235e-05
13:23.9;-0.015371959528488873;-0.005210228332273978;-1.6601651052874973;1.64;0.00013296497915288639
13:23.9;-0.0357137611854651;-0.02504363730079563;-1.5346289612157078;1.5590000000000002;0.001372575951516686
13:23.9;-0.0621667290806612;-0.04658292971606546;-1.3935369884416966;1.485;0.004035555430742555
13:23.9;-0.09737491100010111;-0.06878641691157583;-1.2418278474948887;1.371;0.00831785137143668
13:24.0;-0.14341024593574314;-0.09047489296379707;-1.0848145178575934;1.235;0.014075497280537771
13:24.0;-0.2016290246215527;-0.1103662808104585;-0.9279948373763989;1.068;0.020650711387156653
13:24.0;-0.27256794398935225;-0.1271517077025047;-0.776751246691898;0.865;0.026920240442384825
13:24.0;-0.3558949122798474;-0.13959389958814652;-0.6359374723980554;0.552;0.03159385608188816
13:24.0;-0.45041550736147257;-0.14662090612955384;-0.5094118045953576;0.552;0.03364172359178871
13:24.0;-0.5541044031757772;-0.14739635484531902;-0.399646918794724;0.552;0.03264035050232538
13:24.0;-0.6641263708346317;-0.14135994651000874;-0.3075528325947265;0.6;0.028873326958914147
13:24.0;-0.7768506644769154;-0.12823874541444447;-0.23257206843845024;0.6859999999999999;0.023169377068983407
13:24.0;-0.8879009283727134;-0.10803065163141533;-0.17302310406740187;0.815;0.016596465400654042
13:24.0;-0.9922825337770679;-0.08096157662790575;-0.12663271199071383;0.9590000000000001;0.010173261588092041
13:24.1;-1.0846040130502113;-0.04742135220640504;-0.0911801648476412;1.114;0.0046897048792435905
13:24.1;-1.1593833265347788;-0.00788929309336735;-0.0651531182567264;1.25;0.0005959369956245052
13:24.1;-1.2114102990185867;0.03713503098172169;-0.04830219277626035;1.3530000000000002;0.0021729108027103805
13:24.1;-1.2361253618513959;0.08717711316552235;-0.04199297127419904;1.3259999999999998;0.004525239874960358
13:24.1;-1.2299761503979734;0.1417876943953909;-0.0492892751210872;1.3259999999999998;0.008595826918110954
13:24.1;-1.1907273324158907;0.2004809994467896;-0.07474841388057922;1.3259999999999998;0.01784380723835111
13:24.1;-1.1177126795551298;0.26261286145075696;-0.12394723872159226;1.253;0.03638170311466332
13:24.1;-1.0120192815422238;0.32722628677194054;-0.202780091866799;1.188;0.06715251563704076
13:24.1;-0.8765856115107498;0.3929076453805979;-0.3165926760056946;1.087;0.10903995939907925
13:24.1;-0.7161892012519526;0.4576953644173924;-0.4692463133361673;0.9490000000000001;0.15381728857213037
13:24.2;-0.5373017547828727;0.5190717553678453;-0.6622268506423216;0.8490000000000001;0.18469385346937497
13:24.2;-0.3477987842761623;0.5740539246463909;-0.893912229835799;0.8640000000000001;0.1784742760735718
13:24.2;-0.15651686635338388;0.6193818993676773;-1.1591042299403773;1.03;0.11236786892300302
13:24.2;0.027348397023407127;0.6517825172912699;-1.4489094417805928;1.714;0.025827110804838852
13:24.2;0.19498123737545242;0.6682711391678466;-1.750994132423778;1.714;0.22815511961666537
13:24.2;0.33872613578861;0.6664457424424546;-2.0501602013136817;1.714;0.46280847591276314
13:24.2;0.45277727901298337;0.6447358232991767;-2.3291890663652723;2.161;0.6799409058395521
13:24.2;0.5336874571133128;0.6025911251865554;-2.5699835852050237;2.687;0.8264947070479174
13:24.2;0.5806447986646356;0.5406154199791153;-2.7550621246578526;3.2680000000000002;0.8648292410763178
13:24.2;0.5954617301739873;0.46064257534576913;-2.8693390143037507;3.807;0.7870454163956279
13:24.3;0.5822538559580652;0.3657132107634249;-2.901945891973665;4.117;0.6179343429145595
13:24.3;0.5468692898906495;0.2598846496745534;-2.8477272994018588;4.053999999999999;0.4047273585131546
13:24.3;0.49617698577290675;0.14784413277653832;-2.708039864143923;3.694;0.198653290803829
13:24.3;0.43730829297264473;0.03438203856997014;-2.490621476524713;1.9969999999999999;0.037447865225655165
13:24.3;0.37692946929862997;-0.07614573056476379;-2.2085723989963566;1.9969999999999999;0.06338949489273515
13:24.3;0.3206386421430221;-0.18022839932323376;-1.8787838500382852;1.9969999999999999;0.10857151665694538
13:24.3;0.2725824751044079;-0.27540506649677243;-1.520226136719212;1.371;0.11412428013460679
13:24.3;0.23533670819567123;-0.3602684847183716;-1.1523277180687035;0.846;0.09769941332740595
13:24.3;0.2100257869507367;-0.43432530706521455;-0.7935081971875596;0.545;0.0723834324270039
13:24.3;0.1966137539710637;-0.49777594724008445;-0.45993789515081185;0.537;0.04501393673015207
13:24.4;0.19428370978643889;-0.5512623901557543;-0.16465059367102802;0.631;0.017634292994319248
13:24.4;0.2018274626367434;-0.5956187181164662;0.08289665497502721;0.691;0.009965190475523442
13:24.4;0.21798446489834622;-0.6316498264510423;0.2768149009978837;0.7440000000000001;0.038114602036182076
13:24.4;0.24168902242729012;-0.6599568067328224;0.4144105050259044;0.818;0.06610026392503685
13:24.4;0.27220061747585683;-0.6808197693218507;0.4955812422432352;0.818;0.09184089854929246
13:24.4;0.3091073596592472;-0.6941396907668764;0.5221188686294768;0.818;0.11202774953028055
13:24.4;0.35221004120580196;-0.6994361034459429;0.49702988265770737;0.8270000000000001;0.12244252569679019
13:24.4;0.40131035889279293;-0.6958984717987667;0.42395102703639576;0.8190000000000001;0.1183973398179763
13:24.4;0.45593809466673146;-0.6824864407702389;0.3067070270051761;0.785;0.09543850633826603
13:24.4;0.5150600167063185;-0.6580645635325301;0.14904066284500836;0.792;0.05051625139425845
13:24.5;0.5768186075908689;-0.6215496170898261;-0.04546682219893612;0.825;0.016300828051688795
13:24.5;0.6383485697630097;-0.5720475507652714;-0.2732866506356373;0.7959999999999999;0.09979492088211148
13:24.5;0.6957156485507612;-0.5089595081839227;-0.5306793709244138;0.7929999999999999;0.1879088391848711
13:24.5;0.7440192163806366;-0.43204684160350554;-0.8133432405190869;1.2409999999999999;0.26145012206699514
13:24.5;0.7776843547497779;-0.3414736660292747;-1.1160366576705458;1.2409999999999999;0.2963732747994477
13:24.5;0.7909316063111692;-0.2378789600189501;-1.4322055851376259;1.2409999999999999;0.269463734770987
13:24.5;0.7783808972780517;-0.1225282138150011;-1.7536558014149801;1.5390000000000001;0.1672525037882402
13:24.5;0.7357405409204872;0.0024530102807418146;-2.070378618854678;1.901;0.0037365760828314445
13:24.5;0.6605185374190904;0.13381630828129426;-2.370676367131765;2.335;0.20953970362321975
13:24.5;0.5526432390386232;0.26699478821611405;-2.641681600918322;2.7110000000000003;0.3897876874872826
13:24.6;0.4148292790513958;0.3961079502058955;-2.8702687215398903;3.1460000000000004;0.4716344489923633
13:24.6;0.2525315124565723;0.5142915383289954;-3.044262621305246;3.6710000000000003;0.3953730600290519
13:24.6;0.07341352610593448;0.614373409340543;-3.153754374479818;3.98;0.14224478747232988
13:24.6;-0.11361140326596472;0.6897624476767931;-3.1922649516944124;3.838;0.2501614585931533
13:24.6;-0.2995690639470251;0.7353274521498652;-3.1575199879156366;3.838;0.6955427862247048
13:24.6;-0.4765501608271618;0.7480746544073149;-3.051716224004412;3.838;1.0879218708917155
13:24.6;-0.6385116101950443;0.7275316883671636;-2.8812749760119805;3.449;1.3384600719245134
13:24.6;-0.7816403146746932;0.675825635182173;-2.656126578394785;2.969;1.40310567042915
13:24.6;-0.9043000840252929;0.5974794718353843;-2.3886108137727073;2.43;1.2905681820942017
13:24.6;-1.0066340959435913;0.4989744704155864;-2.092157210905022;1.9269999999999998;1.0508585882592312
13:24.7;-1.0899266752718082;0.38815101794156676;-1.7799709869894584;1.569;0.7530276701768915
13:24.7;-1.1558720483475378;0.2735336201721524;-1.463939594588655;1.41;0.46285358521940284
13:24.7;-1.2059131021497655;0.16365897254582484;-1.1538976991127836;1.359;0.22773151821651955
13:24.7;-1.2407743886614615;0.06646551428038212;-0.8572809260140568;1.294;0.07069885023138257
13:24.7;-1.260243966176192;-0.011220931893369156;-0.5791087352514843;1.173;0.008189241319450575
13:24.7;-1.2631975228640957;-0.06408887612722584;-0.3222086196701762;1.173;0.02608501408436426
13:24.7;-1.2478274042688846;-0.08862367573445916;-0.08761861053832268;1.19;0.009689483773923634
13:24.7;-1.2120335400818172;-0.08327247920690956;0.12487834486366083;1.218;0.012603851184717687
13:24.7;-1.1539326201451199;-0.048500784866509036;0.3161507165550322;1.266;0.01769389263103329
13:24.7;-1.0724314453971495;0.013250381799564236;0.48712027816564135;1.3130000000000002;0.006922040581217045
13:24.8;-0.967791894512795;0.09770677704460416;0.6382344647114183;1.3430000000000002;0.06035134048094318
13:24.8;-0.8420982161868152;0.19901297820152583;0.7690599762107804;1.3419999999999999;0.1288855877826744
13:24.8;-0.6995301940321219;0.3101071288223629;0.8780378137162989;1.3019999999999998;0.19047212829936477
13:24.8;-0.5463622955033285;0.4232183208835118;0.9624246044865704;1.239;0.2225419545535645
13:24.8;-0.390672848373788;0.530449020366679;1.0184164164696954;1.239;0.21104850106862025
13:24.8;-0.2418389929382511;0.6243597685178442;1.0414171177796065;1.239;0.1572482961994222
13:24.8;-0.109925529974001;0.6984713868491871;1.0264029178614296;1.238;0.0788070491105947
13:24.8;-0.005018522489951038;0.7476524453613685;0.9683568413605074;1.265;0.003633381980393562
13:24.8;0.0634997310122252;0.7684035486044701;0.8627687637150468;1.2790000000000001;0.0420974374819699
13:24.8;0.08772530667012916;0.7590434319558729;0.7061936563995612;1.196;0.04702354145828921
13:24.9;0.06200980533658076;0.7197785377844443;0.4968442243738766;1.084;0.022175810741229186
13:24.9;-0.01633345701409898;0.6526365627961606;0.23518030284949798;0.9420000000000001;0.0025069776367436444
13:24.9;-0.14648770870750746;0.5612616254094903;-0.07555386946667678;0.7559999999999999;0.006211882712635399
13:24.9;-0.32385051682990745;0.4505862383457803;-0.42890109228572587;0.7040000000000001;0.06258635659520842
13:24.9;-0.5400557665040628;0.3264126520324962;-0.8149146095048129;0.7040000000000001;0.14365399079200755
13:24.9;-0.783261104502979;0.1949508606544641;-1.2200538862065269;0.7040000000000001;0.18629908854188398
13:24.9;-1.038642360253996;0.062348770256610155;-1.6273078753885073;0.982;0.10538132364962897
13:24.9;-1.2891196757108605;-0.06577653077884424;-2.0166960194832964;1.6640000000000001;0.17100335932525232
13:24.9;-1.5164196018576352;-0.18477683229411676;-2.3663281571534536;2.5580000000000003;0.6630432813235688
13:24.9;-1.7025380644920294;-0.29129340324934444;-2.6540889262171397;3.4789999999999996;1.3162638377913607
13:25.0;-1.8315157637680783;-0.38338204971331585;-2.8598194140253237;4.404;2.008080163221411
13:25.0;-1.8912566654686205;-0.46045594260123324;-2.9677027779021;5.1080000000000005;2.5843953869365963
13:25.0;-1.875002097706766;-0.5231228903385722;-2.968457751019393;5.571000000000001;2.9116311297643818
13:25.0;-1.7820876053687327;-0.5729688760047837;-2.860914983888921;3.91;2.921225166483155
13:25.0;-1.617807556057098;-0.6122884952480121;-2.6526469646268263;3.91;2.6276191187565945
13:25.0;-1.3925226001694575;-0.6437522165984754;-2.3595424145027555;3.91;2.1151870471140715
13:25.0;-1.1203228847998687;-0.6700248659294468;-2.0043995383305515;2.5980000000000003;1.504590869260974
13:25.0;-0.8174921417124991;-0.6933782117597386;-1.61466551967843;1.318;0.9152428576522128
13:25.0;-0.5009140739828057;-0.715361016903808;-1.2195332849821787;0.594;0.4370007295953284
13:25.0;-0.18658857740625975;-0.736592378241849;-0.8468088783749015;0.8320000000000001;0.11638517851141984
13:25.1;0.11153081697207756;-0.7567162335779692;-0.5200975131372503;1.1059999999999999;0.043894763302204085
13:25.1;0.38222881321424573;-0.7745097749710499;-0.25677725656985717;1.166;0.07601632673788204
13:25.1;0.6172323323601923;-0.7881069659407884;-0.06700878407985249;1.177;0.03259609472198421
13:25.1;0.8110256455509269;-0.7952927068104004;0.046209282498104236;1.187;0.029805115716650954
13:25.1;0.9604267921218406;-0.7938312250627518;0.0861348893491419;1.187;0.06567068472251336
13:25.1;1.064064145582683;-0.7817999727380639;0.06086235246344834;1.187;0.05063049755550106
13:25.1;1.1218609918265299;-0.7579054867377326;-0.018261901999594855;1.308;0.015527448818325462
13:25.1;1.1346120027517148;-0.7217610208594168;-0.13814630501356406;1.4280000000000002;0.11313059491324362
13:25.1;1.1037011432983503;-0.674103631524402;-0.28526360492096653;1.5119999999999998;0.2122386748324407
13:25.1;1.0309565878878328;-0.6169211303124442;-0.4466991427058471;1.4969999999999999;0.2841090989394237
13:25.2;0.9185922996871138;-0.5534541363188256;-0.6109072200461662;1.435;0.3105844412892065
13:25.2;0.7691704713116257;-0.4880403984977498;-0.7681975770630813;1.349;0.2883708179541204
13:25.2;0.5855274777807158;-0.4257766034341424;-0.9110276046082495;1.2409999999999999;0.22712273548043937
13:25.2;0.3706357437344753;-0.3719918317910776;-1.034191831300347;1.482;0.14258761564005057
13:25.2;0.12744988628315307;-0.3315760576552976;-1.1349511476368128;1.482;0.04796227603792735
13:25.2;-0.14111261703255115;-0.3082798287257386;-1.2130515004154578;1.482;0.05277037672613453
13:25.2;-0.4318972425733008;-0.30413243126299855;-1.2705331126416528;1.482;0.1668895536740711
13:25.2;-0.7409273453758859;-0.3190795004205189;-1.3112753257419933;1.6130000000000002;0.3100047984330728
13:25.2;-1.06265378503716;-0.35088161141840835;-1.3402929434458044;1.57;0.4997492296696875
13:25.2;-1.3892417969279216;-0.39530584640496236;-1.3628352817703946;1.3;0.7484356169910426
13:25.3;-1.7100902282815253;-0.446645689272912;-1.383374472250907;1.128;1.0566275484968173
13:25.3;-2.0117989489967294;-0.49854249677037604;-1.4046470695241142;1.516;1.4088150380848878
13:25.3;-2.2788367881832197;-0.5449448586768189;-1.426987398381829;2.0709999999999997;1.772090589449283
13:25.3;-2.4950868843032414;-0.5809333910430394;-1.4481655645247093;4.3260000000000005;2.0990859865152234
13:25.3;-2.6461308984582517;-0.6031872512643738;-1.4637777967122452;4.3260000000000005;2.3363539260295325
13:25.3;-2.721694171567287;-0.6100575221649546;-1.4680282167556913;4.3260000000000005;2.437499374338048
13:25.3;-2.7174962156485996;-0.6013672795426303;-1.4546532191420598;4.308;2.3772136468788063
13:25.3;-2.636002351970496;-0.5780766900757766;-1.4178120331110737;3.707;2.160478301676836
13:25.3;-2.485974494189361;-0.5419063294006738;-1.3528774653792335;2.968;1.8225495942739374
13:25.3;-2.2810219148700055;-0.49497854106193845;-1.2571037932998677;2.432;1.4193417112790423
13:25.4;-2.0375576349095983;-0.43950461537214697;-1.1301291548812646;2.1180000000000003;1.012048722892028
13:25.4;-1.772657089502384;-0.37751269258988934;-0.9742342367028453;1.8869999999999998;0.6519580879038741
13:25.4;-1.5022337334928968;-0.31060675281829025;-0.7942630660033377;1.6019999999999999;0.37060627753000075
13:25.4;-1.2397495643707621;-0.23977074449309324;-0.5971445950258286;0.775;0.17750462028455075
13:25.4;-0.9954987459579578;-0.1652571935507232;-0.39106421261972885;0.669;0.06433527544747968
13:25.4;-0.7764082357226969;-0.08660798248489374;-0.18449053982322186;0.669;0.01240572520537599
13:25.4;-0.5862603935368986;-0.0028371333935690085;0.014672328560174948;0.669;2.440446853898293e-05
13:25.4;-0.4262077308664823;0.08723540276305343;0.19964947525358986;0.621;0.0074230479612178955
13:25.4;-0.2954256929848185;0.1845512172873661;0.3650911506737258;0.628;0.01990519715077637
13:25.4;-0.19177026406070083;0.28935674663340977;0.5071856289772309;0.6890000000000001;0.028143740548389806
13:25.5;-0.11236695607231895;0.4008018496693057;0.6236432051213341;0.774;0.028086946583845338
13:25.5;-0.05411549156014931;0.5166688848441734;0.7135621957265201;0.87;0.019951049627660037
13:25.5;-0.014122811409580887;0.6332962298390845;0.7771742526847126;0.943;0.00695098684489624
13:25.5;0.009924895957478308;0.7457352379322896;0.8154748612145571;1.119;0.006035610499876243
13:25.5;0.019461381375304312;0.8481273171148723;0.8297712028646743;1.119;0.01369597875019325
13:25.5;0.014844078257913923;0.9342221076596142;0.8212174358899826;1.119;0.011388369177017202
13:25.5;-0.0046973183668184565;0.9979377635072502;0.7904255030893523;1.207;0.0037052233961530883
13:25.5;-0.040940507562247395;1.0339076873886528;0.7372192804852713;1.301;0.031205537808307704
13:25.5;-0.09637111708292444;1.037994423998962;0.6605687382697607;1.339;0.06607846264454859
13:25.5;-0.17371247393605754;1.0077360502548496;0.5587249215771587;1.318;0.09780832998459113
13:25.6;-0.27531260377116606;0.9426641246726372;0.42956432276177725;1.253;0.11148367515378704
13:25.6;-0.4024510349998953;0.8444350419913186;0.271124262723457;1.115;0.09213988796007777
13:25.6;-0.5546741793407332;0.7167423292662266;0.08226887465571199;0.9309999999999999;0.032706687384270815
13:25.6;-0.7292975907050491;0.565014395983662;-0.13661460833064892;0.873;0.056293912472309963
13:25.6;-0.9211768946665092;0.3959515065470319;-0.3829952565240806;0.873;0.13969421810678723
13:25.6;-1.1227485832093103;0.21699485691281217;-0.6517270977259795;0.873;0.1587807082786309
13:25.6;-1.324281246346599;0.03580047766270778;-0.9347889110322496;1.099;0.04431824989523989
13:25.6;-1.5143221526689359;-0.14027608756767423;-1.221338375157851;1.376;0.2594405899263068
13:25.6;-1.6803889664592515;-0.3046977454443366;-1.4982083061292155;1.905;0.7670987278385992
13:25.6;-1.8099551548425228;-0.4522188557293091;-1.7509102369305514;2.63;1.4331127609767407
13:25.7;-1.8917176760237828;-0.5792102958774058;-1.9650783447035698;3.529;2.1531409697490798
13:25.7;-1.9170274808490488;-0.6837569309917434;-2.1281390556028814;4.271;2.789523871129811
13:25.7;-1.8812137153757904;-0.7655253157167256;-2.2308787982596594;4.619;3.2127258652381454
13:25.7;-1.784433337209739;-0.8254674562035716;-2.268561801515641;3.2039999999999997;3.341572585768121
13:25.7;-1.6317783588095551;-0.8654511736102558;-2.2413701873957845;3.2039999999999997;3.1653178825799753
13:25.7;-1.4326623251770492;-0.887895928896068;-2.1541572870202064;3.2039999999999997;2.74020664684783
13:25.7;-1.1997250173420386;-0.8954682653104772;-2.015664252368742;2.4930000000000003;2.1654597121949504
13:25.7;-0.9474794972164166;-0.890864880479175;-1.837365883190168;1.9169999999999998;1.5508768293102535
13:25.7;-0.6908516544084978;-0.876682425980297;-1.6320930047055553;1.5219999999999998;0.9884893761449509
13:25.7;-0.4437818969954387;-0.8553487053356881;-1.4126175915342092;1.1740000000000002;0.5362130692202908
13:25.8;-0.2180792742165037;-0.8290848532160224;-1.1904221489437767;1.087;0.21523573258945372
13:25.8;-0.022657845576953127;-0.7998802216293311;-0.9748403696131707;1.057;0.017667580406893754
13:25.8;0.13680605537656423;-0.76947253700767;-0.7726656850749496;1.008;0.08133735960763436
13:25.8;0.25782779109662074;-0.7393282349484777;-0.5882186001336114;0.9159999999999999;0.11212585645754569
13:25.8;0.3407594390072145;-0.7106224844721946;-0.4237788128999996;0.9159999999999999;0.10261859857352991
13:25.8;0.38823327242680905;-0.6842286586711399;-0.2802414227893281;0.9159999999999999;0.07444342437807577
13:25.8;0.4045137282399445;-0.660729139610007;-0.15784194691967662;0.8370000000000001;0.04218704972383075
13:25.8;0.394847420453977;-0.6404479450165379;-0.05680679718245484;0.77;0.014365258506801122
13:25.8;0.3648710807449168;-0.6234943179742217;0.022173981894423562;0.708;0.005044471023038518
13:25.8;0.32011125113595507;-0.6098047311470965;0.0776974637633002;0.665;0.015166961030400206
13:25.9;0.2655899983458726;-0.5991747611904654;0.10761862389520788;0.644;0.01712587075476376
13:25.9;0.20553530886433966;-0.5912771914513627;0.10921252203084175;0.617;0.013272416528121696
13:25.9;0.14318141958315247;-0.58566738914209;0.07949131335443047;0.595;0.006665878277054518
13:25.9;0.08063810686817313;-0.5817810092535506;0.01563554861198532;0.5720000000000001;0.0007335217370903186
13:25.9;0.018820396410487154;-0.5789320160355261;-0.08450243741449659;0.5720000000000001;0.0009207157454955306
13:25.9;-0.04254295013152507;-0.5763197812678987;-0.2218636271243234;0.5720000000000001;0.005439728667533602
13:25.9;-0.10479362600101166;-0.5730512806682817;-0.39566335592787316;0.629;0.023760423957207576
13:25.9;-0.17011267503074765;-0.5681785699892223;-0.6029551816531858;0.7190000000000001;0.05827825710155072
13:25.9;-0.24118818750842258;-0.5607457061911701;-0.8383542337485144;0.847;0.11338341999214088
13:25.9;-0.3207981626578316;-0.5498390971580932;-1.0939797689174668;1.052;0.19296421659809515
13:26.0;-0.41132238934650334;-0.5346466294069349;-1.3596451830907121;1.268;0.29900246698470306
13:26.0;-0.5142057351161639;-0.514548419079014;-1.6232980457088246;1.476;0.4294982811933204
13:26.0;-0.6294198052311574;-0.4892623619219158;-1.8717033264696037;1.827;0.5763936982304101
13:26.0;-0.7550178231924894;-0.45902487046291307;-2.091362004532363;2.301;0.724807425818428
13:26.0;-0.8869301272525132;-0.4247171846256974;-2.269630448985401;2.984;0.8549572313741974
13:26.0;-1.0191371632999002;-0.38782871756943477;-2.395925068388049;2.984;0.9469909623625961
13:26.0;-1.1442509628189108;-0.3502297263282286;-2.462806023512848;3.201;0.9869712417262074
13:26.0;-1.2544097314836298;-0.313832129671822;-2.4667274427050794;3.355;0.9710866504818529
13:26.0;-1.3423160559921608;-0.28025282704165755;-2.4083315074217198;3.3310000000000004;0.9059850987669998
13:26.0;-1.4022158961576987;-0.25056497637611924;-2.2922653759166014;3.133;0.8053787129332612
13:26.1;-1.4306177592185816;-0.2251797305467389;-2.1265684556724262;2.81;0.6850657801761402
13:26.1;-1.426614627297112;-0.2038597113695033;-1.9217327206939143;2.435;0.558896078473308
13:26.1;-1.3917800467227939;-0.18582797373390744;-1.6895806038130292;2.081;0.4369790463476319
13:26.1;-1.329716978476403;-0.1699140386074623;-1.4421176258263357;1.358;0.32582856936450705
13:26.1;-1.2454117152085662;-0.15468692023834657;-1.190513887168894;1.358;0.22935119395787576
13:26.1;-1.1445664638729127;-0.13856014076229484;-0.9443541046714234;1.358;0.1497663360034136
13:26.1;-1.0330385944461031;-0.11988344637805118;-0.711230618731853;1.153;0.08808180615556192
13:26.1;-0.9164267379624026;-0.09703911757159436;-0.4966425341176475;0.955;0.044166044089582426
13:26.1;-0.7997797716058629;-0.06855201100114794;-0.3040958098330027;0.768;0.016672512476222947
13:26.1;-0.6873963676368893;-0.03321685910793053;-0.13531711402247837;0.612;0.0030897157313399017
13:26.2;-0.582701479083056;0.009761029412331847;0.009457560786924965;0.5;5.379239529651474e-05
13:26.2;-0.4882000060657688;0.06062701797254557;0.1311321929763915;0.431;0.003881265143323059
13:26.2;-0.405511357354128;0.11896387564463055;0.2313473037115475;0.40299999999999997;0.011160472169847304
13:26.2;-0.33548424691436846;0.18362761233751787;0.31204232483867583;0.40700000000000003;0.019223108812782958
13:26.2;-0.2783800279990688;0.2527473593827355;0.3750174298908308;0.47200000000000003;0.026386157732050098
13:26.2;-0.23409968334134093;0.3237884848339174;0.42154058656876203;0.47200000000000003;0.03195226292818305
13:26.2;-0.20242098122905852;0.39366488469992;0.45204739774441016;0.524;0.036021863509033664
13:26.2;-0.18321028483225762;0.4588880633296822;0.46597434403289173;0.581;0.03917586698510863
13:26.2;-0.17657611494899753;0.5157525181182401;0.46175465463596493;0.648;0.04205180057885265
13:26.2;-0.1829386237638496;0.5605607889193093;0.4369896934517998;0.7240000000000001;0.04481251489883825
13:26.3;-0.20300098593024232;0.5898821594549063;0.38878653349511494;0.7909999999999999;0.046555888820358875
13:26.3;-0.23762297908809024;0.6008259716078715;0.31422769775718046;0.8270000000000001;0.044862306409941814
13:26.3;-0.287610652693051;0.5913010319328009;0.21091703786265506;0.836;0.035869495467115244
13:26.3;-0.3534479232659011;0.5602281157768216;0.0775309883230218;0.81;0.015352024509138517
13:26.3;-0.43500514615038854;0.5076747947171737;-0.08569892317675849;0.648;0.0189258486000989
13:26.3;-0.5312628500628911;0.4348955572928636;-0.27663587517373384;0.648;0.06391501854652215
13:26.3;-0.6400862965610482;0.34428142312112425;-0.4910662953621688;0.698;0.10821619165738144
13:26.3;-0.7580838266993587;0.23923127216959433;-0.7227413890901501;0.98;0.13107446903957357
13:26.3;-0.8805753158728238;0.1239436950046234;-0.9636465590828782;1.275;0.1051740799143143
13:26.3;-1.0016797117467242;0.0031187136524050427;-1.2044689249747218;1.499;0.00376270333880627
13:26.4;-1.1145200489538438;-0.11841913851037153;-1.4351886065155353;1.6540000000000001;0.18941691569423696
13:26.4;-1.2115635837868104;-0.23611970997280612;-1.6457197641325387;1.8219999999999998;0.4707977049532438
13:26.4;-1.285143250323437;-0.3460451244415455;-1.826573381898142;2.171;0.8123092502220498
13:26.4;-1.3281878346936864;-0.4450866083414525;-1.9695518155472627;3.111;1.1643175305089044
13:26.4;-1.3350937522483917;-0.5310526816506882;-2.068450650201099;3.111;1.4665420960541944
13:26.4;-1.3025545819441393;-0.6026615013406799;-2.1196500000131064;3.111;1.6639241900425017
13:26.4;-1.2301281514465963;-0.6594852117447451;-2.122436090153545;2.968;1.7218290891549464
13:26.4;-1.1203994442244645;-0.7018894243822735;-2.0789648221906516;2.662;1.634890703420779
13:26.4;-0.9787217145903944;-0.730984492914477;-1.9938903561113248;2.343;1.4264897675403077
13:26.5;-0.8126154004695357;-0.7485686716163393;-1.8737560371817645;2.079;1.1398028572404761
13:26.5;-0.6309557518326161;-0.7570265406629697;-1.7262731522955876;1.8619999999999999;0.8245548029715837
13:26.5;-0.44308984478401126;-0.759158926843825;-1.5596017089514667;1.6580000000000001;0.5246119778613073
13:26.5;-0.2580020516775126;-0.7579446008019597;-1.3817071788137072;1.475;0.2701945826210132
13:26.5;-0.08361217844535195;-0.7562534976954984;-1.1998304467680878;1.035;0.07586768168871802
13:26.5;0.07373578846239193;-0.7565461756771394;-1.020107163743782;1.035;0.05690619742614467
13:26.5;0.20955052790606432;-0.7606063255862778;-0.8473939300419951;1.035;0.13506226884562722
13:26.5;0.3212227478018285;-0.7693539382410716;-0.6853412378364585;1.035;0.1693711119273826
13:26.5;0.4078525163212785;-0.7827713667552292;-0.536675344028349;1.026;0.17133643273777438
13:26.5;0.4699642874447314;-0.7999527205863926;-0.40357850516067945;1.024;0.1517250203172263
13:26.6;0.509194115858859;-0.819267349869994;-0.288049303802324;1.035;0.12016440866991013
13:26.6;0.5279962265032444;-0.8386104600097855;-0.19216734642658345;1.085;0.08508846459044092
13:26.6;0.5293791551095537;-0.8556992333115355;-0.11823623652435848;1.148;0.05355975441126746
13:26.6;0.5166575731926875;-0.8683640622320483;-0.06881179527944294;1.163;0.030872196505181637
13:26.6;0.49319753504641345;-0.8747852915908447;-0.04663378619740767;0.9940000000000001;0.020119771629923767
13:26.6;0.462147467542784;-0.8736430347975732;-0.054473271858628894;0.9940000000000001;0.021993687887419427
13:26.6;0.4261789952627338;-0.8641778540586862;-0.09489616341148562;0.9940000000000001;0.03494973027003621
13:26.6;0.38727868608983174;-0.846182121687978;-0.16994147543114238;0.927;0.05569123206061951
13:26.6;0.3466169152742553;-0.8199430952993508;-0.2807282259694744;0.866;0.07978468728655169
13:26.6;0.30449902272561613;-0.7861527762106927;-0.427032992776044;0.828;0.1022243330350702
13:26.7;0.2603987473080382;-0.7457998950796674;-0.6069076416035242;0.818;0.11786471606618472
13:26.7;0.21307267055918108;-0.7000612101509968;-0.8164198846063956;0.8859999999999999;0.12178038349735155
13:26.7;0.1607440442489122;-0.6502062875431526;-1.0495903576777508;1.054;0.1096998131686902
13:26.7;0.10133080839581611;-0.5975222005781431;-1.2985718625457792;1.266;0.07862515988416258
13:26.7;0.03268981973877151;-0.5432553186033641;-1.554072935176663;2.011;0.027598654501375584
13:26.7;-0.0471311714591266;-0.4885665444336994;-1.8059601691249278;2.011;0.041585327542113484
13:26.7;-0.13961075283705546;-0.43450826468287235;-2.04390498435035;2.011;0.12398741719242948
13:26.7;-0.24541262144455664;-0.38203681604318257;-2.257951983009494;2.275;0.21169802849497313
13:26.7;-0.3640012778882191;-0.3320587717842134;-2.438988888244986;2.499;0.29480014122974724
13:26.7;-0.4932929582749193;-0.28548651220337623;-2.5791722644592547;2.747;0.3632209255300345
13:26.8;-0.6294649600664;-0.24326145055513163;-2.6723360094391126;2.969;0.40920027363833567
13:26.8;-0.7670474641698269;-0.20630026240067761;-2.7143409072840434;3.128;0.4295229866424652
13:26.8;-0.8993605926654326;-0.17534893060704046;-2.703279332113026;3.168;0.42631233598028206
13:26.8;-1.0192516274073862;-0.15078124368544857;-2.6394452190345903;3.159;0.40564057297007744
13:26.8;-1.1199861050989204;-0.1324069904826928;-2.525026053870206;2.5540000000000003;0.3744461872677731
13:26.8;-1.1960957972430848;-0.1193444997276928;-2.363580713325944;2.5540000000000003;0.33739513044690345
13:26.8;-1.2440012259253874;-0.1099885921176277;-2.159486614404084;2.5540000000000003;0.29547379334490864
13:26.8;-1.2622990792017912;-0.10208651629913765;-1.9175580389785536;2.225;0.24710365363438788
13:26.8;-1.251704906743495;-0.09291741483239262;-1.6429253953031517;1.9280000000000002;0.19108074051011134
13:26.8;-1.214729883884376;-0.07955276527577183;-1.3411479578881507;1.686;0.12960199562679864
13:26.9;-1.1552215110195982;-0.059162921031925074;-1.0184968484950945;1.558;0.06961046979927044
13:26.9;-1.077899085653567;-0.02933368465707487;-0.6823344373218644;1.494;0.021574563266521286
13:26.9;-0.9879696623507412;0.011639406751211424;-0.3414723320145474;1.375;0.003926720364142889
13:26.9;-0.8908455971926932;0.06451282427161247;-0.0063348573871544;1.168;0.0003640703701217856
13:26.9;-0.791934849493349;0.12894829034250707;0.31124640512272284;1.0270000000000001;0.03178406112262846
13:26.9;-0.6964625667525256;0.2034751530479027;0.5986646901318673;1.0270000000000001;0.08483846588044557
13:26.9;-0.6093002338593355;0.28554355107148277;0.8434629984774006;1.0270000000000001;0.14674717059751094
13:26.9;-0.5347919433806874;0.3716355639493788;1.0343353388118302;1.325;0.20557177527938506
13:26.9;-0.47656507134608117;0.45742725417449615;1.1620773043569403;1.656;0.2533257079233106
13:26.9;-0.43732750318824276;0.5380213571760725;1.2204377860836861;1.841;0.28715868225124735
13:27.0;-0.418691020181929;0.6082635502869328;1.2067790496633728;1.84;0.3073358346823029
13:27.0;-0.42107379918167803;0.6631256523218905;1.1224033729183405;1.709;0.3134028997021634
13:27.0;-0.4437024846382693;0.698111476404067;0.9724516736893322;1.515;0.3012205979693065
13:27.0;-0.4846946581907985;0.7096302419329622;0.7653762613890994;1.306;0.26325421708514024
13:27.0;-0.5411992002726727;0.6952906260894877;0.5120601936269428;1.089;0.1926835044717905
13:27.0;-0.6095975204723038;0.6540873119678963;0.22469230955017;1.199;0.08959156538415294
13:27.0;-0.6857718300636678;0.5864759708113487;-0.08443532362709516;1.199;0.03395893302606984
13:27.0;-0.7654071446127414;0.49435505223757453;-0.4039624297321414;1.199;0.15285247119255874
13:27.0;-0.844265094082005;0.38097300469896395;-0.7241042201118868;1.463;0.23290248137720718
13:27.0;-0.9183896533945461;0.2507558885355191;-1.0368406315158183;1.661;0.23877570203507897
13:27.1;-0.9842361691674255;0.10903844472302399;-1.3357309738686105;1.764;0.14335008861282134
13:27.1;-1.0387211341891536;-0.03829900053211303;-1.6154610018730917;1.739;0.06426623932059056
13:27.1;-1.0791985257416252;-0.18525774104678758;-1.8712318026739208;1.6469999999999998;0.3741151516692816
13:27.1;-1.103398761987904;-0.3261644065359718;-2.098154781337073;1.734;0.7551036703483979
13:27.1;-1.109393284454882;-0.45607195842853804;-2.290869476847729;2.662;1.1590955777714664
13:27.1;-1.0956362488933118;-0.5710575646444762;-2.4435476304624197;2.662;1.5288577887959907
13:27.1;-1.0610834467742905;-0.6683837780116808;-2.5502850821674476;2.662;1.8086901388971668
13:27.1;-1.0053419172814786;-0.7465395896018383;-2.6057590828818027;3.01;1.9556939603971784
13:27.1;-0.9288000369162136;-0.8052120970857568;-2.6060284553845676;3.2689999999999997;1.9489992336916282
13:27.1;-0.8327121863480259;-0.8452262334947955;-2.549368630124131;3.375;1.7943225941965604
13:27.2;-0.7192285258561049;-0.8684486923517319;-2.4369821954683673;3.302;1.5221709374260293
13:27.2;-0.5913601373987939;-0.87762907793198;-2.273387806369798;2.998;1.179876568357918
13:27.2;-0.45286870650539274;-0.8761617933802817;-2.0663381308499855;2.5610000000000004;0.8198945748216461
13:27.2;-0.3080792640799257;-0.867775192147981;-1.8262262661890414;2.137;0.4882297995625022
13:27.2;-0.16163093364503398;-0.8561723944478423;-1.56506557064569;1.033;0.2165799454640115
13:27.2;-0.018202705543034946;-0.84466387782896;-1.2952555600103828;1.033;0.01991477164504702
13:27.2;0.11772902790019818;-0.8358474035110346;-1.0284369303201093;1.033;0.10120179582608474
13:27.2;0.24205938993611034;-0.8313909330138006;-0.7746956473099305;0.9279999999999999;0.15590438632789327
13:27.2;0.35116225418114577;-0.8319501005745272;-0.5421948348790702;0.929;0.15840193510189898
13:27.2;0.44198350116810886;-0.8372196543767958;-0.3371511471749591;0.975;0.12475849145633484
13:27.3;0.5121515885087871;-0.846095595504197;-0.16403170303309536;1.038;0.07107972718598546
13:27.3;0.5601013193604134;-0.8569130175314362;-0.025868493288052293;1.099;0.0124157931909664
13:27.3;0.585188727412251;-0.8677201510785243;0.07539805742408962;1.143;0.03828562944105966
13:27.3;0.5877751196753492;-0.8765498646592531;0.1386243587603031;1.156;0.07142123832120997
13:27.3;0.5692649466419839;-0.8816550582606394;0.1632746272509237;1.145;0.08194677124257259
13:27.3;0.5320895654539158;-0.8816835448749375;0.1493606256333869;1.145;0.07007023949220703
13:27.3;0.4796332612372226;-0.8757783439117042;0.0974960566072544;1.145;0.040953454831423736
13:27.3;0.4160934308278186;-0.863597372375949;0.009027168616984676;1.063;0.003243797436311431
13:27.3;0.3462565937197142;-0.8452537008089114;-0.11380433563558913;0.955;0.033307646066151914
13:27.3;0.2751725113708681;-0.8211884968127656;-0.2677059131030074;0.8370000000000001;0.06049310388652193
13:27.4;0.2077315184890903;-0.7920032138730577;-0.44822222346937474;0.77;0.07374332666000957
13:27.4;0.14818596494573516;-0.7582887417291702;-0.6497025600437667;0.802;0.07300561412709085
13:27.4;0.09968659558103402;-0.7204908207434859;-0.8653863522101808;0.955;0.0621548837450546
13:27.4;0.06391739866343538;-0.6788410653651195;-1.0876421614315028;1.157;0.04719252691659215
13:27.4;0.040905217499398724;-0.633365197160661;-1.308370938715337;1.8159999999999998;0.03389719727790544
13:27.4;0.02905095679959631;-0.5839658376614661;-1.5195227634499677;1.8159999999999998;0.02577834860341007
13:27.4;0.02538373249877746;-0.5305740302384495;-1.713604448101195;1.8159999999999998;0.02307873774909143
13:27.4;0.026001601369287447;-0.47335991955459733;-1.8840572326636527;1.972;0.023189194843007622
13:27.4;0.026640855778620045;-0.41297112100456734;-2.025481214151838;2.112;0.02228415002465915
13:27.4;0.023285145883439176;-0.3507287037366998;-2.133773004856248;2.314;0.01742603129741722
13:27.5;0.012686199755788649;-0.2886790399862883;-2.2062447759345996;2.448;0.008079797794475773
13:27.5;-0.007327270365962986;-0.22941540851269995;-2.2417343570724126;2.497;0.0037683301770931126
13:27.5;-0.037796266672932975;-0.17567259734828453;-2.2406535391716127;2.495;0.014877420422464028
13:27.5;-0.07876922589275467;-0.12981663597631393;-2.2048939116021398;2.362;0.02254626599925679
13:27.5;-0.12950357784531527;-0.09340590016488742;-2.1375421009254967;1.774;0.025856560557184643
13:27.5;-0.18862142346283073;-0.06694758755205912;-2.0424465007848562;1.774;0.025791502291881794
13:27.5;-0.2541830314522927;-0.04986760933961522;-1.9237725397431982;1.774;0.0243847790453284
13:27.5;-0.32371387404450164;-0.04063677827125368;-1.7856963607016547;1.7690000000000001;0.023490280135740175
13:27.5;-0.39424995367187227;-0.03698496363433949;-1.632294644918286;1.771;0.02380101087731003
13:27.5;-0.4624545528693698;-0.03615531826922248;-1.4675749810631618;1.714;0.024538134788621404
13:27.6;-0.5248288256532864;-0.03516789382026153;-1.2955360880474183;1.565;0.023911870760419854
13:27.6;-0.5780022385146266;-0.03107398662563574;-1.1201552388949296;1.3559999999999999;0.020118922108689607
13:27.6;-0.619056538091856;-0.021193193471068055;-0.94525028123604;1.141;0.01240148044333995
13:27.6;-0.6458206377035579;-0.0033298796224702372;-0.7742347207395142;0.963;0.001664995623614624
13:27.6;-0.6570819844475578;0.024036577725655987;-0.6098474189126157;0.726;0.009631931470665723
13:27.6;-0.6526906925906473;0.0615969184379587;-0.45396989908285235;0.726;0.018251285682644277
13:27.6;-0.6335687242370526;0.10910178929501975;-0.3076312872995615;0.726;0.021264545582821405
13:27.6;-0.6016524639202665;0.16530664980707466;-0.17123935295941242;0.7140000000000001;0.01703097855410342
13:27.6;-0.5597855078360392;0.22798636845093548;-0.04499199515541548;0.6829999999999999;0.005742034320932049
13:27.6;-0.5115587607211566;0.294030555817344;0.0706323656357838;0.642;0.010624090058136606
13:27.7;-0.4610877518395815;0.35961552151361703;0.17441408014672;0.62;0.0289203507621744
13:27.7;-0.4127242212795122;0.4204345942171762;0.264050887470942;0.59;0.04581904486539927
13:27.7;-0.370711931006426;0.4719646890561067;0.3360027486129017;0.591;0.058788029164334774
13:27.7;-0.3388087953956292;0.5097504615219349;0.3855654510766286;0.622;0.0665902147214498
13:27.7;-0.31990723389768755;0.5296924830514047;0.4071855301809154;0.695;0.0689985885722513
13:27.7;-0.3156949433637989;0.5283295801331511;0.3949905684728965;0.695;0.0658808627730151
13:27.7;-0.3264082002412656;0.5031076632686733;0.34346926214152285;0.695;0.05640399565447771
13:27.7;-0.35072901959987746;0.45262771111421435;0.24821597604975484;0.687;0.039404205121333365
13:27.7;-0.3858614775033408;0.3768608356666295;0.10666008071570614;0.675;0.015510090708939132
13:27.7;-0.42779872551913817;0.2773073050322498;-0.08129190005766088;0.6409999999999999;0.009643797248742276
13:27.8;-0.4717605781631488;0.1570647591359903;-0.31277328346163097;0.696;0.02317554996760994
13:27.8;-0.5127384078657209;0.020767095733666367;-0.5816973028508369;0.81;0.006193963838879199
13:27.8;-0.5460457634104243;-0.12563813754412104;-0.8787646267338972;0.9990000000000001;0.060286920240362064
13:27.8;-0.567763635114966;-0.27529411112393015;-1.1917677115840999;1.119;0.18627565928634196
13:27.8;-0.574998877174778;-0.42101656993382375;-1.506209360118643;2.07;0.36462926955226416
13:27.8;-0.5659440998870222;-0.5559874564278363;-1.806206576584019;2.07;0.5683370248989169
13:27.8;-0.5398131138406134;-0.6744141258035019;-2.0755737006821406;2.07;0.7556283578185748
13:27.8;-0.4967639543725955;-0.7719959090862982;-2.2989667678485235;2.575;0.8816531590194788
13:27.8;-0.43787526541464356;-0.8461298694576442;-2.4630469564496855;3.0660000000000003;0.9125572746206623
13:27.8;-0.3651567978839343;-0.89589077139546;-2.5576419515574482;3.35;0.8367085362666177
13:27.9;-0.2815201543776383;-0.9218601065829678;-2.5767841728127037;3.425;0.668732696216221
13:27.9;-0.19063980304968106;-0.9258719807363525;-2.5194134186222352;3.313;0.4446967548467647
13:27.9;-0.09668338229208516;-0.9107219663558583;-2.3895545388207218;3.016;0.21040429167838348
13:27.9;-0.003946790156342835;-0.8798597843470409;-2.1958856684366803;2.636;0.007625480740772196
13:27.9;0.08354064397515272;-0.8370730014031856;-1.950741607709476;1.4380000000000002;0.13641461464682678
13:27.9;0.1623738725789531;-0.7861789374927524;-1.6687422996450234;1.4380000000000002;0.21302316246011346
13:27.9;0.23003654481492736;-0.7307614066407127;-1.3653570459715352;1.4380000000000002;0.22951901675832184
13:27.9;0.2850399965864662;-0.6739872217640132;-1.0556910361099725;1.099;0.20281230497557934
13:27.9;0.32694002377709114;-0.6185096716285678;-0.7536023258539426;0.871;0.15239012142562175
13:27.9;0.356256446723592;-0.566441575362713;-0.4711085653177321;0.7240000000000001;0.0950689843473194
13:28.0;0.3743184182462744;-0.5193765948407022;-0.21803189332514544;0.635;0.04238806560148857
13:28.0;0.38305285123001925;-0.4784424203995429;-0.00186676295913976;0.61;0.0003421192828619832
13:28.0;0.3847376642870308;-0.4443718869965378;0.17214801999268944;0.604;0.029431561998153458
13:28.0;0.38174790570399675;-0.4175787259123479;0.3008009779538192;0.6;0.047950624963768215
13:28.0;0.3763223549202307;-0.39822614850724647;0.3825908542904827;0.607;0.05733560181522482
13:28.0;0.3703709979778803;-0.3862804662214302;0.4173873203433635;0.607;0.05971438589090791
13:28.0;0.365333792886774;-0.3815472165073862;0.4061217757690843;0.607;0.056610163838625834
13:28.0;0.36209198385432506;-0.3836894040057385;0.3505432655825132;0.596;0.04870127647133062
13:28.0;0.36092666279919106;-0.39222606301906554;0.2530580747418746;0.5710000000000001;0.03582412687082228
13:28.0;0.36151509719899105;-0.40650927658317354;0.11665571607393319;0.5379999999999999;0.01714363545010408
13:28.1;0.3629543416974613;-0.4256821580287196;-0.055089824333058555;0.515;0.008511553454948964
13:28.1;0.3638062327141133;-0.448627941587436;-0.2579662620133834;0.521;0.042103612960710315
13:28.1;0.3621665422193816;-0.47392872129204366;-0.4870507954907054;0.615;0.08359794707839496
13:28.1;0.35576597720507225;-0.4998581170280734;-0.7366653796757616;0.787;0.1310030545795483
13:28.1;0.3421063451959009;-0.5244298799610649;-1.0004040603003586;1.4669999999999999;0.17948328232251606
13:28.1;0.3186294668226838;-0.5455108983047164;-1.2712355454764346;1.4669999999999999;0.22096088265753897
13:28.1;0.28291991646830456;-0.5609895814862904;-1.541619685618488;1.4669999999999999;0.2446783619281467
13:28.1;0.23294761227949715;-0.5689840608977744;-1.803577592119664;1.673;0.23905244764408828
13:28.1;0.16734907867833368;-0.5680784357757436;-2.048747948292368;1.999;0.19476914652633315
13:28.1;0.08572887218461239;-0.5575653444071834;-2.268535411787661;2.298;0.10843474078141403
13:28.2;-0.011060948356192923;-0.5376371709053896;-2.4544310939214227;2.539;0.014595954332633656
13:28.2;-0.12073407633625181;-0.5094362112737029;-2.5985112279448135;2.804;0.15982483821679092
13:28.2;-0.23956011833658852;-0.47489184451590055;-2.6940589785194438;3.029;0.30649001428822403
13:28.2;-0.36258793490207986;-0.43634901015199684;-2.7362059514127415;3.167;0.4329085140094056
13:28.2;-0.48409378965674055;-0.39608178347710604;-2.7224588471078595;2.948;0.5220062510339153
13:28.2;-0.5981711377506392;-0.35582962478546587;-2.6530001333085513;2.948;0.5646831498925954
13:28.2;-0.6993258192394439;-0.31647495044427026;-2.530728816759684;2.948;0.5600986341623753
13:28.2;-0.7829510296066509;-0.2779256688729792;-2.361065569065021;2.688;0.5137730352524412
13:28.2;-0.8456318341368644;-0.23920619875903548;-2.151544740835788;2.3930000000000002;0.4352152804340502
13:28.2;-0.8852992184125633;-0.1987117727361157;-1.9112107385969561;2.076;0.33621900262677556
13:28.3;-0.9012709456600505;-0.1545514844440692;-1.6498734003646232;1.7819999999999998;0.22981542377486888
13:28.3;-0.8942048066695449;-0.1049007373937021;-1.377320116859409;1.518;0.12919640577775027
13:28.3;-0.8659777817929636;-0.048301841767931473;-1.1025910043449134;1.291;0.04611953133327898
13:28.3;-0.819494987641004;0.016121216743833808;-0.8334021150617763;1.085;0.011010288956582695
13:28.3;-0.7584298540287637;0.0885446503598325;-0.5757730519311273;0.633;0.03866598532223477
13:28.3;-0.6869140453807674;0.16841212857175583;-0.3339003831254906;0.633;0.03862715113657712
13:28.3;-0.6092241810688215;0.25445436905557217;-0.11031119709220631;0.633;0.017100414703667424
13:28.3;-0.5295158456429244;0.3447289764228302;0.09370920050413994;0.561;0.017105626432381834
13:28.3;-0.45162283921379504;0.4366786829312898;0.2774998957498636;0.56;0.054726882924562244
13:28.3;-0.37891247887044693;0.5272282476929949;0.44035553203957783;0.631;0.08797130522704387
13:28.4;-0.3141918513902603;0.6129294070860288;0.5809373677036354;0.735;0.1118754224654751
13:28.4;-0.25967094271158875;0.69014097748001;0.6968612278237032;0.826;0.12488419278320546
13:28.4;-0.21698376239013942;0.7552223695673855;0.7845304140107037;0.9359999999999999;0.1285617765625783
13:28.4;-0.1872543321465698;0.8047243083343787;0.839255307991614;1.064;0.12646579861873236
13:28.4;-0.17118431497596676;0.8355707453457298;0.8556629513167604;1.2819999999999998;0.12239112414191611
13:28.4;-0.16913707440128692;0.8452328288593463;0.8283435533612166;1.2819999999999998;0.11842016656899912
13:28.4;-0.18119554209896704;0.8318972454415224;0.7526258739368615;1.2819999999999998;0.11344786819256142
13:28.4;-0.2071770128301718;0.7946291510478856;0.6253542381113494;1.242;0.10295137646709368
13:28.4;-0.2465992172905838;0.7335239025464813;0.44556046213816847;1.156;0.08059583699304286
13:28.4;-0.2986082902297588;0.649830042687336;0.2149518322611367;0.9670000000000001;0.0417102504757109
13:28.5;-0.36189576744472046;0.5460130218298719;-0.06184448870793076;0.763;0.012220458696881042
13:28.5;-0.4346402736538752;0.4257246258499767;-0.37731379289809036;0.731;0.06981703790878098
13:28.5;-0.5145012444012463;0.2936500194721158;-0.7213543129291216;0.938;0.10898459038169071
13:28.5;-0.5986677587078169;0.15521568981372375;-1.0817994001106126;1.203;0.10052364445718294
13:28.5;-0.6839397167628531;0.016158809921703182;-1.445094736080654;2.129;0.015970683958336555
13:28.5;-0.7668076453953375;-0.11799558902981522;-1.797038065418121;2.129;0.16259586002038479
13:28.5;-0.8435092989472405;-0.24243565443174983;-2.1234578539671722;2.129;0.43424018511356005
13:28.5;-0.9100722373649754;-0.35341479004773924;-2.4107516938255356;2.129;0.7753772722905439
13:28.5;-0.9623844911539705;-0.44840776533498805;-2.6463495358399007;2.633;1.142007475756639
13:28.5;-0.9963457882602134;-0.5261158347827648;-2.8192685878834993;3.1189999999999998;1.4778416937381629
13:28.6;-1.008126929037719;-0.5863887567377355;-2.9208587189148867;3.512;1.7266781813086634
13:28.6;-0.9945181175691785;-0.630105313107943;-2.945663336775817;3.755;1.845903317098225
13:28.6;-0.9533087222955889;-0.6590267850567447;-2.892188069300745;3.821;1.8170344568248782
13:28.6;-0.8836300554566092;-0.6756203361870242;-2.763340454573018;3.7119999999999997;1.6497099271185698
13:28.6;-0.7862040253437578;-0.6828387629677388;-2.5663665490364904;2.432;1.3777553808803096
13:28.6;-0.6634648555077012;-0.6838487153572412;-2.312263732036866;2.432;1.0490962278078926
13:28.6;-0.5195489246993443;-0.6817227707999606;-2.014840144473323;2.432;0.7136328710496003
13:28.6;-0.360152418998506;-0.6791305380754489;-1.6896558402795463;1.848;0.41327377711492824
13:28.6;-0.1922352403501439;-0.6780664795700687;-1.3529664401185522;1.264;0.17635683845470565
13:28.6;-0.023553147343549033;-0.6796494631866918;-1.0206857224183472;0.856;0.01633901859226188
13:28.7;0.13794785082864705;-0.6840263652905776;-0.707417068612972;0.757;0.06675185125094772
13:28.7;0.28478798580196196;-0.6903970178436574;-0.4256683733950153;0.8;0.08369354327120415
13:28.7;0.4105648120277044;-0.697151480355607;-0.185350593501647;0.8959999999999999;0.05305213422889524
13:28.7;0.5104491094244894;-0.7020896482697124;0.0064107312658869915;0.995;0.0022974845106336402
13:28.7;0.5815291307682144;-0.7026862116088829;0.1451928889233417;1.0859999999999999;0.059330533450082164
13:28.7;0.622987408177564;-0.6963676524581403;0.22900946806012584;1.0859999999999999;0.09935078339031178
13:28.7;0.6361021616263044;-0.6807766411760359;0.2579566034293942;1.0859999999999999;0.11170642860096608
13:28.7;0.624072187069326;-0.6540083421387891;0.23385082300124632;1.025;0.09544584309118172
13:28.7;0.5916762049040785;-0.6148102195621611;0.15991121548968387;0.909;0.05817067537646823
13:28.7;0.544791986906046;-0.5627422988573305;0.04051381278465581;0.8220000000000001;0.012420623240898002
13:28.8;0.48981473842107137;-0.4982966463483327;-0.11897502775159535;0.747;0.02903859688435658
13:28.8;0.4330244124952853;-0.4229683894212328;-0.3122995345752351;0.6779999999999999;0.05719942060629045
13:28.8;0.3799498641866803;-0.33925815146425603;-0.5323939769396293;0.6559999999999999;0.06862616317726324
13:28.8;0.33476388460850587;-0.2505741595520859;-0.7715252620572094;0.718;0.06471799168652814
13:28.8;0.29973561280997935;-0.1610006343086886;-1.0215898931428127;1.726;0.04929950072820424
13:28.8;0.27479466137730263;-0.07493313066428213;-1.2745651528813506;1.726;0.026244856905669644
13:28.8;0.25732017212669445;0.003345165765842205;-1.522954420475465;1.726;0.0013109266206127008
13:28.8;0.24229505232290938;0.07003168512435715;-1.7600109078469228;1.726;0.029864447316138052
13:28.8;0.22291679173142978;0.12204952562476762;-1.979663223745977;1.8940000000000001;0.053860476961485104
13:28.8;0.191660000548447;0.15717034145054082;-2.1762487265500687;1.936;0.06555572303391485
13:28.9;0.14166604473768127;0.17403468427264776;-2.3442322147386743;2.116;0.057796588991958456
13:28.9;0.06819032535167462;0.17209578944423376;-2.478075704945153;2.456;0.029080882209224897
13:28.9;-0.03027287495986776;0.15155328013295255;-2.5723843290098056;2.775;0.011801979683626132
13:28.9;-0.1515410852287415;0.1133598300166034;-2.62235807370638;3.0789999999999997;0.045048628328558604
13:28.9;-0.2901256484166587;0.05931500130327667;-2.6244346350065952;3.0069999999999997;0.0451633791816982
13:28.9;-0.4383019367234413;-0.007827241093692757;-2.576915781526304;3.0069999999999997;0.008840611908179984
13:28.9;-0.5874716931737174;-0.0843230230240688;-2.4804020277144243;3.0069999999999997;0.12287264039482283
13:28.9;-0.7293858685402884;-0.1655213991607847;-2.337957657449471;2.68;0.2822592186925403
13:28.9;-0.8569887309294815;-0.24608450124955544;-2.1550001876053413;2.397;0.4544715333051677
13:28.9;-0.9648645260295774;-0.3203393470280787;-1.9389581715363486;2.187;0.5993010875592909
13:29.0;-1.0493718268810976;-0.382713425057378;-1.6987875535402905;2.042;0.6822478372118919
13:29.0;-1.108572213791647;-0.4281765438550244;-1.4444430998065665;1.926;0.6856260338030036
13:29.0;-1.1420533131762287;-0.4526218396034497;-1.1863534939454345;1.817;0.6132477975198288
13:29.0;-1.1507181858437527;-0.4531525552953003;-0.9348882669656138;1.679;0.4874983154379632
13:29.0;-1.1365750291336083;-0.42826898639301275;-0.6997810445253199;1.217;0.34062530624978354
13:29.0;-1.1025330909019269;-0.3779658493667385;-0.48951967381953154;1.217;0.20399256806043076
13:29.0;-1.0521989622397745;-0.3037599504779105;-0.3108010916460074;1.217;0.09933697207664395
13:29.0;-0.9896625147900802;-0.2086633970105864;-0.16817076809481904;1.095;0.034728330189293846
13:29.0;-0.9192560626975149;-0.09709625874986613;-0.06388398795768077;0.961;0.005702049960850312
13:29.0;-0.8452725736663472;0.02528142649946551;0.0020570706026311007;0.8059999999999999;4.395897434037442e-05
13:29.1;-0.7716477477063681;0.1518288017872592;0.03174346506218036;0.682;0.0037190120831695323
13:29.1;-0.7016384398061426;0.2752653654264011;0.02909902606824769;0.619;0.005620091658511438
