Time;AccX;AccY;AccZ;Acc-old;Acc-trns
08:11.6;0.18509739048211182;-0.02288618636080825;-1.4092641973055942;1.406;0.005969887468814626
08:11.6;0.14795032610917896;-0.057888436708670256;-1.3750965182736004;1.3;0.01177716963904211
08:11.7;0.11215035113305463;-0.08914159496886169;-1.3419692573841846;1.196;0.013416017156659708
08:11.7;0.07877315043374236;-0.11339342787354406;-1.3101540839408803;1.235;0.0117027647260783
08:11.7;0.048784985748854565;-0.12846302161085163;-1.2793414701350978;1.29;0.008017718297958294
08:11.7;0.022977751528832694;-0.13349848689267707;-1.2486308826982535;1.228;0.003830169066057386
08:11.7;0.0018841094023731514;-0.12898145684546455;-1.2166478162364807;1.192;0.00029566388267482943
08:11.7;-0.014307285592737582;-0.1164923268226678;-1.1817565876171037;1.2109999999999999;0.001969620692513048
08:11.7;-0.02580421726065125;-0.09831130928489436;-1.1423335315389782;1.2109999999999999;0.002897924688768333
08:11.7;-0.033205655038099746;-0.07696893366240923;-1.0970643810029697;1.2109999999999999;0.002803881379465136
08:11.7;-0.03743288217778866;-0.05485148751211195;-1.0452234714753532;1.1740000000000002;0.002146104329080095
08:11.7;-0.039607167440300454;-0.033919242482169536;-0.9868911856104;1.12;0.0013258341437654222
08:11.8;-0.0408944464497741;-0.015548566816337756;-0.9230749804014314;1.045;0.0005869372567879942
08:11.8;-0.0423459569942694;-0.00048748459281420685;-0.8557137822105314;0.9590000000000001;1.7664500977606793e-05
08:11.8;-0.04476619902820966;0.01109274851405125;-0.7875607003216727;0.8440000000000001;0.00039108704043017524
08:11.8;-0.04863094006269269;0.019472741089622374;-0.7219530955056614;0.76;0.0006836734853449249
08:11.8;-0.05406398836000659;0.025213052312474466;-0.6624905459641276;0.68;0.0009030528984984334
08:11.8;-0.06087094144839699;0.028962556134838863;-0.6126509025617441;0.38299999999999995;0.001080090098846662
08:11.8;-0.0686190914272514;0.03127515029756441;-0.5753922547347119;0.38299999999999995;0.001234833435719041
08:11.8;-0.07674072854374399;0.032463878016576395;-0.5528150275406085;0.38299999999999995;0.00137722899044871
08:11.8;-0.08463168198873036;0.032518301526980146;-0.5459629553007981;0.45399999999999996;0.0015025329403679857
08:11.8;-0.09172709852806667;0.031101403860352584;-0.5548020643002984;0.534;0.0015827623734385465
08:11.9;-0.0975520861837995;0.027630084479846977;-0.5783602980439325;0.603;0.0015588963744495189
08:11.9;-0.10175237746030191;0.021429418169851666;-0.6149745457687882;0.7020000000000001;0.0013409484587149371
08:11.9;-0.10410931673627644;0.011933448567667508;-0.6625825445856467;0.778;0.0008231814065599107
08:11.9;-0.10453999230624024;-0.0011110406128590213;-0.7190028464696391;0.85;8.351086996168543e-05
08:11.9;-0.10308063962163566;-0.017490559352205573;-0.7821565594922857;1.035;0.001410179818540851
08:11.9;-0.0998509898515516;-0.03647283005592247;-0.8501928002285115;0.9490000000000001;0.003096273105367624
08:11.9;-0.0950014561482896;-0.05688642706384492;-0.9214889938452164;0.9490000000000001;0.004979996893267123
08:11.9;-0.08865448771975817;-0.07731464716170765;-0.99452223312706;0.9490000000000001;0.006816744232259794
08:11.9;-0.08085781692318798;-0.09634960538642968;-1.0676498661496185;0.838;0.00831765306881761
08:11.9;-0.07156322216031909;-0.11285639525109549;-1.1388766692876024;0.903;0.009197986274129816
08:12.0;-0.06063625018900187;-0.12621139938668172;-1.2057055256823133;1.1;0.009227247496009687
08:12.0;-0.047897400095764014;-0.13647033760160687;-1.2651527606126636;1.301;0.008269765098158967
08:12.0;-0.033189072996556976;-0.14441115557606396;-1.3139488586972428;1.4240000000000002;0.006297589198747845
08:12.0;-0.016450415116672248;-0.15141869612894193;-1.3488703089891056;1.456;0.0033599016026579056
08:12.0;0.0022298127977103395;-0.15922975774558695;-1.3671103961860038;1.442;0.00048539603448120974
08:12.0;0.022609659914691275;-0.16960357424863;-1.3666119426993018;1.4609999999999999;0.005240518301050286
08:12.0;0.04434155013956942;-0.1839945777253164;-1.346323912942457;1.4609999999999999;0.010984124729892207
08:12.0;0.067040590562946;-0.20328679232876667;-1.306369656467089;1.4609999999999999;0.01780381524526533
08:12.0;0.09033443305251254;-0.22762649198134755;-1.2481167287985961;1.4;0.025664412842982612
08:12.0;0.11387511334371965;-0.2563718516928959;-1.1741323035170887;1.2830000000000001;0.0342780572065057
08:12.1;0.13731659333520108;-0.288159341785891;-1.0880137887158274;1.139;0.04305168196361882
08:12.1;0.16027289050605686;-0.3210648072219901;-0.9941062666653057;1.036;0.05115470505351554
08:12.1;0.18227610892582174;-0.3528215687251705;-0.8971435433427947;0.9440000000000001;0.05769614700271098
08:12.1;0.20275563961610885;-0.3810564690534014;-0.8018606668798665;0.847;0.06195283612174998
08:12.1;0.22105494009474067;-0.40351540132746033;-0.712620466921085;0.787;0.06356508495594174
08:12.1;0.23648870335982508;-0.41826375220050177;-0.6330880427207508;0.687;0.0626216836971786
08:12.1;0.24842660107144965;-0.42385567015155184;-0.5659871154769636;0.687;0.059596758588101414
08:12.1;0.25638013080686123;-0.41946646857520264;-0.5129758579241653;0.687;0.05516689501819581
08:12.1;0.2600727167902073;-0.40498030336243784;-0.47466804618959413;0.687;0.049994092865523594
08:12.1;0.2594851143798304;-0.3810255846175728;-0.4507933517670849;0.7140000000000001;0.044570149392788846
08:12.2;0.25487648605820884;-0.3489524071476517;-0.4404582338089681;0.7240000000000001;0.0391742510740745
08:12.2;0.24678123819122033;-0.3107493914750712;-0.44245100268957827;0.7090000000000001;0.033930292958354286
08:12.2;0.2359781896853991;-0.2689033721368219;-0.4555309212940864;0.68;0.028905865371930073
08:12.2;0.22342857317047138;-0.22621158010342132;-0.47865271984948016;0.636;0.024192128267738137
08:12.2;0.21018415598137655;-0.18555801892265794;-0.5111033605961122;0.596;0.01993372391130202
08:12.2;0.19727407884557413;-0.1496661496447207;-0.552554802870337;0.665;0.01631431969109955
08:12.2;0.18558719240737184;-0.12084810984770117;-0.6030476899027081;0.726;0.013525070015395433
08:12.2;0.1757734186943567;-0.10078746823136497;-0.6629103917085467;0.726;0.011743959977464845
08:12.2;0.1681865263105146;-0.09039965810872834;-0.7326051931393698;0.726;0.011138532636338907
08:12.2;0.16287892066610368;-0.08979805977926568;-0.8125033708686872;0.7929999999999999;0.01188384578502696
08:12.3;0.15964293722999684;-0.09836725757823178;-0.9026165439624732;0.8590000000000001;0.014174363393350611
08:12.3;0.15807780691395973;-0.11492303618547982;-1.0023274273864105;0.92;0.018209063388936398
08:12.3;0.1576506600788525;-0.13791967994151555;-1.1101642977588972;0.972;0.024138445071812058
08:12.3;0.15772537000010728;-0.16565454936981164;-1.2236621561337129;1.051;0.031971753152831815
08:12.3;0.15756019244637376;-0.19643191867841978;-1.3393506091935476;1.268;0.041452701670198475
08:12.3;0.15630377080118196;-0.22867497681899757;-1.4528896398492972;1.629;0.051930287395774564
08:12.3;0.15302141300536162;-0.2609911539394347;-1.5593303598713537;1.629;0.06227534327074216
08:12.3;0.14676058927244556;-0.2921957751158039;-1.6534338556902033;1.629;0.0709039132588901
08:12.3;0.1366436767788825;-0.3212995981017938;-1.7299863202627443;1.669;0.07595255549857308
08:12.3;0.12197278570044984;-0.3474748567579148;-1.7841033437765565;1.7590000000000001;0.07561471757665013
08:12.4;0.10233510212952283;-0.37002205636925956;-1.8115578723673034;1.8769999999999998;0.06859689409761886
08:12.4;0.077693108060231;-0.38835683567274526;-1.8091536806673567;2.016;0.05458696007905864
08:12.4;0.04843505694142498;-0.4020224284462729;-1.7751187222865232;2.0980000000000003;0.03456507486190255
08:12.4;0.015362104083535172;-0.41071481332886656;-1.7094459208048918;2.095;0.010785652814330304
08:12.4;-0.020392511475590548;-0.4142962061965034;-1.6140841125278547;2.022;0.013636654412665285
08:12.4;-0.057489675408407465;-0.4127782856112928;-1.4928953740788609;1.3259999999999998;0.035427138231220894
08:12.4;-0.09451753792483414;-0.4062783480451481;-1.351364416173653;1.3259999999999998;0.05189297354531889
08:12.4;-0.13010005356385013;-0.3949747283679379;-1.1961448910921462;1.3259999999999998;0.06146538045464149
08:12.4;-0.16297327644017462;-0.3790933416549149;-1.034564117379541;1.097;0.06391752716831488
08:12.4;-0.19204530226039207;-0.3589403654948113;-0.8741471168735784;0.915;0.06025741798044748
08:12.5;-0.21646379445067965;-0.33497073543361666;-0.7221580215486472;0.785;0.052362982286834774
08:12.5;-0.23570352276153608;-0.3078646555100493;-0.5851609738904041;0.672;0.0424620795804896
08:12.5;-0.2496636965972324;-0.2785820660979965;-0.4686283635333378;0.601;0.03259395953683407
08:12.5;-0.25874550533810964;-0.24837456647771433;-0.37662710582028003;0.53;0.024204243280298625
08:12.5;-0.26387391120206855;-0.21874625852162047;-0.31160651709245785;0.43799999999999994;0.017986374012221203
08:12.5;-0.26643726780446064;-0.19136590346204155;-0.27430964417552095;0.32799999999999996;0.013986228150804011
08:12.5;-0.2681426318273395;-0.167945781273797;-0.26382660370396327;0.32799999999999996;0.01188101525301051
08:12.5;-0.27081265936165644;-0.15011354382665504;-0.2777940671303627;0.32799999999999996;0.011293064430288892
08:12.5;-0.2761629932899341;-0.13930091987151927;-0.3127269318518987;0.366;0.01203052970107692
08:12.5;-0.2855939238747673;-0.1366582054222521;-0.36445786155420945;0.47600000000000003;0.014224335899866544
08:12.6;-0.30002326564379794;-0.1429914522530463;-0.428648496189496;0.69;0.01838934731562274
08:12.6;-0.3197853398137082;-0.15871784675693623;-0.5013092304497978;0.868;0.02544427110995317
08:12.6;-0.34461356020651207;-0.18383760614787845;-0.5792326496093274;1.0090000000000001;0.036696086636503006
08:12.6;-0.3737078747739924;-0.21792337100524886;-0.6602328161323893;1.084;0.05376914916697468
08:12.6;-0.4058699311523592;-0.2601316938694766;-0.7431032537626632;1.0859999999999999;0.07845656857657878
08:12.6;-0.4396732289023739;-0.30924336922919443;-0.8272638508077792;0.85;0.11247978210751335
08:12.6;-0.4736244442994413;-0.3637350121210759;-0.9121612308677155;0.85;0.15714147505827084
08:12.6;-0.5062696552618894;-0.4218778388211937;-0.9965935204338164;0.85;0.21285637866803273
08:12.6;-0.5362140200908558;-0.4818619795908942;-1.0781833104490866;0.9009999999999999;0.2785822428078866
08:12.6;-0.5620584513070744;-0.5419467019595241;-1.1531851921674767;1.172;0.35126681035973417
08:12.7;-0.5822972745521735;-0.6006142710957011;-1.216720142383128;1.5190000000000001;0.42553090034401597
08:12.7;-0.5952426867492564;-0.6566702576526566;-1.2634114016590796;1.805;0.49383993470903065
08:12.7;-0.5990309321260376;-0.709235337218793;-1.2882702421817327;1.944;0.5473266432806025
08:12.7;-0.5917292872415902;-0.7576286333643936;-1.2875939897491335;1.9469999999999998;0.5772426150819482
08:12.7;-0.5715267635995167;-0.8012067754450468;-1.2596428600416592;1.905;0.5768044669769237
08:12.7;-0.536974412982314;-0.8392442577169628;-1.20494907009042;1.548;0.5430135429259064
08:12.7;-0.4872412261819272;-0.8709066714819331;-1.126239974643523;1.548;0.47791051168271237
08:12.7;-0.4223536350157809;-0.8953110301754836;-1.0280733199385725;1.548;0.38875345341539896
08:12.7;-0.34338181386851235;-0.9116353012627072;-0.9163196692800321;1.401;0.2868437776805114
08:12.7;-0.25252999310569607;-0.919245908878311;-0.797578686134946;1.2329999999999999;0.18514765349374096
08:12.8;-0.1530934756124146;-0.917825636227856;-0.6785720891890028;1.107;0.09534827912792232
08:12.8;-0.04926734506228513;-0.9074841977213575;-0.5655701302312219;1.021;0.025286265610558644
08:12.8;0.05417729464350245;-0.888832413750275;-0.46393068984468594;0.998;0.022340366905418747
08:12.8;0.15230653817594245;-0.8630064948596885;-0.37781421556667255;1.002;0.049660479175279534
08:12.8;0.24046658579295682;-0.8316333227783542;-0.31009868141134883;1.004;0.062013542296834076
08:12.8;0.3146927028826756;-0.7967303728343043;-0.2624818568979435;0.941;0.06581082512166903
08:12.8;0.3720287871375367;-0.7605470663726352;-0.23572518274665985;0.941;0.06669735675020981
08:12.8;0.4107197945562184;-0.7253770902722946;-0.22996331494557273;0.941;0.06851221832497083
08:12.8;0.43026507222767163;-0.6933789224947727;-0.24499219312967085;0.9520000000000001;0.07309017030506539
08:12.8;0.43134753032790835;-0.6664231949082855;-0.28046386048841354;0.932;0.08062214113320246
08:12.9;0.4156685896817774;-0.6459656130637165;-0.3359393308687304;0.862;0.09020226863891677
08:12.9;0.38571853109735066;-0.6329438918995783;-0.41077572535640383;0.7759999999999999;0.10028604136581616
08:12.9;0.34450504496839657;-0.6277068447781988;-0.5038688124962039;0.716;0.10896071103454016
08:12.9;0.29525742228988877;-0.6299885371070495;-0.6133327804585209;0.6920000000000001;0.11408528930397957
08:12.9;0.24112318401879484;-0.6389388082519517;-0.7362417747311875;0.6679999999999999;0.11342758697212021
08:12.9;0.1848810919870143;-0.6532162778568621;-0.8685519516407497;1.2790000000000001;0.104892707769133
08:12.9;0.12870983028458777;-0.6711371168966831;-1.0052520906032978;1.2790000000000001;0.08683563021200813
08:12.9;0.07406235272133532;-0.6908511240753648;-1.1406845904581102;1.2790000000000001;0.05836433577349
08:12.9;0.02168151946908026;-0.7105048215289935;-1.2689296157555088;1.49;0.01954763755245934
08:12.9;-0.02824507719565709;-0.728367070688191;-1.3841903503047406;1.625;0.02847664928322391
08:13.0;-0.07582718445264346;-0.7429232266421216;-1.481167757391577;1.749;0.0834397734642538
08:13.0;-0.12116398321819052;-0.7529629924352185;-1.5554054757242721;1.8459999999999999;0.14190274517427587
08:13.0;-0.16405279003142775;-0.7576797256123008;-1.6035675396092346;1.837;0.19932259999222085
08:13.0;-0.2037970952698542;-0.7567661793142478;-1.6236282587197066;1.964;0.2504069081585782
08:13.0;-0.2391965559571685;-0.7504548982770645;-1.6149803251994463;2.0580000000000003;0.2898990249673179
08:13.0;-0.2687592825341993;-0.7394437963335491;-1.5784662855543092;1.79;0.31369236827117264
08:13.0;-0.2910876960496288;-0.7246917416038341;-1.5163197554873702;1.79;0.3198659077571871
08:13.0;-0.3052976084995535;-0.7071441395061115;-1.4320041632842149;1.79;0.309154540595941
08:13.0;-0.31130948904349637;-0.687487904845717;-1.3299540162352872;1.505;0.28463876463218346
08:13.0;-0.30991778319202207;-0.6660071663896592;-1.215232736193892;1.254;0.25083310797364355
08:13.1;-0.30263775531386683;-0.6425598661653833;-1.0931406979335248;1.1159999999999999;0.21257528350205715
08:13.1;-0.29139863650512865;-0.6166621722502648;-0.9688428534197291;1.119;0.17409574779778858
08:13.1;-0.27818965122658307;-0.5876449872635062;-0.8470882559478236;1.1420000000000001;0.13847923847782226
08:13.1;-0.2647658031967647;-0.5548285952150405;-0.7320389385150913;1.11;0.10753625554460297
08:13.1;-0.2524802228596684;-0.5176624286499418;-0.6271534283705126;0.9890000000000001;0.08196865541066377
08:13.1;-0.242254029843364;-0.47580169773435743;-0.5350417681319812;0.524;0.06167152449378293
08:13.1;-0.2346521923516347;-0.4291280521289537;-0.4572609619202514;0.524;0.04604427585116828
08:13.1;-0.23001320715946552;-0.3777485804057409;-0.39412004055874544;0.524;0.034243972000281314
08:13.1;-0.22858044521637566;-0.3220075016021072;-0.34461414202121377;0.46799999999999997;0.02536519230817037
08:13.1;-0.23059873278064671;-0.2625198023577009;-0.3065619619908559;0.445;0.018558259871994606
08:13.2;-0.23635799712985714;-0.20021421643706935;-0.2769469912443717;0.447;0.013105749548145926
08:13.2;-0.24617984995667205;-0.13637005400233718;-0.25241860665982935;0.503;0.008474086255444876
08:13.2;-0.2603577472854933;-0.07263674822933582;-0.22987798141321178;0.597;0.00434734667259892
08:13.2;-0.2790746155977831;-0.01102767489100566;-0.20703922298759375;0.649;0.000637172345622234
08:13.2;-0.3023218556988002;0.046117294963239686;-0.1828380616697967;0.601;0.002549176926029926
08:13.2;-0.32983008323816754;0.09620334665477435;-0.157585534746239;0.319;0.005000308441321568
08:13.2;-0.3610118527149775;0.1364859757001229;-0.13284385635375603;0.319;0.006545622634833416
08:13.2;-0.39492291955168146;0.16420397641150625;-0.11110349263968068;0.319;0.007204829709846924
08:13.2;-0.4302634443960865;0.17673341450533975;-0.09538932671775024;0.358;0.0072535882822793276
08:13.2;-0.4654471971233739;0.1717631425250796;-0.08889235778802415;0.42200000000000004;0.007106648283159143
08:13.3;-0.49875798431908425;0.14749495393133458;-0.09467082667584394;0.525;0.006964391761867257
08:13.3;-0.5285899777147705;0.10286086709093457;-0.11543574706770011;0.691;0.006276382797164387
08:13.3;-0.553737012578834;0.037733262842179933;-0.15341309790823993;0.7929999999999999;0.003205459942261457
08:13.3;-0.5736660417324414;-0.04691182556235121;-0.21024649931450928;0.862;0.005658095189815305
08:13.3;-0.5886977966909325;-0.1489265092634933;-0.2868857612181153;0.9359999999999999;0.02515205153599544
08:13.3;-0.6000306421220224;-0.2650570853926685;-0.3834093219451419;0.8959999999999999;0.06097832844889678
08:13.3;-0.6095756110851694;-0.391145949129649;-0.4987565624920878;0.8959999999999999;0.11892003890827113
08:13.3;-0.6196090551649532;-0.5224217990584367;-0.6303983561461158;0.8959999999999999;0.20405823150656727
08:13.3;-0.6322790107438274;-0.6538202200048105;-0.7740308573785158;0.903;0.31998188101912356
08:13.3;-0.6490243100677301;-0.7803129136204082;-0.9234135190377364;1.031;0.46765543594802034
08:13.4;-0.6700043800174232;-0.8972409120535323;-1.0704803999428103;1.235;0.6435250098686026
08:13.4;-0.6936846489080191;-1.0006190202114764;-1.2058278520480668;1.55;0.8369820584809003
08:13.4;-0.7167276481642114;-1.0873612947618445;-1.319603374561602;2.033;1.0284222057951349
08:13.4;-0.734277277263465;-1.1554030090599934;-1.4026885967475797;2.491;1.190021614200924
08:13.4;-0.7406173790877404;-1.2037328150419264;-1.4479292620746849;2.7510000000000003;1.290836817636863
08:13.4;-0.7300768913489565;-1.2323672397072674;-1.4511015494207335;2.334;1.3055892120573054
08:13.4;-0.6979839077750164;-1.2422923926343223;-1.411390843615122;2.334;1.2238171399583135
08:13.4;-0.641468999056704;-1.2353742769055942;-1.331359739971029;2.334;1.055041751941254
08:13.4;-0.559973439897329;-1.2142193574885864;-1.2165332239899953;2.011;0.8271581532321495
08:13.4;-0.45539339390830635;-1.1819678185093891;-1.0747358502836517;1.655;0.5784876802733205
08:13.5;-0.3318657545509083;-1.1420205176937062;-0.9152739853144131;1.328;0.3468865529970154
08:13.5;-0.1952679235966907;-1.0977255834455255;-0.7480636551921722;1.084;0.16034788985640322
08:13.5;-0.052545685289185434;-1.0520728879143617;-0.5828250042405844;0.963;0.032219668280521085
08:13.5;0.08901065360395698;-1.0074531861564424;-0.42844436139926817;0.96;0.03842034818787583
08:13.5;0.2224430912879224;-0.9655252667460817;-0.2925546431427776;0.993;0.06283325527716441
08:13.5;0.34168922454103917;-0.9272042068772015;-0.18133193389454097;1.091;0.05744880111012129
08:13.5;0.4419915697863737;-0.8927537587788402;-0.09946443012812092;1.091;0.03924763320712529
08:13.5;0.5201268892841968;-0.8619502945922641;-0.05022496916416266;1.091;0.022517035240987134
08:13.5;0.5744487997495676;-0.8342838809201584;-0.035571615208209076;1.097;0.017047816608764498
08:13.5;0.6047690975220463;-0.8091644975203107;-0.05621198558183975;1.1;0.027507767016225253
08:13.6;0.612126094070393;-0.7861032415087843;-0.1115957415399831;1.0759999999999998;0.05369923548779482
08:13.6;0.5984868281900324;-0.7648410835874334;-0.19984230113721857;1.0190000000000001;0.09147727660624576
08:13.6;0.5664182600361762;-0.7454049924459242;-0.31765597489234704;0.958;0.13411784644790342
08:13.6;0.5187560095650008;-0.7280842495923933;-0.4603115332471451;0.88;0.1738587822842978
08:13.6;0.4582995493492759;-0.7133347883112967;-0.6217970688879687;0.877;0.2032785270308228
08:13.6;0.38756600958500825;-0.7016322183715442;-0.795167085247669;1.382;0.21622883055181755
08:13.6;0.3086361734453731;-0.6933035083620204;-0.9730734116024846;1.382;0.20821682973461939
08:13.6;0.2231184223408004;-0.6883698904469113;-1.1483395406834023;1.382;0.17637117790287263
08:13.6;0.13223264382042454;-0.6864264958461381;-1.31442522736289;1.581;0.11930773633220422
08:13.6;0.03698656596610662;-0.6865754157035472;-1.465714526465024;1.7819999999999998;0.03722045274666979
08:13.7;-0.061594670808852364;-0.6874307838535993;-1.5976356610471816;1.848;0.06764720552438643
08:13.7;-0.16221826492982322;-0.6872226327976794;-1.7066211093449977;1.7919999999999998;0.19025422897966382
08:13.7;-0.2630899973989232;-0.6840186284174169;-1.7899164285554698;1.6669999999999998;0.3221106025279759
08:13.7;-0.36176449171440933;-0.6760450152034949;-1.8453072030907764;1.673;0.4513050873783104
08:13.7;-0.4551780440551639;-0.6620303940906689;-1.8709108606358469;1.925;0.5637834590815427
08:13.7;-0.539947341076255;-0.6414525448919319;-1.8651867222164247;2.39;0.6460085329674098
08:13.7;-0.6129190950251256;-0.6145879177249428;-1.8272096052278848;2.39;0.6882964654739616
08:13.7;-0.6718127115088498;-0.5823539994413736;-1.7570909491382412;2.39;0.6874316460135189
08:13.7;-0.7157350533503274;-0.5460199569499142;-1.6563452137834338;2.276;0.6473090232053356
08:13.7;-0.745417202278944;-0.5068772166721194;-1.528038638363759;2.042;0.5773464739610681
08:13.8;-0.763131197728821;-0.46594924337348564;-1.3766547196533279;1.6740000000000002;0.48951144162574234
08:13.8;-0.7723114445446928;-0.423817257861338;-1.2076986498457685;1.348;0.39530261611275186
08:13.8;-0.776956850987496;-0.38060934575519356;-1.027128420518534;1.103;0.3037393749156478
08:13.8;-0.7809410988321377;-0.33613203058030566;-0.8407357555377855;0.905;0.22069256187019048
08:13.8;-0.7873771989198542;-0.29006805170873406;-0.6535948974975792;0.7759999999999999;0.14927647984936504
08:13.8;-0.7981543922952685;-0.2421596122426249;-0.4696658183983236;0.713;0.09077736545621486
08:13.8;-0.8137063725380653;-0.19233266490899706;-0.2916109535040462;0.713;0.045637789327142374
08:13.8;-0.8330060746379166;-0.14076357816214308;-0.12086591667518601;0.713;0.014172364602202893
08:13.8;-0.8537472250346824;-0.08791063236143246;0.04203417391700587;0.747;0.003154810124703296
08:13.8;-0.8726777208694887;-0.034520069142388345;0.1969336269328498;0.813;0.005932604885200803
08:13.9;-0.8860634397285733;0.018399515606511627;0.34344354145437433;0.912;0.0055992074816405835
08:13.9;-0.8902526578462181;0.06963502045973782;0.4803435102400321;1.064;0.02977782092942934
08:13.9;-0.8822830001279205;0.11784350997448861;0.6050966386585473;1.238;0.0629126995925935
08:13.9;-0.8604379827591035;0.16161819069239783;0.713578978850271;1.35;0.09923202677909881
08:13.9;-0.8246321237786536;0.19951886117874645;0.8001212636946816;1.338;0.1316436812569089
08:13.9;-0.7765109625566138;0.23005080004293924;0.8579270134878507;1.263;0.1532574806077004
08:13.9;-0.7192293325056365;0.2516046136248337;0.8798428426625826;1.263;0.1592176087005231
08:13.9;-0.6569930031237682;0.2624060153828185;0.8593365800851073;1.263;0.14814869495808958
08:13.9;-0.59451369614062;0.2605409112992448;0.7914772532035744;1.258;0.12259598007820167
08:13.9;-0.5364885377320446;0.24410137566381926;0.6737511292276938;1.146;0.08823282420290456
08:14.0;-0.4871518235269743;0.21145392482411443;0.5066179539181577;0.9640000000000001;0.05218679906053663
08:14.0;-0.4499261290853094;0.1615827656994267;0.29375284641601207;0.755;0.02135592249787133
08:14.0;-0.42719536321889195;0.09442459733661637;0.04195164657764533;0.5529999999999999;0.0016922350382824341
08:14.0;-0.4202044055114209;0.011103022961197487;-0.2392868549933333;0.52;0.0011164021931121637
08:14.0;-0.4290636498765789;-0.08601242814148005;-0.5384617728524635;0.8270000000000001;0.019871827455683454
08:14.0;-0.45281207446233557;-0.19346585220555323;-0.8429800265172621;1.65;0.0738481473260055
08:14.0;-0.489486468781991;-0.30707624815999246;-1.1401308412090934;1.65;0.17137268862761554
08:14.0;-0.5361733389165043;-0.42239943783811096;-1.4179164131101343;1.65;0.3211287407221961
08:14.0;-0.589065990893365;-0.5351557643796357;-1.6655793761539432;1.771;0.5250606746759131
08:14.0;-0.6435774664272849;-0.6415458664332622;-1.8738348859726488;1.86;0.7736773112376455
08:14.1;-0.6945578202983704;-0.7384472830092151;-2.034960459848657;2.081;1.0437196923998528
08:14.1;-0.7366342182950141;-0.8235034981874345;-2.1429216086121805;2.411;1.299940939808289
08:14.1;-0.7646435083152172;-0.8951153735643108;-2.193638463630878;2.7260000000000004;1.5014230346821626
08:14.1;-0.7740844269628447;-0.9523595710832848;-2.185379137192423;2.944;1.611076170048762
08:14.1;-0.7615035399305804;-0.9948825228789681;-2.1191458911374568;3.0180000000000002;1.6054788350535212
08:14.1;-0.7247490265201252;-1.0228261565262546;-1.9988641625321608;2.285;1.4817425349585112
08:14.1;-0.6630744302393521;-1.0368110564059085;-1.831249209730861;2.285;1.2589525182298371
08:14.1;-0.5771294699575407;-1.0379471946507275;-1.6253761562615467;2.285;0.9736489395787374
08:14.1;-0.46889289188722644;-1.027811269642411;-1.3920694013649744;1.885;0.6708847375990666
08:14.1;-0.3415699559316106;-1.0083482663249181;-1.143187170471458;1.494;0.3937382090453812
08:14.2;-0.19944202632643346;-0.9816964839531155;-0.8908264971025037;1.1540000000000001;0.17441628817465493
08:14.2;-0.04765513085165752;-0.9499687336705303;-0.6465060831051642;0.914;0.02926790209270607
08:14.2;0.10804822854355069;-0.9150402598409123;-0.4204321805053229;0.813;0.04156749026044056
08:14.2;0.2616381073121346;-0.8783953878575609;-0.22094562306162344;0.8109999999999999;0.05077810019113251
08:14.2;0.40712901819698666;-0.8410702425671273;-0.05420254069815252;0.848;0.01856025632961879
08:14.2;0.5389185746253007;-0.803704705307462;0.07590621051177406;1.172;0.03287736278770282
08:14.2;0.6521078643240118;-0.7666888980264676;0.16762322833483148;1.172;0.08380555624600297
08:14.2;0.7427573677706308;-0.7303619132928748;0.22102084973128297;1.172;0.11989976458196065
08:14.2;0.8080335322582451;-0.6952043288363401;0.23757408399477117;1.198;0.13345686381555694
08:14.2;0.8462406148983097;-0.6619705421359774;0.21966805441327084;1.1909999999999998;0.12305504750728737
08:14.3;0.8567666668593921;-0.6317259066332747;0.17010644591834942;1.141;0.0920687018668772
08:14.3;0.8399706003243894;-0.6057765073064175;0.0916938284600306;1.085;0.046656979369284174
08:14.3;0.797022801883226;-0.5855026470826896;-0.013034728190865126;1.011;0.0060827727051843816
08:14.3;0.7297080219401669;-0.5721276173924702;-0.1418796421403642;0.9179999999999999;0.059232780166975446
08:14.3;0.6402016673863745;-0.5664665027410442;-0.29282117901234966;0.823;0.10619242034319615
08:14.3;0.5308367255756422;-0.5687036756406284;-0.4636769163617822;0.6679999999999999;0.1399788664770832
08:14.3;0.4039021980090126;-0.5782418963600251;-0.6516462090664009;0.6679999999999999;0.15219403974921275
08:14.3;0.2615477314797359;-0.5936528178374108;-0.8528320015855857;0.6679999999999999;0.13241798639667687
08:14.3;0.10586326527475041;-0.6127450912588325;-1.0618442022739403;0.79;0.06887885614086775
08:14.3;-0.06086044363410293;-0.6327557191257532;-1.2716087670859249;1.052;0.048969391386787464
08:14.4;-0.23574717319309818;-0.6506584108937593;-1.4734979521242733;1.3980000000000001;0.2260211491496269
08:14.4;-0.4149097591773736;-0.6635666663456483;-1.6578324374944924;1.775;0.4564349003861078
08:14.4;-0.5930937270201556;-0.6691880677397487;-1.8147122229607069;2.174;0.7202433938018715
08:14.4;-0.7635508622432847;-0.6662521382442834;-1.9350564812290483;2.569;0.9843968915885858
08:14.4;-0.9183360025006552;-0.6547909256660683;-2.0116855810204464;2.945;1.209662913456098
08:14.4;-1.049153838122421;-0.636142771049566;-2.0402504985496823;3.167;1.361686910519905
08:14.4;-1.1486648872539595;-0.6126329399845277;-2.0198231420564703;3.167;1.42136963611543
08:14.4;-1.2118844927943608;-0.5870358573750377;-1.953031963681274;3.167;1.3894253204685665
08:14.4;-1.2372099144956197;-0.5620133969367876;-1.8457227189819572;2.7569999999999997;1.2833836959292777
08:14.4;-1.2267788711220662;-0.5396787506886156;-1.7061952336947774;2.207;1.1296146871331654
08:14.5;-1.186118273851483;-0.5213384047510138;-1.5441402238143551;1.6769999999999998;0.9548484595490947
08:14.5;-1.1232211271941377;-0.5074064736301829;-1.369485840899608;1.3719999999999999;0.7805106150943403
08:14.5;-1.0472952539860751;-0.49745800903984944;-1.1913858371585444;1.263;0.6206946411334127
08:14.5;-0.9674691729392152;-0.4903672581620889;-1.0174982770530618;1.175;0.4827166543979053
08:14.5;-0.8916946871798324;-0.4844746027374412;-0.8535779199774355;1.051;0.3687485886344924
08:14.5;-0.8259819108395718;-0.4777461744919017;-0.7033236797144111;0.821;0.27753834492087676
08:14.5;-0.7740027208750817;-0.46791701363485877;-0.5684210082383209;0.821;0.20586449183418534
08:14.5;-0.7370332266545426;-0.45262882028293044;-0.44876341993244545;0.821;0.1497085897733666
08:14.5;-0.7141742894823851;-0.4295800160843578;-0.342854581548902;0.879;0.10518607229356071
08:14.5;-0.7027800358581276;-0.39669769103905705;-0.24835453209422817;0.9520000000000001;0.0692390623824542
08:14.6;-0.6990191098893991;-0.35232783848577726;-0.1626851911496067;0.977;0.0400667420548303
08:14.6;-0.6984852144008588;-0.2954321436199733;-0.08359405635400696;0.9490000000000001;0.017250050176247624
08:14.6;-0.6967758334191329;-0.22577556286950268;-0.009591459596797336;0.9109999999999999;0.0015088800442931735
08:14.6;-0.689978417646881;-0.1440845782240522;0.05978721971132746;0.88;0.005943761351978534
08:14.6;-0.6750300661168687;-0.05215047830422428;0.12390387489170594;0.8490000000000001;0.004361805555674733
08:14.6;-0.6499387871165748;0.04714931130482026;0.18110780069480614;0.7040000000000001;0.0055498975451218615
08:14.6;-0.6138760249126031;0.1499233406899876;0.22895758525929563;0.7040000000000001;0.021071961260330084
08:14.6;-0.567172921659081;0.2514146187656;0.2645155332576693;0.7040000000000001;0.03771874161806828
08:14.6;-0.5112583808072666;0.3462020586004732;0.2846482606405241;0.7;0.05038237320424065
08:14.6;-0.44855762519203723;0.428459820042408;0.286290727055943;0.711;0.05502190545808388
08:14.7;-0.3823508610002288;0.49229810828067877;0.2666571219745765;0.7190000000000001;0.0501930315488016
08:14.7;-0.31659053503594475;0.532186878250941;0.22339198850916453;0.741;0.03763827257372458
08:14.7;-0.25568000170521704;0.5434256922057251;0.1546677291751897;0.775;0.021490010963594014
08:14.7;-0.2042158386761308;0.5225974350606588;0.05925732828151215;0.7829999999999999;0.006324100498131324
08:14.7;-0.16669606247434027;0.46793396021099476;-0.06337554085453588;0.745;0.004943466384797314
08:14.7;-0.14720058792259105;0.3795307674488179;-0.21293241795699974;0.555;0.011895927781701213
08:14.7;-0.14905190927915643;0.25938830735029317;-0.3880558924657759;0.555;0.015003142045171584
08:14.7;-0.17445776322895218;0.11131474658240068;-0.5860090436523762;0.555;0.011380132543266001
08:14.7;-0.22413268719931984;-0.059258562556648464;-0.8022767906327638;0.44799999999999995;0.010655664526573237
08:14.7;-0.29690982204400745;-0.24553841895704845;-1.030180046121576;0.46399999999999997;0.07510297718650984
08:14.8;-0.38939537949731756;-0.4397279983188246;-1.2606674779405473;0.679;0.2158616349307019
08:14.8;-0.4957717488418939;-0.633481303235214;-1.482478830116306;1.138;0.4655904643491437
08:14.8;-0.6078868125642385;-0.8184216985549297;-1.6828299050605586;1.8869999999999998;0.837220932603275
08:14.8;-0.7157413315845644;-0.9866847779903604;-1.8486331449731823;2.695;1.3055252040177345
08:14.8;-0.8083970635027538;-1.1314509684959402;-1.968063096406809;3.262;1.8001118202281439
08:14.8;-0.8752047121661034;-1.2474352117850747;-2.0321069403543404;3.322;2.2185754618946363
08:14.8;-0.9071397354869959;-1.331288358893579;-2.03573331380998;3.322;2.4584829965351203
08:14.8;-0.8979868284097043;-1.3818383262565483;-1.9784775930739686;3.322;2.455038666555907
08:14.8;-0.8451585558736642;-1.400095966947439;-1.8644294835526731;2.977;2.2061851606033938
08:14.8;-0.7500353316769789;-1.3889997423816243;-1.7016951644838283;2.528;1.7728241206748137
08:14.9;-0.6178072644029349;-1.352944180156549;-1.5014345395634885;2.0269999999999997;1.2549871866846642
08:14.9;-0.4568649982533381;-1.297187165741429;-1.276618345923613;1.554;0.7565743461455794
08:14.9;-0.27784578985502745;-1.2272478143777839;-1.0406912388972263;1.224;0.3548607664036093
08:14.9;-0.09248786516141734;-1.1483905821568372;-0.8063309972364521;1.069;0.08564218375448632
08:14.9;0.08754310427513863;-1.0652524357631536;-0.5844634207218885;1.025;0.054504431490478296
08:14.9;0.2517163574755053;-0.9816303054022658;-0.38363667406293916;1.099;0.09479370838801802
08:14.9;0.39148100156380605;-0.900422224755922;-0.20979233092097394;1.099;0.07395141784394459
08:14.9;0.5008149647758716;-0.8237049619637196;-0.06641262798706152;1.099;0.027396787773217524
08:14.9;0.5764414979207568;-0.7529184667648251;0.04502314631804929;1.123;0.01954065100905865
08:14.9;0.6177363588205488;-0.689108126331904;0.12437887208070421;1.091;0.05294648692872333
08:15.0;0.6263896772424551;-0.6331628228756815;0.1721268550523603;1.03;0.06826665643538611
08:15.0;0.605892940265218;-0.5859912943625757;0.18867198176357858;0.9359999999999999;0.06698760757583878
08:15.0;0.5609174929930651;-0.5485979310836184;0.1738634049991802;0.8170000000000001;0.0535009298881159
08:15.0;0.4966516299953065;-0.5220431062195569;0.12679970891749998;0.701;0.03287581189131071
08:15.0;0.41816159318745677;-0.5072957876657668;0.04598243207809979;0.579;0.009754327568588574
08:15.0;0.3298346795313666;-0.5050050304037538;-0.07019978245810538;0.38;0.011693049464463702
08:15.0;0.23496216529593653;-0.5152348236868953;-0.22274511654586968;0.38;0.026965677460705485
08:15.0;0.13552645873838667;-0.5372223781980024;-0.41120675803338125;0.38;0.029939078507221217
08:15.0;0.032241995190206034;-0.5692219024440904;-0.632910933198644;0.45;0.011615719319571447
08:15.0;-0.07514690810683927;-0.6084807573155687;-0.8823789296594066;0.603;0.04034717147157794
08:15.1;-0.18734945647203854;-0.6513754273838184;-1.151085624677687;0.8740000000000001;0.14047254114700033
08:15.1;-0.304852623687727;-0.693717372338168;-1.427641804651921;1.318;0.3019199174752317
08:15.1;-0.42718002328333043;-0.7312130560014437;-1.6984215547606503;1.855;0.5305182949493884
08:15.1;-0.5522431495022505;-0.7600191392452703;-1.9485802570058393;2.245;0.8178490701742973
08:15.1;-0.6760071738500717;-0.7772804925119838;-2.1633488839700608;2.571;1.1367255899771889
08:15.1;-0.7926925382114008;-0.781505046750876;-2.3294632671371835;3.522;1.443086698213152
08:15.1;-0.8955805382452419;-0.7726617427131931;-2.4365562273507955;3.522;1.6860501747665402
08:15.1;-0.9782142826418933;-0.7519924585536744;-2.4782800220089203;3.522;1.8230469806195018
08:15.1;-1.0356150155166575;-0.721624466398903;-2.4529168541577135;3.426;1.8331264141901624
08:15.2;-1.065205549579024;-0.6840858711577988;-2.363349283263188;3.125;1.722153872718127
08:15.2;-1.0672833200134506;-0.6418057963852024;-2.216434037183501;2.635;1.5182320950443071
08:15.2;-1.0449674048236817;-0.5966836763336409;-2.0219537530914176;2.0980000000000003;1.2607184797178654
08:15.2;-1.0036270012462014;-0.5498139575694352;-1.7913841723480413;1.7309999999999999;0.9885003564866917
08:15.2;-0.9499337801443966;-0.5014135525636655;-1.5367058367056443;1.521;0.7319478521234676
08:15.2;-0.8907837719673349;-0.4509340148251691;-1.2694129373581868;1.357;0.5099037582629051
08:15.2;-0.8323322654309493;-0.39729387088610996;-0.9997731754567489;0.7859999999999999;0.3306055011413694
08:15.2;-0.7792983679302258;-0.3391638251042382;-0.7363439292450651;0.7859999999999999;0.19462292798368483
08:15.2;-0.7345939827916266;-0.27526227444046814;-0.48576441810928284;0.7859999999999999;0.09822448502557711
08:15.2;-0.6992635350393273;-0.20463587142067477;-0.25283793416516304;0.679;0.036179693206047345
08:15.2;-0.6726892947759845;-0.12689836993640907;-0.040848150290270446;0.6679999999999999;0.003486927800868126
08:15.3;-0.6530020971493905;-0.04239999209404735;0.14800418456417488;0.711;0.0040978338551822206
08:15.3;-0.6376237702224812;0.047688527032168186;0.3121467494543416;0.784;0.009491551841932195
08:15.3;-0.6238566880390926;0.14137919605089527;0.4502293775115277;0.893;0.03971039183107936
08:15.3;-0.6094322716856194;0.23595118031028606;0.5608115824120325;0.9990000000000001;0.08064261025973953
08:15.3;-0.5929323219205178;0.32810276753910744;0.6421807079778793;1.06;0.1249315917986929
08:15.3;-0.5740092885507891;0.41414945492889105;0.6923280896494897;1.044;0.16458413403230782
08:15.3;-0.5533736734698994;0.49024230752541487;0.7090859867734591;1.044;0.1923659424132976
08:15.3;-0.5325861889257794;0.552583484054187;0.6903851702232511;1.044;0.20317920392084216
08:15.3;-0.5137371631975424;0.5976316814858033;0.6345639496239155;1.023;0.19482738034362873
08:15.3;-0.49908445942020546;0.6223112026602314;0.5406686029374137;0.9890000000000001;0.16792401770398588
08:15.4;-0.49069416606023014;0.6242381815864235;0.4087108255911702;0.9440000000000001;0.12519222685704817
08:15.4;-0.49012239981216055;0.6019493666548733;0.23986590372328023;0.887;0.0707673660833274
08:15.4;-0.49817627520796953;0.5550889727946123;0.036608574837515194;0.805;0.010123448159968605
08:15.4;-0.5147820277276605;0.48450113397505307;-0.19720613483937902;0.76;0.049185670408970976
08:15.4;-0.5389756121122333;0.39218960384771784;-0.45630824516434687;0.777;0.09645472515742066
08:15.4;-0.5690163093712108;0.281136305706098;-0.734017825255639;1.1520000000000001;0.1174216705642257
08:15.4;-0.6025973558866626;0.15501826681957417;-1.022274766546406;1.1520000000000001;0.09549436378062723
08:15.4;-0.6370971641062134;0.01791080081372494;-1.3116713551400914;1.1520000000000001;0.014967377431409563
08:15.4;-0.6698094085025014;-0.12593903862819822;-1.59150806973248;1.321;0.1342519066767483
08:15.4;-0.6981169644225184;-0.2722507466820198;-1.8499828182448144;1.625;0.35161303433190555
08:15.5;-0.7196021566530707;-0.4167991651404166;-2.07466762606623;2.125;0.6222541858382187
08:15.5;-0.7320940325819006;-0.5554938072876785;-2.2533547823966233;2.633;0.9163801300406961
08:15.5;-0.7336552836857572;-0.6844718068108179;-2.375204421193412;2.992;1.1927477527477586
08:15.5;-0.7225231128860419;-0.8002285629031517;-2.431987597821028;3.202;1.4061354229902268
08:15.5;-0.6970441574287861;-0.8998116650463291;-2.419159012529114;3.275;1.5173170081947047
08:15.5;-0.6556704255183703;-0.9810781558523591;-2.3365307510475026;2.786;1.5030059579579431
08:15.5;-0.5970792679116542;-1.0429644862331824;-2.188441211089012;2.786;1.3628134049848326
08:15.5;-0.520432089194911;-1.0856757817931189;-1.9834636845790703;2.786;1.120697673153411
08:15.5;-0.4257260293332113;-1.1107070788875548;-1.73376534539475;2.4019999999999997;0.8198229315986522
08:15.5;-0.31415558135795313;-1.120666028357894;-1.454180689371317;1.929;0.5119639251688138
08:15.6;-0.18838733981608413;-1.1189306785786295;-1.1610286525539621;1.459;0.24473598592604548
08:15.6;-0.05265752589105203;-1.1092133142859766;-0.8707639766737433;1.0859999999999999;0.0508599557468359
08:15.6;0.08736227385329712;-1.0951124921091853;-0.5986391034849804;0.9229999999999999;0.05727271142682056
08:15.6;0.22493087789706664;-1.079729343343088;-0.3575789323430076;0.966;0.08684321756103332
08:15.6;0.35278791746918453;-1.0654039521313166;-0.1574352029760129;1.088;0.05917385382609331
08:15.6;0.4638137747051537;-1.0535960764527494;-0.004713981672090232;1.2770000000000001;0.002303592611082335
08:15.6;0.5517047563781728;-1.0448995146200282;0.09723361934314037;1.2770000000000001;0.0560528510708198
08:15.6;0.6115611162172959;-1.0391540046665957;0.14767946450824843;1.2770000000000001;0.09385121279942124
08:15.6;0.640309422368445;-1.035612982864646;0.14783015858760828;1.348;0.09802806312040771
08:15.6;0.6369306793796046;-1.0331350720404402;0.1001507461493626;1.391;0.06590273863877195
08:15.7;0.6024975675164149;-1.0303754109836465;0.007815939867993595;1.383;0.0048521251432115265
08:15.7;0.5400224794978752;-1.0259532698808245;-0.12563965148744857;1.321;0.0696091197024482
08:15.7;0.45411443543426644;-1.018573627838607;-0.29644467388586476;1.2429999999999999;0.13712018389030822
08:15.7;0.35045985341112446;-1.007089271448374;-0.5005124408421369;1.177;0.17665304232612497
08:15.7;0.23517126064802021;-0.9905031391912001;-0.733228839835393;1.1640000000000001;0.17079676558119875
08:15.7;0.11407997261197247;-0.9679245615909556;-0.989188613260556;1.531;0.10922700542303883
08:15.7;-0.007910535266029016;-0.9385098587418084;-1.2619333354158235;1.531;0.009368738627325656
08:15.7;-0.12725769333418352;-0.9014330286449609;-1.543697372488763;1.531;0.1770841448499569
08:15.7;-0.24186824583607042;-0.8559290251661111;-1.8251748393816045;1.6159999999999999;0.3778514402832454
08:15.7;-0.35080771990408094;-0.8014253066804824;-2.0954021786241204;1.778;0.5891143275341315
08:15.8;-0.4537086283433218;-0.7377441631618629;-2.3419192103916715;2.05;0.7838892878821996
08:15.8;-0.5500368502997502;-0.6653306994066545;-2.5513487455517896;2.49;0.9336824079586472
08:15.8;-0.6384344312129557;-0.5854377716544767;-2.7104342026350703;3.082;1.0130617285043126
08:15.8;-0.7163791830380456;-0.5001852200951988;-2.8074338872018765;3.657;1.005966109557139
08:15.8;-0.7803341938252057;-0.4124283162060724;-2.8336169350787124;4.026;0.9119483720660596
08:15.8;-0.826388196589451;-0.32543761963821166;-2.784501177089409;3.4360000000000004;0.7488576418126388
08:15.8;-0.851190926290938;-0.24247759132802899;-2.660514557899765;3.4360000000000004;0.5491161720455299
08:15.8;-0.8528879854182121;-0.1664019104222789;-2.466959572366555;2.969;0.35011630552127365
08:15.8;-0.8317990665518916;-0.09934092907520871;-2.2133719125397513;2.5140000000000002;0.18289466632478446
08:15.9;-0.7906915585202217;-0.0425020681313923;-1.9124693552555978;2.046;0.06427049581621921
08:15.9;-0.7346005706581268;0.003916561865996226;-1.5789087512266669;1.595;0.004542691917999711
08:15.9;-0.670229789179489;0.040701176865743954;-1.2280507645423244;1.119;0.03350017019454149
08:15.9;-0.6050513836185516;0.06949533208204967;-0.8748748966891359;0.7;0.03678695560247089
08:15.9;-0.5462890031084308;0.09259115378314847;-0.533116140169823;0.366;0.026965829556003244
08:15.9;-0.49998704444676073;0.11266644149191249;-0.214641490934822;0.141;0.012091133187315008
08:15.9;-0.4703335454703924;0.1324990821802225;0.07094626932697547;0.545;0.004421283750548118
08:15.9;-0.45932201658567035;0.15468793764766706;0.31649603368782697;0.545;0.02248754182093257
08:15.9;-0.46674008088693913;0.18139865630010651;0.5172942038671765;0.545;0.04379724322842625
08:15.9;-0.490413201149844;0.21414244433339916;0.670869643833406;0.76;0.07045357719150068
08:16.0;-0.5266324391891001;0.2535964690809057;0.7766853438589136;0.935;0.10372797974563314
08:16.0;-0.5707160234640329;0.29948186824659967;0.8358002222722186;1.097;0.1428542225606318
08:16.0;-0.6176539211091053;0.3505168822385213;0.8505411147912226;1.236;0.18414055805877236
08:16.0;-0.662763744973333;0.404452704573724;0.8241788910036217;1.307;0.2209265823701086
08:16.0;-0.702263036601522;0.45818347159468054;0.7605993075384302;1.27;0.24473447660239145
08:16.0;-0.7336567999319803;0.5079154673596112;0.6639843285463483;1.202;0.24742422284011656
08:16.0;-0.7558704014169075;0.5493924155078475;0.5385410826237496;0.9890000000000001;0.2236396676092172
08:16.0;-0.7691286067764088;0.5781821208650468;0.38831960156043166;0.9890000000000001;0.17268433239083913
08:16.0;-0.7746585837645201;0.5900133627602983;0.21714575774514186;0.9890000000000001;0.0992484046485664
08:16.0;-0.7743273106532362;0.5811314329573709;0.028656979980937296;0.941;0.012895238063334636
08:16.1;-0.7702998061899443;0.5486414367534412;-0.17362104174089632;0.9279999999999999;0.07337544554716832
08:16.1;-0.7647659415841318;0.4908154897420188;-0.38623113637138806;1.01;0.14497532159078982
08:16.1;-0.7597604208468265;0.40733609394081144;-0.6058012094916732;1.2670000000000001;0.18748205109053687
08:16.1;-0.7570774638109234;0.29944364101578946;-0.8290721151953471;1.5419999999999998;0.18795233343352025
08:16.1;-0.7582423436394781;0.16995891155435985;-1.052836591215761;1.6840000000000002;0.13567909722350038
08:16.1;-0.7644598434575485;0.023156908649453634;-1.2736906290743077;1.6269999999999998;0.022547542446578344
08:16.1;-0.7764504847351091;-0.1355168971839921;-1.487569391161876;1.139;0.15652526524408183
08:16.1;-0.7941456765362157;-0.2998535326658369;-1.6891718641633524;1.139;0.40223808146506007
08:16.1;-0.8163271242663194;-0.46332055318117754;-1.8715162953985698;1.139;0.7078470170271254
08:16.1;-0.8403711838056341;-0.6194449120552941;-2.025923865853373;1.692;1.0546223304282065
08:16.2;-0.8622302919968585;-0.7621224800538918;-2.1426418882740794;2.436;1.4079837404864166
08:16.2;-0.8766989818190957;-0.8859025671013919;-2.212101746090643;3.102;1.7180727945178584
08:16.2;-0.8779420139821213;-0.98628968064464;-2.226546820963796;3.513;1.9279783558602435
08:16.2;-0.8602136882806113;-1.0600594478842504;-2.181591930160089;3.6069999999999998;1.989344916994763
08:16.2;-0.8186527554643812;-1.105543583405265;-2.0772762153731126;3.4419999999999997;1.8800519273099294
08:16.2;-0.7499995067395808;-1.1228106128568591;-1.9183261120384671;3.075;1.6154366256959587
08:16.2;-0.6530784347421082;-1.113666883725832;-1.7135768080847633;1.558;1.2463046759904073
08:16.2;-0.5289596477436961;-1.081446800167182;-1.4747553423492692;1.558;0.8436215803602595
08:16.2;-0.3808358620016593;-1.0306374510402618;-1.2150260900789054;1.558;0.4769022384774628
08:16.2;-0.21372200281878417;-0.9664264664837255;-0.9476964594403562;1.1420000000000001;0.19574348152374063
08:16.3;-0.03404952707810834;-0.8942431923929423;-0.6852721056409388;0.8690000000000001;0.020865547313085455
08:16.3;0.15081867586158126;-0.8193335122396314;-0.4388527235722398;0.7509999999999999;0.05422938011747221
08:16.3;0.3331126191294643;-0.7464066455649455;-0.21780964517619408;0.754;0.05415563969317544
08:16.3;0.5051550582465136;-0.6793923445273785;-0.02970334071783905;0.8240000000000001;0.010194141366629685
08:16.3;0.6597898021534014;-0.6213267361043308;0.11960988191914598;0.8909999999999999;0.04903347834049459
08:16.3;0.7907286516901528;-0.5743570687975509;0.22576194687852463;0.987;0.10253217912912985
08:16.3;0.8928317633782518;-0.5398341680386218;0.2856442421491526;1.246;0.13767512380647806
08:16.3;0.962332665043252;-0.518448224502611;0.29724667605504845;1.246;0.14830221102094715
08:16.3;0.9969956426608387;-0.5103578948403449;0.2596021392232577;1.246;0.1320919539623508
08:16.3;0.9961822087673261;-0.5152677270675664;0.17283222520654046;1.2409999999999999;0.08871487495251368
08:16.4;0.9608189256605456;-0.5324265977530777;0.03826885186864195;1.177;0.01957702631704897
08:16.4;0.8932756983875114;-0.5605463561929218;-0.14138435072113334;1.07;0.07079431676081847
08:16.4;0.797164592714234;-0.5976692835934748;-0.36190093504410115;0.972;0.17242436776821118
08:16.4;0.6770665991045957;-0.6410390787698149;-0.6174536190645461;0.9179999999999999;0.2679910164414198
08:16.4;0.5381985192592998;-0.687045353586147;-0.900668682459445;1.053;0.3330373693355134
08:16.4;0.3860440459283303;-0.7313102914113919;-1.2028407022853285;1.389;0.3395835618121343
08:16.4;0.22599094416483986;-0.7689625608711805;-1.5142773184336586;2.171;0.263148954792525
08:16.4;0.06303720013281361;-0.795089905853076;-1.8246756173665823;2.171;0.0914531826359521
08:16.4;-0.09836370479681147;-0.8052938568205429;-2.1234006274726642;2.171;0.16819814631847324
08:16.4;-0.25428494892444337;-0.7962400783507553;-2.399603786921158;2.171;0.48585226036997736
08:16.5;-0.401182682615066;-0.7661272464477249;-2.642268547349159;2.3480000000000003;0.8121196915107903
08:16.5;-0.5357462605608224;-0.7150307847445051;-2.840384440226952;2.68;1.088080465746688
08:16.5;-0.6548838405884898;-0.6450634639804377;-2.9834380207652544;3.28;1.2603284464961853
08:16.5;-0.7559402515353328;-0.5602633296829349;-3.062271583532156;3.945;1.2969504170253974
08:16.5;-0.8371249073424799;-0.4661456530948433;-3.0701553551245118;4.203;1.198042582539847
08:16.5;-0.8979721154601816;-0.3689623737318692;-3.0037501864680913;3.8710000000000004;0.9951962737881155
08:16.5;-0.9395812165609021;-0.27482889629655544;-2.863637469678423;2.83;0.7394601187834842
08:16.5;-0.9644797393504542;-0.18891562009616628;-2.654298428657744;2.83;0.48362720971004547
08:16.5;-0.9761519465477111;-0.11485055799088412;-2.383682125306709;2.532;0.26723840681671146
08:16.5;-0.9784114206619362;-0.05439525051062618;-2.0625931468307197;2.33;0.1097731344156733
08:16.6;-0.9747975470323613;-0.007389109878305659;-1.7040277357038358;2.061;0.012273917834866874
08:16.6;-0.9681074062938194;0.02807729212833798;-1.3224541664394633;1.65;0.035946730230607446
08:16.6;-0.9601096914815002;0.05531183121979343;-0.9329892127182192;1.163;0.049546788855610126
08:16.6;-0.9514458835675282;0.07854867700056317;-0.5504631338694822;0.836;0.041138760689761134
08:16.6;-0.9417052913735666;0.1024101355522372;-0.18844759249102316;0.945;0.018173917203863535
08:16.6;-0.9296504158397116;0.1313581476197577;0.14160336173593305;1.205;0.01729219989433695
08:16.6;-0.9135493920407294;0.1691885074027502;0.4309269739978154;1.291;0.06660495998245337
08:16.6;-0.8915506458277578;0.21860815562582642;0.673618610016834;1.291;0.1312884303312356
08:16.6;-0.8620342336246792;0.2809149924982948;0.8663738655520423;1.291;0.2097996573370762
08:16.6;-0.8238947459952335;0.35578869153041587;1.0078995916847782;1.2;0.2954480601717216
08:16.7;-0.7767335749068076;0.4412068742107138;1.0981631222476262;1.1440000000000001;0.376340713587394
08:16.7;-0.7209582587816686;0.5335042513743428;1.1376693015942376;1.1640000000000001;0.4375866310399722
08:16.7;-0.6578058461773508;0.6275808019421649;1.126923514160621;1.208;0.4652236877977984
08:16.7;-0.5893172021597219;0.7172518429877023;1.0661703926676862;1.2930000000000001;0.4506583364913849
08:16.7;-0.5182823447161501;0.7957268321287571;0.9554151907192922;1.4;0.3940238950249449
08:16.7;-0.44815655154139267;0.8561946242211983;0.7946644102343511;1.453;0.30492006914955105
08:16.7;-0.3829226679550443;0.8924712650812535;0.5842909488315505;1.198;0.19967995812188605
08:16.7;-0.32686670092329945;0.8996396346811125;0.3254621587101129;1.198;0.09570613123287645
08:16.7;-0.28425390328341454;0.8745970319259943;0.020640699063051292;1.198;0.005131435071782593
08:16.7;-0.2589173911537674;0.816438719235173;-0.3258207567403651;1.087;0.0688753094646465
08:16.8;-0.25378043583542936;0.7266325218198131;-0.7070573202905519;1.021;0.13038498863724549
08:16.8;-0.2703498918326001;0.608962253537787;-1.1131952135787968;1.0490000000000002;0.1832685333169181
08:16.8;-0.3082528683602011;0.4692323389058985;-1.5311356752723426;1.2570000000000001;0.22146685461074248
08:16.8;-0.36491030486149306;0.3147447051136843;-1.9447221634273295;1.517;0.22335831482006335
08:16.8;-0.4354334171887438;0.1535909056313572;-2.3353434562212403;1.745;0.1561845309695547
08:16.8;-0.5128133387708023;-0.006155984167474911;-2.6830046640609893;2.029;0.008469899065060207
08:16.8;-0.5884581464399552;-0.15722706322540522;-2.9678865655966966;4.041;0.27459345398280716
08:16.8;-0.6530714220394098;-0.29378362675506087;-3.1723107795026375;4.041;0.608644910205594
08:16.8;-0.697745355594365;-0.41177847791107025;-3.282810856118326;4.041;0.9432057926269576
08:16.8;-0.7150565553877076;-0.5090272019734858;-3.291883163570994;4.564;1.1981902918151137
08:16.9;-0.6999797197061668;-0.5850493155841479;-3.199091655403718;4.42;1.3101005113064295
08:16.9;-0.6504955752783882;-0.6407816168236329;-3.0113616483742662;3.8280000000000003;1.255212645364543
08:16.9;-0.5678028475453779;-0.6782524935889802;-2.7423993264331683;3.142;1.0561355438414406
08:16.9;-0.4560998437838881;-0.7002581317693012;-2.4113030335163184;2.488;0.7701403478446169
08:16.9;-0.32198834288065314;-0.7100407233741857;-2.04059567586628;1.901;0.46653085152712603
08:16.9;-0.17361197010296067;-0.7109647989304074;-1.6539930062907189;1.3459999999999999;0.20415566378681424
08:16.9;-0.01966527030056975;-0.7062090191787592;-1.2742098647795264;0.825;0.017695960611832564
08:16.9;0.13156558064557944;-0.6985045549504378;-0.9210752182345792;0.825;0.08464603641691673
08:16.9;0.2729568750332159;-0.6899454014376898;-0.6101997110287306;0.825;0.1149160684867126
08:16.9;0.39897693678786866;-0.681881242396071;-0.35234034016549365;0.765;0.09585591225525307
08:17.0;0.5057897913864126;-0.6748917298774227;-0.1534254897116894;0.764;0.05237230446856805
08:17.0;0.5911340975484957;-0.6688358916349546;-0.015062784868939864;0.8140000000000001;0.005955398878588065
08:17.0;0.6541056159720916;-0.6629694251561155;0.06467494143297446;0.905;0.028046419268228075
08:17.0;0.6949340003720399;-0.6561205377257237;0.09035743475334534;0.997;0.04119941841885173
08:17.0;0.7147864615588525;-0.6469065067206249;0.0683265699104336;1.057;0.03159420680787654
08:17.0;0.7155871253621104;-0.6339596226183798;0.005918170023017865;1.065;0.0026847976209779098
08:17.0;0.6998262401576998;-0.6161239804074439;-0.08921194404181072;0.9690000000000001;0.038466381826922046
08:17.0;0.6703477040543325;-0.5925953829806183;-0.2096628508440379;0.9690000000000001;0.08328750962590266
08:17.0;0.6301321066306785;-0.5630000720124574;-0.34873935958453056;0.9690000000000001;0.1237203171260511
08:17.0;0.5821058350925279;-0.5274221032599412;-0.5007379122603344;1.032;0.1537342924218488
08:17.1;0.5289914652867846;-0.48638442672762;-0.6610593939468883;1.117;0.1700860938575005
08:17.1;0.4731932157431323;-0.4407818516523066;-0.8261692863236716;1.156;0.17231824387897549
08:17.1;0.4167048929254814;-0.3917696425233645;-0.9934170779607085;1.1440000000000001;0.16217764959817935
08:17.1;0.3610329235466973;-0.3406235830553095;-1.1607251569929549;1.103;0.14274171764674637
08:17.1;0.30713710539238315;-0.288596248629336;-1.3261923679268852;1.151;0.11755185661454304
08:17.1;0.25540508946415463;-0.2367980089137083;-1.4876988582597759;1.318;0.08997515910071238
08:17.1;0.20568591094062008;-0.1861301554849667;-1.6426035661401412;1.693;0.06288601079736815
08:17.1;0.1574014285586987;-0.1372904832670313;-1.7875802639819227;1.693;0.03862910575334937
08:17.1;0.10972997735949395;-0.09085789672751769;-1.9185798711460607;1.693;0.01912792465533347
08:17.1;0.06182725894895897;-0.04744075595572456;-2.0308982733159135;1.795;0.005956892517634876
08:17.2;0.013030890436468713;-0.00784066944717337;-2.1193737538079778;1.975;0.00021653833343124207
08:17.2;-0.037004383456066554;0.02685102668185871;-2.178763661968425;2.231;0.0021648319663036954
08:17.2;-0.08826490424109691;0.055305735285499764;-2.2043051514177647;2.4419999999999997;0.010760437778983677
08:17.2;-0.14040282433457127;0.07617728567805143;-2.192379848893735;2.57;0.023448611958217656
08:17.2;-0.19276785795071302;0.0884190526205746;-2.14113856599055;2.589;0.036494318062804385
08:17.2;-0.24440981839104958;0.09158428130661839;-2.050931765352248;2.435;0.04590825672788133
08:17.2;-0.29407597872459906;0.08601648112695;-1.924436795229443;1.7919999999999998;0.0486793617029874
08:17.2;-0.3402599560601772;0.07289446857667398;-1.7664700353753078;1.7919999999999998;0.04381387759961811
08:17.2;-0.3813309538435151;0.05415154919892246;-1.583579209530346;1.7919999999999998;0.03270037528154404
08:17.2;-0.41572801592595404;0.03231072410037532;-1.3835361978376828;1.558;0.01858431293103156
08:17.3;-0.4421894218904832;0.010267446589935138;-1.1747774767057004;1.288;0.005333673328946171
08:17.3;-0.4599818680457837;-0.008961270292014769;-0.9657814880612414;1.0190000000000001;0.003980972395132852
08:17.3;-0.46907591201396687;-0.02249962346829976;-0.764403771668883;0.787;0.008067541407220923
08:17.3;-0.4702098623779527;-0.02786021594660703;-0.5772548768197696;0.623;0.007562124496743539
08:17.3;-0.46481232563631647;-0.023152592856781944;-0.40923135042351316;0.52;0.004403988410034939
08:17.3;-0.45479459554510443;-0.007240149889283827;-0.2632854978154681;0.447;0.0008669414954671699
08:17.3;-0.44225542362836795;0.020158750006662188;-0.14046551649654773;0.29100000000000004;0.0012522945402759385
08:17.3;-0.4291585814125101;0.058422351721568656;-0.04020130799410622;0.29100000000000004;0.0010079454288434882
08:17.3;-0.41705003387085393;0.10602195011733388;0.03922543779400271;0.29100000000000004;0.0017344099183368043
08:17.3;-0.40687097655609006;0.16056060458816004;0.10010316865006473;0.281;0.006539484743349237
08:17.4;-0.3988954796661731;0.21886642294840064;0.14468348747304766;0.389;0.01263156680956469
08:17.4;-0.3927897788185737;0.27716010719025724;0.17462147563842553;0.517;0.01901028170671459
08:17.4;-0.387761220013705;0.33130369501025164;0.19053335901951898;0.594;0.024477196631194485
08:17.4;-0.38274172232580117;0.3771141132483381;0.19172906230631007;0.618;0.027673656185273746
08:17.4;-0.37654845998819747;0.4107082172318602;0.17615034662744103;0.619;0.027241923558230643
08:17.4;-0.3679920986630971;0.42884104267208933;0.14050640830864103;0.624;0.022173332493576527
08:17.4;-0.3559426303660953;0.4292024064922553;0.08056905714034909;0.619;0.012308650357194426
08:17.4;-0.33938675297442616;0.4106448749165624;-0.008407641875994644;0.619;0.0011717514467008616
08:17.4;-0.31750751206188604;0.3733249657833379;-0.13114975354008185;0.619;0.015545636829425205
08:17.4;-0.28979680009386655;0.3187441468645931;-0.29170296430977316;0.629;0.02694490437873777
08:17.5;-0.2561895608682921;0.2496763589611723;-0.49267068886967613;0.68;0.03151342282925531
08:17.5;-0.21719065151281153;0.1699722403420975;-0.7344013637247523;0.778;0.027111441004771357
08:17.5;-0.17395093241160706;0.0842415621371061;-1.014182478831971;0.777;0.01486172688374402
08:17.5;-0.1282432255871449;-0.0025680076078464205;-1.3255143274079548;0.626;0.00043653107535409323
08:17.5;-0.08230154911628902;-0.08565498531358713;-1.6575987605947045;0.5539999999999999;0.011685305419807678
08:17.5;-0.03852217246137072;-0.16084112960069072;-1.9952804664783252;0.741;0.012362657474253773
08:17.5;0.0009293157068808768;-0.22495185726026617;-2.3197272520082017;2.9810000000000003;0.0004849419843253697
08:17.5;0.03452466874450029;-0.2760234627198926;-2.6099711686962457;2.9810000000000003;0.024872029836729117
08:17.5;0.06170329239875803;-0.3133077786929533;-2.845071953030811;2.9810000000000003;0.05500127661390048
08:17.5;0.08305852034230644;-0.3370992817808427;-3.00643913776143;3.742;0.08417719186876572
08:17.6;0.10034895196674208;-0.34845262849314823;-3.0799429966844114;4.092;0.10769592349764714
08:17.6;0.1163219557387585;-0.34888874876281656;-3.0575965886282073;4.029;0.12408773141253902
08:17.6;0.13433519400642102;-0.34018264835174006;-2.938605453281514;3.827;0.13428986737191737
08:17.6;0.1577872500096346;-0.324265599051192;-2.729599381863811;3.509;0.13965988999356643
08:17.6;0.18944584922134508;-0.3031994398362402;-2.443975484140691;2.96;0.1403816471997886
08:17.6;0.23084459261920753;-0.27915375320140845;-2.1004114651155334;2.281;0.13535289759421984
08:17.6;0.28192811179633276;-0.2543434514261481;-1.7207238952991404;0.539;0.12338720674256091
08:17.6;0.341030426625463;-0.2309260648594014;-1.3274063016215487;0.539;0.10453698212880724
08:17.6;0.4051322730575355;-0.21088413498777184;-0.9413376488198147;0.539;0.0804240941448543
08:17.6;0.4702722857410527;-0.1959196010462367;-0.5801078892411674;0.526;0.053448564426686024
08:17.7;0.5320179260006381;-0.18737276476994613;-0.2571315910589511;0.675;0.025632334856229757
08:17.7;0.5859504698305861;-0.18616750722747416;0.01853316579346551;0.785;0.002021689247586614
08:17.7;0.6281224433612341;-0.1927843828923241;0.24181523722100656;0.8440000000000001;0.029281938494112394
08:17.7;0.6554363913310265;-0.20726446447864877;0.41085980173805187;0.86;0.05581475871096343
08:17.7;0.6659037564261412;-0.22924329092590565;0.5260267036256209;0.848;0.08030006387859104
08:17.7;0.6587632277988448;-0.2580108592111776;0.5888529034494239;0.8140000000000001;0.10008618940575437
08:17.7;0.6344579440769742;-0.2925923707856471;0.6011669200237937;0.7759999999999999;0.11159915659171712
08:17.7;0.5944913642414038;-0.33183706461517365;0.5644984591756121;0.7759999999999999;0.11136102102602004
08:17.7;0.5411969238706593;-0.3744876748775398;0.47985902847186446;0.7759999999999999;0.09725378636016212
08:17.7;0.4774520212040768;-0.41920065837284254;0.34790183980352485;0.708;0.06963192758051112
08:17.8;0.40634759993067116;-0.4645092598606175;0.16941297282687257;0.602;0.03197707520746424
08:17.8;0.33082236332981496;-0.5087491751987842;-0.0539646077684875;0.506;0.00908254593107456
08:17.8;0.2532991487051901;-0.5499816580589547;-0.3189180397183104;0.449;0.04442843568946542
08:17.8;0.1753953375772391;-0.5859542297837206;-0.6197348582395742;0.435;0.06369240717757216
08:17.8;0.09779136724086598;-0.6141412812486075;-0.9478302232238452;0.599;0.05692451795726279
08:17.8;0.020325439259053783;-0.631905425724254;-1.2916770099969013;0.951;0.016589983505068445
08:17.8;-0.05766004929986152;-0.6368049864378689;-1.6372174644025663;2.225;0.06011568961853677
08:17.8;-0.13677014620951164;-0.627023135244115;-1.968709722079473;2.225;0.1688326986785337
08:17.8;-0.21695040883861647;-0.6018179631446341;-2.2698290945369033;2.225;0.29635944843946876
08:17.8;-0.2970169204591336;-0.5618499178083817;-2.524836456887058;2.61;0.42134201227776813
08:17.9;-0.3744885695828217;-0.5092725718507403;-2.7197550899689045;3.04;0.5187028704847264
08:17.9;-0.4458021610998047;-0.4475427357064013;-2.8435709310269455;3.5039999999999996;0.567336529441614
08:17.9;-0.5068876544067877;-0.3809784116493733;-2.8893783902832832;3.861;0.5579772614262823
08:17.9;-0.5539707503383827;-0.3141561604470058;-2.855252427225786;3.8789999999999996;0.4969090705586057
08:17.9;-0.584383891256173;-0.2512751237907346;-2.744584236513444;3.53;0.40301786334075995
08:17.9;-0.5971498898430326;-0.19561012454705975;-2.565706882570862;3.0180000000000002;0.29969653743305047
08:17.9;-0.5931733972168494;-0.14914261738998033;-2.3308222052158767;1.569;0.20620185733784385
08:17.9;-0.5750178700412363;-0.11241232414806587;-2.054464581595787;1.569;0.1327987316707014
08:17.9;-0.5463975285074483;-0.08458459331101448;-1.75189757841293;1.569;0.08096712231231568
08:17.9;-0.5115772690039878;-0.06369305158936318;-1.4378002786059918;1.268;0.04684916549655186
08:18.0;-0.47481975338045773;-0.04700251801710445;-1.1253764088298237;1.021;0.02511584010316493
08:18.0;-0.43993387534297457;-0.03143219234727694;-0.8258236529974483;0.752;0.011419560651276504
08:18.0;-0.4099374176534244;-0.013974689366350672;-0.548062106304118;0.489;0.003139709734470044
08:18.0;-0.3868399983675999;0.007947570025149269;-0.298663461829453;0.29600000000000004;0.0009182222889592301
08:18.0;-0.3715543816666889;0.036224849791526834;-0.08195270273805096;0.233;0.0011030425389753084
08:18.0;-0.3639455718036942;0.07191080017822812;0.0997440643610276;0.28600000000000003;0.0026104634793786556
08:18.0;-0.36301682455101464;0.11517099738685993;0.2457472467887037;0.585;0.010274449037454897
08:18.0;-0.3672028421160487;0.16530557414761082;0.3566179049967331;0.585;0.021646948136891338
08:18.0;-0.3747078539913313;0.2208144650867845;0.43373509849202735;0.585;0.03588763863184367
08:18.0;-0.3838189419511126;0.27948246889355605;0.47887732482604667;0.643;0.051369489329157046
08:18.1;-0.39314825205019566;0.3384863157569519;0.4938375073234841;0.6629999999999999;0.06571757610885676
08:18.1;-0.40178467651907357;0.3945437338766936;0.48011556361900837;0.665;0.07610870004721998
08:18.1;-0.4093493116185383;0.44412047543593647;0.4387292597092983;0.6920000000000001;0.07976115968698445
08:18.1;-0.4159592854128144;0.4836951943960624;0.37016674771218616;0.752;0.07447662696894104
08:18.1;-0.4221183167274024;0.5100638988168392;0.27447960460041987;0.789;0.05909746652188904
08:18.1;-0.42856283821379265;0.5206467935720133;0.1514874643155239;0.8059999999999999;0.033801377849743165
08:18.1;-0.4360947569189173;0.5137480654179108;0.0010514611351919506;0.7140000000000001;0.00023557233646596392
08:18.1;-0.44542765001580903;0.4887280060769304;-0.17660756390775018;0.7140000000000001;0.03844622462476996
08:18.1;-0.45706543554680096;0.446076185643439;-0.3805358220672807;0.7140000000000001;0.07758592893097258
08:18.1;-0.4712246765855241;0.3873969738739895;-0.6086134679980122;0.762;0.11110300554910507
08:18.2;-0.4878042690386573;0.31531546106455016;-0.8571146524493164;0.907;0.1318347143456865
08:18.2;-0.5063932283340757;0.2333004186140958;-1.1203580811666658;1.145;0.1323610667485684
08:18.2;-0.5262861772879525;0.14540299548412905;-1.3905304048344052;1.325;0.10640837393709822
08:18.2;-0.5464627525164577;0.05592307159955931;-1.657724246350797;1.395;0.0506598468063838
08:18.2;-0.5655061540953424;-0.030968640164167564;-1.9102170549239508;1.483;0.03345354837335209
08:18.2;-0.58149010943551;-0.11160897692448522;-2.1350365014528703;1.7209999999999999;0.13856283602602412
08:18.2;-0.5919167341150282;-0.18316666855681912;-2.3188675176043585;2.912;0.25141026262179683
08:18.2;-0.5937897556949229;-0.24385958438268796;-2.449276048018457;2.912;0.35465841222969036
08:18.2;-0.5838499208046041;-0.29303359028716075;-2.5160650205787713;2.912;0.4304676226386097
08:18.2;-0.5589365343145759;-0.3311083693608284;-2.512493766039395;3.135;0.4649836144782534
08:18.3;-0.5164155965738702;-0.3594239304312244;-2.436163104775761;3.128;0.4521814069639695
08:18.3;-0.45460985055682573;-0.3800274825352719;-2.2894706494441186;2.89;0.39553864998320376
08:18.3;-0.37315477925701157;-0.39543303024307286;-2.0795818407673976;2.481;0.3068583656063758
08:18.3;-0.27320789541074336;-0.40837753634339036;-1.817902012647293;2.0180000000000002;0.20282690379589097
08:18.3;-0.15747222779711548;-0.42158977565843;-1.5191127313108943;1.585;0.10085189080978664
08:18.3;-0.030036809632647207;-0.43758214989000854;-1.199903372247765;1.205;0.015771016048075737
08:18.3;0.10393378099161225;-0.4584735292423662;-0.8775570611888042;0.575;0.04181637269111489
08:18.3;0.2386023328286921;-0.48584751026098527;-0.5685762416227584;0.575;0.06591183086444184
08:18.3;0.3678705840228223;-0.5206429565608384;-0.28756623676806936;0.575;0.05507733947009028
08:18.3;0.4857293978008896;-0.5630725561398511;-0.046548901865479005;0.7070000000000001;0.012731166256866615
08:18.4;0.5865373849875829;-0.6125747945738695;0.14527546237057304;0.8490000000000001;0.05219718571101933
08:18.4;0.6652614100021387;-0.6678121553739086;0.28143488755725066;0.96;0.12503298070977467
08:18.4;0.7177031028934003;-0.7267240487764189;0.3579066997196341;1.048;0.1866741506783599
08:18.4;0.7407093226421774;-0.7866332625354425;0.37277301698385595;1.122;0.21720238304529652
08:18.4;0.7323542795476968;-0.8443977504403545;0.32590662156262773;1.179;0.2015401027456897
08:18.4;0.69207937897092;-0.8965966082829507;0.21875542469631612;1.22;0.1357412463277163
08:18.4;0.6207736998854055;-0.939738359668389;0.054260234826338655;1.158;0.031653514209234006
08:18.4;0.5207831647579825;-0.9704782946538023;-0.16308548749752558;1.158;0.08242483362177047
08:18.4;0.39585293447793635;-0.9858295444077764;-0.42704651391647835;1.158;0.16665213396127024
08:18.4;0.2510087327280882;-0.9833560688386439;-0.7293836301906294;1.1159999999999999;0.18003446212938518
08:18.5;0.09235918148236437;-0.961345636023211;-1.0596394711364667;1.199;0.09408443079673319
08:18.5;-0.07320659474137994;-0.918965408064261;-1.4051251171707193;1.452;0.09452884830796524
08:18.5;-0.23842092495401113;-0.8563933985608022;-1.7512226212193165;1.83;0.35756832324206356
08:18.5;-0.3960970329786552;-0.7749021053193372;-2.0820400419721707;2.289;0.6390539267023884
08:18.5;-0.5395875050852451;-0.6768617702092413;-2.381376917264966;2.6439999999999997;0.8697411324188805
08:18.5;-0.6631807263458127;-0.565643446554298;-2.6338980716271574;3.02;0.9880379370377632
08:18.5;-0.7623871049933996;-0.4454303223768354;-2.826376329386477;3.5239999999999996;0.9598100815736382
08:18.5;-0.8341067443369815;-0.32096841385300745;-2.9488404032913476;3.5239999999999996;0.7894692107503392
08:18.5;-0.8767188723468623;-0.1972916877746027;-2.9954548016304954;3.5239999999999996;0.5181218580979308
08:18.5;-0.8901544455199892;-0.07943525038299867;-2.9649958734948627;3.517;0.2096537945504815
08:18.6;-0.8759890586084095;0.02788450968088924;-2.8608701813766833;3.4589999999999996;0.06988111810892825
08:18.6;-0.837525439595861;0.12064144374590549;-2.690691426430372;3.1489999999999996;0.27186821029509245
08:18.6;-0.7797580010701826;0.19587996900037605;-2.4654701062281346;2.627;0.37657337217836917
08:18.6;-0.7090990694485368;0.25200728187489063;-2.1985123231781123;2.102;0.39287003889309347
08:18.6;-0.6328306693159178;0.2889191283110525;-1.9041794954829774;1.675;0.3481542480962148
08:18.6;-0.5583635588100042;0.3079430181010762;-1.5966895767535623;1.431;0.27454144725348667
08:18.6;-0.49245223102516705;0.31162632728770284;-1.289114169561859;0.862;0.19782885285768112
08:18.6;-0.44051294902019583;0.30341340416754226;-0.9926661741399967;0.862;0.13267731236695868
08:18.6;-0.4061502378900464;0.28726522509108665;-0.7163119213229252;0.862;0.08357414583437918
08:18.6;-0.3909414342202888;0.26727351343977096;-0.46667251888725775;0.5770000000000001;0.04876181380270473
08:18.7;-0.39447767194551464;0.24730381290719705;-0.24810817743874264;0.377;0.024204399770043444
08:18.7;-0.4146259430198746;0.2306878105966267;-0.06286986740499517;0.414;0.0060134494415132675
08:18.7;-0.4479579302872378;0.21998521725959047;0.08872906475465756;0.565;0.00874372783690971
08:18.7;-0.49027830079725404;0.21683585327437746;0.20809732604588485;0.706;0.02212280877215749
08:18.7;-0.537178204796993;0.22191177000845008;0.29806293895145314;0.815;0.03553094024957547
08:18.7;-0.5845442759435875;0.2349617370921706;0.3624582722226998;0.872;0.049782026576041034
08:18.7;-0.6289697904285362;0.2549252090635485;0.4055949926703866;0.8909999999999999;0.06503320468114171
08:18.7;-0.668035750631545;0.2800850853441507;0.4316622700971464;0.8909999999999999;0.08076696772039564
08:18.7;-0.7004480530695903;0.308230297550257;0.44411537537942364;0.8909999999999999;0.09588420391138337
08:18.7;-0.7260327576176763;0.3368116672876469;0.4451382682529638;0.856;0.10885246670888743
08:18.8;-0.7456078656477324;0.36309319670470164;0.4352502616494035;0.841;0.11783318951132796
08:18.8;-0.7607639138600475;0.3843138795916744;0.4131028288931889;0.847;0.12077975448366564
08:18.8;-0.7735916665502319;0.39787333810787334;0.3754956315013466;0.875;0.1155743631761439
08:18.8;-0.7863919186375823;0.4015403019185927;0.31762489600478705;0.9059999999999999;0.10029579354614325
08:18.8;-0.8013925865076602;0.3936645884117534;0.23355779254782202;0.93;0.07368278500220915
08:18.8;-0.8204876104247971;0.37335867881481705;0.11690664544364102;0.937;0.035812734037552175
08:18.8;-0.8450060672191525;0.34061055550210023;-0.03834159571224193;0.91;0.011035400856319518
08:18.8;-0.8755175264979375;0.29630187467520797;-0.2368937130930393;0.91;0.061454371123694854
08:18.8;-0.9116780001774029;0.24213062294799564;-0.4811674608335653;0.91;0.10621538914421352
08:18.8;-0.9521226999821639;0.18045204740088822;-0.7703250964262217;0.946;0.1323514733799258
08:18.9;-0.9944191781543313;0.1140476125312023;-1.0994371775095786;1.041;0.12468841609972976
08:18.9;-1.035099940207346;0.04583599163835204;-1.4589272933702224;1.176;0.06921856063208168
08:18.9;-1.0697914226215008;-0.021433863470027695;-1.8344502244097947;1.386;0.0420635094201142
08:18.9;-1.0934500715084006;-0.08544710434462334;-2.207344455078151;1.723;0.20623692135517885
08:18.9;-1.1007131544852806;-0.14449219971912047;-2.555773147650712;2.443;0.40648157280513586
08:18.9;-1.0863729625878291;-0.19750727921188785;-2.856575826245684;3.443;0.6129256714123585
08:18.9;-1.045970446678001;-0.24400245844776383;-3.087666439560328;4.427;0.7880322539972046
08:18.9;-0.9764532885329031;-0.28388877088505937;-3.2305922601647334;4.427;0.8955334971838356
08:18.9;-0.8767709963451659;-0.317279668030741;-3.2727555125811;4.427;0.9104203997841628
08:18.9;-0.7482459227832362;-0.3443462147533971;-3.2088959630468787;4.105;0.8267901790402529
08:19.0;-0.5945983654048429;-0.3652836540788887;-3.0416644574195084;3.77;0.6606405886822676
08:19.0;-0.4215975724709559;-0.38038987547868064;-2.781316293722028;3.29;0.44604372163258693
08:19.0;-0.23641660374796677;-0.39019298176734735;-2.4446469875060273;2.708;0.22551403868206796
08:19.0;-0.04683866040281048;-0.3955431159695785;-2.0533270728054593;2.0380000000000003;0.0380413945632784
08:19.0;0.13953166105438883;-0.39762261378674946;-1.6318230531154085;1.395;0.09053508305975201
08:19.0;0.31593427384334;-0.3978821905756467;-1.2051310587538404;0.9690000000000001;0.1514905429414051
08:19.0;0.4769196742818214;-0.3979297375142709;-0.7965844546451212;0.8690000000000001;0.15117621266561243
08:19.0;0.6185768669481334;-0.39939072406432047;-0.42601562608199417;0.8690000000000001;0.10524880602813451
08:19.0;0.7385282078926949;-0.40375484252346266;-0.10852816539783165;0.8690000000000001;0.0323613994006093
08:19.0;0.8357420181137266;-0.4122258685582526;0.14598390576589715;0.946;0.050293569282221645
08:19.1;0.9102458406992823;-0.4255906378429694;0.33262513403692556;0.9890000000000001;0.12885635182743083
08:19.1;0.9628241344279659;-0.44411958654533695;0.45079177231232503;1.006;0.19276264443554364
08:19.1;0.9947584720234031;-0.46751076994325463;0.5031927241679128;1.046;0.2340149588382936
08:19.1;1.0076379920229739;-0.49488857781706064;0.49479109835966434;1.097;0.2467367510747194
08:19.1;1.00324388117393;-0.5248619826726074;0.43181964302085857;1.1740000000000002;0.22738092575767888
08:19.1;0.9834899175886654;-0.555635685874622;0.3209762713596542;1.232;0.17540136566364656
08:19.1;0.9503825619622196;-0.5851560349124766;0.16885312853094395;1.166;0.09390295501314476
08:19.1;0.9059616859956101;-0.6112663569278897;-0.018383743544768426;1.166;0.010180621184224872
08:19.1;0.8522006476775539;-0.6318465419827441;-0.2350605503905692;1.166;0.12657071155823388
08:19.1;0.7908617959449347;-0.6449219178148405;-0.47582957344311294;1.094;0.2426940694747584
08:19.2;0.7233095366882251;-0.6487431936543474;-0.7353449705987294;1.0759999999999998;0.34505484678292947
08:19.2;0.6502997086605866;-0.6418530906536472;-1.0078859028002694;1.1520000000000001;0.42068842906286397
08:19.2;0.5718006206414985;-0.6231610598274596;-1.2870136236892056;1.247;0.4585936889954537
08:19.2;0.48692841966574335;-0.5920451970295989;-1.5653218617213365;1.374;0.45125667179697515
08:19.2;0.39407275544351167;-0.5484883942617393;-1.8343423546060598;1.5619999999999998;0.39648270446493367
08:19.2;0.2912540087430365;-0.4932353008976064;-2.0846853919839097;1.827;0.29947914619657817
08:19.2;0.17670225150376362;-0.4279391637771781;-2.3064817311984283;2.782;0.1744111059584648
08:19.2;0.0495755522564805;-0.35526191976660987;-2.490106309633259;2.782;0.04385651396941429
08:19.2;-0.08935248278412207;-0.2788887751561988;-2.6270423854432425;2.782;0.06546433179114242
08:19.2;-0.2372587175290538;-0.2034091707875871;-2.7107052949846726;3.0869999999999997;0.1308202612340956
08:19.3;-0.3892836745250105;-0.134010476940766;-2.7371126869788;3.3;0.1427899434259675
08:19.3;-0.5390786350770262;-0.0759580979587;-2.705334076471432;3.304;0.11077636347835611
08:19.3;-0.6798106129811596;-0.0339105937578995;-2.6176260844594545;3.128;0.06034356224995064
08:19.3;-0.8053695089424928;-0.011206717590102649;-2.4791748265702607;2.905;0.022375912990218925
08:19.3;-0.9114125815895308;-0.009296405094875641;-2.297485175512204;2.6289999999999996;0.01946627154691652
08:19.3;-0.9959213849215707;-0.027444284925364378;-2.0815856580895686;2.275;0.05689462828446874
08:19.3;-1.059129473857393;-0.0627523594918101;-1.8412527541229189;1.744;0.12237494886383027
08:19.3;-1.1029210423839808;-0.11046923669817817;-1.586397652036816;1.744;0.1932848587303127
08:19.3;-1.1299806793874723;-0.16449324787575642;-1.3266595420403064;1.744;0.24659177042163555
08:19.3;-1.1429991012999847;-0.21796416775828892;-1.0711494929555054;1.556;0.2668585236673599
08:19.4;-1.1441258131794811;-0.26387988749348584;-0.8282206879681238;1.341;0.2500495911319186
08:19.4;-1.1347166951136847;-0.2957161394239498;-0.6051556567030721;1.189;0.20306242568908192
08:19.4;-1.1153347326097756;-0.30802661191591246;-0.40776130896265317;1.18;0.14008753079671096
08:19.4;-1.085931608403812;-0.29697672097457706;-0.23997179656803141;1.256;0.07739004247842836
08:19.4;-1.0461382649140731;-0.26074659087866864;-0.10360359802473484;1.315;0.028260677224940977
08:19.4;-0.9955971357052082;-0.19973412557103054;0.001623880632990341;1.255;0.0003229163339797909
08:19.4;-0.93427243439348;-0.11650465331273477;0.0777646502906281;0.9890000000000001;0.008464455583283018
08:19.4;-0.8626909333234536;-0.01549085071339128;0.128072599305378;0.9890000000000001;0.0017115387106606446
08:19.4;-0.7820910606974696;0.09746807031426903;0.15631055351777343;0.9890000000000001;0.01191538256847909
08:19.4;-0.6944675338390823;0.21562508609003636;0.16610189738069622;0.8859999999999999;0.024872865798682493
08:19.5;-0.6024901185650555;0.3317941546751751;0.16044032092991267;0.741;0.03207245327688545
08:19.5;-0.5092827075968646;0.4387884658862667;0.14139308984872473;0.659;0.03159674305140604
08:19.5;-0.41808888535178945;0.5298413038171731;0.10996713072524775;0.659;0.024360002387160764
08:19.5;-0.33189396602150595;0.5990062052161407;0.06607756890424915;0.733;0.013136653183827254
08:19.5;-0.2530880548109704;0.6415180800018062;0.008571137779929449;0.8270000000000001;0.0013916147554461369
08:19.5;-0.18323535915570707;0.654084925462268;-0.06469424684867532;0.9179999999999999;0.007753701635694393
08:19.5;-0.12297960952826972;0.6350754882903658;-0.15665749005096397;0.725;0.012235159200169089
08:19.5;-0.07208630604023648;0.5845844043502576;-0.2706776749380467;0.725;0.011406500756397975
08:19.5;-0.029608338234472335;0.5043886885891953;-0.4099457716816494;0.605;0.006122175614570431
08:19.5;0.0058474012498701666;0.3978296328420228;-0.5767353540233789;0.605;0.0013416418592045582
08:19.6;0.03578840887656591;0.26964239318498034;-0.7716042559232885;0.614;0.007446036793190569
08:19.6;0.061493665252871775;0.12572663358882713;-0.9926794692281896;0.8109999999999999;0.0076747936297559835
08:19.6;0.08373341439269998;-0.027165789036345544;-1.235135814144195;0.9740000000000001;0.002809544008593496
08:19.6;0.10264003479853191;-0.1818429353010504;-1.4909348186010791;0.996;0.027827351954451823
08:19.6;0.11780076563552792;-0.3311753511149037;-1.7488717823796658;1.0759999999999998;0.06822822753491348
08:19.6;0.1285756159329764;-0.4686456634521039;-1.9950190021773582;1.355;0.12021267264407348
08:19.6;0.1345506170628702;-0.5888699460958234;-2.2136917109913887;3.025;0.1753970249561086
08:19.6;0.13597336985530034;-0.68799960543174;-2.388961043240116;3.025;0.22348640928003233
08:19.6;0.13402287261531307;-0.7639274354790775;-2.5064879130232742;3.025;0.25662363029231383
08:19.6;0.13082375077385033;-0.8162693019122347;-2.55529245222953;3.4410000000000003;0.2728730671553941
08:19.7;0.12918666785623648;-0.8461529004324329;-2.529150593488058;3.502;0.27646568442302694
08:19.7;0.13212840250295885;-0.8558893072986357;-2.427444107694188;3.2439999999999998;0.27451306822288635
08:19.7;0.14229444743529204;-0.8486173211083133;-2.2553431873801624;2.799;0.2723406575325514
08:19.7;0.1614446161090795;-0.8279909905767722;-2.0232695194223385;2.339;0.2704599209706295
08:19.7;0.1901369947956566;-0.7979323667446874;-1.7457269800606854;1.881;0.2648555214919138
08:19.7;0.2276692227429245;-0.7624195174264079;-1.439707096877353;1.5;0.2499035789030186
08:19.7;0.27225163219554116;-0.7252599605181627;-1.1229212491086935;0.715;0.2217244029871295
08:19.7;0.3213289859179432;-0.6898302801186893;-0.812120170500968;0.715;0.18001655835460428
08:19.7;0.37195093224051123;-0.6588195256286357;-0.5217544052925618;0.715;0.1278551535524115
08:19.7;0.4211176142794468;-0.6340415723088813;-0.26314663095270374;0.68;0.07026174889192759
08:19.8;0.46607535640215525;-0.616358361179106;-0.04418467895935142;0.7709999999999999;0.012692908107512486
08:19.8;0.5045678956958402;-0.6057182877813231;0.1305729714046074;0.885;0.039906495200104954
08:19.8;0.5350434190088926;-0.601292265017874;0.2594938512289243;0.956;0.08348370511595961
08:19.8;0.5567972065938331;-0.6016777885029719;0.3432566779934737;0.97;0.11499528192379253
08:19.8;0.5700198369222547;-0.6051333016785662;0.3841153277102122;0.938;0.1324959675086756
08:19.8;0.5757297387337209;-0.6098078027728671;0.38515685437429775;0.9;0.1352225966202888
08:19.8;0.5755916623367046;-0.6139424061043897;0.3496826591874399;0.8759999999999999;0.12357090360038636
08:19.8;0.571649579606654;-0.6160308138349578;0.2808193154715191;0.8759999999999999;0.098891576631422
08:19.8;0.566020126787615;-0.614928668581062;0.18140059036045203;0.8759999999999999;0.06313865281818579
08:19.8;0.5605902171980321;-0.6099023880736714;0.05408522781116605;0.85;0.018492026700175003
08:19.9;0.5567461764934297;-0.6006129877265436;-0.09837850770650229;0.78;0.03289668928555775
08:19.9;0.5551516397645975;-0.5870397857778594;-0.27285515711022634;0.725;0.08892243148024295
08:19.9;0.5555955751624901;-0.5693588953988794;-0.4656007357631877;0.752;0.14728500929396696
08:19.9;0.5569390075494464;-0.5477989366190912;-0.6721877821985396;0.873;0.2050781711602602
08:19.9;0.5571874870618612;-0.5225014527016505;-0.887587282778864;1.097;0.258404414128975
08:19.9;0.5537031726468902;-0.49341692047913005;-1.1063677882599334;1.412;0.302266886971989
08:20.0;0.543545666260968;-0.4602651601561643;-1.3229414661424244;1.758;0.33096705742039695
08:20.0;0.5238973545101173;-0.42257822167676673;-1.5317721552246604;1.758;0.339115380201381
08:20.0;0.49250082943109846;-0.37982990982338344;-1.7274749083750824;1.758;0.32315276377353286
08:20.0;0.44803101826144764;-0.33164336626845947;-1.9048011695350542;1.758;0.2830277677184978
08:20.0;0.3903407019547258;-0.2780509337114843;-2.058595675992549;1.943;0.2234288513471556
08:20.0;0.32053400453906106;-0.2197509888698907;-2.1838605727897904;2.245;0.1538260382620743
08:20.0;0.240835582016712;-0.15827275182049685;-2.2760192346525794;2.5669999999999997;0.0867566418284397
08:20.0;0.15425701442328918;-0.0959584987914823;-2.3313529762701903;2.741;0.03450931979195549
08:20.0;0.06412113355760016;-0.03572877981520256;-2.3474622830932446;2.7289999999999996;0.005377965343641996
08:20.0;-0.02644263358908509;0.01932182596066408;-2.323564202863085;2.575;0.001187155339226827
08:20.0;-0.11490434543382962;0.06639529728991703;-2.2605087907471;1.992;0.017245666095108365
08:20.0;-0.19954428569295363;0.10341274078566048;-2.160539749611312;1.992;0.044583648382639784
08:20.0;-0.279438860587948;0.12930199263290384;-2.0269498428651542;1.992;0.07323775474882208
08:20.1;-0.35426465278355806;0.14411327040538396;-1.8637969000382155;1.913;0.09515472996217995
08:20.1;-0.42400487236218043;0.1489726315925825;-1.675747074975041;1.7730000000000001;0.10584876783515959
08:20.1;-0.48864815875597345;0.14591079085755004;-1.4680043459144865;1.595;0.10466729954483694
08:20.1;-0.547955167648767;0.1376138644919642;-1.246250788260897;1.4;0.09397507131968542
08:20.1;-0.6013404286506823;0.12713688899062348;-1.0165430605858585;1.194;0.0777173105114145
08:20.1;-0.6478821543598502;0.11760850610970802;-0.7851418815408313;1.004;0.059825025932939514
08:20.1;-0.6864443512216939;0.11194665935528049;-0.558275830769824;0.873;0.04290079104695521
08:20.1;-0.7158803836889231;0.11260282849627842;-0.34186230698166303;0.845;0.027557573919686176
08:20.1;-0.7352771458315835;0.12134940725500692;-0.14124252060588768;0.845;0.012602426869068655
08:20.2;-0.7441883590661598;0.13911756106438794;0.03897544866732734;0.845;0.004035115318588896
08:20.2;-0.7428067145056024;0.1658876032898941;0.19488983341557656;0.845;0.024014797993759936
08:20.2;-0.7320458136178302;0.2006373071863225;0.32311174553894095;0.809;0.047457264056701684
08:20.2;-0.7135287901780715;0.2413614866939785;0.4205091979421002;0.8029999999999999;0.07241940846985108
08:20.2;-0.6894965787099164;0.28517822910306034;0.4840038336046616;0.804;0.095169389831366
08:20.2;-0.6626557693528111;0.3285287888381938;0.5104936332787279;0.828;0.11113522833818856
08:20.2;-0.6359862028035962;0.3674641713349016;0.49692845043502154;0.872;0.11613324378118038
08:20.2;-0.6125225216723766;0.39799813559968;0.44052996984538617;0.905;0.10739363906519654
08:20.2;-0.5951165547770878;0.4164943184618185;0.33912427365490355;0.794;0.08405624585692592
08:20.2;-0.5861876533799995;0.42004343926877663;0.19155191334499697;0.794;0.0471647315595629
08:20.2;-0.5874787740048029;0.40677989747299176;-0.0018678909025509661;0.794;0.0004463783980797261
08:20.2;-0.5998445955925743;0.37609283370565216;-0.23885024432741347;0.7440000000000001;0.05388395917525688
08:20.3;-0.6230939561184657;0.3287030988311378;-0.5147052428310476;0.737;0.10541828075836672
08:20.3;-0.6559012073489465;0.2665948237776812;-0.8220422891359751;0.8740000000000001;0.14374220517304453
08:20.3;-0.6957979671537164;0.1928053126873647;-1.1506946743264017;1.073;0.15436976934119703
08:20.3;-0.7392531503796869;0.11109583030890889;-1.4879052651230424;1.3090000000000002;0.12219859813373087
08:20.3;-0.7818442167929295;0.02555100437908677;-1.818796846936233;1.595;0.036333931838348654
08:20.3;-0.8185234714712868;-0.059826266975815626;-2.127150613656041;1.969;0.10416487176496944
08:20.3;-0.8439863012163404;-0.14146178158679681;-2.396498498529983;3.1460000000000004;0.2861222833482608
08:20.3;-0.8531335320703601;-0.21645997406791914;-2.6114516877698435;3.1460000000000004;0.4822548565256255
08:20.3;-0.8415822600927271;-0.2827420800792336;-2.7590658265158923;3.1460000000000004;0.6565216965708595
08:20.4;-0.8061509751541336;-0.33907952281019177;-2.8300143935912234;3.345;0.7735824194280155
08:20.4;-0.745250226027191;-0.38505066093368306;-2.819447518042183;3.4139999999999997;0.8090660999805327
08:20.4;-0.6591283529583649;-0.420953900423141;-2.7275136146300825;3.3810000000000002;0.7567831583101539
08:20.4;-0.5499342592203542;-0.44769097248043566;-2.5595207613677173;3.216;0.6301555556349132
08:20.4;-0.42157663663922246;-0.4666125960945876;-2.3256805427280094;2.87;0.45749152421496947
08:20.4;-0.2793850386346619;-0.4793209879828028;-2.0403836518602234;2.39;0.2732382067839156
08:20.4;-0.12960428079281508;-0.48744850511642657;-1.7210060665846352;1.867;0.10872526891005191
08:20.4;0.021217923954966175;-0.49245245772955665;-1.386328466849681;0.6920000000000001;0.014485494946759084
08:20.4;0.16685387547874792;-0.49546256289564944;-1.0547816634278782;0.6920000000000001;0.08719864060493036
08:20.4;0.30190949431220937;-0.4971970662680403;-0.7428565644902282;0.6920000000000001;0.11150909564257142
08:20.5;0.4221398424618949;-0.49794645019023315;-0.46399144304414924;0.7020000000000001;0.0975324100234238
08:20.5;0.524557867899645;-0.4976164707587367;-0.22804513456299363;0.7759999999999999;0.05952631017807889
08:20.5;0.6073881063299607;-0.4958170023148864;-0.04127578871081329;0.8079999999999999;0.012430342049199015
08:20.5;0.6699232257785765;-0.4919768538544109;0.09330492650538344;0.818;0.030752064774694228
08:20.5;0.712327091852893;-0.48546390142781487;0.1753270054436658;0.8440000000000001;0.060629672047742104
08:20.5;0.7354207226027728;-0.4756958687704778;0.2063492751994532;0.883;0.07218852875545372
08:20.5;0.7404788624240533;-0.4622328718831437;0.189192549218734;0.9079999999999999;0.0647556283747619
08:20.5;0.7290487592737904;-0.44484505517956036;0.1274402754515497;0.799;0.04133063179092494
08:20.5;0.7027911610692409;-0.42355169691273487;0.025160318438786522;0.799;0.0074894314525296175
08:20.6;0.6633451901138018;-0.39863403824109667;-0.11317221065437609;0.799;0.029926350825680535
08:20.6;0.6122221403614051;-0.3706259286904683;-0.2826265476996771;0.7170000000000001;0.06412948966883845
08:20.6;0.550728622443168;-0.3402811452751673;-0.47774158174891895;0.6990000000000001;0.08952999848655892
08:20.6;0.4799183630832976;-0.3085135413388196;-0.6925116308853747;0.8059999999999999;0.10253418185490625
08:20.6;0.4005823874638138;-0.2763128499900229;-0.920476917583251;1.0170000000000001;0.10188396437383582
08:20.6;0.3132966840723116;-0.24464928882950124;-1.1549108689476741;1.278;0.08852138994827788
08:20.6;0.21854187050272056;-0.21438619747486634;-1.3890572531323004;1.574;0.0650806113263051
08:20.6;0.11689033869620885;-0.18621828879997016;-1.616352202888131;1.827;0.03518333050252422
08:20.6;0.009231991066914105;-0.16064552609268376;-1.8305674146826607;1.8619999999999999;0.002714874373411906
08:20.6;-0.10300494165373154;-0.1379866073699824;-2.025837488931019;1.8619999999999999;0.028793840926779012
08:20.6;-0.2176834708198822;-0.11843479442411917;-2.1965952368411434;1.8619999999999999;0.05663107444477092
08:20.7;-0.33188931205067174;-0.10215223963246282;-2.337512441863391;2.0669999999999997;0.07924923722246242
08:20.7;-0.44202700204729173;-0.08937289913524031;-2.443574724280915;2.471;0.09653399291401626
08:20.7;-0.544126193066965;-0.08044841957772565;-2.5103658831137503;2.804;0.10988898783172132
08:20.7;-0.6343366756106537;-0.07577190648090178;-2.534520456474938;2.958;0.12182147041737988
08:20.7;-0.7095076579829533;-0.07557829691062262;-2.514202951041009;3.0;0.13482006133546767
08:20.7;-0.7677024766707404;-0.07969990999196248;-2.449454753745101;2.947;0.14987189347532226
08:20.7;-0.8085126498131014;-0.0873834813400712;-2.3423051190680937;2.778;0.16548537927328116
08:20.7;-0.8330893544316699;-0.09723996257053252;-2.1966210052975943;2.046;0.17794733988055902
08:20.7;-0.8438914471581684;-0.107335074167363;-2.0177538017346563;2.046;0.18276642642923951
08:20.7;-0.8442327818700108;-0.11537581256492767;-1.812111144672657;2.046;0.1765069522228869
08:20.8;-0.8377490137009647;-0.11893313178197278;-1.58677496579286;1.786;0.158100091140854
08:20.8;-0.8278800599275055;-0.11566046065116384;-1.3491937697995424;1.515;0.12918933632683077
08:20.8;-0.8174269768656522;-0.10349139527869944;-1.1069022417622063;1.239;0.09364023080007709
08:20.8;-0.808227894031082;-0.08081145835265714;-0.8672320120634129;1.002;0.056642456503085185
08:20.8;-0.8009918549819103;-0.04660516331001558;-0.6370229244368877;0.86;0.02378029268407221
08:20.8;-0.7953129378859196;-0.0005835368137256168;-0.4223634718961809;0.823;0.00019601651264810057
08:20.8;-0.7898610480333293;0.05670644383791662;-0.2283755760274511;0.841;0.01022899027406986
08:20.8;-0.7827149159206184;0.12379810361091154;-0.05903702070465207;0.96;0.005720605968553691
08:20.8;-0.7717717196508693;0.19826043330931864;0.08295752022445996;0.96;0.012693479124240218
08:20.8;-0.7551488868485062;0.2767079653525116;0.196254584774057;0.96;0.04100851649827261
08:20.9;-0.7315010628742139;0.3548884513110582;0.28076104491701165;0.976;0.07288592644811862
08:20.9;-0.7002067344637205;0.42788359432911355;0.33740493771080526;0.963;0.10108887250674126
08:20.9;-0.6614160757364486;0.4904513772670485;0.3677575911440219;0.95;0.11929777691057195
08:20.9;-0.6159780490271406;0.5375001450456112;0.37354840311506365;0.965;0.12367750227996058
08:20.9;-0.5652759099956446;0.5646327443374718;0.35612897514448894;0.992;0.11366685608024245
08:20.9;-0.5110013822110648;0.5686623316314426;0.31599057214958887;0.982;0.09182282742910448
08:20.9;-0.45489902108350605;0.5479944007060681;0.2524639885669898;0.932;0.0629347573949725
08:21.0;-0.3985184838810334;0.5027957520370696;0.16370710218589174;0.45299999999999996;0.03280254880069564
08:21.0;-0.3430191948841448;0.4349353500298157;0.04702390501180882;0.45299999999999996;0.007015551575678945
08:21.0;-0.2890689946545211;0.3477638530390334;-0.10051432454648913;0.45299999999999996;0.010104478625595914
08:21.0;-0.23685690231517775;0.24583072325048255;-0.2812353809154121;0.45299999999999996;0.016375409167241048
08:21.0;-0.18620602394087085;0.13458618663956978;-0.4959461439618014;0.379;0.012428786637815673
08:21.0;-0.13674475134657374;0.020046333953344698;-0.7430664616203686;0.431;0.002036916783883216
08:21.0;-0.08808398247869001;-0.09160988051075357;-1.0179503049140686;0.593;0.008214210638067064
08:21.0;-0.039954671899691596;-0.19450092415944495;-1.3125063336872822;0.799;0.010199776269764003
08:21.0;0.007719192366852198;-0.28350911523579164;-1.6152121039956762;1.072;0.0035348293395987
08:21.0;0.054808749377515634;-0.3546917124063009;-1.9116083688068743;1.4080000000000001;0.03716206654370795
08:21.1;0.10100349648436553;-0.4055869426877452;-2.185327689312805;2.86;0.08952347707947299
08:21.1;0.1458395216978639;-0.4353811682531091;-2.4195909510468034;2.86;0.15363381794609615
08:21.1;0.18871949506856706;-0.44491672553187234;-2.5989239813284266;2.86;0.2182172481273489
08:21.1;0.2289361236605835;-0.4365338431827426;-2.7107781973442338;3.25;0.27091074337325155
08:21.1;0.2657249142036445;-0.4137572373564116;-2.7468509389282114;3.4730000000000003;0.30200419216446994
08:21.1;0.2983639557391166;-0.38086012271989234;-2.7040121859198;3.487;0.3072702430319492
08:21.1;0.3263116193084444;-0.3423644978887204;-2.5847386679976148;3.24;0.2887605775524027
08:21.1;0.349344152977105;-0.3025544493028841;-2.3969451564864936;2.795;0.25334662316775375
08:21.1;0.36764174894828705;-0.26507339849859657;-2.15318237856443;2.298;0.20983203212898804
08:21.1;0.3817809480803883;-0.23264965375357413;-1.86929734199726;1.815;0.16603324313097376
08:21.1;0.3926205102473523;-0.20696546438616786;-1.562757418670728;0.6940000000000001;0.1269879272902244
08:21.1;0.4011091241606612;-0.18866178872253198;-1.250917174920755;0.6940000000000001;0.09466186230905081
08:21.1;0.40807918852869374;-0.1774517918818614;-0.9495441335190402;0.6940000000000001;0.0687606527823512
08:21.2;0.4140976999179942;-0.17230506519519212;-0.6718409694871469;0.556;0.04793661314701654
08:21.2;0.41941686159606945;-0.171667458513539;-0.4280083941385389;0.542;0.03081670140230826
08:21.2;0.4240233826211738;-0.17369039485626206;-0.22523457001282662;0.5670000000000001;0.016588253267369003
08:21.2;0.4277498725401173;-0.1764495044645696;-0.06796140999655936;0.575;0.00512947257816041
08:21.2;0.4303956072342487;-0.17813731419537343;0.04169977826063956;0.5670000000000001;0.00319710187969219
08:21.2;0.4318088053359792;-0.17722095315199676;0.1035099604014234;0.544;0.007921158519697505
08:21.2;0.4319020289436611;-0.17256078141392375;0.11867985575371141;0.501;0.008845132698347326
08:21.3;0.4305975865087992;-0.16348856633021558;0.08952359218148362;0.409;0.006302262333730883
08:21.3;0.4277253007315455;-0.14984608391326842;0.01920172978976287;0.409;0.001230695724409083
08:21.3;0.4229130547035111;-0.13198659438202096;-0.08844293875108207;0.409;0.004936783468674651
08:21.3;0.41551070355620423;-0.11074010432487363;-0.22896552950480445;0.42200000000000004;0.010535550878142109
08:21.3;0.40457222142797733;-0.08734043304353448;-0.3973467403810766;0.503;0.014040450916960007
08:21.3;0.3889053123763256;-0.06331465072020866;-0.5880104145900119;0.669;0.014478818004265858
08:21.3;0.3671892814302202;-0.040345056736183944;-0.7948583005771653;0.872;0.011775247377967882
08:21.3;0.3381520116112825;-0.020123684683413388;-1.0113272362348813;1.068;0.00688194476397509
08:21.3;0.30077946345796897;-0.004224361040272323;-1.2304652124889217;1.248;0.0015634303874649733
08:21.3;0.2545113108357807;0.005980093802859889;-1.4450297441998492;1.4040000000000001;0.002199337456549589
08:21.4;0.1993663287173201;0.009329926447536304;-1.6476249108742484;1.722;0.0030647029124389437
08:21.4;0.13595978405540457;0.004819249309367021;-1.8308945243035177;1.722;0.001199646208479172
08:21.4;0.06542184294056015;-0.008482016566588067;-1.9877780761937571;1.722;0.0011030362538575066
08:21.4;-0.010742651687810158;-0.03143566965569171;-2.111841338153991;2.1790000000000003;0.0007131739932388755
08:21.4;-0.09082077162121982;-0.06470316834378326;-2.197701920319879;2.543;0.012914557269402688
08:21.4;-0.17305595716696195;-0.10847032211106822;-2.241520628227422;2.594;0.04207655970895721
08:21.4;-0.255757990004439;-0.162105889019301;-2.2414413346175284;2.524;0.09292988056436062
08:21.4;-0.337306690143851;-0.22388995176721035;-2.197839042411334;2.45;0.1659798782851006
08:21.4;-0.4160536934814524;-0.29093418829642;-2.11330167902603;2.289;0.25580300323790894
08:21.4;-0.4901903173090922;-0.3593349893410221;-1.9923498639341588;2.083;0.3509375505504811
08:21.4;-0.5576650774377722;-0.4245205313019437;-1.8409498750558901;1.652;0.435826979612769
08:21.4;-0.6161989737797964;-0.48171262990666913;-1.6659235422590406;1.652;0.4944974647753854
08:21.4;-0.6633961520634588;-0.5264123938642965;-1.4743996454917945;1.652;0.5148897800446971
08:21.5;-0.6969238203189899;-0.5548339568778566;-1.273423403988883;1.554;0.49240354269211
08:21.5;-0.7147458599547848;-0.5642496250237581;-1.0697403766459093;1.474;0.4314210344871868
08:21.5;-0.7154032872284196;-0.5532373971528053;-0.8696915815283044;1.402;0.34421336342590975
08:21.5;-0.69831708682733;-0.521819634543432;-0.6791514961424944;1.33;0.2474797945454021
08:21.5;-0.6640604261235985;-0.4714742047154623;-0.5034665664818917;1.237;0.15762901879736788
08:21.5;-0.6145286992125711;-0.40500691357777324;-0.34736664788252625;1.093;0.08645551939974339
08:21.5;-0.5529354470806489;-0.3262902407624501;-0.21483003941949452;0.9;0.03875908578025626
08:21.6;-0.4835883814158409;-0.23989144889699288;-0.10890131586403064;0.327;0.01263350198609797
08:21.6;-0.41146196983998423;-0.15064013340144444;-0.03149705623468302;0.327;0.001952272147347587
08:21.6;-0.34165859608079435;-0.06321465248035305;0.016730211272997345;0.327;0.00036133624920418704
08:21.6;-0.2788754945220703;0.018178203655856595;0.03640274135804312;0.204;0.00018454207863211937
08:21.6;-0.22695117238196946;0.09000459415634134;0.029282469157282557;0.163;0.0005981426948356695
08:21.6;-0.18851988664494793;0.14950359372794939;-0.001981483004809179;0.20600000000000002;5.584691067590714e-05
08:21.6;-0.16479719199765114;0.1947097976239141;-0.054170064495778006;0.29100000000000004;0.0017381888730140173
08:21.6;-0.15551720381447878;0.22441450389570425;-0.1238167012834418;0.354;0.004321242018361728
08:21.6;-0.15901718745107324;0.23808002999369046;-0.20747929858468714;0.36200000000000004;0.007854920746167783
08:21.6;-0.17244096368596543;0.23572718320449218;-0.3019252317075087;0.366;0.012272965578891609
08:21.7;-0.1920308632901143;0.21782485197726897;-0.4042218799888748;0.536;0.01690823516497321
08:21.7;-0.21348673611121297;0.1852153788768653;-0.5117491899425545;0.536;0.020235088390398517
08:21.7;-0.232371098722158;0.13909972667064924;-0.6221622082812545;0.536;0.020109997448799228
08:21.7;-0.24453641286924338;0.08108320327008167;-0.7333415316387248;0.765;0.014540546046840706
08:21.7;-0.24654963600557345;0.013255606296355582;-0.8433770523845135;1.0390000000000001;0.0027562952863092287
08:21.7;-0.23607558221665553;-0.0617417199618073;-0.9506072830821335;1.246;0.013855778446292715
08:21.7;-0.21215409154284667;-0.14071759277485638;-1.0536801494299382;1.315;0.03145637020531966
08:21.7;-0.1752984549146587;-0.2200464586949802;-1.151559386418588;1.287;0.04442002631788501
08:21.7;-0.12737415679139466;-0.29591459170466206;-1.2434150326652034;1.2409999999999999;0.04686663975753631
08:21.7;-0.07127301475005084;-0.36467697917361885;-1.3283975115828899;1.2109999999999999;0.03452721357945212
08:21.8;-0.010452773862617861;-0.42326825845366095;-1.405361297758863;1.444;0.006217778480890557
08:21.8;0.05155308385838542;-0.46958301868678737;-1.4726369385041649;1.444;0.035650261730184124
08:21.8;0.11155209400842783;-0.502733184236293;-1.5279375002869864;1.444;0.0856881704050193
08:21.8;0.16697438614121762;-0.5231148963028667;-1.5684522837132036;1.604;0.13699927019819447
08:21.8;0.2160133753973367;-0.5322654331919066;-1.591149118523138;1.736;0.18294468157313679
08:21.8;0.2576534208271481;-0.5325371466717361;-1.593263200058534;1.8880000000000001;0.21861167165375253
08:21.8;0.29161447041723354;-0.5266501439149417;-1.5728875092529488;1.9909999999999999;0.24156218063045654
08:21.8;0.31823453208008373;-0.517210163950615;-1.5295274428155892;1.975;0.2517512456624122
08:21.8;0.338307463628962;-0.5062849802477679;-1.4644721998686394;1.8619999999999999;0.2508347801477315
08:21.8;0.35289884227233104;-0.4951169229166142;-1.3808717681065925;1.6869999999999998;0.2412744613825206
08:21.8;0.3631703115156553;-0.4840181478193447;-1.283479771444296;1.188;0.22561138532830502
08:21.8;0.3702394270974149;-0.47245282276704315;-1.1781186245078388;1.188;0.2060772902221835
08:21.9;0.3750820888543044;-0.4592635952293681;-1.0710105287138898;1.188;0.18449393227889813
08:21.9;0.3784651480055512;-0.44297407623210955;-0.9681289114234904;1.042;0.16230705337773468
08:21.9;0.3808943579082376;-0.4221067191882213;-0.8746541932373686;0.92;0.14062521115908747
08:21.9;0.3825709451046416;-0.39547233131030024;-0.7945584987151337;0.802;0.12021370024683975
08:21.9;0.3833586203676779;-0.36239449889440783;-0.7303493875272188;0.7340000000000001;0.10146528962150111
08:21.9;0.3827706236261831;-0.32284180710695487;-0.6830178056147862;0.8590000000000001;0.08440348808744
08:21.9;0.37998631569613045;-0.2774633791256687;-0.652203258220178;0.847;0.06876328121685449
08:21.9;0.37389624722627385;-0.22754211501651528;-0.6365262751329569;0.8370000000000001;0.054153836863110635
08:22.0;0.3631699510205631;-0.17487943116739593;-0.633998272178147;0.8390000000000001;0.04026583538667854
08:22.0;0.3463487209363855;-0.1216241447831571;-0.6424238400240879;0.8390000000000001;0.02706169759427908
08:22.0;0.3219702521049543;-0.07007457328883539;-0.6597359307204401;0.8390000000000001;0.014884914586369436
08:22.0;0.28872490559687114;-0.02249084170767877;-0.6842276151954508;0.873;0.0044431457028987695
08:22.0;0.24563234384595128;0.019068019675933984;-0.7146641170202456;0.848;0.003347288308708306
08:22.0;0.19221927802656014;0.05289152723153946;-0.7502759652045532;0.821;0.007627884058714324
08:22.0;0.12867697435576697;0.07775609624510121;-0.7906486595597878;0.812;0.007910771280818405
08:22.0;0.05598150554573886;0.0930436902135654;-0.8355386166090784;0.823;0.004352091599098574
08:22.0;-0.02403341604678224;0.09882039323824872;-0.8846536630220785;0.898;0.002101045040350437
08:22.0;-0.10865850602251959;0.09585281423846707;-0.9374329569481118;0.853;0.009763573850254769
08:22.1;-0.19435843081451423;0.08554209710759028;-0.9928542521376382;0.866;0.016507023789220778
08:22.1;-0.2769090634692839;0.06976994393139094;-1.0492987851342652;0.866;0.020272378901959813
08:22.1;-0.3516468142162907;0.05068221699301706;-1.1045138542439081;0.866;0.01968491115162001
08:22.1;-0.41385521552513815;0.030455597520214102;-1.1557173996384313;1.1179999999999999;0.01456690235057743
08:22.1;-0.45929630795893617;0.011078554745334571;-1.1998715409898506;1.669;0.006105353507434983
08:22.1;-0.48483048850546306;-0.005842525740010936;-1.2340932237845965;1.801;0.003495735175974487
08:22.1;-0.4889842968144698;-0.019232580025525685;-1.2560871780773373;1.663;0.011812783462448077
08:22.1;-0.47229715178633835;-0.028616585007643594;-1.264458744230652;1.614;0.017089832105646057
08:22.1;-0.43733114489701364;-0.034088265142855866;-1.258833171211022;1.4269999999999998;0.018766508708066145
08:22.1;-0.3883201294758075;-0.03619460139453213;-1.239804295040584;1.21;0.017425563800545822
08:22.1;-0.3305280835794383;-0.03576551587868372;-1.2087830862757152;1.187;0.01428963822552658
08:22.1;-0.2694678645433018;-0.033714801781462;-1.1678155051755372;1.187;0.010609668841250433
08:22.1;-0.21017212142800143;-0.03084472772030273;-1.119411288335854;1.187;0.007256809640826448
08:22.2;-0.15667427909487805;-0.027693735965819467;-1.0663851000977858;1.126;0.004626934170988594
08:22.2;-0.11176573061884051;-0.02445523061287117;-1.0116844532986269;1.028;0.002765193327361555
08:22.2;-0.07700970657480152;-0.020974404633659013;-0.9581824432100768;0.902;0.0015476876593169078
08:22.2;-0.05294648606281209;-0.01681386419246308;-0.9084398303587449;0.7809999999999999;0.0008087249561153709
08:22.2;-0.03940327211435255;-0.011368081938262246;-0.8644723263968861;0.732;0.0003872314106008916
08:22.2;-0.035812249465872685;-0.004000578200820529;-0.8275780510468399;0.743;0.00011856686285355967
08:22.2;-0.0414482233927639;0.00582194419709026;-0.7982741318703331;0.7509999999999999;0.00019263092699593314
08:22.3;-0.05552951120876205;0.01841831504680418;-0.7763605795261233;0.799;0.0007940305710339242
08:22.3;-0.07717980650029202;0.0338140248887333;-0.7610906219142716;0.799;0.001986263783746102
08:22.3;-0.10530474849957851;0.051692856006979114;-0.7514004379749302;0.799;0.004090250689379286
08:22.3;-0.13846327539925404;0.07137284083173373;-0.746148223830109;0.799;0.007373822742386871
08:22.3;-0.1748010043228228;0.09180701910612475;-0.7443270487273892;0.823;0.011944930067479702
08:22.3;-0.21208320989108206;0.11161711621169618;-0.7452318558617069;0.845;0.017641215151216708
08:22.3;-0.24783571339261723;0.12916667298057138;-0.7485683504361078;0.8690000000000001;0.02396325577869093
08:22.3;-0.27957301882384566;0.14267333506958535;-0.7544947595102531;0.8640000000000001;0.030094996480124953
08:22.3;-0.30506979454080574;0.1503585281988011;-0.7635950946851608;0.858;0.035025988868915704
08:22.3;-0.3226237336355846;0.150636562241603;-0.7767965594926871;0.879;0.03775148172188551
08:22.4;-0.3312635473119477;0.14234155907355778;-0.7952560807429423;0.991;0.03749836784705593
08:22.4;-0.3308698962279742;0.12496988956924225;-0.8202379000093244;0.991;0.03391583187639893
08:22.4;-0.3221957511259637;0.09888766246318245;-0.8529851766265115;0.991;0.027177118245566345
08:22.4;-0.3067878950029318;0.06544078954518996;-0.8945757602312457;0.9670000000000001;0.01795989842920734
08:22.4;-0.28681717595590067;0.026919859362986708;-0.945761308440495;0.99;0.007302296869323942
08:22.4;-0.2648274728935227;-0.013639188610059153;-1.006803114901053;1.13;0.003636604919634959
08:22.4;-0.24341946176244192;-0.05280750800604215;-1.0773118763919942;1.198;0.013848171040537996
08:22.4;-0.22489747436776264;-0.08722397735182899;-1.1560770885580158;1.063;0.022678130959626595
08:22.4;-0.2109263550624892;-0.11408107370454904;-1.240877323712807;0.863;0.029858865053805243
08:22.4;-0.20226092996019135;-0.13153117096556452;-1.3283277192763736;0.883;0.03533832183865182
08:22.5;-0.19860599711939975;-0.1389279023820759;-1.4138949224266422;1.607;0.03901206792511413
08:22.5;-0.19863445435247065;-0.13687284675593717;-1.4921811696484575;1.607;0.040568919120094034
08:22.5;-0.20015233204390703;-0.12709131799537168;-1.5574376348382541;1.607;0.039617512459006105
08:22.5;-0.20037829575575128;-0.11217874102278388;-1.6041633327808387;1.607;0.036058680078114094
08:22.5;-0.1963091221091767;-0.09524514936195846;-1.627681718703401;1.715;0.03043356535473731
08:22.5;-0.18514720044527075;-0.07947594761082237;-1.6246710405117815;1.8969999999999998;0.023906626898310954
08:22.5;-0.16474506025720165;-0.06765108215259844;-1.5936373038248155;2.042;0.017761377164737274
08:22.5;-0.13398591862319648;-0.06170866174784894;-1.5352680368733098;1.982;0.012693736960991641
08:22.5;-0.0930067943754887;-0.062457059662612245;-1.4525640363481187;1.8090000000000002;0.008437844122725397
08:22.5;-0.043202516990905965;-0.06950490652308676;-1.3506593238606832;1.6019999999999999;0.004055742130825255
08:22.6;0.012991247742876024;-0.08141214138101156;-1.236306237222822;0.895;0.0013075734786358176
08:22.6;0.07247559323901724;-0.0960049573939417;-1.1171045598892704;0.895;0.007772831670618664
08:22.6;0.13192401051542038;-0.11076525532067813;-1.0006485904515816;0.895;0.014622074298365772
08:22.6;0.18817869735882478;-0.12321070655599375;-0.8937770571117062;0.7659999999999999;0.02072278438139122
08:22.6;0.23855861761116007;-0.13121417738132832;-0.8020247410630099;0.72;0.025105197210697216
08:22.6;0.2810703253134126;-0.13323872976370807;-0.7292907031503173;0.721;0.027311537997773173
08:22.6;0.3145158412573449;-0.12847303158819348;-0.677718344909476;0.7120000000000001;0.027384432064866723
08:22.6;0.3384859619861104;-0.11686043671774375;-0.6477810773327023;0.764;0.025623380415403768
08:22.6;0.3532389407188512;-0.099033621634908;-0.638542197234367;0.797;0.022337822593876455
08:22.6;0.35948945762992607;-0.0761821599757201;-0.6480236190318949;0.7959999999999999;0.017747217671192656
08:22.7;0.35815605868149103;-0.04988371689920342;-0.6736016645800704;0.848;0.012034672042010813
08:22.7;0.35012589031215713;-0.021927817962205443;-0.7123576807845996;0.848;0.005469123805147904
08:22.7;0.3360900926086142;0.005841458181114068;-0.7613375795586751;0.848;0.001494700739395312
08:22.7;0.31648409583596687;0.031647778390236005;-0.8177051612271631;0.879;0.008190150046151812
08:22.7;0.2915399483015568;0.05387172557805889;-0.8788028991317047;0.889;0.013802267500108881
08:22.7;0.26142990445522035;0.07112174412842742;-0.9421547781670526;0.9359999999999999;0.017517814272148657
08:22.7;0.22645918802085999;0.08230134770795856;-1.0054538735286813;1.025;0.018739545104636497
08:22.7;0.18725659538534947;0.08667625734469131;-1.0665709823587195;1.115;0.017311194551140267
08:22.7;0.14491358943549262;0.08393059574355184;-1.1236007401750112;1.225;0.013666000624304515
08:22.7;0.10102644637197596;0.07419147228974052;-1.1749364210903823;1.2930000000000001;0.008806501892879556
08:22.8;0.05759933639350398;0.05800718471601631;-1.219347294375002;1.276;0.004074053117809253
08:22.8;0.016793949078264994;0.03628560641090132;-1.2560310645202424;1.276;0.0007653984847360082
08:22.8;-0.019422976908509255;0.010215464492151473;-1.284627045601277;1.276;0.0002548889296121935
08:22.8;-0.04963348393111903;-0.018812113118476352;-1.3051934631181266;1.365;0.0012186731205862506
08:22.8;-0.07323905549210273;-0.04927819911908644;-1.3181600154755837;1.4340000000000002;0.0047573564955150915
08:22.8;-0.09060101672048802;-0.07960646329610478;-1.3242559061395873;1.4969999999999999;0.009551098406311461
08:22.8;-0.10301222643589082;-0.10822629676718777;-1.324394450399162;1.359;0.014765186070762135
08:22.8;-0.1124711837590889;-0.1336289469397537;-1.3194946102390703;1.173;0.019831220009941017
08:22.8;-0.12127865338548696;-0.15442321915376617;-1.3102543570331537;1.114;0.024538758151831618
08:22.8;-0.13154694022971664;-0.16939794228771607;-1.2969416952331239;1.088;0.028900764692283757
08:22.9;-0.14475500169917493;-0.17759236244310306;-1.2792910624523641;1.28;0.03288722496196443
08:22.9;-0.1614651231237561;-0.17836736940154527;-1.2565583887669307;1.28;0.03618901889016943
08:22.9;-0.18125029549145913;-0.1714648655300198;-1.2277197061637841;1.28;0.03815514367571635
08:22.9;-0.20282005213007415;-0.15704207149905863;-1.1917480951257013;1.3430000000000002;0.03795870361167144
08:22.9;-0.22430805255022082;-0.13567146470445515;-1.1478972238049774;1.31;0.03493304022966596
08:22.9;-0.24366819384318159;-0.1083030950182684;-1.095936550122297;1.2670000000000001;0.02892178698408475
08:22.9;-0.2590944868915682;-0.0761928766517379;-1.0363034223166037;1.2229999999999999;0.0204578257417504
08:22.9;-0.2693615818130653;-0.04080768593560732;-0.9701592010679437;1.157;0.01066401209050758
08:22.9;-0.2740052972055497;-0.0037230761506863914;-0.8993526422865691;1.034;0.0009174679312963314
08:22.9;-0.27331369004549294;0.033471060006762095;-0.8262988565962504;0.887;0.007559063677776003
08:23.0;-0.268151867547665;0.06924584815020501;-0.7537890328978863;0.65;0.013996658917777655
08:23.0;-0.25968420613990933;0.10218228009648322;-0.6847645355200818;0.65;0.01817031205832832
08:23.0;-0.24908001208077712;0.13098918897199296;-0.6221035363551009;0.65;0.020297240674720274
08:23.0;-0.23728185547117298;0.154493598623386;-0.5684550066279672;0.5920000000000001;0.020838723629285703
08:23.0;-0.22488119648022212;0.1716174630899658;-0.5261206617445205;0.536;0.020304859033553103
08:23.0;-0.2121078406392241;0.18136101941223082;-0.4969662538908955;0.498;0.019117344670713333
08:23.0;-0.19891524540784677;0.18281135541412816;-0.48235398630199655;0.491;0.017540303777229153
08:23.0;-0.1851290225449404;0.17518784344647184;-0.48310652103210633;0.519;0.01566828181562271
08:23.0;-0.17061823983442417;0.15792580265982142;-0.49951849400888426;0.562;0.013459537047376574
08:23.0;-0.1554515300686176;0.13078868680605601;-0.5314215115731572;0.591;0.010804490964574006
08:23.1;-0.14001030649812157;0.09399187991004862;-0.5782907742869965;0.802;0.007610209387346378
08:23.1;-0.12504247691364367;0.04831906715836721;-0.6393599171761613;0.802;0.003862971598015226
08:23.1;-0.11164704693509704;-0.004789736558901337;-0.7136927130824583;0.802;0.0003816542741381387
08:23.1;-0.10118204257851185;-0.06320554757377488;-0.8001669749060357;0.862;0.005117280973653459
08:23.1;-0.09508957499757598;-0.12416540822117511;-0.897361994653664;0.9279999999999999;0.010595005811216862
08:23.1;-0.09464191156089595;-0.1844379598749895;-1.0033738158114733;0.9990000000000001;0.017514452934954162
08:23.1;-0.10063501773475608;-0.24059413179357012;-1.1155919788556445;0.9890000000000001;0.027010930220038396
08:23.1;-0.11307979364893983;-0.2893467251470206;-1.2304794539670016;0.963;0.04026038698915143
08:23.1;-0.13095238034812925;-0.3279095428549876;-1.3434270492001208;1.011;0.05768747646220162
08:23.1;-0.15206505651770438;-0.354328998509418;-1.4487909427341294;1.115;0.0780623905309851
08:23.2;-0.17311180613364144;-0.36774399323213597;-1.5402212548667142;1.969;0.09805175863711005
08:23.2;-0.18991666277961827;-0.36853085899495475;-1.6113004247661196;1.969;0.1127751598288988
08:23.2;-0.19786974680809613;-0.3582969374625349;-1.6563572419671324;1.969;0.11742930890810944
08:23.2;-0.1925052745491761;-0.3397010335985197;-1.67123688541902;2.069;0.10928926721451775
08:23.2;-0.17016534286000617;-0.3161013969153268;-1.6538619251235067;2.0180000000000002;0.08896041029604124
08:23.2;-0.12866625710364693;-0.2910671668655669;-1.604520682131299;1.91;0.06009013859196919
08:23.2;-0.06783187810223595;-0.26783501143518773;-1.5258775170351244;1.72;0.027721764078689322
08:23.2;0.010263436223418201;-0.24882549561977427;-1.4227327988302811;1.505;0.003633381573414107
08:23.2;0.1014425297045897;-0.23532451213722166;-1.3015887246776567;1.382;0.031071413855084773
08:23.2;0.19994930491575502;-0.22738244565964283;-1.1700824475702036;1.2670000000000001;0.0531977539684803
08:23.3;0.29922691313451094;-0.22392098156337806;-1.0363345977964213;1.028;0.06943771784458551
08:23.3;0.3927703050180701;-0.2229964530300696;-0.9082670067094736;1.028;0.07955182361852794
08:23.3;0.47487079275902316;-0.22215356759100036;-0.792974345574116;1.028;0.0836542265254729
08:23.3;0.5411252034910222;-0.2188087895477643;-0.6962344813615252;0.9359999999999999;0.08243621702078718
08:23.3;0.5886744814582469;-0.21062133251649595;-0.6221884014445104;0.867;0.07714352450934497
08:23.3;0.6162122774021183;-0.19582357551481774;-0.5731759535877533;0.845;0.06916450691778615
08:23.3;0.623832434995749;-0.17348150115449598;-0.5497165946023572;0.836;0.05949219191845017
08:23.3;0.6127823182527421;-0.14365144073449707;-0.5506328923082073;0.8270000000000001;0.04847059623150413
08:23.3;0.5851779893294525;-0.1074060524991514;-0.5732981311055333;0.8079999999999999;0.03603273797842942
08:23.3;0.5437224256281329;-0.06672004740025919;-0.613969945337574;0.794;0.02227310191186335
08:23.4;0.4914523498182766;-0.024228670202579836;-0.6681701603719596;0.8809999999999999;0.007956060391752588
08:23.4;0.43153013838658055;0.017102274096484574;-0.7310761824495131;0.8809999999999999;0.005395449480895822
08:23.4;0.3670941814893986;0.054334329513887406;-0.7978897873105407;0.8809999999999999;0.015914563061252232
08:23.4;0.3011701364709485;0.08488441463449688;-0.8641583770676688;0.981;0.022091907093545127
08:23.4;0.23662246684497273;0.10679357139154955;-0.9260462825255038;1.081;0.023400965739453293
08:23.4;0.17610927533768744;0.11892887680766948;-0.9805621981925736;1.17;0.020537363692948323
08:23.4;0.12200926577544063;0.12110682945191013;-1.0257299284137853;1.244;0.015156344760995042
08:23.4;0.0763096517339374;0.11411428301510299;-1.0606680665495283;1.2;0.009236320004108301
08:23.4;0.04046085271878116;0.09960598012768325;-1.0855464680296705;1.088;0.004374907381909201
08:23.4;0.015213862773467979;0.07987933252960454;-1.1014179529316221;1.04;0.001338523724097466
08:23.5;0.00046969981437341914;0.05755470836220298;-1.1099651171743135;1.126;3.0006170773157836e-05
08:23.5;-0.0048109961427688815;0.03521362004842427;-1.1132210677948247;1.126;0.0001885936645891614
08:23.5;-0.0025838420179583516;0.015064255851845808;-1.1133034880318247;1.126;4.3333843371439126e-05
08:23.5;0.004455200055376913;-0.0012998611904303586;-1.1121702634821446;1.036;6.44073553205996e-06
08:23.5;0.013201839255219096;-0.013013147531663093;-1.1113976654046573;0.97;0.000190935320325472
08:23.5;0.02059268164206312;-0.019923173356281763;-1.112001385980485;0.987;0.0004562225502711898
08:23.5;0.02408348034161636;-0.022466501184209686;-1.1143406016060262;1.083;0.0006029379849662714
08:23.5;0.022035920663359448;-0.021464824724851964;-1.1181399229548563;1.135;0.0005288770244654664
08:23.5;0.013904843567028471;-0.017885005959423005;-1.1226310494810603;1.175;0.00027918510625451397
08:23.5;0.0001739706549904895;-0.012614747630161776;-1.1267774754558808;1.258;2.4728212365904584e-06
08:23.6;-0.017938636386000913;-0.006295839334793575;-1.1295234903132139;1.251;0.00012756699658670042
08:23.6;-0.03891662632979359;0.0007664974784164207;-1.1300081587139328;1.251;3.3707573794119004e-05
08:23.6;-0.061390258940210246;0.008619958605736644;-1.1277024822356752;1.251;0.000596759280796072
08:23.6;-0.08446337146927668;0.017616702961073535;-1.1224524892408474;1.251;0.001670171282332278
08:23.6;-0.10785203186973814;0.028309751702775415;-1.1144280815450693;1.121;0.0034026434126341217
08:23.6;-0.13182880035077044;0.04130553231059556;-1.1039901790774327;1.005;0.0060115122072160404
08:23.6;-0.1570075089380671;0.05709019414186509;-1.0915114223331013;0.948;0.009783859960887063
08:23.6;-0.1840281268783961;0.07585473862007062;-1.0772109197924156;0.953;0.015037223998663298
08:23.6;-0.21321892605088205;0.09734663701520237;-1.0610649209023835;1.0170000000000001;0.022023617776077635
08:23.6;-0.24432029450265394;0.12077254052529758;-1.0428245738101463;1.032;0.03077081519111138
08:23.7;-0.27634315890310174;0.14477117850040722;-1.0221297148864141;1.114;0.04089185777201405
08:23.7;-0.3075948681299233;0.1674663282613602;-0.9986788622682962;1.114;0.051443728997398484
08:23.7;-0.3358471901900432;0.1865960607226077;-0.9724076181687917;1.114;0.06093860985745206
08:23.7;-0.358588458632522;0.1997063495139004;-0.9436334440193295;1.089;0.06757584814584695
08:23.7;-0.37331521168900267;0.20439913356153896;-0.9131382318485168;1.048;0.06967729203218104
08:23.7;-0.3778414140708901;0.1986227326706689;-0.8821795926794026;1.0490000000000002;0.06620572071819766
08:23.7;-0.37060466000023995;0.18097709159198225;-0.8524409355221916;1.035;0.057174026345585806
08:23.7;-0.3509397778959787;0.1509886328739048;-0.8259392501666802;1.03;0.043764800670750656
08:23.7;-0.3192838432629316;0.10930138280538018;-0.8049062592737295;1.068;0.02808975190933742
08:23.7;-0.27726966688389276;0.057734631436653916;-0.791647566988408;1.0859999999999999;0.012672743355165828
08:23.8;-0.22766227069874062;-0.0008246616187986968;-0.7883690429031781;0.8340000000000001;0.00014801182302979146
08:23.8;-0.174114823900924;-0.06268798981103064;-0.7969521051090983;0.8340000000000001;0.008698659152057914
08:23.8;-0.12076686450922132;-0.12373761722013989;-0.8186735552272366;0.8340000000000001;0.012233769723691109
08:23.8;-0.07173711699646187;-0.17983951791454675;-0.8538918630015547;0.691;0.011016202837146511
08:23.8;-0.030558400417248336;-0.2272576062896722;-0.9017450153044446;0.775;0.006262284521546708
08:23.8;0.000390252556437433;-0.26304731082963834;-0.9599269071803643;0.897;9.854118675961639e-05
08:23.8;0.020356329387014326;-0.28539088680517666;-1.0246245678177373;0.882;0.0059525675909012435
08:23.8;0.03046746842038465;-0.2938221904679327;-1.0906933560468102;0.97;0.009763906893151984
08:23.8;0.03367508304989393;-0.2892993648364628;-1.152119911128808;1.318;0.01122415971381346
08:23.8;0.03436299389593498;-0.2741013547671382;-1.202762728145146;1.733;0.01132875379629975
08:23.9;0.037656258123927026;-0.25153363870702045;-1.237256627508951;1.7630000000000001;0.01171906665781402
08:23.9;0.04853076157761247;-0.22545735954982463;-1.251868829357011;1.7630000000000001;0.013697469718527954
08:23.9;0.07090393829818693;-0.19971986035445113;-1.2450827646599947;1.7630000000000001;0.017631523220204993
08:23.9;0.1069202021152726;-0.17760725112953094;-1.2177716256864917;1.32;0.02312524349960455
08:23.9;0.15658376696774268;-0.161416190997668;-1.1729500918119558;0.998;0.029646495654627035
08:23.9;0.2177867266481146;-0.15219993900014703;-1.1152158343148324;0.9440000000000001;0.03696620034697562
08:23.9;0.2866918164024648;-0.14972523451401012;-1.0500668280172467;1.19;0.04507411800891508
08:23.9;0.3583600604013651;-0.1526482605653809;-0.9832501535330238;1.135;0.053786772357167084
08:23.9;0.4274672621837595;-0.1588604693581954;-0.9201966756401452;0.8640000000000001;0.062488393693828796
08:23.9;0.48895838028214705;-0.16591271333609114;-0.8655459001853864;0.895;0.07021690184891352
08:24.0;0.5385476291988496;-0.1714316453846889;-0.8228026651827408;1.0759999999999998;0.07596452063504815
