Time;AccX;AccY;AccZ;Acc-old;Acc-trns
12:02.9;-0.13734666345616903;-0.38443450953209524;-1.0830196444695588;1.165;0.05718430061303169
12:02.9;-0.12691573361332664;-0.32998838742340736;-0.983478445833697;1.182;0.04118878371823745
12:02.9;-0.11646626125325779;-0.2772094553980031;-0.8838675823302629;0.946;0.02853615001001785
12:02.9;-0.10607993592988754;-0.2277815033279446;-0.7856928016990568;0.946;0.018984732314257145
12:02.9;-0.0956853492774102;-0.18317080596820626;-0.6909054613220397;0.774;0.01210933596266628
12:02.9;-0.08505742642651618;-0.14452894015127982;-0.6018978495465507;0.642;0.007399286573386692
12:02.9;-0.07385763161513993;-0.112627987190631;-0.5214152375643601;0.5660000000000001;0.0043373594851420704
12:02.9;-0.06171004515083367;-0.08783606755840988;-0.4523980389642873;0.493;0.002452163715638655
12:02.9;-0.04829794332886815;-0.07013984895144432;-0.39777321620877304;0.413;0.0013475007038603927
12:02.9;-0.033459464395611274;-0.05921033814045082;-0.36021122160216135;0.386;0.0007136310931851688
12:03.0;-0.017262903866789428;-0.05449232574079027;-0.3418620565449975;0.298;0.00032158819418733314
12:03.0;-5.0474451629617254e-05;-0.0552906585206627;-0.3440880828427338;0.218;9.602692087339164e-07
12:03.0;0.01755508714010603;-0.060835341165373376;-0.36722326483426954;0.20800000000000002;0.00039218332561723266
12:03.0;0.034687918961696505;-0.07032501697194929;-0.41040356758158647;0.24;0.001001150155034235
12:03.0;0.05032636046164334;-0.08295995141464985;-0.47151706144423705;0.34299999999999997;0.0019686178782172404
12:03.0;0.0634241962101422;-0.09797234530554601;-0.5473064673022429;0.504;0.003400862368559032
12:03.0;0.07306267449481464;-0.11464902561840089;-0.6336270849618032;0.7070000000000001;0.0053076181080516345
12:03.0;0.07859186171961381;-0.13233383837879878;-0.7258271114036424;0.868;0.007548865235465165
12:03.0;0.0797372088051481;-0.1504046223621687;-0.8191835432208379;1.0170000000000001;0.009824341078991501
12:03.0;0.07666430378655464;-0.16824049527092183;-0.9093088188949534;1.1059999999999999;0.011728301917328507
12:03.1;0.07000806937343304;-0.1852142545485203;-0.9924514157068327;1.123;0.012868613720653926
12:03.1;0.06087105614562912;-0.20074191761421242;-1.0656453441098066;1.208;0.013021517452930769
12:03.1;0.05078056693539025;-0.21439298477895713;-1.1267050466518773;1.135;0.012266434816620988
12:03.1;0.04158070251916737;-0.22603134571507538;-1.1741008844627743;1.024;0.011034836646497204
12:03.1;0.03523980478167453;-0.23593858317078514;-1.20678539761834;1.082;0.01003373224456709
12:03.1;0.03358171802981149;-0.24487090378709497;-1.2240627892412366;1.239;0.010065695556679563
12:03.1;0.037988566371730044;-0.2540124568553092;-1.225572758604912;1.368;0.011826248992427563
12:03.1;0.04914964023373039;-0.2648108617234347;-1.211388781378126;1.395;0.0157666593738967
12:03.1;0.0669266288523959;-0.2787159165647732;-1.182159177017238;1.3230000000000002;0.022051425954315567
12:03.1;0.09037085234192033;-0.29687859423139273;-1.1392003631521994;1.176;0.030563802032939232
12:03.2;0.11788368260087069;-0.31988245426372924;-1.0844914090711404;1.045;0.04089500163767632
12:03.2;0.14747830525017872;-0.34756630597750166;-1.0205810875879266;1.026;0.05231344523515937
12:03.2;0.17708597335948573;-0.37897252574568374;-0.9504568763088486;1.082;0.06378584396566563
12:03.2;0.2048479508169548;-0.41243142994402615;-0.877415790890389;1.115;0.07412911648178999
12:03.2;0.22934064401022025;-0.44576269383410605;-0.804936649130659;1.0759999999999998;0.08228988368550703
12:03.2;0.24969703498872403;-0.47654409362357086;-0.7365239103305002;0.9690000000000001;0.08764019330654857
12:03.2;0.2656137743857099;-0.5023864933252578;-0.675500238853415;0.8540000000000001;0.09013927382658352
12:03.2;0.27726249886638765;-0.5211703257846955;-0.624759316868533;0.799;0.09027833783877823
12:03.2;0.28514310540305915;-0.531225984538645;-0.586524025366198;0.777;0.08884397713071038
12:03.2;0.2899199029714871;-0.5314574056847389;-0.5621661215246497;0.777;0.0866186006908769
12:03.3;0.29227227038211334;-0.521410158035963;-0.5521309845971835;0.762;0.08414130057201366
12:03.3;0.292777192399489;-0.5012830433597635;-0.5559873508506137;0.795;0.0815990621271606
12:03.3;0.29182946641181556;-0.4718860346298027;-0.5725940507500659;0.84;0.07885206970163403
12:03.3;0.28960015252588567;-0.4345560607645357;-0.6003458145841187;0.836;0.0755520207884607
12:03.3;0.28603301082250365;-0.39104638841925266;-0.6374412206236966;0.85;0.07129918750376628
12:03.3;0.28087863394055035;-0.3434026630419768;-0.6821206433364152;0.892;0.06579358573396225
12:03.3;0.2737641601542661;-0.2938345213967356;-0.7328413739256892;0.9179999999999999;0.05895075749701079
12:03.3;0.2642903512169624;-0.2445877329646919;-0.7883736492269876;0.9329999999999999;0.050962189644479974
12:03.3;0.2521379499215742;-0.1978174595253026;-0.8478138884081483;0.929;0.04228665807888857
12:03.3;0.2371587977945318;-0.15546349982510285;-0.9105255447400932;0.9540000000000001;0.03357065500579372
12:03.4;0.21943193964622093;-0.1191363621609664;-0.9760304308308184;0.9640000000000001;0.025515702811231854
12:03.4;0.19927910778948038;-0.09003122118040323;-1.0438791587794527;1.002;0.018728592399352702
12:03.4;0.177247089406563;-0.06888651798772397;-1.1135294743851258;1.081;0.01359612229423678
12:03.4;0.15406751781516181;-0.05599561665508992;-1.1842564219824054;1.1909999999999998;0.010216705288767025
12:03.4;0.13059718147612284;-0.05126881539847876;-1.25510522005629;1.305;0.008403635807263036
12:03.4;0.10773107363994666;-0.05433086636894715;-1.3248784849216064;1.357;0.007754676156925149
12:03.4;0.08627669947535006;-0.06462590192490632;-1.3921366415143444;1.3780000000000001;0.007762149523420616
12:03.4;0.0667922193788415;-0.08149455957582016;-1.4551961904302222;1.3719999999999999;0.007920927543734243
12:03.4;0.0494233697854646;-0.10419882435227132;-1.5121321831444234;1.445;0.007787264549380727
12:03.4;0.03380531823542396;-0.1318953863025959;-1.5608099543171101;1.578;0.0069592855884517335
12:03.5;0.019097362622341338;-0.16357932748924717;-1.5989659356042483;1.685;0.004995063626679793
12:03.5;0.004178752695207354;-0.19802828913870915;-1.6243275173125433;1.6680000000000001;0.0013441492893319733
12:03.5;-0.012031141440082254;-0.23377824449474052;-1.6347375778067286;1.56;0.0045978941759084735
12:03.5;-0.030223304488591157;-0.2691535435583168;-1.6282641433447758;1.5130000000000001;0.013245455797242574
12:03.5;-0.05043970490386242;-0.3023526002984532;-1.6033205772537489;1.604;0.024451562213110657
12:03.5;-0.072001944931367;-0.3315695776985471;-1.5588438935478497;1.706;0.03721530049403892
12:03.5;-0.09365845399745444;-0.3551258495489603;-1.4945433612409393;1.706;0.04970931632389812
12:03.5;-0.11389625272091336;-0.371590884640141;-1.4111681816474841;1.682;0.059724601850224344
12:03.5;-0.13131408658750993;-0.3798822726976695;-1.3107083095685759;1.601;0.06538323392079737
12:03.5;-0.14495824673127256;-0.3793412633472208;-1.1964548561055572;1.446;0.06579143068003965
12:03.6;-0.15455000746217487;-0.36977855672193544;-1.0728847310954983;1.246;0.06131458851113158
12:03.6;-0.16056281026651156;-0.35148186178103724;-0.9453759369118625;1.046;0.05335221110142789
12:03.6;-0.16414101337298118;-0.32518181848061894;-0.8197944674549799;0.8170000000000001;0.043757081599061415
12:03.6;-0.16688588533513543;-0.29198416731221966;-0.7020161108738109;0.609;0.03420786650979428
12:03.6;-0.17055835149761886;-0.2532864194739013;-0.5974554143858547;0.508;0.025810142108295218
12:03.6;-0.1767604753045843;-0.21070160015766554;-0.5106681639622006;0.433;0.019019179553741432
12:03.6;-0.18666004133505326;-0.16600400699000178;-0.4450721381463636;0.386;0.013791145384222284
12:03.6;-0.20081200258851628;-0.12109420709647088;-0.40280153468643315;0.40299999999999997;0.009794993487436529
12:03.6;-0.21910528398049406;-0.07796524978686474;-0.38468461818764405;0.465;0.006571412764358506
12:03.6;-0.2408286838876866;-0.038647412640222596;-0.3903152423821251;0.498;0.0036328222421936687
12:03.7;-0.2648178157503691;-0.005113828307551629;-0.4181793067493978;0.5;0.0005663121512657213
12:03.7;-0.28963092206510443;0.020856906131317597;-0.46580486744800453;0.518;0.0028138363509884745
12:03.7;-0.313710519528584;0.03784385561352945;-0.5299296272356414;0.5579999999999999;0.006291332804350407
12:03.7;-0.3355109220049756;0.04493407064714348;-0.6067070316094716;0.575;0.00914663722986067
12:03.7;-0.35359362739657685;0.04181255513815261;-0.6919813112639781;1.061;0.010230703598599103
12:03.7;-0.36670313508388763;0.0287595231316654;-0.7816293815501062;1.061;0.008243225486392978
12:03.7;-0.3738335669529554;0.006559500742105647;-0.8718983926705275;1.196;0.002138035722603335
12:03.7;-0.3742871785623891;-0.023641124754586903;-0.9596258639243886;1.197;0.008491316517927767
12:03.7;-0.3677156426993222;-0.060488870825255905;-1.042265032767114;1.161;0.0231827926255475
12:03.7;-0.35412879810316217;-0.10257226989632938;-1.117716961356983;1.0270000000000001;0.04059972138908915
12:03.8;-0.33386090873913793;-0.1485668498270824;-1.1840405070615094;0.992;0.0587291947513954
12:03.8;-0.30750288704378576;-0.19737077901006464;-1.2391568130155615;1.054;0.07520700983536423
12:03.8;-0.27582363457176867;-0.24819662592794348;-1.2806757178348531;1.176;0.08767313280474973
12:03.8;-0.23969460160223843;-0.3005761027268537;-1.3059330222784375;1.324;0.09408786325935904
12:03.8;-0.20000716389364992;-0.35427458362406433;-1.3122507077839916;1.4880000000000002;0.0929827450953014
12:03.8;-0.1575682989152941;-0.4091592897594188;-1.297353558710585;1.4880000000000002;0.08364107577341232
12:03.8;-0.11298923143961984;-0.46506658061681866;-1.2598326455218527;1.4880000000000002;0.06620107548326792
12:03.8;-0.06660533676939581;-0.5216874335687574;-1.1995515528807181;1.482;0.04168101837441608
12:03.8;-0.018452580140826545;-0.5784814104406288;-1.1179243113395076;1.419;0.011933254650615014
12:03.8;0.031697664561664604;-0.6346339060871325;-1.0180253212341703;1.319;0.020479017475147843
12:03.9;0.08424861233408655;-0.689064576588364;-0.9045150751782108;1.215;0.052509573407584255
12:03.9;0.1396363170485398;-0.7404799981415494;-0.7833903859077138;1.11;0.081000920617435
12:03.9;0.1981527222650727;-0.7874532790342416;-0.6615941205323472;1.018;0.10323250740090406
12:03.9;0.259768780654188;-0.8285100934974011;-0.5465390384382282;0.987;0.11762670940644193
12:03.9;0.3240006393931031;-0.8622042480653933;-0.44560764004814807;0.9740000000000001;0.1244826009291496
12:03.9;0.3898490916257453;-0.8871749413975828;-0.36568403406313854;0.9740000000000001;0.1264770689244113
12:03.9;0.45581681640257266;-0.9021885891940492;-0.3127559664541699;1.0190000000000001;0.1286154900717326
12:03.9;0.5199893427800538;-0.9061764637112242;-0.29159758888567466;1.082;0.1374013973482564
12:03.9;0.580158764342319;-0.8982814457369578;-0.30551657234747476;1.136;0.15921869488203344
12:03.9;0.633962759946434;-0.8779214686166105;-0.3561397194385207;1.1520000000000001;0.1982165117251564
12:04.0;0.679009032860463;-0.8448672523344092;-0.4432252996170911;1.14;0.25426616387872
12:04.0;0.7129698230836904;-0.7993225622742917;-0.5645186617734861;1.138;0.32171515796216704
12:04.0;0.7336565923233158;-0.7419889317902659;-0.7156973709817737;1.13;0.38960065033996066
12:04.0;0.7391022413622186;-0.6740941382672324;-0.8904735391611529;1.137;0.44365572355571764
12:04.0;0.7276781769629846;-0.5973682383184287;-1.080916882258555;1.71;0.4698657383134036
12:04.0;0.69825975622657;-0.5139712869903734;-1.2779965226927144;1.71;0.45865437703236706
12:04.0;0.6504332466188463;-0.4264062066103568;-1.4722267153456001;1.71;0.4083202735853698
12:04.0;0.5847180704299926;-0.33745289572358683;-1.6542618166931289;1.71;0.3264103495142592
12:04.0;0.5027641262687963;-0.2501198674528315;-1.8153860802503903;1.9569999999999999;0.22828715346172465
12:04.0;0.4074729040854078;-0.16757026826536037;-1.94795989278556;2.209;0.13300737128240195
12:04.1;0.3029821510432511;-0.09298411376865195;-2.0458801385292444;2.334;0.057637613037369584
12:04.1;0.19445638965618436;-0.029356218438913756;-2.105024756905639;2.412;0.012016542774496946
12:04.1;0.08765311193435907;0.020738039037078174;-2.1235899504195683;2.439;0.0038601633983778535
12:04.1;-0.011710940281134013;0.05536777939096484;-2.102227678035227;2.454;0.0013631028376357693
12:04.1;-0.09870342487810778;0.07343314118974044;-2.043923703571156;2.094;0.014814568577170081
12:04.1;-0.16988175970866048;0.07479971863584205;-1.953611242242406;2.094;0.024824748708326315
12:04.1;-0.22378106587575325;0.060366933983651866;-1.837587084175562;1.7830000000000001;0.024823921344177324
12:04.1;-0.2610385460289641;0.03204915221027293;-1.7028450774861668;1.585;0.014246111061134924
12:04.1;-0.28411310461766526;-0.007341158791256811;-1.556439105367637;1.3659999999999999;0.003246295261381481
12:04.1;-0.29667886999841847;-0.05429941703605928;-1.4049598486751171;1.216;0.02263318619404832
12:04.2;-0.3028498699122656;-0.10490535447817254;-1.2541789416198306;1.167;0.039845983565633424
12:04.2;-0.30642081055320625;-0.15514064913055314;-1.1088762295838295;1.149;0.0527141168749969
12:04.2;-0.31028876204132744;-0.20120054376112545;-0.9728216393064373;1.131;0.060733515313411555
12:04.2;-0.3161579219780033;-0.23974645067814288;-0.8488445100172272;1.072;0.0643404951719229
12:04.2;-0.32454439674062524;-0.2680668563475155;-0.7389085713726666;0.762;0.06428474732296388
12:04.2;-0.3350147516101971;-0.2841489965949955;-0.64414240253345;0.762;0.061318559833170874
12:04.2;-0.3465385469840278;-0.2866923959217304;-0.5648410180563627;0.762;0.056116936116713714
12:04.2;-0.35783788628737645;-0.2751028852444926;-0.5004911537621082;0.665;0.04926946775777856
12:04.2;-0.36766774922709433;-0.24949247877251565;-0.4498512637632504;0.617;0.04126500852843311
12:04.2;-0.3750136848456144;-0.21068895014660965;-0.41108894445323774;0.593;0.03248064706685316
12:04.3;-0.3792178796072928;-0.16024184355726406;-0.3819808002072873;0.569;0.023211663851184085
12:04.3;-0.3800472704042039;-0.10040508806012353;-0.3601845776458643;0.596;0.013744167913959167
12:04.3;-0.37771329083389216;-0.03407883026225036;-0.34357578190584825;0.645;0.004422516784571416
12:04.3;-0.37284921986128533;0.03530288762708903;-0.33060971457646526;0.6629999999999999;0.004351701318577763
12:04.3;-0.36645116259053767;0.10394797663403955;-0.32064241606789795;0.67;0.012213865024592851
12:04.3;-0.3597914768987395;0.16793941203520882;-0.31413721229401265;0.67;0.01898116589453703
12:04.3;-0.3543132411869034;0.22349290048469167;-0.3127033616012151;0.67;0.024761882852515252
12:04.3;-0.351508752097117;0.2671992010317999;-0.31894521877669524;0.601;0.029956246402373102
12:04.3;-0.35277988299009827;0.29623493027849646;-0.3361326524589451;0.536;0.03512778621912048
12:04.3;-0.35928095590886877;0.30854608730404287;-0.3677422580813593;0.506;0.04076596990175949
12:04.4;-0.37175751255099715;0.3030022916444845;-0.41695960001936055;0.518;0.04696773793536521
12:04.4;-0.39040964951391505;0.27950415693559183;-0.4862477447841893;0.619;0.0530598984825084
12:04.4;-0.4148127410403423;0.2390184622352499;-0.5770571295708977;0.835;0.05721400458459391
12:04.4;-0.4439149215391106;0.18351418710866627;-0.6896821754428554;1.1079999999999999;0.056184741842701634
12:04.4;-0.47610677074696556;0.11577961055071465;-0.8231906283138476;1.061;0.045377112789125006
12:04.4;-0.5093354987550507;0.03913288548105147;-0.9753169715678283;1.061;0.019439791354281713
12:04.4;-0.5412242858912057;-0.04291055910271778;-1.1422621950084995;1.061;0.026528167598975375
12:04.4;-0.569166833523841;-0.1269343155695513;-1.3184463698139017;1.061;0.09525353443172531
12:04.4;-0.590393600470441;-0.20984825703334042;-1.4963437738510748;1.079;0.18538662095856667
12:04.4;-0.602031598191484;-0.28906473174920005;-1.6665607622456913;1.3430000000000002;0.29002507392599275
12:04.5;-0.6011906293729564;-0.3626352530141367;-1.8182962264514757;1.8419999999999999;0.39641206246664557
12:04.5;-0.585100812012534;-0.4293235934100583;-1.940237874434723;2.378;0.487383064736595
12:04.5;-0.5513020007729773;-0.48858972849866583;-2.0217944546782673;2.694;0.5445915548546243
12:04.5;-0.49786302832952556;-0.5404962642261188;-2.054414828955966;2.7489999999999997;0.5528288692024727
12:04.5;-0.4236051264396517;-0.5855772561037443;-2.032700342044;2.428;0.5042184904221554
12:04.5;-0.3283137855437653;-0.6247008423347329;-1.955110230763059;2.428;0.40098899942936195
12:04.5;-0.21292567975543938;-0.6589302058569547;-1.8242111983151466;2.428;0.255942599267537
12:04.5;-0.07966027546293895;-0.6893748803357267;-1.646509330239226;2.0709999999999997;0.09041936532933605
12:04.5;0.0679561151917009;-0.717035386221948;-1.4319007777058756;1.631;0.06977214228265494
12:04.5;0.22522092690984077;-0.7426599995724673;-1.1927808344700053;1.239;0.19950759197414406
12:04.6;0.38654620443111226;-0.7666372663200431;-0.9429153354624814;1.016;0.2794242145691135
12:04.6;0.5458672428642544;-0.7889431882540735;-0.6962485871118984;0.993;0.2998451931811846
12:04.6;0.697105064560462;-0.8091518262231413;-0.46583565199068994;1.105;0.2627610448346803
12:04.6;0.83462776856191;-0.8265034562494386;-0.26304138266173815;1.246;0.18145192611063832
12:04.6;0.9536723016631712;-0.8400108605740512;-0.09706979785009079;1.514;0.07776213852515243
12:04.6;1.0506866003158946;-0.8485801871515535;0.025196004031296813;1.514;0.022464551391672596
12:04.6;1.1235370868496162;-0.8511302529057964;0.09912366702142036;1.514;0.0947896239377022
12:04.6;1.1715353739752146;-0.8467058768910003;0.12213671379725559;1.515;0.12115301079668718
12:04.6;1.1952826435133723;-0.8345869309215582;0.09349844895810835;1.516;0.09327099276001441
12:04.6;1.1963727994635314;-0.8143908764919413;0.014160398369179695;1.484;0.013796689850673985
12:04.7;1.1770092401398355;-0.7861555038333303;-0.11327193130329213;1.393;0.1048119103960136
12:04.7;1.1395898186123108;-0.7503796777796252;-0.28445865001995785;1.262;0.24324771473018547
12:04.7;1.0863187096418427;-0.7080027956522413;-0.4932047862860841;1.136;0.37933202946326766
12:04.7;1.0189104939793345;-0.6603181207786585;-0.731432307925897;1.087;0.4921113597408277
12:04.7;0.9384479700949205;-0.6088332742578489;-0.9893780394630873;1.6580000000000001;0.5652894045036317
12:04.7;0.8454316949308769;-0.5551098725865556;-1.2560532540275389;1.6580000000000001;0.5894751879633541
12:04.7;0.7400193347361463;-0.5006287328617346;-1.5198539687031913;1.6580000000000001;0.5630678106638616
12:04.7;0.6224102500031707;-0.4467203373544721;-1.7691660907865159;1.8730000000000002;0.49190480794843455
12:04.7;0.4932984213902573;-0.39456906546694603;-1.992915253555997;2.174;0.38790161709563625
12:04.7;0.3542979662658836;-0.3452677206683924;-2.181111611114446;2.475;0.2668102605018833
12:04.8;0.2082371101530471;-0.29988200827666606;-2.325416759737897;2.6689999999999996;0.14521428370087947
12:04.8;0.059225340008977105;-0.25948261792099386;-2.4196780581679564;2.778;0.03718548239537486
12:04.8;-0.08756140980288006;-0.2251197985811162;-2.4603301150841146;2.713;0.0484975522330307
12:04.8;-0.226367596871766;-0.1977436529723879;-2.446576603326728;2.585;0.10951551035567587
12:04.8;-0.3515426787784026;-0.17808516243764955;-2.3803240448794423;2.45;0.14901908010757767
12:04.8;-0.45829549878033804;-0.16650695567405818;-2.2659124269148716;2.45;0.17291039124159463
12:04.8;-0.5433523517579442;-0.16283956381411263;-2.1097278645421076;2.392;0.18666716016668924
12:04.8;-0.6053620370307788;-0.166243516493257;-1.9197611898727727;2.215;0.193199993214563
12:04.8;-0.644959903358954;-0.17515412882120526;-1.7051246054263176;1.844;0.1926234762954366
12:04.8;-0.6644934206213259;-0.1873572749316007;-1.4755183342215334;1.4509999999999998;0.18369860424017467
12:04.9;-0.6674950426654221;-0.20020683006550094;-1.2406680748420498;1.217;0.16579924211698086
12:04.9;-0.6580496104181799;-0.2109383892605073;-1.009790883556557;1.085;0.14016697710429477
12:04.9;-0.6402128345450897;-0.21699456492077698;-0.7911471608898729;0.94;0.1099083040306113
12:04.9;-0.6175867398846197;-0.21628335113815933;-0.591698785414194;0.797;0.07903541363900347
12:04.9;-0.5930862660420542;-0.20733217528273398;-0.41685882800288476;0.602;0.0512594066470617
12:04.9;-0.5688768735317971;-0.18934463065460386;-0.27032561589754217;0.602;0.029117794326485456
12:04.9;-0.5464343613882693;-0.1621925439563587;-0.15402896436306288;0.602;0.013651214234905394
12:04.9;-0.5266721748818827;-0.12637551548549514;-0.06822041886474277;0.557;0.004540646538160176
12:04.9;-0.5100940689974528;-0.0829607530842084;-0.011697287497265585;0.539;0.0004950033337455002
12:04.9;-0.4969485484852595;-0.03349943519919159;0.017883441717788492;0.5379999999999999;0.00029771451905005443
12:05.0;-0.48737226996538874;0.020083981517181156;0.023641359849980906;0.547;0.00023141051137146311
12:05.0;-0.4815101345644972;0.07562337574671008;0.009087228627056517;0.557;0.00033089708928101604
12:05.0;-0.47959722697254537;0.13084978936203662;-0.022256622732496276;0.591;0.0013967187247241378
12:05.0;-0.48198889925598565;0.1835200735197556;-0.06719977822504876;0.64;0.005944132071842379
12:05.0;-0.48913122414742655;0.23151701168900765;-0.1231558978476668;0.67;0.01394644473376491
12:05.0;-0.5014727851406257;0.27290765940341655;-0.18830128868927293;0.67;0.025770116734650465
12:05.0;-0.5193282763762688;0.3059597582150756;-0.26158233048396634;0.67;0.041563746121328245
12:05.0;-0.5427117036069014;0.32913199788989594;-0.34256284807155063;0.638;0.061189873306145226
12:05.0;-0.5711617443722025;0.3410637123657668;-0.43114639596456816;0.612;0.08398841515702031
12:05.0;-0.6035885878295308;0.3405881661968274;-0.5272474412240247;0.619;0.1083889614121456
12:05.1;-0.6381806081106967;0.3267831004301861;-0.630505186845329;0.715;0.13148973680231638
12:05.1;-0.6724108797044674;0.299058936251867;-0.7401262576996823;0.895;0.14883234620410102
12:05.1;-0.7031691156808166;0.257274080933715;-0.8549027597591764;1.195;0.15465805426245505
12:05.1;-0.7270175003238363;0.20185996413663007;-0.9733827849798374;1.554;0.14284949781326153
12:05.1;-0.7405396724562305;0.13393451441673718;-1.0940910633343994;1.65;0.1085161326613083
12:05.1;-0.7407276971813894;0.05538017285669014;-1.2156535116884395;1.65;0.04986808602353447
12:05.1;-0.7253378652982614;-0.03114086510464135;-1.3367137290361137;1.65;0.030193220015048268
12:05.1;-0.6931517535842106;-0.12226945723959619;-1.455627031019682;1.479;0.12336626673879995
12:05.1;-0.6441046818657108;-0.21416945356390393;-1.5700182522582895;1.38;0.2165801678266884
12:05.1;-0.5792745120787601;-0.3028986390461362;-1.6763566904661915;1.4269999999999998;0.2941359946409292
12:05.2;-0.5007441106337309;-0.3848866920347766;-1.7697257785094627;1.597;0.3410787967691996
12:05.2;-0.4113583132503592;-0.4574213690957005;-1.8439326052391876;1.817;0.3469618874760016
12:05.2;-0.3144015175846943;-0.5190264780843478;-1.8920140367270268;2.094;0.30874398236725853
12:05.2;-0.2132345918675612;-0.5696373725333709;-1.907083213769371;2.329;0.23164651844975667
12:05.2;-0.11094415123522737;-0.6105287468293649;-1.8833630637902643;2.314;0.12756883176793626
12:05.2;-0.010063240805550235;-0.6440116513258305;-1.8172065305382197;2.314;0.01177703263782758
12:05.2;0.08758607200835325;-0.672971407666666;-1.7079194269228668;2.314;0.10066976185623133
12:05.2;0.18090833498695136;-0.7003408809399483;-1.5582533486185979;2.123;0.1974268078347587
12:05.2;0.2694323385482421;-0.7285936616665846;-1.3744849266841421;1.811;0.2698205920672375
12:05.2;0.35313800927616074;-0.759326382698901;-1.1660464627239429;1.4469999999999998;0.31267186920893686
12:05.3;0.4322499663020042;-0.7929898492463211;-0.9447439113384591;1.1159999999999999;0.3238297151873341
12:05.3;0.5070169540420135;-0.8288093096983576;-0.7236799632623375;0.958;0.3041050631430325
12:05.3;0.577494252618372;-0.8649008223360134;-0.5160552903127461;0.94;0.2577568471987206
12:05.3;0.6433595414311399;-0.8985569074894458;-0.3340288982351183;1.021;0.19310048935388552
12:05.3;0.7038044843438646;-0.9266491130173503;-0.187787697772492;1.317;0.12247134339259573
12:05.3;0.7575315534159304;-0.9460778236262538;-0.08492361909944142;1.317;0.06086338233331827
12:05.3;0.8028466436816684;-0.9541938903082324;-0.03015400690359044;1.317;0.023100121146095835
12:05.3;0.8378106226674493;-0.9491303738529436;-0.02535946364338561;1.393;0.020165630174955977
12:05.3;0.860420057898695;-0.9300109236616951;-0.06986725915370623;1.429;0.05590778446262823
12:05.3;0.8687981670247518;-0.8970244567834468;-0.16087913837809786;1.403;0.12537845434158593
12:05.4;0.8613702244046584;-0.8513682330685319;-0.29392953380978926;1.331;0.21555123841029597
12:05.4;0.8369961456934903;-0.795075392849577;-0.46327846492183034;1.249;0.3083002546742488
12:05.4;0.7950507976082569;-0.7307610125074641;-0.6621977189877336;1.19;0.38473166049106605
12:05.4;0.7354642965265636;-0.6613316776469412;-0.8831739003277517;1.187;0.4295632767904735
12:05.4;0.6587459839185524;-0.5897030960957698;-1.118088254271886;1.5519999999999998;0.43433764637148403
12:05.4;0.5660162701163894;-0.5185655324614846;-1.3584126267099077;1.5519999999999998;0.39871655845535264
12:05.4;0.4590602272780374;-0.45022953144415123;-1.5954077008094845;1.5519999999999998;0.329742805906844
12:05.4;0.3403916987751282;-0.38656473346472936;-1.8203034234898054;1.7619999999999998;0.239521761387729
12:05.4;0.2132869870498528;-0.3290154811086255;-2.0245001946332004;2.037;0.14206873563129466
12:05.4;0.08173889621440436;-0.2786603243390389;-2.1998587814593153;2.2640000000000002;0.05010703553708673
12:05.5;-0.04969886586757744;-0.23628624332567855;-2.3390951868231338;2.4419999999999997;0.027468365088968206
12:05.5;-0.17618243410082435;-0.20245702729866677;-2.4362301231945134;2.573;0.08689879822584251
12:05.5;-0.2929544580809466;-0.17755487459490207;-2.4870204863035332;2.784;0.1293635943747433
12:05.5;-0.3958024994274373;-0.16176571898011585;-2.4893040204827823;2.912;0.1593833553035102
12:05.5;-0.48154107803733853;-0.1549830572193605;-2.443189659078844;2.654;0.1823369751370485
12:05.5;-0.5484109513751052;-0.15664443877947717;-2.3510413988411405;2.654;0.20196744730679053
12:05.5;-0.5962693069360663;-0.16556729007899615;-2.217252332872496;2.372;0.21889312204170477
12:05.5;-0.6264914642039796;-0.1798667297378671;-2.0478568396326042;2.064;0.230762688330288
12:05.5;-0.64159838281739;-0.19700891550138838;-1.8500512203214698;1.8;0.2338475872140997
12:05.5;-0.6447079073025953;-0.2140097929166107;-1.6316972709554058;1.631;0.225131482278732
12:05.6;-0.6389464841065319;-0.22774819280663727;-1.4008733577661863;1.5030000000000001;0.2038535599451882
12:05.6;-0.6269501903404364;-0.235327679265986;-1.1655015284938963;1.3259999999999998;0.17195661918274072
12:05.6;-0.6105409218898886;-0.23440715210671412;-0.9330345043541087;1.1079999999999999;0.13353138120502953
12:05.6;-0.5906071968910418;-0.22343624052607353;-0.7101669824120678;0.889;0.09371580221637044
12:05.6;-0.5671747078944084;-0.20176686005227804;-0.5025549958218944;0.585;0.05751091616640879
12:05.6;-0.5396277930485033;-0.16964873134194924;-0.3145786316197746;0.585;0.028798783620630826
12:05.6;-0.5070311541864825;-0.12814123391047222;-0.14923261235137447;0.585;0.009695881257667691
12:05.6;-0.4684975582560364;-0.07897544214323148;-0.008215444904685818;0.574;0.0003039698332239099
12:05.6;-0.4235512033226432;-0.02438378174177188;0.10779454016023728;0.5820000000000001;0.001113278306570593
12:05.6;-0.37243982559187805;0.033093544133425724;0.1987590156780313;0.573;0.0024497751902189816
12:05.7;-0.3163482792539784;0.0908081010161173;0.2648862803954844;0.514;0.0076093846006305265
12:05.7;-0.2574715325188162;0.1461868037724455;0.3062940592263187;0.475;0.011528583840497483
12:05.7;-0.19892173675050417;0.1968846392998751;0.3227844072316698;0.441;0.012641733295707384
12:05.7;-0.14446695945619192;0.24089805490039218;0.313775930948132;0.374;0.010919970184071563
12:05.7;-0.09812538910781031;0.2766323510692011;0.27841381433241424;0.42700000000000005;0.007557447518747381
12:05.7;-0.06367338676059969;0.30292159951179093;0.21583944442688238;0.42700000000000005;0.004163120736407365
12:05.7;-0.04415846960464571;0.319008451546777;0.12556316360611064;0.42700000000000005;0.0017687988698950282
12:05.7;-0.04150800685703084;0.32449715723532235;0.007860381266822444;0.415;0.00010587328495963034
12:05.7;-0.056287185692263764;0.3192948490352025;-0.13589400419764697;0.335;0.0024423153716633906
12:05.7;-0.08762376461577069;0.30355616370854477;-0.3030303438881827;0.262;0.008060223461453889
12:05.8;-0.13330205479467425;0.27764620196978923;-0.4895844731808569;0.465;0.018119917538137284
12:05.8;-0.19001414951510573;0.2421342028575818;-0.6905088998577633;0.858;0.03176957192610328
12:05.8;-0.25372788138614216;0.19781831443526546;-0.9000511223442813;1.278;0.04517538557275356
12:05.8;-0.32010012211507416;0.14576102353550716;-1.1121931314559863;1.555;0.05189284218479345
12:05.8;-0.3848516622757864;0.0873009876525593;-1.3210118862335907;1.5630000000000002;0.044383265168718176
12:05.8;-0.44403949490420713;0.0240168147219377;-1.5208478939889203;1.5630000000000002;0.016218951995834414
12:05.8;-0.49420845420048604;-0.04235622802247335;-1.706260295755254;1.5630000000000002;0.03571681571687657
12:05.8;-0.5324507456091307;-0.11004421016428846;-1.8718545907570927;1.6119999999999999;0.10967780393816429
12:05.8;-0.5564233135401946;-0.17738230296030189;-2.012132737859385;1.829;0.19859679451854306
12:05.8;-0.5643635142335895;-0.24298299107992963;-2.121507879481414;2.124;0.29092393428029206
12:05.9;-0.5551141004580821;-0.30589237136743636;-2.1945568467815333;2.375;0.37264709530116624
12:05.9;-0.5281401836337367;-0.36569137734799567;-2.2264857351319596;2.481;0.43001524179129
12:05.9;-0.48351455427955536;-0.4225151064252943;-2.213705911466481;2.4659999999999997;0.4522428582436702
12:05.9;-0.42186615423574203;-0.47698848670405086;-2.1543970032134543;2.432;0.4335191800603485
12:05.9;-0.34431433111384024;-0.5300871845604499;-2.0489642178962004;2.292;0.3739700120442727
12:05.9;-0.2524282044748176;-0.5829275266277664;-1.9003412483047435;2.292;0.2796301766659824
12:05.9;-0.14823879738437587;-0.6364901027611686;-1.714111789321314;2.123;0.1617307795349602
12:05.9;-0.034292790491763044;-0.6913041327978594;-1.498415719055835;1.8659999999999999;0.0355225635394152
12:05.9;0.08630268998197452;-0.747152160028823;-1.2635974319688588;1.5219999999999998;0.08147833083639122
12:05.9;0.2099055542029465;-0.8028737957975226;-1.0215776299155375;1.168;0.17216409673544816
12:06.0;0.3324718307597548;-0.8563386114679524;-0.7849878072177633;1.002;0.22349267434711223
12:06.0;0.4497920057496343;-0.9046211278340397;-0.5661709162405777;1.082;0.2303700493072219
12:06.0;0.5577888846594646;-0.9443555962255169;-0.376195343154381;1.244;0.19816129379505515
12:06.0;0.6528174428878356;-0.972196321479949;-0.22403819278840473;1.3780000000000001;0.14218958420407773
12:06.0;0.7319125711230738;-0.9852856047768778;-0.11606210859687296;1.421;0.08369736792772814
12:06.0;0.7929496984680383;-0.9816445498199177;-0.05583669954462353;1.421;0.04346299377071769
12:06.0;0.8347045343951507;-0.9604358107315667;-0.04426211186780303;1.421;0.03548405542863963
12:06.0;0.8568191253593673;-0.9220773312709009;-0.07989024562054427;1.3719999999999999;0.0631175675686532
12:06.0;0.8596990612126963;-0.8682029574198641;-0.15933667346486505;1.3019999999999998;0.11892782032981465
12:06.0;0.8443718869753907;-0.8014800460140947;-0.277700709481284;1.227;0.1879331828074782
12:06.1;0.8123282068239606;-0.7253145101450649;-0.4289332734214101;1.147;0.25272466892862006
12:06.1;0.7653549162962229;-0.6434919159550767;-0.6061262306421404;1.061;0.2985169876462658
12:06.1;0.7053647714927015;-0.5598083346039614;-0.8017474147519137;1.025;0.316585262466109
12:06.1;0.6342320343566121;-0.4777377193829568;-1.0078842907619627;1.091;0.30538547867662647
12:06.1;0.5536578506700951;-0.40017207829960033;-1.2165540641103705;1.68;0.269537787492629
12:06.1;0.46510376865697134;-0.32926323459728;-1.420073615950948;1.68;0.21747230489615904
12:06.1;0.369833880128751;-0.2663876825138781;-1.6113974358606915;1.68;0.15875357054001887
12:06.1;0.2690802167423521;-0.21223702723174726;-1.7843203270399657;1.8319999999999999;0.10190036644242297
12:06.1;0.16429572735682735;-0.167002972897621;-1.9335293896838732;1.9040000000000001;0.05305193751535657
12:06.1;0.057413266805797496;-0.13059567681329548;-2.054577828713539;1.935;0.015405069308736795
12:06.2;-0.048987127547600234;-0.10282964352840221;-2.143870106064281;2.029;0.010799378764229471
12:06.2;-0.15168628270125592;-0.08353374538526215;-2.198722368422685;2.23;0.027859842526983626
12:06.2;-0.24705824119145822;-0.07256813633069249;-2.217520839188029;2.455;0.03975694683128556
12:06.2;-0.3315204424636061;-0.06974557994788749;-2.1999382948688933;2.6;0.05086716140193111
12:06.2;-0.4021178789162305;-0.0746745946814659;-2.1471074776883925;2.425;0.06447332105786158
12:06.2;-0.45708372379516604;-0.08657703741803513;-2.0616419735266316;2.425;0.08158526433978852
12:06.2;-0.49619809984275437;-0.10415696356571923;-1.9474526234399845;2.048;0.10064919568608359
12:06.2;-0.5208274392744837;-0.1255832386549915;-1.8093852806639465;1.694;0.11834681878563097
12:06.2;-0.5336424891347904;-0.14860079340041293;-1.6527651370337626;1.494;0.13106377503775027
12:06.2;-0.5381183551750885;-0.17073385928944765;-1.482964406526125;1.421;0.13624738974897893
12:06.3;-0.5379652834424882;-0.18951672074492742;-1.3050940214989615;1.376;0.13305879420542313
12:06.3;-0.5366192352270577;-0.20269207551172586;-1.1238512849680515;1.284;0.12223958089362295
12:06.3;-0.5368642480125799;-0.2083442235617798;-0.9434799756622815;1.1320000000000001;0.10553065521929564
12:06.3;-0.5406006575139768;-0.2049666796114586;-0.7677670253689144;0.935;0.08507251873423782
12:06.3;-0.5487402956664774;-0.19148601148146224;-0.6000202973025109;0.632;0.06304778709499594
12:06.3;-0.5612049951221981;-0.1672704414914793;-0.4430249040389339;0.632;0.04158808005151059
12:06.3;-0.5770146168724991;-0.13214721271519006;-0.29902148735584133;0.568;0.02280064955101973
12:06.3;-0.5944602161953823;-0.08644149315826176;-0.16974992983382556;0.5820000000000001;0.008722774768150197
12:06.3;-0.6113577179271369;-0.03103455059166201;-0.056564281868874695;0.635;0.0010732061130312475
12:06.3;-0.6253655542802504;0.03257570252619952;0.03940596455076445;0.7190000000000001;0.0008027673654664104
12:06.4;-0.6343304537665773;0.10223819101765413;0.1170823135805724;0.816;0.00759311564378059
12:06.4;-0.6366059583912381;0.17516418620670227;0.1752895480277907;0.867;0.01954663647535749
12:06.4;-0.6312766397164155;0.24801762196018962;0.2126736154475342;0.8590000000000001;0.03329782541024927
12:06.4;-0.6182280006010629;0.3170934563690006;0.22771488916988927;0.8;0.04464032820395387
12:06.4;-0.5980363708015307;0.37858190485932663;0.218843488637899;0.7340000000000001;0.04954742383479648
12:06.4;-0.5717124072699162;0.42889041263417743;0.18463443221321055;0.7340000000000001;0.045272726556898436
12:06.4;-0.5403887098051622;0.4649668330890819;0.12403762547429277;0.7340000000000001;0.031166044435404286
12:06.4;-0.5050530346360782;0.4845636140240567;0.03658965217647665;0.7020000000000001;0.008954597422576108
12:06.4;-0.46638837957405954;0.4864117095898714;-0.07743955301211955;0.674;0.017567686792344935
12:06.4;-0.4247363865949603;0.4703017252292579;-0.2169938918973903;0.696;0.04334545329867684
12:06.5;-0.3801793237566122;0.43707520430503044;-0.3802710464815102;0.805;0.06318848209797803
12:06.5;-0.33271939556237035;0.38852496909210393;-0.5648193069812151;1.0;0.07301407482651291
12:06.5;-0.282506655173142;0.32720557633216424;-0.7676263568788618;1.182;0.07095765551481137
12:06.5;-0.23004115191588745;0.2561619902294947;-0.9851219375946513;1.2;0.05805106783392327
12:06.5;-0.17627403199376038;0.17859601873127268;-1.2130357232462787;1.133;0.03818859694144589
12:06.5;-0.12257238250849462;0.09751485246247389;-1.446115213598766;1.133;0.017284876898698127
12:06.5;-0.07057715680860735;0.015437175836205255;-1.6777964903983442;1.133;0.0018279793757438258
12:06.5;-0.02201618712911419;-0.06576943374249329;-1.8999905535737833;1.43;0.00275117142688505
12:06.5;0.02149283368303971;-0.1448975321729667;-2.103159446951542;1.861;0.006549782310874533
12:06.5;0.0586552284611082;-0.22129186011407664;-2.276786714585583;2.275;0.029552519911955854
12:06.6;0.08873548657465147;-0.2946878645014628;-2.4102184646520106;2.589;0.06302545590787824
12:06.6;0.11178786766954618;-0.3650562016665441;-2.493736422669767;2.801;0.10176652649455083
12:06.6;0.1288110330765723;-0.4324869523334858;-2.5196796886707986;2.955;0.1403690653749548
12:06.6;0.14174236779640584;-0.497109421093498;-2.483447904222902;3.037;0.17498738105878994
12:06.6;0.1532430272521199;-0.5590180146283883;-2.3842523314041713;2.818;0.20424843715907545
12:06.6;0.16630194898718306;-0.6181816539521985;-2.2255140093911114;2.818;0.22879355352361136
12:06.6;0.18376075533336567;-0.6743440815728;-2.0148434766056527;2.494;0.2496753291730675
12:06.6;0.20788095692752165;-0.726946233135142;-1.7635733501383082;2.085;0.2665081688206845
12:06.6;0.2400381347105849;-0.7751020764165691;-1.4858606924351436;1.6030000000000002;0.2764504094195739
12:06.6;0.2805769660344293;-0.8176448764902664;-1.197446626089665;1.185;0.2747090070577033
12:06.7;0.32882365315223966;-0.8532474636667001;-0.9142411693687423;1.015;0.2565067689087508
12:06.7;0.3832259613365342;-0.8806063916918276;-0.6509525962679441;1.056;0.2196777739950818
12:06.7;0.44157423093558973;-0.8986583542080593;-0.41997833194108514;1.1320000000000001;0.16665763767210853
12:06.7;0.5012566662619284;-0.9067772159422166;-0.2307158081079869;1.1520000000000001;0.10486682350694364
12:06.7;0.5595156512577351;-0.9049005155107858;-0.08935128285465897;1.156;0.0452390907295469
12:06.7;0.6136802441918799;-0.8935615359680904;0.0009301872820049496;1.156;0.0005100784854408847
12:06.7;0.6613457429269959;-0.8738401403954247;0.03946252526228518;1.156;0.022805806002752
12:06.7;0.7004739342482222;-0.8472634700581934;0.027523283962673534;1.1740000000000002;0.016334683051270237
12:06.7;0.7294093120459372;-0.8156773265021218;-0.03219062037409694;1.1540000000000001;0.019152216402960543
12:06.7;0.746827712984333;-0.7810927460152338;-0.13594885465093579;1.103;0.07930463722705107
12:06.8;0.7516404512617882;-0.7455101162623146;-0.27919730221800915;1.036;0.1564497606928327
12:06.8;0.742879844520215;-0.7107325628710471;-0.4566028462197178;0.963;0.2410812325951871
12:06.8;0.7195984952582751;-0.6781906021455438;-0.6619974345413664;0.9470000000000001;0.3230712561552933
12:06.8;0.6808180737120172;-0.6488039678076789;-0.8883271987385104;0.9640000000000001;0.3923896406087994
12:06.8;0.6255575683642931;-0.6229015641036151;-1.1277203878277378;1.66;0.4394284147063427
12:06.8;0.552959716802477;-0.6002113455964337;-1.3717249724248635;1.66;0.45526549883327977
12:06.8;0.46252233372986595;-0.579924384720091;-1.6116492394250619;1.66;0.43228941964942824
12:06.8;0.3544219221204722;-0.560830774245302;-1.8388884406293502;1.9609999999999999;0.3655171811683621
12:06.8;0.2298842846015172;-0.5415173975981458;-2.0451951722653496;2.184;0.2545988606527201
12:06.8;0.09152073944987521;-0.5206081171682909;-2.2229306838979443;2.376;0.10591473311405888
12:06.9;-0.056475788769054514;-0.4970114147966814;-2.365328333450462;2.454;0.06639266514644242
12:06.9;-0.20838050483221865;-0.47012201385415403;-2.4667669171888287;2.596;0.24165500199832432
12:06.9;-0.35730340025315915;-0.4399167920502724;-2.5230422488668234;2.7510000000000003;0.396581281515486
12:06.9;-0.49587642206045296;-0.4068998819072565;-2.5316153274247566;2.946;0.5108092336079414
12:06.9;-0.6171743189539596;-0.37188804449550295;-2.4917899748538384;2.761;0.5719150135477062
12:06.9;-0.7156829718355382;-0.3356863984716126;-2.404769062913834;2.761;0.5777338379380191
12:06.9;-0.7880669821505111;-0.2987601030133115;-2.273580755688831;2.761;0.5352986119490317
12:06.9;-0.8335277213373954;-0.261010351394917;-2.102904478383077;2.44;0.457506559699882
12:06.9;-0.8536776889364649;-0.2217116439728775;-1.8988150654273352;2.086;0.35938926638753704
12:06.9;-0.8520036819117127;-0.17961312247930444;-1.6684459165299668;1.785;0.2553240165800203
12:07.0;-0.8330874436627789;-0.13317483044666836;-1.4195886246179952;1.53;0.1574980756930662
12:07.0;-0.8017851258084856;-0.08088627872867941;-1.1602642772931342;1.263;0.07524710087832992
12:07.0;-0.7625379488340888;-0.021596823707391983;-0.8982945350960141;0.982;0.014793471611830545
12:07.0;-0.7189156812913542;0.045214531572049604;-0.640892061637983;0.727;0.02083247574468506
12:07.0;-0.6734192273938328;0.11928462033980226;-0.39430427415852;0.627;0.03167389331050985
12:07.0;-0.6275139732442767;0.1995416816454135;-0.16358014078827676;0.627;0.020482718977824818
12:07.0;-0.5818359497375764;0.28417642862243775;0.04744822013030458;0.627;0.007845281462429281
12:07.0;-0.5365041943319352;0.3707572923506537;0.23592218196574494;0.721;0.0469279518059798
12:07.0;-0.4914751613221957;0.4563672666518626;0.39951096779128226;0.8240000000000001;0.08960758381269793
12:07.0;-0.4468762494558167;0.5377650461926269;0.5359107625850178;0.863;0.12878708779677114
12:07.1;-0.4032564961686135;0.6115651077810951;0.6424492602206121;0.879;0.15843929631099307
12:07.1;-0.3617071940604355;0.6744200110537072;0.7159134486345514;0.9420000000000001;0.1746417664260655
12:07.1;-0.3238352772726378;0.7231970907344948;0.7526541055040076;1.048;0.17626913063175484
12:07.1;-0.2915992400268639;0.7551560073028415;0.7489535780309238;1.198;0.16492176320254878
12:07.1;-0.26702959364249845;0.7681336833574218;0.7015852392621219;1.213;0.14390525317129432
12:07.1;-0.251870389305165;0.7607275235156136;0.60845450586164;1.213;0.11658276587815634
12:07.1;-0.24720858377058494;0.7324506136968583;0.4691981097845852;1.213;0.08495680035934221
12:07.1;-0.2531760966692467;0.6838278023871099;0.2856243640115323;1.0070000000000001;0.04944981875932105
12:07.1;-0.26879000032997546;0.616408633683261;0.06189829099227309;0.763;0.010255585961033374
12:07.1;-0.2919635681713803;0.5326844971224088;-0.19557799307474594;0.605;0.030417163030024442
12:07.2;-0.3196983144960842;0.4359112496901338;-0.4785674462028949;0.7979999999999999;0.06669320323332538
12:07.2;-0.34843927284602716;0.32985365885505297;-0.777591717638191;1.166;0.08937170239849916
12:07.2;-0.37453217414743567;0.21847864345833373;-1.0825863905265205;1.46;0.08858510115163745
12:07.2;-0.39468396838543257;0.10562935150107473;-1.3834877584374128;1.661;0.05767789743458958
12:07.2;-0.4063252552400587;-0.005281172579008804;-1.6706581936052127;1.956;0.0035850216399515686
12:07.2;-0.4078108030455615;-0.11150688107369765;-1.9351163825795148;1.956;0.08799692258276925
12:07.2;-0.3984503858673113;-0.21108579242012168;-2.1685992004888055;1.956;0.18239484016048557
12:07.2;-0.37840014496505736;-0.30281615999623346;-2.3635420101658986;2.135;0.2708280657025136
12:07.2;-0.3484506986592784;-0.38611903465995095;-2.513110724938309;2.354;0.3381225806132854
12:07.3;-0.30974687085585956;-0.4608459102464593;-2.611406624610916;2.625;0.3727667497089367
12:07.3;-0.26348700304085854;-0.5270909609996193;-2.653880924097748;2.887;0.36857527577249444
12:07.3;-0.21066655137558662;-0.5850523411473421;-2.6378902225178655;3.049;0.3251224998829044
12:07.3;-0.15193035195114749;-0.6349654112026184;-2.563249070519673;3.075;0.24727796662345009
12:07.3;-0.08757250510706038;-0.6771047083557558;-2.432612685149109;2.952;0.14424360707899245
12:07.3;-0.017679607686012996;-0.7118289426016481;-2.2515571324410972;2.338;0.02833552328891652
12:07.3;0.057629872423534706;-0.739632159891247;-2.028314186899458;2.338;0.0864567036135432
12:07.3;0.13794392603463457;-0.7611679958945896;-1.773222730509939;1.936;0.18618572992934634
12:07.3;0.2223498739371765;-0.7772308134097097;-1.4980077796744486;1.5659999999999998;0.2588814701871917
12:07.3;0.30933765622095416;-0.788696668426687;-1.2149873844826264;1.274;0.29642482048674634
12:07.3;0.396834695422884;-0.7964382291302304;-0.9362980997402132;1.09;0.2959210611782191
12:07.4;0.48236087127890276;-0.80123235546467;-0.673232186448811;1.01;0.2601928874011465
12:07.4;0.563268397094122;-0.8036814076357774;-0.4357589446427661;1.032;0.1972629925293682
12:07.4;0.6370146865550887;-0.8041672556709969;-0.23226099524197275;1.1079999999999999;0.11897949281629265
12:07.4;0.7014078890361495;-0.8028478436535584;-0.06947736742268942;1.167;0.03912435993758837
12:07.4;0.7547703144847475;-0.7996931360125414;0.04738747313238552;1.173;0.028602350899722948
12:07.4;0.7959876781333494;-0.7945459556807205;0.11445961615680486;1.173;0.07238984579174403
12:07.4;0.8244454473128988;-0.7871878998097754;0.12898879898006294;1.173;0.08371288955404785
12:07.4;0.839881194332051;-0.7773919789582137;0.08923003227320295;1.161;0.058259796393473326
12:07.4;0.8421924945959857;-0.7649479571849052;-0.005521845180689762;1.147;0.003557357251284669
12:07.4;0.8312384371165488;-0.749649129371636;-0.1547235049310982;1.094;0.09641396710117861
12:07.5;0.8066694709214264;-0.731232560681452;-0.356225348822396;1.006;0.2101241468215311
12:07.5;0.7678195930342336;-0.709275786670964;-0.605832219450832;0.9109999999999999;0.32993371000757094
12:07.5;0.7136978791664361;-0.6830745062862963;-0.8968839567007912;0.861;0.43723884519230893
12:07.5;0.6431220989435413;-0.651554003548894;-1.2199730727468918;0.9590000000000001;0.5112038262776936
12:07.5;0.5550343653618861;-0.6132894867284964;-1.562900953360902;1.8719999999999999;0.5320063911071573
12:07.5;0.44900022742499973;-0.5666977607220163;-1.910913980924222;1.8719999999999999;0.4862271388720052
12:07.5;0.3258101171321568;-0.5103978425504536;-2.247193200196056;1.8719999999999999;0.37369200640233746
12:07.5;0.18802476232536688;-0.44366345736771423;-2.5535830994749813;2.295;0.21301917725728534
12:07.5;0.04028234821635846;-0.3668556676532449;-2.811632428591588;2.7969999999999997;0.04154976349213439
12:07.6;-0.11079578071124908;-0.28171602449606353;-3.004035471469144;3.457;0.09376479957530573
12:07.6;-0.2572051593374312;-0.1914034195255878;-3.1164150257238585;4.15;0.1534209465987699
12:07.6;-0.39063512188717336;-0.10020625632521979;-3.1391630592365254;4.546;0.12287965982302308
12:07.6;-0.5038040523262073;-0.012968384830638707;-3.068899705836473;4.521;0.020050732428253098
12:07.6;-0.5916850848031227;0.06562730945894615;-2.9091222311837703;4.188;0.11296325309550131
12:07.6;-0.6522489968916011;0.13173969727629653;-2.669810921608719;2.08;0.22940907106096975
12:07.6;-0.686532008902543;0.18288124072918657;-2.366094053925845;2.08;0.29707216017235116
12:07.6;-0.6981162582106653;0.21820138709387768;-2.0163999029370028;2.08;0.3071580679517769
12:07.6;-0.6922888318206625;0.23853898268209353;-1.640592742075521;1.52;0.2709239969760514
12:07.6;-0.6751241240782493;0.24627178852111892;-1.258359300013022;1.09;0.20921988275874537
12:07.7;-0.6526320570830815;0.24500586227219928;-0.8878740996750867;0.73;0.14196989644845054
12:07.7;-0.6300534224114123;0.23915421786440136;-0.5447295554338496;0.486;0.08207981316079753
12:07.7;-0.611353404792281;0.23345504135565126;-0.24116323152354555;0.46;0.034419668770052446
12:07.7;-0.5989344886261835;0.23247527540979526;0.014375981665467712;0.545;0.0020016751749210664
12:07.7;-0.5935669927103351;0.24013670144070026;0.21730695633036978;0.618;0.030974329379741698
12:07.7;-0.5945203052150161;0.2592923946414712;0.3666617028941035;0.763;0.05652258579912373
12:07.7;-0.5998600690249598;0.29137801219632586;0.4645562402205075;0.763;0.08119794303429445
12:07.7;-0.6068584012132474;0.3361682259712695;0.5154708454700729;0.763;0.10515940930019539
12:07.7;-0.6124619115314175;0.39167721231517044;0.5254274342080463;0.7929999999999999;0.12604340750266269
12:07.7;-0.6137761347589603;0.45424125150758193;0.5011437829090722;0.8959999999999999;0.1397201092646185
12:07.7;-0.6085294391037277;0.5188030315963473;0.4492346764048149;0.99;0.14182649506681463
12:07.8;-0.5954630252519495;0.5793822669503574;0.3755206012890223;1.06;0.12955487686406816
12:07.8;-0.57457930446348;0.6296785947451413;0.2844937448318569;1.104;0.10292991910005433
12:07.8;-0.547191158160788;0.6637272356278416;0.17897992534576057;1.1420000000000001;0.06500294495627854
12:07.8;-0.515744554808114;0.6765200966640574;0.060025404088915824;1.2109999999999999;0.020943557144559023
12:07.8;-0.4834250114568102;0.6645099924283222;-0.07297068493069424;0.847;0.02344115760643565
12:07.8;-0.45361094818607245;0.6259387976342315;-0.22186723798019045;0.847;0.06299536203567802
12:07.8;-0.42929864391566;0.560974019882229;-0.3891465509702135;0.847;0.09371636835083344
12:07.8;-0.4126430148010917;0.47167249307902953;-0.5770881028526677;0.765;0.11232001912233766
12:07.8;-0.40470495852175314;0.36179035692824124;-0.7868500589468899;0.767;0.11520928842544383
12:07.8;-0.4054160215486955;0.23645207316502542;-1.0175757121483213;0.87;0.09754629219530819
12:07.9;-0.4137149331878974;0.10170416333650201;-1.2656321639229142;0.9640000000000001;0.05325341115669819
12:07.9;-0.42777883190062166;-0.03600530056603392;-1.5240818753421517;0.966;0.023474374526620077
12:07.9;-0.4452603752470318;-0.17037775066849378;-1.782510643581241;1.021;0.1352256445308497
12:07.9;-0.46346063378890706;-0.29580009994392037;-2.0273791111090746;1.3130000000000002;0.2779368525252356
12:07.9;-0.4794159126097624;-0.4078094180948166;-2.2430553730683536;3.1039999999999996;0.43854048351638736
12:07.9;-0.48993309328794105;-0.503421692784545;-2.4135113801025554;3.1039999999999996;0.5952755598269256
12:07.9;-0.4916442031554945;-0.5812725931531759;-2.5243663298026933;3.1039999999999996;0.7214116448882529
12:07.9;-0.4811497116459675;-0.6415567391174736;-2.5648060364007805;3.4339999999999997;0.7917167410566606
12:07.9;-0.455285743992083;-0.6857982168705988;-2.529031988192647;3.465;0.789650156687617
12:08.0;-0.4114999869647269;-0.7165125188967358;-2.4170840922900294;3.241;0.7126648985959196
12:08.0;-0.3482714362547587;-0.7368209588415243;-2.234964563424629;2.8369999999999997;0.5735225116818091
12:08.0;-0.26547709249603413;-0.7500646609606502;-1.9940489837166857;2.363;0.3970649747213275
12:08.0;-0.1646080005164058;-0.7594478168057553;-1.709874489973897;1.855;0.21375343896452004
12:08.0;-0.04876402040532195;-0.767727018985561;-1.4004911597363754;1.347;0.05243082619836956
12:08.0;0.07759899067931947;-0.7769630372478674;-1.0846143607499776;0.795;0.06539307823469169
12:08.0;0.20912711849073187;-0.7883573407916731;-0.7798522739181082;0.795;0.12857182609518125
12:08.0;0.34011085561316945;-0.8021906974543128;-0.5013010720251798;0.795;0.13677185861654012
12:08.0;0.464976859504157;-0.817866218341068;-0.26072065252102383;0.917;0.09914916121146357
12:08.0;0.5786684899442021;-0.8340489109714907;-0.06632001785848708;1.056;0.03200854909701141
12:08.0;0.6769309123336033;-0.8488857234533896;0.07697160969393861;1.18;0.044230733897867025
12:08.1;0.7565259954371484;-0.8602757824154844;0.1669144195049644;1.266;0.1086314081885419
12:08.1;0.8153769342913313;-0.8661488485948663;0.20321005765530745;1.348;0.14351462259471803
12:08.1;0.8526266872073617;-0.8647113252984415;0.1867631870383652;1.415;0.13769600664924458
12:08.1;0.8685910953817729;-0.8546289975755359;0.11911827437178742;1.41;0.08842425112345977
12:08.1;0.8645928051098406;-0.8351275423144123;0.002197525362128548;1.147;0.0015867127811987596
12:08.1;0.8426842354742736;-0.8060088227439469;-0.1616172921517048;1.147;0.10977223107686412
12:08.1;0.8053032073964903;-0.7676012599254219;-0.36911751544816485;1.147;0.22817064057331937
12:08.1;0.7549217035848641;-0.7206692047480509;-0.6157530361398825;1.005;0.33499971504443093
12:08.1;0.6937332343841324;-0.6662948405780214;-0.8951447331512075;0.9490000000000001;0.4137635330839436
12:08.2;0.623411984837278;-0.605739691811722;-1.198787085007477;1.148;0.45269243279119425
12:08.2;0.5449882759913276;-0.5403042499115575;-1.5160467601355785;1.476;0.4464143431771373
12:08.2;0.45888992230889364;-0.4712176670819035;-1.8344756676329355;1.8330000000000002;0.39668158582203383
12:08.2;0.3651679929807507;-0.39958955710959015;-2.1403835551417596;2.134;0.3123190248306091
12:08.2;0.2638667239298021;-0.3264440239128159;-2.419591600628355;2.375;0.20841809204119824
12:08.2;0.15544287176252308;-0.25283730902657925;-2.6583037320454075;2.9789999999999996;0.1044760083824647
12:08.2;0.04112135229899775;-0.18003247963463628;-2.8440400749648624;2.9789999999999996;0.021054937815923547
12:08.2;-0.07690469854319555;-0.10966669326746513;-2.9665611944426145;2.9789999999999996;0.025019632951190314
12:08.2;-0.19549223853510247;-0.04381821229854792;-3.0187152597746505;3.424;0.025858678401298456
12:08.2;-0.31082217699006304;0.015110627663780046;-2.9971614802850612;3.728;0.014076822831260273
12:08.3;-0.4189057773432759;0.06472144371905045;-2.9028866771603146;3.676;0.07870360553662266
12:08.3;-0.5162035549373096;0.10309582144536049;-2.74135360267543;3.315;0.14589053351881257
12:08.3;-0.6001763595527313;0.12927804894367828;-2.522130842325476;2.7680000000000002;0.1956911958034768
12:08.3;-0.6696172210157691;0.14360889674238245;-2.2579970568215035;2.302;0.21713574918494585
12:08.3;-0.7247011780749947;0.14781026477778217;-1.96367713431681;1.972;0.2103457033890945
12:08.3;-0.7667804628738849;0.14480456335035838;-1.6544427851698769;1.339;0.18369825882839177
12:08.3;-0.7980084428607666;0.13832680595038557;-1.3447907335849032;1.339;0.14844601481116684
12:08.3;-0.8208898603737123;0.1324316386448123;-1.0473517080809254;1.006;0.11385947827075181
12:08.3;-0.8378405961902113;0.130999448629453;-0.7721115424082482;0.775;0.08474438106205094
12:08.3;-0.850818958522467;0.1373134291253455;-0.525965922612207;0.71;0.06144800374487034
12:08.4;-0.8610725563693786;0.15374261306628928;-0.3126127249291225;0.74;0.041384780693178976
12:08.4;-0.8690253809181652;0.18154293839953078;-0.13278515436060734;0.7859999999999999;0.02094890580623131
12:08.4;-0.8743060760451213;0.2207767463064311;0.015202021509698;0.816;0.002934392256168964
12:08.4;-0.8758989266311125;0.2703447417337832;0.1346707942777786;0.84;0.03188932616911223
12:08.4;-0.872392132356939;0.32812163265459593;0.22967234110292925;0.86;0.06574387548158175
12:08.4;-0.862298680105681;0.3911831319400437;0.3040706706601081;1.151;0.10256811469259587
12:08.4;-0.8444168850478713;0.4560957968682745;0.36073069992142;1.151;0.13893001525542184
12:08.4;-0.8181746301152228;0.5192146723954069;0.40091422284570666;1.151;0.17031167844280243
12:08.4;-0.783885262330675;0.5769302134627343;0.42396896617204044;1.189;0.19173873193369273
12:08.4;-0.7428537871728523;0.6258408922989088;0.42736458079359885;1.126;0.1986853309126571
12:08.5;-0.6973007275846148;0.6628668417054351;0.40708028675300156;1.057;0.18815964506700206
12:08.5;-0.6501057978386537;0.68533520540346;0.35828465253153696;1.043;0.15963028399752935
12:08.5;-0.6044121920193957;0.6910663761141667;0.27618660848357335;1.06;0.11536009262848483
12:08.5;-0.563164358242195;0.6784753985313551;0.15690156905248714;1.0190000000000001;0.05995101670432049
12:08.5;-0.528666049654399;0.646674117468617;-0.001823313315818603;0.917;0.0006233446036839543
12:08.5;-0.502242030066762;0.5955390087782407;-0.2001429397394656;0.773;0.05986369810140349
12:08.5;-0.48406644797641085;0.525723923877403;-0.43593380906587614;0.773;0.11093875160658248
12:08.5;-0.4731835418750183;0.4386354118970459;-0.7048071169745259;0.773;0.14628628189674286
12:08.5;-0.46770764473557375;0.3364030673927553;-1.0001866673002524;1.1840000000000002;0.157367656245224
12:08.5;-0.4651620633342611;0.22184962362964758;-1.3134018036360353;1.545;0.1355378501930994
12:08.6;-0.46288959907595445;0.09843403667301197;-1.6338127948710963;1.659;0.07444319612213786
12:08.6;-0.45843993830657076;-0.029862103257847307;-1.948983049790231;1.624;0.026681540482881225
12:08.6;-0.4498373498970222;-0.15871840555008795;-2.2449377707299907;1.72;0.16028287025128746
12:08.6;-0.43567003051277553;-0.28372348595074043;-2.506634507595211;2.095;0.3098446397415573
12:08.6;-0.41499753709430537;-0.40066459091585993;-2.7188094707253736;2.696;0.45206955109328834
12:08.6;-0.3871178966074069;-0.5058333477695125;-2.8672639354963727;3.698;0.5614594281259409
12:08.6;-0.35127404085219577;-0.5963221580493419;-2.9404439313097988;3.698;0.6159421240752966
12:08.6;-0.3064160498067727;-0.6702748904576945;-2.9309767858231477;3.698;0.6019727589481327
12:08.6;-0.2511386669363312;-0.7270504222950582;-2.8368052574435554;3.655;0.5179736161787122
12:08.6;-0.18385877655063038;-0.7672701427414212;-2.661700871416698;3.4160000000000004;0.37548441110191055
12:08.7;-0.10321631119902568;-0.7927239036166678;-2.4150985001370096;2.971;0.19760827915227744
12:08.7;-0.008607171391706121;-0.8061080122865074;-2.111291338957249;2.394;0.014648793434143135
12:08.7;0.09930048355924959;-0.8106074984719254;-1.768094311955991;1.74;0.14232048242448322
12:08.7;0.21822847718686023;-0.8094020516696149;-1.4051559113312133;1.136;0.248199120252796
12:08.7;0.3442427022735567;-0.8052130249955678;-1.0421551426550129;0.757;0.2888736371428548
12:08.7;0.4720234764522162;-0.7999940087396892;-0.6971379396977249;1.069;0.26325040757337126
12:08.7;0.5953776995766353;-0.794813260362285;-0.3852239806867521;1.069;0.1822934156777701
12:08.7;0.7078453163668907;-0.7899095566307581;-0.11784967281944124;1.069;0.06589373303700971
12:08.7;0.8032589065891933;-0.784862646815136;0.09740592694765278;1.185;0.06140936321220301
12:08.7;0.8761976980842854;-0.7788229747926808;0.25650837220022554;1.273;0.1750420564810551
12:08.8;0.9223476741216193;-0.7707647678993583;0.3583509388466889;1.347;0.25475637358637687
12:08.8;0.9387839339004131;-0.7597337022551387;0.40401512047805244;1.409;0.2881540049777613
12:08.8;0.9241640094511966;-0.7450588378485129;0.3960468835686167;1.4380000000000002;0.27270068088266125
12:08.8;0.8788005271199486;-0.7264991136195721;0.33784405028893943;1.393;0.2156957920017955
12:08.8;0.8045758529159053;-0.7042996110868448;0.2332120717750497;1.242;0.13215252636336902
12:08.8;0.7046794040618963;-0.6791455243657175;0.08611133145897394;0.7559999999999999;0.04121114924522085
12:08.8;0.5832052920250532;-0.652027513708373;-0.09940020679819811;0.7559999999999999;0.03779850875444392
12:08.8;0.44471753193451025;-0.6240612789323201;-0.3190329055763766;0.7559999999999999;0.08854151868315911
12:08.8;0.2938969841753837;-0.5963106618210937;-0.5679720261054012;0.759;0.0995393155857304
12:08.8;0.13530882302050193;-0.5696403072773601;-0.8405108959265465;0.86;0.06478436050810792
12:08.9;-0.026744392265534538;-0.5445993270063072;-1.129725075477438;1.063;0.016454420903142412
12:08.9;-0.18832463294123836;-0.5213359510073469;-1.4272754737161644;1.35;0.14013047922116703
12:08.9;-0.34591931806306814;-0.49955804441901885;-1.723381658621792;1.624;0.2978120317912818
12:08.9;-0.4964370190060554;-0.47856716349442374;-2.006981497978818;1.77;0.47681556558935995
12:08.9;-0.6371177680556263;-0.457394906033611;-2.2661045463043443;1.71;0.6603755457645818
12:08.9;-0.7653758979792266;-0.43505201197050847;-2.4885156819357612;3.09;0.8286217818388946
12:08.9;-0.878642706166226;-0.4108494077927382;-2.6626536136087595;3.09;0.9611908899429551
12:08.9;-0.9743009394077208;-0.3846799853274516;-2.7787543495558267;3.09;1.0414606551898493
12:08.9;-1.0497918534256059;-0.35712302152775544;-2.829940101702623;3.64;1.0609582372762123
12:08.9;-1.102930962111282;-0.32929647736106754;-2.813076772598948;3.803;1.0216849554542256
12:09.0;-1.132381503843234;-0.3025020909842352;-2.7292568207674495;3.636;0.9349008450923211
12:09.0;-1.1381344427987992;-0.2778007289818212;-2.583780207161838;3.219;0.8169256163568955
12:09.0;-1.1218065240162598;-0.25566549532506344;-2.3855796694965408;2.697;0.6842014745794708
12:09.0;-1.086625970752147;-0.23580111086792033;-2.1461896525977737;2.2430000000000003;0.549913047440813
12:09.0;-1.0370882637085956;-0.21714116089703833;-1.8784775499649948;1.92;0.4230229056748096
12:09.0;-0.9783722343828851;-0.19797819023149502;-1.5953720564167078;1.185;0.309017767090953
12:09.0;-0.9156684512909898;-0.17616392750365167;-1.308778437736465;1.185;0.2111161059174602
12:09.0;-0.8535726811927771;-0.14933730289379157;-1.028817127016013;1.185;0.13114356818858278
12:09.0;-0.7956455376184615;-0.11516704912171499;-0.7634417771061774;0.91;0.0699558104545628
12:09.0;-0.744169656886249;-0.07160521484688138;-0.5183836197580024;0.732;0.027622811515561625
12:09.1;-0.7000916441230485;-0.017142422350214574;-0.29731075212902824;0.648;0.0035681056134435033
12:09.1;-0.6631259232653162;0.048949782370672386;-0.10211620431347374;0.623;0.0033146786789408095
12:09.1;-0.631994826003865;0.12640943314521122;0.06671224276707564;0.619;0.005329648259960818
12:09.1;-0.6047700662456471;0.21383588579767365;0.209680355353226;0.638;0.027116187053231874
12:09.1;-0.5792739866768571;0.3086382005983049;0.3278764854172834;0.713;0.05861975184746527
12:09.1;-0.5534982836752786;0.4071098049472591;0.4225937649807802;0.981;0.09522498782655603
12:09.1;-0.5259948897149941;0.5046284547558336;0.49499755905061926;0.981;0.13138818635509186
12:09.1;-0.49618555344039783;0.5959383635465558;0.5458353771806498;0.981;0.16140134136576226
12:09.1;-0.46453493718609956;0.6754627310770963;0.5751912542463176;1.004;0.1804812324771952
12:09.1;-0.4325484465017028;0.7376311324421458;0.5823054348861342;0.991;0.18579107107118356
12:09.2;-0.4025894476871675;0.7772351714774179;0.565492299691537;0.976;0.17694631716185624
12:09.2;-0.3775500575384067;0.789813415848659;0.5221894685863105;0.98;0.15571381892698175
12:09.2;-0.3604411663796688;0.7720383096448228;0.4491674122442213;0.9890000000000001;0.1249917871192987
12:09.2;-0.3539814711515812;0.7220604852115446;0.3429183017496169;0.973;0.08764855750706735
12:09.2;-0.3602632516882294;0.6397598223809167;0.2002148814924297;0.919;0.04614591708832101
12:09.2;-0.3805544444979901;0.5268583055949065;0.01879339414628606;0.7;0.0037680430102783585
12:09.2;-0.41524946370380983;0.3868789874051812;-0.20190176138413038;0.7;0.03243577883116394
12:09.2;-0.46391247980207434;0.22497697829213642;-0.4599642824981635;0.7;0.048006301010649816
12:09.2;-0.5253202706931335;0.04767342587050629;-0.7503246232374889;0.7509999999999999;0.0187909925423207
12:09.2;-0.5974382013973981;-0.137518415787856;-1.0642143069916443;0.721;0.08743452250212307
12:09.3;-0.6773140264800771;-0.32260554491141435;-1.3889621256264848;0.81;0.30349553120791833
12:09.3;-0.7609230163894973;-0.4997468016998986;-1.708307221089435;1.263;0.6496160117855427
12:09.3;-0.8430574364202552;-0.6619074898889116;-2.0033878835949603;2.013;1.117942590384151
12:09.3;-0.917399827716836;-0.8034041257468283;-2.25445263937853;3.033;1.661628100555149
12:09.3;-0.9768956446169782;-0.9202384698612601;-2.4431170932384814;3.908;2.1963059608305775
12:09.3;-1.0144373538902187;-1.0101976750014905;-2.5547415914300173;3.9730000000000003;2.618053852417406
12:09.3;-1.023742237599501;-1.0727669157101856;-2.5803987027519204;3.9730000000000003;2.833888821032102
12:09.3;-1.0002208570988065;-1.1089270400366045;-2.518020189838845;3.9730000000000003;2.7929173752966676
12:09.3;-0.9416388095521842;-1.1209005032829504;-2.372549161088055;3.343;2.5041862920765663
12:09.3;-0.8484550236069481;-1.1118849938269857;-2.1551225604480604;2.6319999999999997;2.0331090223334765
12:09.4;-0.7238110272652155;-1.0857855288302496;-1.8814694568984776;2.006;1.4786535047201166
12:09.4;-0.5732067017137943;-1.0469351782350111;-1.5698644330759512;1.492;0.9420917537639517
12:09.4;-0.4039340828837838;-0.9997957834420446;-1.2390540979084088;1.14;0.5003939710747385
12:09.4;-0.22436171854631626;-0.9486473220703874;-0.9065216170167191;0.897;0.19294419102818702
12:09.4;-0.04316540023974179;-0.8972932137010003;-0.5873111900806883;0.774;0.02274774917260862
12:09.4;0.1314089151497138;-0.8488220267445811;-0.2934730667503204;0.9109999999999999;0.03273480221633386
12:09.4;0.29216757418386413;-0.8054669972561312;-0.03406042070575492;0.9109999999999999;0.008015484400467392
12:09.4;0.4333916538770374;-0.7685870534813191;0.18446582803751987;0.9109999999999999;0.06144542237651824
12:09.4;0.551003960945514;-0.7387640073724977;0.3576023478927037;0.975;0.1455662891272543
12:09.4;0.6424976849282554;-0.7159856770365504;0.48212686626144796;1.0290000000000001;0.22178758635848508
12:09.5;0.7067030129541132;-0.6998699775372541;0.555545160114138;1.074;0.27477275941331636
12:09.5;0.7434775059592952;-0.6898786022363435;0.5757692837307463;1.11;0.2953173757183828
12:09.5;0.7533885870509155;-0.6854721843422562;0.5410645733274899;1.136;0.27942031135421275
12:09.5;0.7374365507845804;-0.6861737023601636;0.45024035846709154;1.1320000000000001;0.227825929422576
12:09.5;0.6968455218365124;-0.691529227751472;0.30301041119868555;1.075;0.1460173978526334
12:09.5;0.6329302059669142;-0.700979285149745;0.10042617425038769;0.755;0.04455617747305208
12:09.5;0.5470396997931408;-0.713678721309547;-0.15468928523974398;0.755;0.06039233565141227
12:09.5;0.44058591481414944;-0.7283234881639206;-0.45732411994184446;0.755;0.1467503116800018
12:09.5;0.3151594022547995;-0.7430466354480713;-0.7998889455496596;0.8009999999999999;0.18731650025630842
12:09.5;0.17271057521916416;-0.7554295920287085;-1.1719331755765974;1.062;0.1529029176017558
12:09.6;0.015758558958530407;-0.7626504546023715;-1.5600869755478892;1.4140000000000001;0.018749549855423563
12:09.6;-0.15240303790767487;-0.7617649420324859;-1.948315011539811;1.795;0.226190198881578
12:09.6;-0.32753071537476913;-0.7500866655284598;-2.318512020670448;2.126;0.5696037379584561
12:09.6;-0.5043304084436309;-0.7256083268169148;-2.651447217326306;2.425;0.9702874150485311
12:09.6;-0.6765044563622638;-0.6873879345761139;-2.9280683467996025;2.7889999999999997;1.3616132735970372
12:09.6;-0.8370382747558477;-0.6358086972875568;-3.1311590588407188;4.4910000000000005;1.6663909998418764
12:09.6;-0.9787756104612052;-0.5726278243328256;-3.2472205355402566;4.4910000000000005;1.8199831640915236
12:09.6;-1.0952058048441644;-0.5007836078206477;-3.2682277838109326;4.4910000000000005;1.7924958519512861
12:09.6;-1.1812906961174852;-0.42399354120270244;-3.1928009085352587;4.475;1.599145067142791
12:09.6;-1.2341787054986642;-0.34620498842468234;-3.0264745308649226;4.066;1.2931484797793233
12:09.7;-1.2536931758617107;-0.2709890775764028;-2.781005560240956;3.347;0.9448109234456034
12:09.7;-1.2424724041890434;-0.2010129445162912;-2.4728718011180857;2.541;0.6176072410716112
12:09.7;-1.205670581007879;-0.13771937384681496;-2.121273497423781;1.926;0.35222515551942
12:09.7;-1.150249535788079;-0.08126244911828585;-1.7460374770096108;1.556;0.16320577983387172
12:09.7;-1.084014870188192;-0.030656889177057115;-1.3657785982029904;1.288;0.04538826969060653
12:09.7;-1.0145947760847294;0.015943679989832114;-0.9965205217471922;0.789;0.016120089086214442
12:09.7;-0.9485319910746118;0.06091423786145767;-0.6508299372955122;0.617;0.037604370193038056
12:09.7;-0.8906079874923261;0.1068141379310167;-0.3374518707680537;0.617;0.032101635980288125
12:09.7;-0.8434683348447715;0.15605210128772223;-0.06141008453596148;0.584;0.008083102746868678
12:09.7;-0.8075685581149089;0.21058094083670212;0.1755093959888405;0.677;0.02984687282423244
12:09.8;-0.7814161999090521;0.2716476934399155;0.3740202290283509;0.794;0.07939323972637584
12:09.8;-0.762053531605405;0.3396201237285983;0.5364725785488782;0.925;0.1388437785215466
12:09.8;-0.7457013276682287;0.41389848133226687;0.6659699764847677;1.068;0.2055480683375951
12:09.8;-0.7284637597500327;0.4929110412769339;0.7655587316092273;1.205;0.2748875127651113
12:09.8;-0.706982640723847;0.574185430089048;0.8375751028553429;1.288;0.3400045099275979
12:09.8;-0.6789368335797622;0.6544826701002155;0.8832132755243314;1.29;0.3924579313345217
12:09.8;-0.6433240838155326;0.7299753257078135;0.902335635661543;1.29;0.42374647637278895
12:09.8;-0.6005283880088821;0.7964492802801687;0.8935009383425759;1.29;0.4273529233602702
12:09.8;-0.5522184543463323;0.8495211672981722;0.8541631303872763;1.2670000000000001;0.40070608904645727
12:09.8;-0.5011176207840151;0.8848849350970128;0.7810016779210021;1.24;0.3463206934841359
12:09.9;-0.45067197944210863;0.8986045769559508;0.6703591877632122;1.199;0.27147931768866834
12:09.9;-0.40465399306230415;0.8874465450215014;0.518765567468249;1.159;0.18629327422716002
12:09.9;-0.3667542700141721;0.8492166814543989;0.32352520869274387;1.0959999999999999;0.10076316990758996
12:09.9;-0.3402121824537066;0.7830507382729079;0.0833403154431972;1.03;0.02220214344446239
12:09.9;-0.32752121895235137;0.6896040080024062;-0.2010652352559658;0.9470000000000001;0.045412583035714174
12:09.9;-0.33022631616889625;0.571095375221499;-0.5263704252093405;0.847;0.09926857849835179
12:09.9;-0.34880782685816514;0.431197112227221;-0.886176197373504;0.847;0.13328526686307143
12:09.9;-0.38262428565195283;0.2748122304603282;-1.2706476194893306;0.847;0.13360838545913387
12:09.9;-0.42988008713749337;0.10779058355605285;-1.666335341346413;1.041;0.07721302312299806
12:09.9;-0.4876010591472755;-0.06341118768512091;-2.05632220136691;1.354;0.06358017110240781
12:10.0;-0.5516275731126189;-0.23214697350599334;-2.4208914494380256;1.921;0.3100161431041649
12:10.0;-0.61666509194795;-0.39205373052869225;-2.7388442661988446;2.727;0.6621590114463736
12:10.0;-0.6764614905164732;-0.5374985591499191;-2.989435457007476;3.645;1.0869499924726778
12:10.0;-0.7241798459645633;-0.6639169399135559;-3.1547008671310506;4.463;1.5167652466002894
12:10.0;-0.7529846592115345;-0.7680151454303596;-3.2217614654482785;4.936;1.8631563264645263
12:10.0;-0.7567860474657002;-0.847869297241874;-3.184594532070165;3.955;2.0434130879238412
12:10.0;-0.7310271062330235;-0.902960752418826;-3.0448772758898315;3.955;2.009889344204027
12:10.0;-0.6733668011490794;-0.9341476835571206;-2.811807262689675;3.955;1.768694356986125
12:10.0;-0.5841142404884672;-0.9435443645808433;-2.501046603760422;2.987;1.378421072499991
12:10.0;-0.46631618881785003;-0.9342945165747977;-2.132985259773564;2.05;0.9292918899734983
12:10.1;-0.3254728103267692;-0.9102548272380627;-1.7305453444298806;1.357;0.5126968958351145
12:10.1;-0.16893608377059205;-0.8756202085983378;-1.3168701708930177;0.9390000000000001;0.1947965041945711
12:10.1;-0.005109692632369077;-0.8345294637831598;-0.9133047229060732;0.736;0.0038945040010927466
12:10.1;0.15740833236934354;-0.7907000019370484;-0.5379627316460783;0.708;0.06695633104311462
12:10.1;0.3106231982921526;-0.7471469903025202;-0.20497749419172334;0.767;0.04757142030832008
12:10.1;0.44780528939114156;-0.706033059485731;0.07562852283389404;1.062;0.02391111752375143
12:10.1;0.5639656501390026;-0.6686650087488952;0.2976029451013711;1.062;0.11222728969375081
12:10.1;0.6561034216696917;-0.6356146585873115;0.45782188778006616;1.062;0.19092498222956497
12:10.1;0.7232066377346373;-0.6069136639445198;0.5555183907757718;1.078;0.2438303487624065
12:10.1;0.7660330785557042;-0.5822687443691777;0.5915433676860696;1.081;0.2638502993655097
12:10.2;0.78673386409623;-0.5612543903227707;0.5677887901790463;1.087;0.25071158906477514
12:10.2;0.7883869176430339;-0.5434513524940917;0.4868417389583429;1.05;0.20858731223073743
12:10.2;0.7744934610096362;-0.5285108017096413;0.35187013055124006;0.965;0.14403035309647058
12:10.2;0.7484782788231532;-0.5161392297912679;0.16668929598769378;0.851;0.06439524252793569
12:10.2;0.7132316526863441;-0.506015641932613;-0.06407014796329492;0.7190000000000001;0.023123324692143985
12:10.2;0.6707369414555755;-0.4976670363475414;-0.33477563502032115;0.8270000000000001;0.11174933419800946
12:10.2;0.621837154360237;-0.49034108957313494;-0.6386314432479405;0.8270000000000001;0.194726587198242
12:10.2;0.566195147486429;-0.4829239567896034;-0.9675260126274356;0.8270000000000001;0.2645498645206288
12:10.2;0.502481026342954;-0.4739460090942307;-1.3118712915588062;1.143;0.31242067495928955
12:10.2;0.4287766430246015;-0.4616959785894003;-1.6605027117381639;1.516;0.32872050903754324
12:10.3;0.3431408453660512;-0.4444366936470278;-2.000765479639087;1.869;0.30512550453934945
12:10.3;0.2442492057695356;-0.4206952495930444;-2.3188708086302676;2.18;0.238274365482476
12:10.3;0.13200676164302272;-0.3895869348811536;-2.6005344406960424;2.508;0.13374057037015846
12:10.3;0.008016176279635173;-0.35111531770475696;-2.8318776398448358;2.945;0.007970609265190626
12:10.3;-0.12423704732993271;-0.3063597371308481;-3.000553415744481;3.489;0.11420475116920524
12:10.3;-0.2596067651749352;-0.25743899158518024;-3.09700058850922;4.018;0.20698154250978476
12:10.3;-0.39193157017006325;-0.20719127108604118;-3.115615804876515;4.018;0.2530029589420736
12:10.3;-0.5149457689340782;-0.15864137979860712;-3.0555477701017506;3.782;0.24961291409207698
12:10.3;-0.6231985426223303;-0.11442515609076992;-2.92086747873016;3.332;0.20828586385712164
12:10.3;-0.7127580895133521;-0.0763283447810674;-2.720059216533114;2.8369999999999997;0.1479811365443441
12:10.4;-0.7815657873428302;-0.04502923753382861;-2.4649904962676827;2.434;0.08675117834659338
12:10.4;-0.8293962477945247;-0.020075719392955618;-2.169631747694116;2.092;0.03612594448138818
12:10.4;-0.8574855485035676;-7.268019907181393e-05;-1.848775573829598;1.798;0.00011521979872030503
12:10.4;-0.8679825764041901;0.016996608695207808;-1.5169031729411295;1.511;0.022378508765211393
12:10.4;-0.8634019297893084;0.033414450716614474;-1.187243761684799;1.225;0.03425210271116197
12:10.4;-0.8462068215718559;0.05141866152921991;-0.8710283888351016;0.784;0.03789916130734166
12:10.4;-0.8185703611256461;0.07297473730895594;-0.5769675371887982;0.784;0.03446513106593421
12:10.4;-0.7822985160262421;0.09962318822495489;-0.3110356859517503;0.784;0.024240588675697717
12:10.4;-0.7388680876058642;0.1323765229212087;-0.07662739561386818;0.753;0.007494832718236712
12:10.4;-0.6895324582050703;0.17164942351831747;0.12496249501136354;0.722;0.014790292108728748
12:10.5;-0.6354584187950623;0.2172200157074505;0.2938805981874864;0.708;0.040565599043214114
12:10.5;-0.5778665180448793;0.26822342822821504;0.43103531394509886;0.7040000000000001;0.06680932647320023
12:10.5;-0.5181536087772483;0.32317555380125873;0.5375112928565828;0.7440000000000001;0.09000872750605562
12:10.5;-0.45798024763180434;0.38002166450590064;0.6141483110544851;0.7929999999999999;0.10688785584798424
12:10.5;-0.39930560213964295;0.4362021236283109;0.6613175811575267;0.825;0.11518694166292008
12:10.5;-0.3443524765267912;0.48872796536973134;0.6788996838725049;0.89;0.1142552085952949
12:10.5;-0.2954997650710088;0.5342663612870007;0.6664377147873883;0.89;0.10521424358539572
12:10.5;-0.25513018372632595;0.5692501512662926;0.6234012686243453;0.89;0.09053837141215615
12:10.5;-0.2254760351500203;0.5900391913283112;0.5494748226081269;0.86;0.07310196415278837
12:10.5;-0.20848597543035738;0.5931611786447392;0.44479828744560956;0.836;0.0550063302363704
12:10.6;-0.20570817129665533;0.5756371178868814;0.31012165567756667;0.805;0.036722515889044544
12:10.6;-0.21817567589106968;0.5353582733500428;0.1468678003493695;0.754;0.017154475306570233
12:10.6;-0.24628435510546529;0.47144737810483667;-0.04287347337552572;0.7559999999999999;0.004978043859030329
12:10.6;-0.28966605356632796;0.38452303052382686;-0.25637173970256116;0.7829999999999999;0.0285555223850417
12:10.6;-0.34707606071372143;0.2767923279964968;-0.49024701543053373;0.82;0.047097045786151225
12:10.6;-0.4163215232980983;0.15192211352782467;-0.7403876919777497;1.016;0.04682837075267556
12:10.6;-0.4942485769482468;0.0146993053231819;-1.0017818020133853;1.016;0.007278055727051076
12:10.6;-0.5767934983283913;-0.12942872700332042;-1.2682698712071676;1.016;0.09468097282889618
12:10.6;-0.6591070329922849;-0.2748187744540697;-1.53227442522382;1.232;0.27754850815616905
12:10.6;-0.7357753695329723;-0.41604644229936333;-1.784635242098778;1.506;0.5463066953197847
12:10.7;-0.8011561158121983;-0.5482700922806998;-2.0147203776040703;1.915;0.8849658000384668
12:10.7;-0.8498156731386163;-0.6675301491573948;-2.2109444629087553;2.415;1.2542192311689482
12:10.7;-0.8770202418314302;-0.770941997164826;-2.3617196112992116;2.9589999999999996;1.5968335826022857
12:10.7;-0.8792121260845472;-0.856754786091152;-2.456723863437827;3.408;1.8505744118927996
12:10.7;-0.8543923385389787;-0.9242940942893938;-2.488239914872332;3.61;1.964987427405693
12:10.7;-0.8023354651918224;-0.9738430635726959;-2.4522567688854577;2.998;1.9160679509392446
12:10.7;-0.724603653617818;-1.0065113102591023;-2.349098625331718;2.998;1.7132487739592488
12:10.7;-0.6243920688812186;-1.0240972723033965;-2.1835177818263873;2.998;1.3962247119346836
12:10.7;-0.5062669022704338;-1.0289154940954606;-1.9643165832140999;2.544;1.0232240188827164
12:10.7;-0.37582310730368085;-1.023570915942022;-1.7035698755156337;2.0140000000000002;0.6553319891304286
12:10.8;-0.2392536308714013;-1.0106973262847596;-1.4155084735888126;1.475;0.34228835763777615
12:10.8;-0.10283878061849482;-0.9927018462551568;-1.1151888649058392;1.063;0.11384767672329882
12:10.8;0.02759019161866777;-0.9715631577172128;-0.8171575503067731;0.9079999999999999;0.021904409618252886
12:10.8;0.14713158690051775;-0.9487232755339607;-0.5343394567661048;0.925;0.07458692781166529
12:10.8;0.2521628739564597;-0.9250932279427282;-0.277329288521193;1.001;0.06469375877438367
12:10.8;0.3405168200714581;-0.9011651214001206;-0.054165204396875284;1.056;0.016621236532974815
12:10.8;0.41147913193884766;-0.8771961807148062;0.12945762073955208;1.056;0.0467274593199517
12:10.8;0.46562860149683744;-0.8534164504234185;0.269683651130573;1.056;0.10716557007611317
12:10.8;0.5045551726250335;-0.8302142892059763;0.36390796517356055;1.072;0.1524370123297191
12:10.8;0.5305006512437878;-0.8082631791071736;0.41029142435729826;1.068;0.17592645672928145
12:10.9;0.5459699794401529;-0.7885603805409805;0.40750594195035456;1.055;0.17544365330078346
12:10.9;0.5533572476781361;-0.7723559928790358;0.35474805475353494;1.005;0.15161534061563847
12:10.9;0.5546246048244555;-0.7609686342046197;0.2519725067546874;0.9329999999999999;0.10634548228625282
12:10.9;0.5510657981518079;-0.7555105170073726;0.10024208041773985;0.8290000000000001;0.04173438740094406
12:10.9;0.5431770461668907;-0.7565704457212816;-0.09792062518756851;0.748;0.04024064737845738
12:10.9;0.5306460367834954;-0.7639193779451228;-0.3382675004636163;0.9279999999999999;0.1371237640054475
12:10.9;0.5124573920550185;-0.7763058372722451;-0.6146734385596532;0.9279999999999999;0.24453163998647476
12:10.9;0.4871026396344239;-0.7913982830849814;-0.9190596007792505;0.9279999999999999;0.3542903007198045
12:10.9;0.452876122998933;-0.8059132175945187;-1.2413548140970059;1.197;0.45306825678344703
12:10.9;0.40823381926406127;-0.8159442064475609;-1.5695472231158722;1.5430000000000001;0.5228099327581031
12:11.0;0.3521845610837378;-0.817473457420959;-1.8899423038305978;1.946;0.5441172823953853
12:11.0;0.2846668732059616;-0.8070001373416192;-2.187710613595002;2.3930000000000002;0.5025744585922962
12:11.0;0.20683850394892936;-0.7821666296650348;-2.4477335422410973;2.8139999999999996;0.3959996575538391
12:11.0;0.1211792981191125;-0.7422247167513789;-2.6556928637996644;3.2760000000000002;0.23885904518407114
12:11.0;0.03130531585495222;-0.6881809365064453;-2.7992903884194726;3.5469999999999997;0.06030713275721231
12:11.0;-0.058549328965096466;-0.6225237507943683;-2.869420004746723;3.359;0.1045856185291791
12:11.0;-0.14428825316346627;-0.5485849325004345;-2.8610886131624547;3.359;0.22646764271966496
12:11.0;-0.22270494496604573;-0.4697590372819344;-2.7739356511136695;3.359;0.29020265832237113
12:11.0;-0.29196914580608363;-0.38885369299961897;-2.61229354077835;2.9419999999999997;0.2965822555450799
12:11.0;-0.351719259828142;-0.3077299289464631;-2.3847991814239218;2.457;0.25811764915712515
12:11.1;-0.402802923693558;-0.22724262592806482;-2.103619876651511;2.068;0.19255272940251894
12:11.1;-0.44681053609269433;-0.14740904887836478;-1.7834176223903238;1.7280000000000002;0.11746286874913951
12:11.1;-0.48556865764370744;-0.06770848855811214;-1.4402029094343576;1.358;0.04734972373415771
12:11.1;-0.5207247438786506;0.012579649842398774;-1.0901983253996843;0.9790000000000001;0.007141382224530739
12:11.1;-0.5534955156597493;0.09406935977933133;-0.7487837828069347;0.677;0.038986901856488655
12:11.1;-0.5845986775263016;0.17703562519809574;-0.42957493603758823;0.785;0.04445876881078295
12:11.1;-0.6143401616649107;0.2612679170768226;-0.1437069763379623;0.785;0.023066029457100387
12:11.1;-0.6427822568587984;0.3459888479648088;0.10057638704662696;0.785;0.022367735135409437
12:11.1;-0.6699025660543545;0.4298089969655977;0.2979662110465619;0.894;0.08579345583575852
12:11.1;-0.6956870303644357;0.5107159004548414;0.44580911780628124;0.968;0.15839527881031842
12:11.2;-0.7201447430155652;0.5861191565471164;0.5436323565517202;1.0270000000000001;0.22946212352179138
12:11.2;-0.7432536178087598;0.6529655263483523;0.5926005066293633;1.071;0.28760027921029424
12:11.2;-0.7648529035199144;0.7079162506415564;0.5949976674216141;1.104;0.32216255787374976
12:11.2;-0.7845067122638747;0.7475663814780993;0.5538019331123963;1.1079999999999999;0.3247886871945738
12:11.2;-0.801373506729048;0.7686842888674448;0.47238960531169594;1.135;0.29099351992091765
12:11.2;-0.8141251302933596;0.7684541083291112;0.35436797246539514;1.065;0.22169891170269249
12:11.2;-0.820956211093889;0.744711427003544;0.20350973287237903;1.065;0.12442085888381911
12:11.2;-0.8197061804421344;0.6961678072875918;0.02376449732483907;1.065;0.013561282981337077
12:11.2;-0.8080936515868268;0.6226170768257362;-0.18067744726037216;1.068;0.09090476929699
12:11.2;-0.7840463667874151;0.5251060687833798;-0.40531738128464;1.175;0.16687220794705296
12:11.3;-0.746089874456248;0.40604269713757224;-0.6453265522688157;1.327;0.19549802964381688
12:11.3;-0.6937297386156055;0.2692098936943787;-0.8955716479903657;1.48;0.16725598407599465
12:11.3;-0.6277419836097973;0.11965332962636939;-1.1506335506476415;1.6269999999999998;0.0864257181457767
12:11.3;-0.5502886042288374;-0.03658394404707293;-1.4047526338504048;1.722;0.028280097239205687
12:11.3;-0.4647950524318313;-0.19288977653954245;-1.6516625401393392;1.636;0.14807850649953425
12:11.3;-0.37556348093903913;-0.3426513649497066;-1.8843334428630483;1.6969999999999998;0.24248985724612013
12:11.3;-0.2871672836145727;-0.47988786801810335;-2.0947250634944448;1.6969999999999998;0.2886700715928241
12:11.3;-0.20376584707094006;-0.5998156974696883;-2.2737189715338197;1.6969999999999998;0.27789837482323093
12:11.3;-0.1285116239352324;-0.6992179298656567;-2.411420806086298;2.246;0.21668456255046842
12:11.3;-0.06315686204628553;-0.776568695352373;-2.4979627040147276;2.863;0.12251418441512044
12:11.4;-0.007888245687828373;-0.831944044375416;-2.524773830108931;3.285;0.01656902776912894
12:11.4;0.03860777505910491;-0.8667775824038374;-2.4860739656326554;3.523;0.08319485907642687
12:11.4;0.07885384419701884;-0.8835200425704147;-2.380205886954287;3.455;0.16582644916895317
12:11.4;0.1161031847316619;-0.8852670427617956;-2.21043212053295;3.1189999999999998;0.2271933481879945
12:11.4;0.15376361335990515;-0.8754199961462229;-1.9849526363568677;2.574;0.26718999198964444
12:11.4;0.19484938111030942;-0.8574263666221739;-1.7160999135365773;1.3780000000000001;0.2867070911072611
12:11.4;0.24157077542295358;-0.8346070827863517;-1.418904120298597;1.3780000000000001;0.28607473820305324
12:11.4;0.2951072961004274;-0.8100398723170592;-1.1094109758293627;1.068;0.2652032254144656
12:11.4;0.3555470221564626;-0.7864520324579145;-0.8031486055588516;0.935;0.22457695778922707
12:11.4;0.4219488684925338;-0.7660899905720026;-0.5139817207268765;0.835;0.16614500481850433
12:11.5;0.4924865822961139;-0.7505623245320613;-0.25341942554931796;0.753;0.09367443137033961
12:11.5;0.5646473850084985;-0.7406846477034701;-0.030346032893042663;0.782;0.012691489314672122
12:11.5;0.6354751319938728;-0.7363782195418226;0.14890274054193042;0.89;0.06967904432494922
12:11.5;0.7018535810676537;-0.7366756580404034;0.28021385894972567;1.04;0.14488133893029037
12:11.5;0.7608128752553841;-0.7398609399935164;0.3612165501836018;1.185;0.20332725335894178
12:11.5;0.8098212431867824;-0.7437280548078264;0.39074775197137057;1.301;0.23534220452110408
12:11.5;0.847010614114409;-0.7459030717775041;0.36838064633621725;1.301;0.23273840507228982
12:11.5;0.8712915917805206;-0.7441560379944159;0.2941377533154476;1.301;0.19071212433738857
12:11.5;0.882338515901712;-0.7366397712542007;0.1684746838266939;1.266;0.10950275612221033
12:11.5;0.8804542038430827;-0.7220218603263258;-0.007450934479427129;1.182;0.004736612562605764
12:11.6;0.8663443780506773;-0.6995060066526828;-0.23128952122189872;1.057;0.14016447889192998
12:11.6;0.8408447786209154;-0.6687633285512401;-0.49891454056888557;0.9359999999999999;0.2805526942466501
12:11.6;0.8046543031740214;-0.629814868316662;-0.8038993077726186;0.9279999999999999;0.407402699037524
12:11.6;0.7581326448750482;-0.5829175043742275;-1.1372021073721927;1.089;0.5025623505404262
12:11.6;0.7012123631313932;-0.5284992874498301;-1.4871616462184516;1.3519999999999999;0.551127582863436
12:11.6;0.6334506296637716;-0.4671688882949978;-1.8398438537764168;2.2119999999999997;0.5444620965613736
12:11.6;0.5542169716925502;-0.399798402829183;-2.179701713037217;2.2119999999999997;0.48296753807394094
12:11.6;0.4629932869085761;-0.3276592993837341;-2.490435873033086;2.2119999999999997;0.3778092231665358
12:11.6;0.3597440846307474;-0.2525749365253458;-2.755960026093728;2.665;0.25041297510110344
12:11.6;0.24527875731937526;-0.1770277081530397;-2.9614790869735854;3.258;0.12859078698697946
12:11.7;0.1214808912403811;-0.10412941134682574;-3.0947178997977125;3.799;0.03914735729281288
12:11.7;-0.00872300610411031;-0.03737085986070191;-3.1472043358993673;4.037;0.0010259453038195944
12:11.7;-0.14169488677861014;0.019851966641877196;-3.11534064680926;3.935;0.008763210758971188
12:11.7;-0.27362025312446503;0.0648222801919768;-3.000958845256301;3.62;0.05322707288253721
12:11.7;-0.4010643077585615;0.09602538109979832;-2.811180703874126;3.185;0.10826518360888637
12:11.7;-0.5213721942894979;0.11346920232625309;-2.557604787933535;2.215;0.1513070987267076
12:11.7;-0.6328093306897339;0.11874078078728038;-2.255026465465319;2.215;0.16944330652743833
12:11.7;-0.7344400462619498;0.11481589519179372;-1.9199902446913404;1.82;0.16190392882221416
12:11.7;-0.8258318521484824;0.10569021426021472;-1.5694277458257675;1.499;0.13698333458598846
12:11.7;-0.9067115338839679;0.09591554080733783;-1.2194984701117968;1.26;0.10605701018258838
12:11.8;-0.9766836569961482;0.09011544283153398;-0.884650123136937;1.092;0.0778618438667481
12:11.8;-1.035075066526626;0.09253381310330566;-0.576892894268845;1.003;0.05525447994173519
12:11.8;-1.0809189165277888;0.10664816573609891;-0.30528927570299697;1.041;0.03519314315613307
12:11.8;-1.1130576711641464;0.13486804771942007;-0.07567053586592946;1.171;0.011359351738304881
12:11.8;-1.1303262568323034;0.1783373050414472;0.10939776564483164;1.274;0.022052329227803202
12:11.8;-1.1317664377332428;0.23685363134049262;0.2503789651011892;1.272;0.06711733416996325
12:11.8;-1.1168242906472792;0.3088982954080361;0.35026159770031684;1.272;0.12083503919187605
12:11.8;-1.0854978732570093;0.3917421175850201;0.41383987866905536;1.272;0.17597929826667352
12:11.8;-1.0384199840824846;0.4815918034646285;0.446867659721367;1.2009999999999998;0.2234760824884615
12:11.8;-0.9768698510735853;0.5737722559850306;0.45518625355283315;1.137;0.25513226757445034
12:11.9;-0.9027139481446705;0.6629683578158022;0.4439209823142302;1.119;0.26567373822149276
12:11.9;-0.8182860856673047;0.7435456235241203;0.4168311205032565;1.1340000000000001;0.2536138248926256
12:11.9;-0.7262237759336502;0.809944595235006;0.37587616624388137;1.153;0.2210907452235425
12:11.9;-0.629278271443332;0.8571165854636149;0.3210255029235159;1.192;0.17314987008797791
12:11.9;-0.5301141087495305;0.8809463881677029;0.250304505517254;1.186;0.11689273207379747
12:11.9;-0.4311149650756988;0.8786003639101124;0.16005563741177914;0.982;0.06062551664691206
12:11.9;-0.3342236283590069;0.8487549657029301;0.04540331218738271;0.982;0.012879737557138188
12:11.9;-0.24086074016464726;0.7916935316465552;-0.09907045672150518;0.982;0.018891536355140598
12:11.9;-0.15195990405429466;0.7092799082370962;-0.27844223662173284;0.858;0.030011090886126718
12:11.9;-0.06811632680800919;0.6048136430629263;-0.4964066216237736;0.733;0.020450803018402974
12:12.0;0.010190309661609295;0.4827679434199853;-0.754182810666681;0.642;0.0037102436950632715
12:12.0;0.0823484476158918;0.3484280146622215;-1.0494981447231293;0.611;0.03011273193338757
12:12.0;0.14739766046974234;0.20746846327850496;-1.3757894497733694;0.655;0.0420721450622873
12:12.0;0.2039097856474549;0.06551599810603762;-1.7217802228482444;0.77;0.023001870009763944
12:12.0;0.2500399101144048;-0.07225766794959496;-2.071615142298477;0.9620000000000001;0.03742849391607007
12:12.0;0.2837915242004658;-0.20146676498549088;-2.4057208634488036;2.995;0.13754603259861123
12:12.0;0.303469186903462;-0.31871984512926976;-2.702421304863294;2.995;0.26138265368569946
12:12.0;0.3082042820066564;-0.4216745496229972;-2.940078212006919;2.995;0.3820981558938493
12:12.0;0.2984037214539868;-0.5089469926008907;-3.099384108761951;3.781;0.4707086610713186
12:12.0;0.2760141549992471;-0.579931940101514;-3.165519136492324;4.268;0.5067028261187855
12:12.1;0.24455676996907222;-0.6346172549451277;-3.129968660199318;4.375;0.4857709671573669
12:12.1;0.20892075645514593;-0.673465085146292;-2.991745366595889;4.0889999999999995;0.42094107129181246
12:12.1;0.17492384584957296;-0.6973880696755397;-2.7577437699791854;3.528;0.33641661976821785
12:12.1;0.14868107988846027;-0.7077929474056823;-2.442102455233093;2.8480000000000003;0.2569956769677961
12:12.1;0.13586370937753958;-0.7066239024583979;-2.06466789195804;2.188;0.19821750055834453
12:12.1;0.14096319190482234;-0.6963342934233241;-1.6488308259580706;0.9620000000000001;0.16184511943923416
12:12.1;0.16668561408244517;-0.6797499194134844;-1.2191201766835733;0.9620000000000001;0.13813184197295228
12:12.1;0.2135792445401584;-0.6598367567441117;-0.7989761427184953;0.612;0.1125976592386503
12:12.1;0.27994912476204203;-0.6394185885781787;-0.4090329568241979;0.5920000000000001;0.07321881118525708
12:12.1;0.3620586587268445;-0.6208959528380827;-0.06605628888409393;0.669;0.014849503672662549
12:12.2;0.45457616628166986;-0.6060115688364338;0.21747476746708344;0.7609999999999999;0.05990960439307984
12:12.2;0.5511998713967112;-0.595696319818411;0.4332389467145492;0.889;0.14225302681352736
12:12.2;0.6453821186618937;-0.5900134777189445;0.5765602322858498;1.073;0.21954499698846236
12:12.2;0.7310619726800522;-0.5882024395554826;0.6457129026018376;1.252;0.2776645780731414
12:12.2;0.8033034693840069;-0.5888106153715189;0.6412311778600808;1.355;0.3032982497491285
12:12.2;0.8587387296650998;-0.5898911832633308;0.5653582426868624;1.251;0.2863892313034086
12:12.2;0.8957481471417695;-0.5892356398696539;0.42171497830277316;1.251;0.2225840048046583
12:12.2;0.9143688248602564;-0.5846078255285923;0.21522426871139005;1.251;0.11504752384811821
12:12.2;0.9159727161680793;-0.5739526023929478;-0.047726815183674796;1.131;0.025091176293103323
12:12.2;0.9027754449043665;-0.5555639866149049;-0.3589742351102127;1.0070000000000001;0.18004335717465264
12:12.3;0.877245591390184;-0.5282075754739273;-0.7082549134427112;0.925;0.32818249765447544
12:12.3;0.8415045197622645;-0.49119716916692674;-1.0830267629354766;0.993;0.4476633052139906
12:12.3;0.7968297085289286;-0.44442760470546594;-1.46855395251429;1.2429999999999999;0.5200635912119783
12:12.3;0.7433816704586773;-0.3883692426266919;-1.8483329621047881;1.6230000000000002;0.5336258814230597
12:12.3;0.6802551726615047;-0.3240383492859369;-2.204882004006518;2.119;0.4860194132387002
12:12.3;0.6058958508255583;-0.2529700847711087;-2.520854724488944;3.282;0.38638028899453436
12:12.3;0.5188076092892936;-0.17721971330053993;-2.7803499071692483;3.282;0.2556335329507462
12:12.3;0.4183349724469749;-0.09938571406321607;-2.970204807933704;3.282;0.12349077946528993
12:12.3;0.30523646319706305;-0.022599880620101598;-3.081076536571327;3.551;0.021254213778242482
12:12.3;0.18183539959939402;0.04960131761672963;-3.1082271205592944;3.7569999999999997;0.028033956435584324
12:12.4;0.051700687047197255;0.11359337594833874;-3.0519834042046763;3.741;0.01792385776709794
12:12.4;-0.08101093497991738;0.16615836227974118;-2.9177923759748614;3.451;0.03927536526468688
12:12.4;-0.21230271831462005;0.20504308600959412;-2.715768018049166;2.952;0.11822065305368315
12:12.4;-0.33892554365896294;0.2294174506241945;-2.4597192183634293;2.467;0.191256535778979
12:12.4;-0.45865315431597475;0.240099729554505;-2.1657945327714936;2.103;0.23850270477620564
12:12.4;-0.5702225855573323;0.2394834489408571;-1.8509717681931068;1.3;0.25276661575626425
12:12.4;-0.67302524569124;0.23118446351659047;-1.5316295275600504;1.3;0.23831080299776788
12:12.4;-0.7666927662439493;0.21951240483758083;-1.2223884260378473;1.3;0.20572622761916207
12:12.4;-0.8507238859863928;0.2089052604135289;-0.9353037772819462;1.044;0.16622283728042195
12:12.4;-0.9242588669091856;0.20342642637807998;-0.679363419899696;0.905;0.12773301232452156
12:12.5;-0.986046700903944;0.20636452010835357;-0.46020001041216846;0.9740000000000001;0.09364382407834307
12:12.5;-1.0345867844103778;0.21994558852656013;-0.2799953115656174;1.1059999999999999;0.0637137169037362
12:12.5;-1.0683814718511497;0.24515773978490304;-0.1376307027014661;1.22;0.03604850710548258
12:12.5;-1.0862188462445557;0.2816851639405524;-0.029144343507411234;1.224;0.008917345312834205
12:12.5;-1.0874129014432685;0.327953039574984;0.051493268671085654;1.179;0.01836354833553755
12:12.5;-1.0719557434350209;0.3812918661092115;0.11134300284139366;1.208;0.045509003511238565
12:12.5;-1.0405730727996156;0.4382190138671191;0.15732938323744589;1.208;0.07174202660944172
12:12.5;-0.9947000087403122;0.49480141037620945;0.1951178711272337;1.208;0.09603291229872483
12:12.5;-0.9363943084614847;0.5470431298614506;0.22820574239432934;1.176;0.11689795185411829
12:12.5;-0.8681893396392931;0.591259054665936;0.25733664170817566;1.1179999999999999;0.1320972822544163
12:12.6;-0.7928884498490439;0.6244139435121011;0.28027871025754053;1.048;0.13876335587559574
12:12.6;-0.7133248634905439;0.6443967018266338;0.291955246956292;1.013;0.13420137192280054
12:12.6;-0.6321345688660873;0.6501877269522539;0.2848914653072522;0.9790000000000001;0.11709214103585541
12:12.6;-0.5515899493402368;0.6418853652945034;0.2499361588717571;0.917;0.08849177559996632
12:12.6;-0.47351846107120965;0.6205781936013868;0.17722048546567928;0.838;0.05207716673139623
12:12.6;-0.3993009728978777;0.5880766661284432;0.05731164418708629;0.524;0.013457896499302248
12:12.6;-0.32992805965129945;0.5465545916282614;-0.11749852709632189;0.524;0.021187768669921968
12:12.6;-0.2660933379967051;0.4981858907804879;-0.3518563554098955;0.524;0.04664346711669102
12:12.6;-0.20830388687750734;0.4448614365791135;-0.6460799314653158;0.457;0.05986987962787508
12:12.6;-0.15697829130580582;0.38802690440173876;-0.9951162946558578;0.563;0.060614325148366996
12:12.7;-0.11249518147181611;0.3286339472657403;-1.3878874030508574;0.76;0.05130983024378477
12:12.7;-0.07515943391089737;0.2671729505602029;-1.8071729631372526;0.9440000000000001;0.036289059068769836
12:12.7;-0.04506890543356;0.2037515890364836;-2.230155749909071;1.229;0.020479210478818042
12:12.7;-0.02189985595878373;0.13819409098842247;-2.629745531028927;1.7630000000000001;0.007958742574111012
12:12.7;-0.004687160509376353;0.07015879203257756;-2.976772176174323;2.614;0.0009788981924114361
12:12.7;0.008281281159388058;-0.0007120189100832286;-3.2430160613029195;5.153;1.912221325473331e-05
12:12.7;0.01936761913394366;-0.07460605085995647;-3.404743116830663;5.153;0.004919654892405725
12:12.7;0.03129985590349222;-0.15134771453708826;-3.446039983792525;5.153;0.016324448477414884
12:12.7;0.046800556394123276;-0.23025646841433994;-3.361139065197161;4.8919999999999995;0.03622007432165461
12:12.7;0.0682298141182765;-0.3101182016302594;-3.1552264083057464;4.103;0.0667624050227347
12:12.8;0.09729889485888363;-0.3892964346400484;-2.843667849254463;3.08;0.10771277173888909
12:12.8;0.13487490481493777;-0.46595191039719136;-2.4499179202119827;2.13;0.15396562960744137
12:12.8;0.18087901327652378;-0.5382944421719493;-2.0025841003782188;1.431;0.1949839390549956
12:12.8;0.23427704302572355;-0.6047870939622833;-1.5322140383778113;0.988;0.21709593208780179
12:12.8;0.29316484326857395;-0.6642519793752695;-1.0683210381859611;0.75;0.20803984716550836
12:12.8;0.35494730290631554;-0.7158680243376636;-0.6370020896352225;0.905;0.16185931635765913
12:12.8;0.41659125892993465;-0.7590876877441793;-0.25932861906127475;0.905;0.082007306502397
12:12.8;0.47491032857147797;-0.7935175102674439;0.04944455637655387;0.905;0.018633164334922903
12:12.8;0.5268402876462254;-0.8188047784276279;0.27992231173260634;1.022;0.12075270348411438
12:12.8;0.5696906069469961;-0.8345611790757367;0.428038180165401;1.0979999999999999;0.20350718490819503
12:12.9;0.6013761304747937;-0.8403394778982054;0.49416681890964065;1.155;0.24973219475223613
12:12.9;0.6206209415828458;-0.8356611139316096;0.48207133338376706;1.188;0.25001607105982165
12:12.9;0.6271020357308125;-0.8200768758212107;0.39783460526348685;1.225;0.2045951496949271
12:12.9;0.6214843570988463;-0.793234384509217;0.2488975061282323;1.209;0.12270217989792767
12:12.9;0.6052975601875775;-0.7549245325710906;0.04330089848802888;1.133;0.019786517801700237
12:12.9;0.5806274579800847;-0.7050873880236387;-0.21080885735563384;0.963;0.08630369114848693
12:12.9;0.5496541428160598;-0.6437842736104676;-0.5053800432329492;0.963;0.17883312160198117
12:12.9;0.5141440107310397;-0.5711767970590829;-0.8323449766161086;0.963;0.2444323598505398
12:12.9;0.4750318886228097;-0.48756047734661734;-1.1832270449762212;1.114;0.274043399236422
12:12.9;0.4321916997690131;-0.39347084915036606;-1.5485813411231717;1.31;0.2633437446096055
12:13.0;0.38444968026486787;-0.2898525354601782;-1.9174424573658426;1.5;0.21366773552079837
12:13.0;0.329875333084821;-0.17827725885984824;-2.2769437187571198;1.705;0.1339053982678178
12:13.0;0.26634392170773585;-0.061183626657708524;-2.612250955065927;2.009;0.04256894655785512
12:13.0;0.19226725416089852;0.05793279473934497;-2.906953862972073;2.4019999999999997;0.03237933632880766
12:13.0;0.10727924737002832;0.1745001578487776;-3.144037819553261;3.089;0.05885716015762492
12:13.0;0.012623642466847353;0.2831463184754836;-3.3074532694266585;4.452;0.011821955541105243
12:13.0;-0.08890387072351597;0.3783010568484418;-3.3840765491296776;4.452;0.11381471173998904
12:13.0;-0.1933948415556599;0.4549843791154871;-3.365611993240488;4.452;0.29614569165887683
12:13.0;-0.2964450574253663;0.5095379067896182;-3.2499300874065704;4.146;0.49090192032878943
12:13.1;-0.39378149031837684;0.5401208363334143;-3.041536372052946;3.6189999999999998;0.6469031175042519
12:13.1;-0.48181818403483434;0.546919780180751;-2.751147948895493;3.029;0.7249712148543593
12:13.1;-0.5580779805303797;0.5320892635474417;-2.3945553847776875;2.494;0.7110567601910317
12:13.1;-0.6214112010732223;0.4994620674667421;-1.9910416260507633;2.0269999999999997;0.6179622240933873
12:13.1;-0.6719752904104557;0.45408947051872334;-1.561630287345199;1.607;0.4765110307985304
12:13.1;-0.7109957125410744;0.4016848953237895;-1.1273656901065923;1.1740000000000002;0.3219714003592767
12:13.1;-0.7403762480266222;0.3480419770132545;-0.7077480309654776;0.664;0.1823739373845098
12:13.1;-0.7622533201760863;0.2984901109397919;-0.31943407431639864;0.664;0.07267926270778488
12:13.1;-0.7785896577206476;0.2574429634382033;0.024645879330126443;0.664;0.004940079912495738
12:13.1;-0.7908799905749071;0.22807766313398453;0.31563760816299047;0.804;0.05693536199592955
12:13.1;-0.8000070576335363;0.21215311355762473;0.5486129125112011;0.9229999999999999;0.09311277145926085
12:13.2;-0.8062525448191653;0.20995604990738617;0.722080139180124;1.041;0.1222319926344834
12:13.2;-0.8094416589113188;0.22036411156493288;0.8373180920755309;1.148;0.14935401231415926
12:13.2;-0.809182571988386;0.24102282596055347;0.8976388266143456;1.244;0.17506782007995741
12:13.2;-0.8051481078352328;0.26863367232195223;0.907642843363799;1.294;0.19631397344691387
12:13.2;-0.7973336308638669;0.2993407155341063;0.8725105712454754;1.291;0.2082459541713449
12:13.2;-0.7862210115250644;0.32918680217780727;0.7973708351483013;1.038;0.2063704009019228
12:13.2;-0.7728016965248848;0.35458977300460703;0.6868036019987568;1.038;0.1882031277192717
12:13.2;-0.7584608299898066;0.37277197904668025;0.5445537862038761;1.038;0.1539632954799446
12:13.2;-0.744762333354974;0.3820795511697269;0.3735129368457179;0.958;0.10628626537293016
12:13.2;-0.7331777261373111;0.38215361938662634;0.17595850181730596;0.88;0.04930120058721152
12:13.3;-0.7247943805266754;0.37393965829349607;-0.04602326370751259;0.795;0.012473655845238652
12:13.3;-0.7200460765162827;0.3595312578481126;-0.29003086505530423;0.716;0.07508292108042625
12:13.3;-0.7185168719084783;0.3418570690541752;-0.5528628955110703;0.685;0.13579975277335032
12:13.3;-0.7188631983380873;0.3242449290315834;-0.8301574781742577;0.812;0.1934995360174933
12:13.3;-0.7188821600303297;0.3099239935789684;-1.1162384873532338;1.115;0.24869662892664887
12:13.3;-0.7157288367278613;0.3015376778121677;-1.4042038956981766;2.017;0.3030541773724355
12:13.3;-0.7062489663741568;0.3007334230765337;-1.6862058642709283;2.017;0.35813776433650696
12:13.3;-0.6873571158152617;0.3078796710509327;-1.9537834700876078;2.017;0.4134660716478364
12:13.3;-0.6563804971861363;0.3219429747016789;-2.1981187348084936;2.16;0.4645000540751861
12:13.3;-0.6113125354345685;0.34053562937741466;-2.4102153400758883;2.24;0.5017434427313792
12:13.4;-0.5509584379157945;0.36011981090535294;-2.5811157726819975;2.395;0.5121218867033762
12:13.4;-0.47498844076881763;0.3763431975952939;-2.7022797212097225;2.622;0.48305592520157126
12:13.4;-0.3839306984916241;0.384483724907341;-2.766180835445316;2.928;0.4083300746456831
12:13.4;-0.2791241088748112;0.37997286008718756;-2.7670948357975744;3.175;0.2934769326201256
12:13.4;-0.16262216513871972;0.35893634961228005;-2.7019671056228654;3.253;0.1577165390012773
12:13.4;-0.037027777409076805;0.31866645420704054;-2.571187763305766;2.978;0.030338757098321848
12:13.4;0.09473155994383874;0.25795207554241556;-2.3791009142266817;2.978;0.058136191724355954
12:13.4;0.22963647399730097;0.17723417031881028;-2.1341271379932363;2.639;0.08685775794402202
12:13.4;0.36475810843456336;0.07858863749482509;-1.848438829837545;2.1830000000000003;0.05298705684217075
12:13.4;0.49736248505891717;-0.03444415290585353;-1.5371806092991374;1.6909999999999998;0.02633379377780277
12:13.5;0.6249390509369397;-0.15715286931667163;-1.2172951884554133;1.228;0.11955173515144427
12:13.5;0.745173631856892;-0.28403323037712935;-0.9060941058748523;0.9159999999999999;0.19177850879822825
12:13.5;0.8558988621381691;-0.4092093400490586;-0.619770159645474;0.9590000000000001;0.21706942158362522
12:13.5;0.9550563823130348;-0.5268559314462234;-0.372072192286006;1.15;0.18721821410458692
12:13.5;1.040693355903165;-0.6315792493050565;-0.17335048878771817;1.264;0.11393986621222729
12:13.5;1.111002217821612;-0.7187225551073854;-0.03011563469708247;1.439;0.024047405159358354
12:13.5;1.1643986157439936;-0.7845800603830417;0.054874060583254815;1.439;0.050130962784478594
12:13.5;1.1996163423992576;-0.8265238241827358;0.08212791196005827;1.439;0.08143076810120521
12:13.5;1.2157936668435152;-0.8430648760482533;0.05474817132275492;1.535;0.056116488921552625
12:13.5;1.2125386034001269;-0.8338755823995379;-0.022255004037148057;1.577;0.02250217554720795
12:13.6;1.1899693667114866;-0.7997883512334206;-0.1425452033777122;1.564;0.13566363951249324
12:13.6;1.1487195468458482;-0.7427634905315172;-0.29887676474914365;1.496;0.2550097075008245
12:13.6;1.0898928876378404;-0.6658054053556004;-0.4833408454967263;1.385;0.3507394629105824
12:13.6;1.0149611554194617;-0.5728090978169758;-0.6875005923409327;1.2830000000000001;0.3996983957061988
12:13.6;0.9256132559891168;-0.46833050980059915;-0.9025227617015488;1.232;0.39123723460680887
12:13.6;0.8235799254594007;-0.35728954701669546;-1.1194070173118407;1.557;0.32939278930987653
12:13.6;0.710481627680464;-0.24463947811602102;-1.329338747069649;1.557;0.23105483302881544
12:13.6;0.5877685338739175;-0.13506262691531873;-1.5240897293741935;1.557;0.12099072001445792
12:13.6;0.4568051677121341;-0.032743876252458524;-1.6963659367056059;1.7519999999999998;0.025373515438231003
12:13.6;0.31909040714715775;0.05877647847684475;-1.8400772001158492;1.919;0.03451066711302801
12:13.7;0.176543043594909;0.13670852086228816;-1.9505691979947306;2.0669999999999997;0.04707686735737014
12:13.7;0.031760022870866565;0.19910786617679857;-2.0248426820835763;2.21;0.01280443770002885
12:13.7;-0.11184113902911347;0.24495768932821885;-2.0617370622649243;2.333;0.05648406395667021
12:13.7;-0.25006717755828217;0.2742070546980519;-2.062025793032937;2.384;0.14139348852540765
12:13.7;-0.3782225874842603;0.2877274902809322;-2.0283591997054913;2.333;0.22073626265384902
12:13.7;-0.4916045470527657;0.2871705583080497;-1.9650014603697512;1.953;0.2774078083260538
12:13.7;-0.5861392061657805;0.27474914024272756;-1.8773665353233433;1.953;0.3023334403336026
12:13.7;-0.6590093183889225;0.2529942147431636;-1.771444975072114;1.953;0.29534512893162246
12:13.7;-0.7091196065631101;0.2245345927396934;-1.653247993987884;1.807;0.26323325712025764
12:13.7;-0.7373173084423613;0.1919211875734413;-1.5283454088245776;1.71;0.21627128866090398
12:13.8;-0.7463519701407226;0.15749711087214943;-1.401519022260035;1.55;0.16474614903967677
12:13.8;-0.7405788956241816;0.12330949711684563;-1.2765475785701037;1.403;0.11657484978470567
12:13.8;-0.7254308643243038;0.09106163854754919;-1.1561418748282877;1.286;0.07637348726941631
12:13.8;-0.70673272215151;0.06210632308179449;-1.0420212616609625;1.2109999999999999;0.0457369919759019
12:13.8;-0.6899805282862765;0.037477370641158296;-0.9350835566678702;1.124;0.02418000401730258
12:13.8;-0.6797139555306889;0.017948040373827627;-0.8356015247979133;0.88;0.010193948808226426
12:13.8;-0.6790724726447662;0.004098141580920945;-0.7434005199123891;0.88;0.002068835427434105
12:13.8;-0.6895649307903826;-0.0036326840142226003;-0.6580206060064083;0.88;0.001648322865018584
12:13.8;-0.7110359447645063;-0.00492892624591007;-0.5788905744518233;0.889;0.0020288052220711907
12:13.8;-0.7417984745319256;0.0003632744056799278;-0.5055161643899639;0.915;0.00013622467610638063
12:13.9;-0.7788989292280748;0.012143599032517625;-0.4376530845954612;0.958;0.0041396013454979
12:13.9;-0.8184688608279276;0.029924605396929937;-0.37543471690969493;1.015;0.009195281375777556
12:13.9;-0.8561053944241622;0.052684891572208174;-0.3194397543264667;1.0270000000000001;0.014407953141530858
12:13.9;-0.8872255266090987;0.07874279472283015;-0.27069525846656683;0.982;0.018911479305275057
12:13.9;-0.9073594891856511;0.10569085563362346;-0.23061756498959926;0.938;0.02211613241520122
12:13.9;-0.9123795674623651;0.1304312908145602;-0.2009027963938496;0.8640000000000001;0.023908004278439525
12:13.9;-0.8986901346594314;0.1493388286646189;-0.18338845200646026;0.8640000000000001;0.02461244164809292
12:13.9;-0.8634172746998843;0.15855176115283331;-0.17991224548124085;0.87;0.024629326040903992
12:13.9;-0.8046262662854796;0.1543686660048856;-0.19218815577105502;0.889;0.023871514660775868
12:13.9;-0.7215694783560888;0.13371126216384857;-0.22170360351043325;0.889;0.021390399467221353
12:14.0;-0.6149388448484631;0.09459791758651537;-0.26962879499579095;0.882;0.01568482851167807
12:14.0;-0.48707439968155775;0.03656078376023806;-0.336729755961488;0.853;0.005996423489561203
12:14.0;-0.3420651752906095;-0.039062148234079344;-0.42328474123941867;0.836;0.0056558463022332115
12:14.0;-0.18567146038577143;-0.1290244185608888;-0.5290071772328027;0.815;0.012672976463063297
12:14.0;-0.02500026748382648;-0.22831477337779316;-0.6529712520717065;0.789;0.003727114463261011
12:14.0;0.13210446099717937;-0.33058125404908706;-0.7935241913999264;1.27;0.034654199994935304
12:14.0;0.2779036193144655;-0.4288054562818452;-0.9481652775858783;1.27;0.11298962125785347
12:14.0;0.4056513544635582;-0.5161033643133248;-1.1133886589801827;1.27;0.23309685490664656
12:14.0;0.5102961287552159;-0.5864897309813769;-1.2845289015428676;1.61;0.38443822750122525
12:14.0;0.5888518742741412;-0.6354920275756246;-1.4556950484685334;1.75;0.5447366216218348
12:14.1;0.6404175619469706;-0.6605567401585363;-1.6198915615129614;1.777;0.6852661890722374
12:14.1;0.6658933994260731;-0.6612102343652547;-1.7693871055816899;1.9080000000000001;0.7790532346601472
12:14.1;0.6675006879166973;-0.6389667771243956;-1.8963258451010212;2.267;0.8088033836338572
12:14.1;0.6482656587076308;-0.5970280166096107;-1.993500217770794;2.574;0.7715498922501575
12:14.1;0.6116151425711306;-0.5398443733928417;-2.0551316934897548;2.591;0.6785572035952072
12:14.1;0.5611428016022181;-0.47259903873299924;-2.0774802404515493;2.2;0.5509385121327678
12:14.1;0.5005075096182153;-0.4006676118615405;-2.0591720429076403;2.2;0.4129404899563816
12:14.1;0.4333867591299281;-0.3291194035851022;-2.001261538355185;2.2;0.28545192414738696
12:14.1;0.3634218837347906;-0.26232594079090166;-1.907116353113017;2.131;0.18181491378945278
12:14.2;0.29411886945529836;-0.20370388781441215;-1.7821847062265785;1.959;0.1067763124415322
12:14.2;0.22870140619504575;-0.1555791030226835;-1.6336446278721979;1.685;0.05812697029257207
12:14.2;0.16995224753938537;-0.11914977055089214;-1.4699207058165542;1.4609999999999999;0.029765558120341387
12:14.2;0.12009715935297866;-0.09453582635782147;-1.300086184639504;1.2790000000000001;0.014760507959402166
12:14.2;0.08076166376851227;-0.0809096604285079;-1.1331996970523337;1.095;0.007404778730552194
12:14.2;0.05298277742018422;-0.07670411456353626;-0.9776285522020993;0.9590000000000001;0.0039730795317441
12:14.2;0.037226497436032485;-0.07988220216989955;-0.8404004193010032;0.35200000000000004;0.0024991277999080147
12:14.2;0.03337377172696558;-0.08823241410838982;-0.7266429387646821;0.35200000000000004;0.002139708001427611
12:14.2;0.040679142494837416;-0.09964466073354711;-0.6392178195667244;0.35200000000000004;0.002591043449218142
12:14.2;0.05773624653828071;-0.11233498625446584;-0.5786655493948261;0.405;0.0037531092871815152
12:14.2;0.08248627938085752;-0.12500470286777224;-0.5435069435340074;0.585;0.005604194037058613
12:14.3;0.11229777772807516;-0.13692415180908138;-0.530844012583269;1.032;0.008162405093781255
12:14.3;0.14413774981722213;-0.14793070151500087;-0.537105551060944;1.307;0.011452378566879896
12:14.3;0.1748311344469218;-0.1583374753914709;-0.5587067244300433;0.6659999999999999;0.015466298582210047
12:14.3;0.20136695162780896;-0.16876294313269288;-0.5924185696088293;0.38799999999999996;0.020132325776537504
12:14.3;0.22118683169182493;-0.17991311255065712;-0.6354288615813414;0.514;0.02528651749818596
12:14.3;0.23240918437889532;-0.1923715916331677;-0.6852714408678315;0.9490000000000001;0.030637749255079946
12:14.3;0.23397507139783438;-0.20644934111352753;-0.7398022412515647;0.9490000000000001;0.03573540696358302
12:14.3;0.22571237113157544;-0.22210977479395183;-0.7972429188265097;0.9490000000000001;0.03996811859548195
12:14.3;0.2083091610385234;-0.23895598449552483;-0.8562047764421352;0.975;0.04261906598077696
12:14.3;0.18319246012492413;-0.2562693086025753;-0.9156270581019816;0.987;0.04298558191322539
12:14.4;0.15232576188701338;-0.2731000915971412;-0.974627636949803;0.963;0.04054468466611271
12:14.4;0.11794776269849021;-0.28840693664148975;-1.0323016769392848;0.9279999999999999;0.035115757547385565
12:14.4;0.08227048168711368;-0.3012229524043515;-1.0875243455590098;1.016;0.026950764486840452
12:14.4;0.047161925548985906;-0.3108159087353151;-1.1388220370602924;1.166;0.016693624113872103
12:14.4;0.013869453168539176;-0.3168091206181138;-1.1843557333864316;1.255;0.005204022687511715
12:14.4;-0.017136691450993773;-0.31922859134157205;-1.222019917677469;1.294;0.00668508668786475
12:14.4;-0.046143304104761855;-0.318449442854701;-1.2496296978475727;1.294;0.01836244552011534
12:14.4;-0.07400263750933575;-0.3150551017667501;-1.2651565060144054;1.294;0.029497008165166528
12:14.4;-0.10182624982131179;-0.3096681108811457;-1.2669750779003386;1.371;0.03995069199431089
12:14.4;-0.13063730683613883;-0.30281257192544647;-1.2540950903826025;1.37;0.0496102697102748
12:14.5;-0.16105403688247627;-0.2948382608141727;-1.2263557427839418;1.3319999999999999;0.058233370160978966
12:14.5;-0.19307390927928086;-0.2859153580823052;-1.1845583108546367;1.354;0.06539093067515804
12:14.5;-0.2260068267096518;-0.2760966209818794;-1.1305116292261552;1.354;0.07054361044696662
12:14.5;-0.2585637525739262;-0.2654245736489833;-1.0669686964632872;1.25;0.07322518009595139
12:14.5;-0.28906682019245505;-0.25403982536499176;-0.9974391693164524;1.107;0.07324643123931414
12:14.5;-0.31572452479429913;-0.2422426833292202;-0.9258863166862977;0.9009999999999999;0.07081359660696142
12:14.5;-0.33691065894565736;-0.23048528776779095;-0.8563579721427879;0.9009999999999999;0.0664987229463012
12:14.5;-0.35139312128228567;-0.21931016144947854;-0.7926281264808472;0.9009999999999999;0.06108315906196547
12:14.5;-0.35847699684939377;-0.20927111832803497;-0.7379094422965821;0.816;0.05535714139718529
12:14.5;-0.3580509452449016;-0.20086456186278487;-0.6946526330323617;0.743;0.04995924109345022
12:14.6;-0.35054708000336493;-0.1944855630808569;-0.664421767969229;0.7020000000000001;0.045297848502997715
12:14.6;-0.33683771159024495;-0.19041832914003182;-0.6478384173355062;0.6729999999999999;0.041552404178478115
12:14.6;-0.31809931488333726;-0.1888665691382115;-0.6445967997775599;0.67;0.038726296834957624
12:14.6;-0.29567224694996497;-0.19001887524485472;-0.6535525407585329;0.6940000000000001;0.036718743565190295
12:14.6;-0.27092967121918;-0.19413103208709298;-0.6728873001733328;0.7170000000000001;0.035391084013010686
12:14.6;-0.2451502181839785;-0.20159666099473494;-0.700350067685901;0.9440000000000001;0.0346123266576508
12:14.6;-0.21939016848781842;-0.21297411922000947;-0.7335556577783123;0.9440000000000001;0.034274968441929565
12:14.6;-0.19437753264682048;-0.22894313928108578;-0.7702821364028212;0.9440000000000001;0.034278635413633886
12:14.6;-0.17046867010300765;-0.2501784385457242;-0.8086922681911796;0.9329999999999999;0.03448877281854379
12:14.6;-0.14769184985661066;-0.2771484806160148;-0.8474362846855027;0.898;0.034687746557906574
12:14.7;-0.12586827800996578;-0.30987523915679177;-0.8856423440262369;0.9490000000000001;0.03454311817557405
12:14.7;-0.10477323604958715;-0.34771879887185836;-0.9228267812099294;0.9570000000000001;0.03362007811921922
12:14.7;-0.08428466081570114;-0.38926327146932965;-0.958756585014325;0.995;0.03145577078537244
12:14.7;-0.06446999619919264;-0.4323639110214943;-0.9932880703588175;1.0270000000000001;0.027687408019452735
12:14.7;-0.04558555481663144;-0.4743725662403168;-1.0262008110242316;1.044;0.022191117019369867
12:14.7;-0.027991656821119572;-0.5125077753275924;-1.0570485171532384;1.245;0.015164356469992537
12:14.7;-0.012010905913960783;-0.5442909626516425;-1.0850535782330926;1.245;0.007093459147134085
12:14.7;0.002224380360951824;-0.5679413944082096;-1.1090716620571046;1.245;0.0014011098433815803
12:14.7;0.014885659399718155;-0.5826301774929167;-1.1276459211175196;1.329;0.00977988631105642
12:14.8;0.026490679461433846;-0.5885434276938609;-1.1391563481745035;1.369;0.017760490128928264
12:14.8;0.037866763285028464;-0.5867662512026166;-1.1420425277309427;1.386;0.025374972959768004
12:14.8;0.05004033305394943;-0.5790416964929216;-1.1350454572714264;1.365;0.032888440800565695
12:14.8;0.06406911199747435;-0.5674749201845275;-1.117402603931975;1.29;0.04062609279889739
12:14.8;0.08085034853185147;-0.5542449921027107;-1.088951594204896;1.23;0.0487969018459905
12:14.8;0.10095457808175581;-0.5413636194279505;-1.0501348618281892;1.192;0.05739316319937768
12:14.8;0.12453434832516773;-0.530493378393569;-1.001928193319622;1.02;0.0661920325803943
12:14.8;0.15132950816993465;-0.5228194810048302;-0.9457336555027643;1.02;0.07482456946842017
12:14.8;0.18074694466585395;-0.5189680653793298;-0.8832818374511813;1.02;0.08285350769568946
12:14.8;0.21196947008077952;-0.5189737599169069;-0.8165729257505754;0.986;0.0898284053961312
12:14.9;0.2440610665731057;-0.5223032073893858;-0.7478545278708525;0.948;0.09533191675034118
12:14.9;0.27605516088901094;-0.5279363084005373;-0.6796120562087491;0.9279999999999999;0.09904635018649553
12:14.9;0.3070170945976747;-0.5344988813270254;-0.6145493887691814;0.92;0.10084773513531772
12:14.9;0.33607321582735106;-0.5404306478919143;-0.555548362800779;0.9129999999999999;0.10090106349269179
12:14.9;0.36240755716767026;-0.5441642108616609;-0.5055988101044678;0.892;0.09970874816504728
12:14.9;0.3852374909940199;-0.5442906538195033;-0.46768697027747536;0.856;0.09806514918013026
12:14.9;0.4037858871736883;-0.5396965036880143;-0.44462951242197435;0.797;0.09689447770649168
12:14.9;0.4172664671894382;-0.5296677141776833;-0.43885311127200965;0.797;0.0969920565548399
12:14.9;0.42489246801752945;-0.5139605264021586;-0.4521427078672267;0.797;0.09873800060244925
12:14.9;0.42591288533778004;-0.492835537129129;-0.48539654381667546;0.774;0.10188716425566216
12:15.0;0.41967895493109036;-0.46704658999333715;-0.5384246731908346;0.7609999999999999;0.1055364181711778
12:15.0;0.40574192700817874;-0.4377767403905611;-0.6098234282410316;0.767;0.10831950728080707
12:15.0;0.38397779757773126;-0.4065216479315524;-0.6969565058672242;0.82;0.10879162583803766
12:15.0;0.35472545192598337;-0.37493376583949245;-0.7960632002133736;0.907;0.10587525096236959
12:15.0;0.31891117400518654;-0.34465264310825494;-0.9024947329378418;1.028;0.09919642615982102
12:15.0;0.27811643849241563;-0.3171515380208508;-1.0110605400928998;1.1840000000000002;0.08918065177743281
12:15.0;0.23453869215629558;-0.2936250997193953;-1.1164491674722292;1.385;0.07688588727751602
12:15.0;0.1908158302038472;-0.27492860591523227;-1.2136668728434166;1.385;0.06366985035010603
12:15.0;0.14973305088957917;-0.26156376104029855;-1.2984215155450547;1.385;0.05085234099235022
12:15.0;0.11386516410226549;-0.2536975920894677;-1.3673967776513585;1.489;0.039500425487500705
12:15.1;0.08520635630819519;-0.2512005459434181;-1.4184054642049782;1.614;0.030359384917953924
12:15.1;0.06483846256683748;-0.25369122419491735;-1.4504320008388976;1.6640000000000001;0.023858081927813694
12:15.1;0.052706308856405634;-0.2605728986760266;-1.4635588236459312;1.575;0.020100276387909673
12:15.1;0.04757046980086543;-0.2710470209223398;-1.4587637626582974;1.364;0.018809057980943962
12:15.1;0.047173817348202175;-0.2841031876157475;-1.437610823313195;1.183;0.019267193608142944
12:15.1;0.048604638246531356;-0.29851017256536966;-1.4019161919938272;1.176;0.020340372519932676
12:15.1;0.04878602874313718;-0.3128472975306278;-1.3535026882521806;1.383;0.020657939336911665
12:15.1;0.04498629872740102;-0.3255990616614347;-1.2941210183888567;1.383;0.018955633285767784
12:15.1;0.03524281717047494;-0.33529370689624916;-1.225534043147647;1.383;0.014481761767821682
12:15.1;0.0186208970841167;-0.3406363474010015;-1.1496930300847004;1.382;0.007292450427107879
12:15.2;-0.0047259094013280475;-0.340597056120213;-1.0689166867267268;1.295;0.001720561253211236
12:15.2;-0.03368166183683576;-0.3344449948283042;-0.9859971722614536;1.162;0.011106926080243221
12:15.2;-0.06642854791350757;-0.32174288857504235;-0.9041827094713032;1.0090000000000001;0.019325018285756182
12:15.2;-0.10076856045712003;-0.30232710804627055;-0.827023175320107;0.882;0.02519531683123473
12:15.2;-0.13443455081061603;-0.27629912380520094;-0.7581050051978496;0.8009999999999999;0.028159164966046688
12:15.2;-0.1653388482361572;-0.24404352060239407;-0.7007261179832296;0.733;0.028274211000707376
12:15.2;-0.19173488051847598;-0.20627114272287966;-0.6575641888375942;0.5710000000000001;0.026006251312904714
12:15.2;-0.21229331685826122;-0.16407310245219625;-0.6303860796066091;0.5710000000000001;0.021957370349239648
12:15.2;-0.22611214953817607;-0.11896755118172445;-0.6198439040553788;0.5710000000000001;0.016673806425983536
12:15.2;-0.23268557249452582;-0.07292021431052795;-0.62539545731139;0.584;0.010611386048031878
12:15.3;-0.23185148556655322;-0.02831596458355238;-0.6453660737412097;0.597;0.004236891812947956
12:15.3;-0.22372858799598483;0.012140363014447545;-0.6771473197027488;0.6559999999999999;0.0018392311700240079
12:15.3;-0.20864975717176037;0.045603035312571635;-0.7175142137303467;0.764;0.00682719240478788
12:15.3;-0.18710417621060785;0.06933536555225953;-0.7630286077192185;0.898;0.009898721640462089
12:15.3;-0.15971072832154384;0.08100587406898985;-0.8104759243929446;1.034;0.01048553806339874
