Time;AccX;AccY;AccZ;Acc-old;Acc-trns
55:05.2;-0.07971207373733614;-0.33919379117995596;-1.0056263921697584;1.067;0.027189965987824645
55:05.2;-0.0640946163497861;-0.30466806685023784;-1.0066623991408996;1.1440000000000001;0.019657683410059273
55:05.2;-0.04856828335620634;-0.2718123765465245;-1.0058256436721102;1.189;0.013278367528798754
55:05.2;-0.033417462610621784;-0.2421592126848642;-1.0016094949537266;1.097;0.008105371026466147
55:05.2;-0.018975386553592866;-0.21688067826875967;-0.9930726574976523;1.097;0.004086885957493238
55:05.2;-0.00562420288204029;-0.1966862132378482;-0.9799601571506077;1.097;0.001084035029716705
55:05.2;0.00621260604438636;-0.18179016944890572;-0.9627161250506182;1.0390000000000001;0.0010872826436943814
55:05.2;0.016089575942999257;-0.17194858448818326;-0.9423979232806488;0.9740000000000001;0.0026072190660393862
55:05.2;0.023573122545710885;-0.1665510458010558;-0.9205066422177306;0.9059999999999999;0.0036140270980666474
55:05.3;0.028286717257376925;-0.16474772347170036;-0.8987606816940202;0.857;0.004188379608569954
55:05.3;0.029958991707777532;-0.1655904552389478;-0.8788511394381511;0.82;0.004359912897472172
55:05.3;0.028465322286431647;-0.1681670214246446;-0.8622201856037609;0.79;0.0041273863476688636
55:05.3;0.023855066890453032;-0.17170959805674554;-0.8498969919049125;0.7909999999999999;0.003481300419284775
55:05.3;0.016359897476458385;-0.1756633927873153;-0.8424133801090169;0.863;0.002420957137406714
55:05.3;0.006384189400429271;-0.1797104572512119;-0.8398022367644794;0.863;0.0009635098060499061
55:05.3;-0.005516092432218387;-0.18375389137212753;-0.8416595267467082;0.863;0.0008531089996894644
55:05.3;-0.018659325623594545;-0.1878736888449868;-0.847239491176633;0.877;0.0029700796562073966
55:05.3;-0.032267734533042394;-0.19226591881900024;-0.8555590444803645;0.889;0.005307876016035255
55:05.3;-0.045504022663195684;-0.19717632406269459;-0.8654993622690879;0.895;0.0077655337057934
55:05.4;-0.057518594708871294;-0.20284027454182738;-0.87589872671563;0.909;0.010219187122524204
55:05.4;-0.06750754688516697;-0.20944025595853802;-0.8856325701549965;0.94;0.012521779921982987
55:05.4;-0.07477781105475947;-0.21708695605858755;-0.8936777550472694;0.9329999999999999;0.014507327825120857
55:05.4;-0.07881271388384398;-0.2258222915366203;-0.8991597224376339;0.895;0.016002945905532712
55:05.4;-0.07932902877270451;-0.235636715180052;-0.9013862727152656;0.961;0.016849461945219284
55:05.4;-0.07631545172529208;-0.24649110424743964;-0.8998772187163269;0.961;0.016927662321672858
55:05.4;-0.07004318879505472;-0.2583343086716781;-0.8943953728746588;0.961;0.01618368962426054
55:05.4;-0.06104242941916175;-0.2711107305537152;-0.8849732930271589;0.965;0.01464565102604906
55:05.4;-0.050043819499810197;-0.2847580978091293;-0.871923936946831;0.9670000000000001;0.01242524991571385
55:05.4;-0.03789213789406366;-0.29919982483210644;-0.8558242517563013;0.9259999999999999;0.009702754279220112
55:05.5;-0.02544744150742308;-0.3143357111775275;-0.8374653175644102;0.872;0.006698918258826622
55:05.5;-0.01349089325799666;-0.33003234605086884;-0.8177728172613197;0.84;0.003641077167044487
55:05.5;-0.002647688014119141;-0.3461148500590903;-0.7977149549498433;0.831;0.0007310292872640045
55:05.5;0.0066659441822137615;-0.362363714436781;-0.7782206399201319;0.841;0.0018797890717154964
55:05.5;0.014267045553716827;-0.378520307871713;-0.7601233305815805;0.8540000000000001;0.004104944551651773
55:05.5;0.020198885178705907;-0.39430027439756316;-0.7441321045257488;0.8540000000000001;0.005926585057270955
55:05.5;0.024694489921237416;-0.40940929197894;-0.7308207832044944;0.8540000000000001;0.007388710397435465
55:05.5;0.028117809935371097;-0.4235564173941819;-0.7206219087358898;0.838;0.008582231374592584
55:05.5;0.030891913473626388;-0.4364658848847896;-0.7138147439124374;0.8220000000000001;0.00962455431676462
55:05.5;0.033424350997924915;-0.44789124443767825;-0.7105044963870589;0.8220000000000001;0.010636589205845247
55:05.6;0.03604099958351516;-0.4576331081172001;-0.7105997355667605;0.825;0.01172031557928022
55:05.6;0.03893961662868927;-0.4655581300094122;-0.7138001438241275;0.82;0.01294023661838611
55:05.6;0.04217096701405996;-0.4716155396652275;-0.7196062303920501;0.833;0.014311876543611124
55:05.6;0.04564971377476444;-0.4758476814859187;-0.7273601450323383;0.8540000000000001;0.015799942886781253
55:05.6;0.04919137952330968;-0.47839149577514883;-0.7363217960220608;0.934;0.01732766763659511
55:05.6;0.052565988167917584;-0.4794687270186407;-0.7457728359171818;0.934;0.018796270197617062
55:05.6;0.05555409125191008;-0.47936379085571634;-0.7551264453542833;0.934;0.02010948525209818
55:05.6;0.0579904076202808;-0.47838936576525476;-0.764016557709441;0.937;0.021195343005839428
55:05.6;0.05978576191146641;-0.47684118046810015;-0.7723507346243293;0.935;0.02201841670860768
55:05.6;0.06092565749278692;-0.4749457976131596;-0.7803236723795287;0.948;0.022579746203139576
55:05.7;0.061450876880957385;-0.47280761681115496;-0.7883925498059502;0.94;0.022906306123268307
55:05.7;0.061430086216000684;-0.4703620770359732;-0.7972149508041981;0.915;0.023035034078061272
55:05.7;0.0609337195703226;-0.46734172252731854;-0.8075526997761745;0.915;0.02299657281681975
55:05.7;0.06001534076377428;-0.4632620884578073;-0.8201512367773403;0.907;0.022802527134149098
55:05.7;0.05870579994952305;-0.45743431255199013;-0.8356094623965055;0.888;0.022439495979663573
55:05.7;0.05702318017128506;-0.44900992833318815;-0.854257604191346;0.888;0.021872389522929803
55:05.7;0.05499467924099552;-0.43706158729349615;-0.8760627995500858;0.888;0.021057099592214166
55:05.7;0.05268152848207159;-0.4207006297730441;-0.9005834546808674;0.9309999999999999;0.019959768183732265
55:05.7;0.05020020625092077;-0.39922532793921245;-0.9269900502827628;0.998;0.018577987251299295
55:05.7;0.04773845236744125;-0.37228277416481026;-0.9541583230281754;1.0759999999999998;0.016957495870600713
55:05.8;0.045565432132845744;-0.34001797515716287;-0.9808215247947556;1.135;0.015195932589393847
55:05.8;0.04403038782381312;-0.3031795804550892;-1.0057499009549016;1.158;0.013425870593953435
55:05.8;0.04354001145646196;-0.26315158669706323;-1.0279187919611301;1.162;0.011777506095262385
55:05.8;0.04450824667483215;-0.2218829869062825;-1.0466349131930013;1.1740000000000002;0.010336171522175681
55:05.8;0.0472813719799121;-0.18169971941285684;-1.0616055121031718;1.05;0.009120265717317382
55:05.8;0.05204929871286185;-0.14501685766323322;-1.072950834597034;1.05;0.008098660520419682
55:05.8;0.05875742607732142;-0.11401284452229803;-1.0811766804271163;1.05;0.007242912087954809
55:05.8;0.06703344306619244;-0.09034262356041874;-1.0871346510086282;1.08;0.006583662565135502
55:05.8;0.07614504753168998;-0.07494069545903351;-1.091991178683115;1.214;0.0062312978593876455
55:05.8;0.08500923003670494;-0.0679350609310377;-1.0972013744127385;1.209;0.006336455581627213
55:05.9;0.09227240751244595;-0.06867793734984601;-1.1044557105081683;1.18;0.006999022672293434
55:05.9;0.09646413965404332;-0.07588118498257232;-1.1155608621811663;1.147;0.00816569715259082
55:05.9;0.09620105130434828;-0.08782357832891333;-1.1322406764592163;1.082;0.009565985087222388
55:05.9;0.0903958546125101;-0.10259326981031971;-1.155882031093741;1.025;0.010719657240726922
55:05.9;0.07842040805316255;-0.11833933988730065;-1.1872792479960468;1.162;0.011018211818698402
55:05.9;0.06018939146969024;-0.13350969435245624;-1.2264342711385423;1.162;0.009855463003995733
55:05.9;0.03616578618139411;-0.1470439613689471;-1.27244692493139;1.162;0.006766822442039568
55:05.9;0.007312148185307258;-0.1584879932047362;-1.3235056752010537;1.162;0.0015337944371569187
55:05.9;-0.024996052127995348;-0.16801187169101342;-1.376989179195966;1.306;0.005782849890096799
55:05.9;-0.05909622900102697;-0.17633251629416938;-1.4296946805260458;1.4609999999999999;0.01489825746337515
55:06.0;-0.09320281586607;-0.1845525080869253;-1.4781878923507972;1.617;0.025426034149106776
55:06.0;-0.1255892587943817;-0.1939346890145081;-1.519225106074381;1.71;0.03700241964406113
55:06.0;-0.1547528845017186;-0.20564633094876839;-1.5501658212262839;1.757;0.04933303965223331
55:06.0;-0.17953215827541874;-0.2205227850881584;-1.569293441525143;1.7819999999999998;0.06212978923436172
55:06.0;-0.1991640659986615;-0.2389035694469624;-1.5759871034054884;1.656;0.07498705225275304
55:06.0;-0.21328778337591142;-0.2605715464099;-1.570726954251665;1.656;0.08729586398340575
55:06.0;-0.2219112442313641;-0.28478752860216444;-1.5549545933625044;1.656;0.0982693281468127
55:06.0;-0.2253586630747993;-0.31038967748272606;-1.5308296533490304;1.6030000000000002;0.10708000763147232
55:06.0;-0.22421103591429467;-0.3359329331637967;-1.500917703855723;1.464;0.11304892774954996
55:06.0;-0.21924274106491135;-0.35985378984616095;-1.4678392267773708;1.495;0.1158056620454539
55:06.1;-0.21135368367089782;-0.3806396759951191;-1.4339187174558945;1.402;0.11535818391491794
55:06.1;-0.2015000766113285;-0.3969726886907197;-1.4008796482125525;1.288;0.11205640114173335
55:06.1;-0.19062975231962723;-0.4078227879533401;-1.3696286892208835;1.25;0.10647925829702963
55:06.1;-0.17962406125258734;-0.4124837916596463;-1.3401727132564079;1.245;0.09929609524374157
55:06.1;-0.16924253936062156;-0.4105626421847697;-1.3117047512443962;1.4169999999999998;0.09114336407788523
55:06.1;-0.16006777043695491;-0.4019418573794837;-1.2828578456553947;1.4169999999999998;0.08253642719731559
55:06.1;-0.1524594326006103;-0.3867380716804624;-1.252069404592184;1.4169999999999998;0.07382434967510045
55:06.1;-0.14653681976629548;-0.36527440979559034;-1.2179658345137758;1.4169999999999998;0.06519302238355733
55:06.1;-0.14220478572341763;-0.3380714057716345;-1.1796879895314916;1.4140000000000001;0.05671393872474011
55:06.1;-0.13922402807184264;-0.30584966918711337;-1.1371058239804008;1.361;0.04841981142672855
55:06.2;-0.1373139074364971;-0.2695353845971611;-1.0908898974148105;1.227;0.040374878922886145
55:06.2;-0.13626520374443524;-0.23026358727582386;-1.0424269582404895;1.095;0.03270814168200197
55:06.2;-0.1360316333057349;-0.1893757786450403;-0.9936002689883506;0.941;0.02559623238960816
55:06.2;-0.13676837730047714;-0.148405730060206;-0.9464931791847915;0.825;0.01921117165669249
55:06.2;-0.13879718029106328;-0.10904567375556387;-0.9030966332300988;0.77;0.013668577098671295
55:06.2;-0.14250048271623084;-0.07308947734065256;-0.8650959707702984;0.77;0.009010221782181152
55:06.2;-0.14817343417214132;-0.04235579276481312;-0.8337819183822831;0.77;0.005232818047106132
55:06.2;-0.15587535966493535;-0.018592950029221882;-0.8100912575305884;0.81;0.0023477925271631374
55:06.2;-0.1653149888436942;-0.0033602749721266794;-0.7947512223459459;0.893;0.00044148733958840867
55:06.2;-0.17579119454118636;0.002117601776594411;-0.7884798829482379;0.958;0.00029351616693044176
55:06.3;-0.18620375193370578;-0.0028894098030233556;-0.7921772552400511;1.04;0.00042620637206546724
55:06.3;-0.1951393848269252;-0.018475236755744084;-0.8070315836376853;1.122;0.002909547659177505
55:06.3;-0.20102098617851816;-0.04401891543760971;-0.8344672182693272;1.147;0.007383971596692288
55:06.3;-0.20228942453286436;-0.07821583357054628;-0.875876877544128;1.013;0.013858330630464362
55:06.3;-0.19757899712274768;-0.11925149450689959;-0.9321245277514689;0.679;0.02196233659504752
55:06.3;-0.1858553782542623;-0.16510320541504506;-1.0028921562638213;0.679;0.03077406543007085
55:06.3;-0.16650422765364117;-0.21388703402439155;-1.0860468169485182;0.679;0.03867748890667446
55:06.3;-0.13937412039505823;-0.2641371513134598;-1.1772476463648538;0.843;0.04333905726595331
55:06.3;-0.10478002952506672;-0.31493917192155974;-1.2699599024740889;1.0979999999999999;0.04190783318860761
55:06.3;-0.06347117062796641;-0.36588908323861885;-1.355935125333732;1.416;0.03148943522447777
55:06.4;-0.016564698658621334;-0.4168840244240315;-1.426098567403793;1.735;0.009848006713440475
55:06.4;0.0345609920676021;-0.4677947122529613;-1.4716785993665404;1.923;0.023793289199197744
55:06.4;0.08842682139695057;-0.5181195823457322;-1.4853495425586927;1.9680000000000002;0.06805228116470846
55:06.4;0.14367129452329494;-0.5667396010431841;-1.4621686102953895;1.891;0.11905592710839503
55:06.4;0.19930021709150147;-0.6118620925959828;-1.400165413383356;1.69;0.17074211824883903
55:06.4;0.25489989486203146;-0.6511686640172064;-1.3005582784955494;1.69;0.21587033583533324
55:06.4;0.3107136137678129;-0.6820979634988357;-1.1676711875360757;1.69;0.2474728723093597
55:06.4;0.36749454873998844;-0.702159981459035;-1.0086431400600615;1.506;0.2602702410927322
55:06.4;0.4261228556986372;-0.709220381845104;-0.8329578365080615;1.265;0.25173236458112624
55:06.4;0.4870739869313597;-0.7017548063352524;-0.6517640552767898;1.105;0.22277719797049444
55:06.5;0.549889129240206;-0.6790898150870278;-0.47697234647088166;0.951;0.17811297258946585
55:06.5;0.612795299083313;-0.6416169286152804;-0.32018058631609614;0.8959999999999999;0.1258885509521173
55:06.5;0.6725734009472519;-0.5909289615634582;-0.19155263735888603;0.925;0.07613127427268343
55:06.5;0.7247221681644452;-0.5298173320952505;-0.09882328405047093;0.996;0.03794521251131365
55:06.5;0.7639236289393903;-0.46209255686156236;-0.04660529193266153;1.0859999999999999;0.016451827579513693
55:06.5;0.7847521193954436;-0.39224016287787633;-0.03611051200232124;1.0859999999999999;0.011115223611699395
55:06.5;0.7824877305729863;-0.32497837634217686;-0.06528773583707115;1.0859999999999999;0.016602122296442187
55:06.5;0.7538618532311461;-0.2647986767874661;-0.12929858867555177;1.109;0.025810793892374354
55:06.5;0.697606326040913;-0.21553596641973352;-0.22123657791896115;1.105;0.033264966739016605
55:06.5;0.6147387443075024;-0.1799850988950162;-0.33299361165992625;1.065;0.03684368312805614
55:06.6;0.5085502805342104;-0.1595888989890201;-0.4561567511337964;1.003;0.03702121634609247
55:06.6;0.38429382796529094;-0.15424306834263582;-0.5828099892362223;0.975;0.03454586347314189
55:06.6;0.24862050039717293;-0.16226904076664836;-0.7061423153925994;1.042;0.028488189028996823
55:06.6;0.10886026906645567;-0.18059392639850022;-0.8207999280342119;1.078;0.016136518991920857
55:06.6;-0.02774073494121536;-0.20514149848321267;-0.9229559805438431;1.06;0.005252335683020049
55:06.6;-0.1547215798434592;-0.23137896824291368;-1.0101223630453897;1.06;0.036161693217942124
55:06.6;-0.26695076630989056;-0.25491262202032194;-1.0807933466226467;1.06;0.07354703591297929
55:06.6;-0.3609428148999906;-0.2720234835214801;-1.1340516002359708;1.17;0.11134676775567436
55:06.6;-0.4349355773671142;-0.2800727317814768;-1.169255856463095;1.2229999999999999;0.1424312597038777
55:06.7;-0.4887685316609755;-0.2777336756112828;-1.1858879922364949;1.2409999999999999;0.16098130748237194
55:06.7;-0.5236142100333185;-0.2650131426265706;-1.1835966369210125;1.26;0.16424136989723342
55:06.7;-0.5416111076862711;-0.24305313825367914;-1.1624351880309907;1.36;0.15302329297887077
55:06.7;-0.5454512907042769;-0.21376942008009886;-1.1232426676139053;1.4480000000000002;0.13097100048497215
55:06.7;-0.537989508333389;-0.17944397022337244;-1.0680607901355408;1.5090000000000001;0.10310949211647887
55:06.7;-0.5219538200782097;-0.14239105197516697;-1.0004454637214275;1.319;0.07435466107920811
55:06.7;-0.49981894649095515;-0.10475959154508656;-0.9255476876290218;1.319;0.04846244390793519
55:06.7;-0.4738327119694316;-0.0684666104362643;-0.8499039685197136;1.319;0.02757234632064819
55:06.7;-0.44611487685901846;-0.03521927413698577;-0.7809353454798015;1.047;0.012269932873384015
55:06.7;-0.4187371050225665;-0.006574738761173357;-0.726182180792581;0.75;0.001999242776132231
55:06.8;-0.3937249404816441;0.016013195697985722;-0.6923497621124172;0.519;0.00436512298824312
55:06.8;-0.3729557696677953;0.03120644581820521;-0.684328633572311;0.37;0.00796464367139601
55:06.8;-0.35795874953915774;0.037880091906161616;-0.7044173250232273;0.289;0.00955155399609912
55:06.8;-0.34965667159670283;0.035298527373621436;-0.7519577717516904;0.33899999999999997;0.009280937730002613
55:06.8;-0.34811210331051334;0.02332930504082037;-0.8235125508032282;0.493;0.006687921200971489
55:06.8;-0.3523433114753178;0.0026268206620529665;-0.9135991395837908;1.671;0.0008455750058894282
55:06.8;-0.3602618645360639;-0.02528320596364494;-1.0158377524740068;1.671;0.009252834276916245
55:06.8;-0.3687580920164717;-0.058052797182916824;-1.1241931783048351;1.671;0.024066096580064002
55:06.8;-0.37393630453992643;-0.09268958423089911;-1.2339405740603087;1.671;0.04276838103315435
55:06.8;-0.371491776219076;-0.1258508244945034;-1.3421310670064823;1.911;0.06274804489128478
55:06.9;-0.35721102394183873;-0.1542407689018195;-1.4475213545571906;1.915;0.0797533646437851
55:06.9;-0.3275366864358792;-0.17506880475363368;-1.550018630313387;1.6540000000000001;0.08888032541060656
55:06.9;-0.2800760177527829;-0.18648976774073817;-1.649740398500423;1.274;0.08616810464898073
55:06.9;-0.21390513036420347;-0.1879444491813385;-1.7458971343063439;0.976;0.0701890487676566
55:06.9;-0.12958199937933243;-0.18032999413138837;-1.835837055648504;0.932;0.042898961294863376
55:06.9;-0.02891175602878541;-0.16593251653142946;-1.914622578158084;2.021;0.009185211189697595
55:06.9;0.08538148061690055;-0.14808924343064248;-1.9753431497641312;2.021;0.02497639457608217
55:06.9;0.2099142020774253;-0.13064395497679904;-2.010067724575805;2.021;0.055124140626267006
55:06.9;0.34076299926262243;-0.11733885845034156;-2.0111326097495668;2.459;0.0804146171924079
55:06.9;0.4734827254491526;-0.1112752686538752;-1.972470220523673;2.68;0.10392337573520884
55:07.0;0.6031260550824719;-0.11452557294053642;-1.8907596518312877;2.6189999999999998;0.13060111645801445
55:07.0;0.7243672737488986;-0.12794643966010716;-1.7661976438610423;2.374;0.16369157503851609
55:07.0;0.831780958944882;-0.15119960293100745;-1.6027315957965378;2.062;0.2015674601595952
55:07.0;0.9202578217162568;-0.18292324112700548;-1.4077226250508779;1.746;0.2369711607963417
55:07.0;0.9855012414890331;-0.22096809900127004;-1.1911434060086028;1.516;0.2593885527654376
55:07.0;1.0245452350787385;-0.26264173833518967;-0.9644972548487188;1.4469999999999998;0.25953496673109383
55:07.0;1.0362287332128128;-0.3049492048910804;-0.739679377001291;1.4469999999999998;0.2337365589792666
55:07.0;1.021534444295876;-0.3448384077450939;-0.5279967306846723;1.4469999999999998;0.1859944046651448
55:07.0;0.9836885914250957;-0.37945832991886347;-0.33948564518477514;1.49;0.1267194096011021
55:07.0;0.9279454025863862;-0.4064287959723013;-0.18252756013933114;1.379;0.06883912535179328
55:07.1;0.8610291042220923;-0.4240928806446071;-0.06365845028230102;1.052;0.023245285004552134
55:07.1;0.7902710745104664;-0.43168919917562953;0.012546346593649643;0.725;0.00428020480044286
55:07.1;0.7225717914742648;-0.42938187545213735;0.04358765675698917;0.5479999999999999;0.013523472865296288
55:07.1;0.6634013832926646;-0.4181297702653479;0.029174334739839148;0.585;0.008092606513506953
55:07.1;0.6160661945979189;-0.39942517645024217;-0.02868275000708058;0.677;0.00705803165517311
55:07.1;0.5813935020577874;-0.3749553264974928;-0.12572637462947067;0.614;0.027407920991018464
55:07.1;0.5578577432901587;-0.34624781268470306;-0.25575090056866967;0.614;0.049400082686593905
55:07.1;0.5420511536230321;-0.31436954763961084;-0.4111240344869675;0.614;0.0700573345397322
55:07.1;0.5293518139506258;-0.27974439418901925;-0.5834245629029174;0.934;0.08639537769560512
55:07.1;0.5146699093497068;-0.24212586376921738;-0.7641026822159145;1.262;0.09521857655068836
55:07.2;0.49319864162599303;-0.20073318400426948;-0.9450980198720993;1.493;0.09356596442582207
55:07.2;0.4611138164518027;-0.15454834842130666;-1.1193197170126585;1.5959999999999999;0.07976762427441769
55:07.2;0.41615862857395103;-0.10274932428007214;-1.2808804244150975;1.6880000000000002;0.054770469849228516
55:07.2;0.358029240093149;-0.045191586421533717;-1.4250467056830671;1.63;0.02305712651049339
55:07.2;0.2884600539506984;0.017219247231272904;-1.5479750550882232;1.462;0.007688892694282768
55:07.2;0.21093422321980945;0.08241882057933665;-1.6463753943663642;1.486;0.028622153743692817
55:07.2;0.13004595669468952;0.14738987349008045;-1.71725304680639;1.486;0.032915374113309734
55:07.2;0.050675848603390375;0.20859550141623304;-1.7578343793584998;1.486;0.018581634883281507
55:07.2;-0.022804289660425997;0.2624943556803326;-1.7657197933758406;1.865;0.010569593953069075
55:07.2;-0.08714125479738809;0.30603196149689543;-1.7392549690151664;2.095;0.04638246739821717
55:07.3;-0.14054283149937788;0.33704876657929406;-1.6780481798515936;2.14;0.07948878654749657
55:07.3;-0.18270116374499126;0.3545480232742556;-1.5834929496987329;2.0540000000000003;0.10257287208490247
55:07.3;-0.21449847227697727;0.3587726084199766;-1.459131600728945;1.906;0.11228918885784057
55:07.3;-0.23749694646443034;0.35108055379083614;-1.3107319815309484;1.71;0.10928956595934347
55:07.3;-0.25339208608917163;0.33365274026600483;-1.1460115999422285;1.459;0.09688950932933253
55:07.3;-0.2636029922786504;0.309089082256453;-0.9740109827175332;0.528;0.07935930481916927
55:07.3;-0.2690895009448651;0.27996685435299307;-0.8042115855090881;0.528;0.0605861974954077
55:07.3;-0.27037906544091794;0.24845357536106105;-0.6455966127820194;0.528;0.043369014800333436
55:07.3;-0.267724344448063;0.21606005897755096;-0.5058687443771841;0.408;0.029261743630678475
55:07.3;-0.2613142736830818;0.18357463230521745;-0.39093765136356434;0.414;0.018753541731653525
55:07.4;-0.25148019915633946;0.15116750142976992;-0.3046928700109732;0.444;0.011583092435426656
55:07.4;-0.23884274544612022;0.11862057141324744;-0.2490590874402311;0.423;0.007056258118179945
55:07.4;-0.2243558237387473;0.08561895740118329;-0.22432430037904347;0.423;0.004309070546458914
55:07.4;-0.20923963288416597;0.05203220062897025;-0.22968382128263326;0.484;0.0025006133678093212
55:07.4;-0.19483973856894107;0.018121811151651117;-0.2638869561023489;0.5489999999999999;0.0009317449811294173
55:07.4;-0.18247827623652854;-0.015363111071410562;-0.3258451622350939;0.9209999999999999;0.0009134854149982339
55:07.4;-0.17335570883291207;-0.047207746992756254;-0.41505573031364096;0.9209999999999999;0.0033967050455443893
55:07.4;-0.1685193470789354;-0.07585025007260397;-0.5317029513168651;0.9209999999999999;0.00679635187082009
55:07.4;-0.1688712920479587;-0.0995719712454813;-0.6763384580225436;1.065;0.01137252798673951
55:07.4;-0.1751679440511071;-0.11674765171048404;-0.8491228151790989;0.9440000000000001;0.017364940383562497
55:07.5;-0.18794980731003308;-0.12615058917339886;-1.0487076658942234;0.65;0.024864836659131986
55:07.5;-0.2073288940714331;-0.12729545737607684;-1.2709527321841698;0.308;0.03354301805854099
55:07.5;-0.2325982779832852;-0.12077908373237821;-1.5078135888813773;0.6709999999999999;0.04235901754512537
55:07.5;-0.26174758646516355;-0.10854034139596434;-1.7468386351603284;0.9490000000000001;0.04962798677027548
55:07.5;-0.29110518084351084;-0.09390632994515523;-1.9716721092814904;1.349;0.053898849561862305
55:07.5;-0.31535351952806306;-0.08129253246628737;-2.1637202595556837;3.492;0.05546888639581647
55:07.5;-0.3280213180115823;-0.07554927407395198;-2.3047275770704556;3.492;0.057115234389309655
55:07.5;-0.3223455144417285;-0.08112724025278066;-2.3796103046623114;3.492;0.06222919382340513
55:07.5;-0.2922861774999461;-0.1013108562092906;-2.378802134767235;3.5460000000000003;0.07044052480231178
55:07.5;-0.2335066929602503;-0.13769727949004779;-2.299642256196845;3.21;0.07394094101463167
55:07.6;-0.14418705913292895;-0.18998554665594436;-2.1466890565839885;2.667;0.058805234900753386
55:07.6;-0.025552742886802326;-0.2560582546178177;-1.931057550445337;2.1069999999999998;0.012634891679259911
55:07.6;0.11798199801954028;-0.3322793274863541;-1.6689987732509453;1.5759999999999998;0.06542972378773196
55:07.6;0.27911066158794534;-0.4139035430062194;-1.380016606371433;1.146;0.15942626902570517
55:07.6;0.4483658856332662;-0.49551800331749396;-1.08482691538659;0.877;0.24101964992749303
55:07.6;0.615209283598336;-0.5714868295391995;-0.8034152133039821;1.446;0.2824679367538237
55:07.6;0.7693056540556427;-0.6363961039260154;-0.5533937489523714;1.446;0.27093223873698447
55:07.6;0.9017222379595827;-0.685483985877307;-0.3488100029117554;1.446;0.21560509741750356
55:07.6;1.0058121124457096;-0.7150281751574667;-0.1994745945201116;1.6440000000000001;0.14345893664837922
55:07.6;1.077668817082928;-0.7226693045776769;-0.11075564999068796;1.71;0.0862562980400895
55:07.7;1.116159743690906;-0.7076455380940317;-0.08370270207315846;1.594;0.06611219942503244
55:07.7;1.1225959042857034;-0.6708918581401689;-0.11536534823974705;1.355;0.086886310537661
55:07.7;1.1001285408946053;-0.6149557462891233;-0.19923490559775411;1.156;0.13478846397854707
55:07.7;1.0530097939543175;-0.5437150076296591;-0.3258149870202346;0.992;0.18654120955958925
55:07.7;0.9858791968669454;-0.46192155506401367;-0.48338439397383043;0.8859999999999999;0.2201326979560367
55:07.7;0.9032124323539976;-0.37461751409588373;-0.6590156132332929;1.504;0.22298399311686445
55:07.7;0.8090064751810757;-0.28650202228875254;-0.8398123677964457;1.504;0.19465338282887185
55:07.7;0.706705378775061;-0.20137575057448684;-1.0141678154559393;1.504;0.14432959502676024
55:07.7;0.5993162887055742;-0.1217992316713625;-1.1727798650712717;1.83;0.08560854804940761
55:07.7;0.48963304974289495;-0.049041858450991266;-1.309259259522532;1.9869999999999999;0.03143860723951014
55:07.8;0.38046813802430385;0.016678791696471244;-1.4202839589163758;1.994;0.009012765258136195
55:07.8;0.2747885387096711;0.07573509461035521;-1.5052894577655638;1.651;0.03132678359033114
55:07.8;0.17567355745197982;0.1285380816726605;-1.565722764992173;1.278;0.03535518191801036
55:07.8;0.08607390693946974;0.17506216950242157;-1.6039964966472644;0.9990000000000001;0.024169476168225394
55:07.8;0.008422796728619078;0.21459420822983272;-1.6224087382403523;0.623;0.0029324768543677947
55:07.8;-0.0558047935345995;0.24580884640337336;-1.6223566947071422;1.672;0.022254372830883714
55:07.8;-0.10646420557926739;0.26717117888876596;-1.6040919326419574;1.672;0.04562705931921582
55:07.8;-0.1449139318711928;0.2775110600341239;-1.5670459066928168;1.672;0.06301909408139775
55:07.8;-0.1738902449704774;0.27652690284692943;-1.51054824701208;2.023;0.07263521226321792
55:07.8;-0.19707306432077612;0.26504700445898954;-1.434692998995929;2.129;0.0749392166129767
55:07.9;-0.2184429867569082;0.24501340603007668;-1.341112235505397;1.979;0.07177828514799343
55:07.9;-0.24160236352114495;0.2192429485936627;-1.2334234342145376;1.662;0.06533396390649042
55:07.9;-0.2692283057361863;0.19104958147187695;-1.1171876886473822;1.266;0.05746361582648618
55:07.9;-0.30275944072082683;0.16381016269742293;-0.9993677808892907;0.858;0.049563718289558384
55:07.9;-0.342345259916632;0.1405412152301506;-0.887425956993318;0.5579999999999999;0.042697274258554116
55:07.9;-0.38703222415510713;0.12353694432481807;-0.7882882913378939;0.68;0.03769025333179208
55:07.9;-0.43511027399081953;0.11410566334703559;-0.7074156918086173;0.68;0.03512216082914888
55:07.9;-0.48450047728363094;0.11243259745877544;-0.6481684093460159;0.68;0.03530809721218619
55:07.9;-0.5330662298907105;0.11758563894446825;-0.6115552131358112;0.871;0.03833285148800693
55:07.9;-0.5787795904599885;0.1276614866511316;-0.596361413155004;0.884;0.04406387037069673
55:08.0;-0.6197252013996329;0.14004569481470797;-0.5995851513379187;0.7440000000000001;0.052037903202846535
55:08.0;-0.6539665476754651;0.15174497986402413;-0.6170889589686377;0.713;0.06123752670032434
55:08.0;-0.679359422679925;0.15975379294132272;-0.6443821126504314;0.885;0.06993494826543765
55:08.0;-0.6934528839253337;0.16142774213883324;-0.6774567373607948;1.17;0.07583622340281516
55:08.0;-0.6936134665381242;0.15483306477740438;-0.7135769510303357;1.43;0.07663409629216082
55:08.0;-0.6774314585682477;0.1390255298799124;-0.7518780239323416;1.6369999999999998;0.07081207340987015
55:08.0;-0.6433447263813779;0.11420821753817917;-0.7936233825533253;1.6369999999999998;0.0583116799805787
55:08.0;-0.5912939862935023;0.08173785764556404;-0.8420215236541034;1.6369999999999998;0.04069582955911724
55:08.0;-0.5231763300383663;0.04397235800268636;-0.9015870003228903;1.6369999999999998;0.02074127660826225
55:08.0;-0.44291784541669055;0.003956727380189294;-0.9770889563227151;1.228;0.00171235344372869
55:08.1;-0.356084595712603;-0.03504717109820686;-1.0721816515972429;0.691;0.013380567277403185
55:08.1;-0.2690523894334788;-0.0701370641344741;-1.1879075309405709;0.311;0.022416462154037836
55:08.1;-0.18787188708372027;-0.09934179532214898;-1.3213979332396892;0.738;0.02466195070029364
55:08.1;-0.1170849432862942;-0.12204617042871208;-1.4651815136924402;1.064;0.020937105290154245
55:08.1;-0.05881446537642344;-0.13913656657038762;-1.6074562107926997;1.207;0.013154204426551854
55:08.1;-0.01240353722739134;-0.15278571065994645;-1.7334567955708384;2.7689999999999997;0.003285044937857387
55:08.1;0.025303554113592926;-0.16591224183659786;-1.8276908383604942;2.7689999999999997;0.0076729557309281665
55:08.1;0.059185730480101686;-0.18149189020120918;-1.8764739582883443;2.7689999999999997;0.020156576795433097
55:08.1;0.09485275744883355;-0.20194512285565483;-1.8701161017090078;2.786;0.035822170718343364
55:08.1;0.13767116930244663;-0.2287456011473062;-1.804343437322896;2.548;0.05682179600280778
55:08.2;0.19194075860258902;-0.26227151183873165;-1.6808386394287562;2.155;0.08461441374896071
55:08.2;0.2602927700355442;-0.3018383152583146;-1.506959001841502;1.694;0.11839624001554462
55:08.2;0.3433512147778116;-0.34582614508196763;-1.294787040399832;1.271;0.1537427891994033
55:08.2;0.4396746780983904;-0.39184025078800366;-1.0597356105076758;0.932;0.18257362068613334
55:08.2;0.5459777800945228;-0.43689220805759216;-0.8189491329508559;0.769;0.19534675214461658
55:08.2;0.6576064190369633;-0.477623594642509;-0.5897105649200522;1.167;0.18522121343075273
55:08.2;0.7691851930054941;-0.510587351998777;-0.38801572946211965;1.167;0.15238783511628412
55:08.2;0.8752878466865583;-0.5325683704987219;-0.22743120893903981;1.167;0.10601719956081672
55:08.2;0.9709758043193674;-0.5409041038042368;-0.11828675810862926;1.351;0.06212477280991662
55:08.2;1.0521262049908715;-0.5337716695889748;-0.06717115404800335;1.4240000000000002;0.03772299507592527
55:08.3;1.1155488475748292;-0.5104120491704833;-0.07666152360903888;1.365;0.04365027221171255
55:08.3;1.158922142563423;-0.47125403046194536;-0.14524869950866176;1.26;0.07932710237139393
55:08.3;1.1805995300146255;-0.4179039627087225;-0.2674803019456925;1.14;0.13196868830436992
55:08.3;1.1793721039000518;-0.35298937973289285;-0.4343799656965645;1.008;0.18083491103830426
55:08.3;1.1542948691363633;-0.2798676860296026;-0.6342009942771799;0.9990000000000001;0.20487852593721956
55:08.3;1.1046707849329855;-0.20223222388662618;-0.8535251127625851;1.94;0.1906775353697961
55:08.3;1.0302314903602507;-0.12368031764423204;-1.078599917982936;1.94;0.13743450906110766
55:08.3;0.931470175155846;-0.04733934416724286;-1.2966676304743698;1.94;0.05717680190612896
55:08.3;0.8100172621666075;0.02436161120301326;-1.4970155578160607;2.2030000000000003;0.02954109544357242
55:08.3;0.6689389893008058;0.08973441504779424;-1.6716128069279426;2.339;0.10034164939342341
55:08.4;0.5128635906292123;0.14769013718210044;-1.8153283952060597;2.295;0.13750185697124673
55:08.4;0.3478661487739903;0.19745062432137603;-1.9257558987203447;2.155;0.13227321734520442
55:08.4;0.1810748432690966;0.23821244175971742;-2.0026807224454135;1.902;0.08638419214683354
55:08.4;0.020019449514320456;0.26890880877127854;-2.0472836671383026;1.6159999999999999;0.011021359834864946
55:08.4;-0.128181922754927;0.28819249161495436;-2.061257213343548;1.234;0.0761450422626361
55:08.4;-0.2576450706926003;0.2946855821122413;-2.046081078006473;2.041;0.1553472482919096
55:08.4;-0.36437903333836275;0.2874389504213149;-2.0026941253345742;2.041;0.2097556276660217
55:08.4;-0.4466348920204726;0.26644357993441703;-1.931658398209514;2.041;0.22987314349975047
55:08.4;-0.5048703337800927;0.2330060234992934;-1.833724115950004;2.388;0.21571532372282418
55:08.4;-0.541364685707588;0.18986804076860697;-1.7105922784550076;2.487;0.17582810632071164
55:08.5;-0.5596194523437596;0.14105247463671508;-1.565617241398643;2.333;0.12358310635859533
55:08.5;-0.56372085208451;0.09148846814642982;-1.4041693117042324;1.915;0.07241856801064522
55:08.5;-0.5577994058456038;0.0464961339717439;-1.2334563701685533;1.33;0.031990327304849395
55:08.5;-0.5456419085182063;0.011208538245099268;-1.061795226731336;0.75;0.006493778425913581
55:08.5;-0.5304679876206951;-0.010001604055717178;-0.8975272368422059;0.475;0.004761858377737285
55:08.5;-0.5148828696788799;-0.014030186731072807;-0.747888500295439;0.773;0.005402673836027859
55:08.5;-0.5009937709576118;0.0005680463163403321;-0.6181320814180535;0.773;0.00017591276639348797
55:08.5;-0.49060465542371506;0.033346960830478216;-0.5110820043118384;0.773;0.008361390635165854
55:08.5;-0.4853522875627289;0.08191808966292084;-0.42715282041357755;0.7959999999999999;0.016983225460982885
55:08.5;-0.48667374363285054;0.14209100067866134;-0.36476543643039394;0.639;0.0252242445910362
55:08.6;-0.4955738287118469;0.2081990692490421;-0.32104522015010994;0.457;0.03312480689721394
55:08.6;-0.5122503202696823;0.2735901223441872;-0.29268083095585734;0.493;0.041018231478242774
55:08.6;-0.5357200201519037;0.3312543116186628;-0.2768299164294713;0.7040000000000001;0.04912611696263007
55:08.6;-0.5636311774748155;0.3745512200408167;-0.2719625096985233;0.9620000000000001;0.05741366415743469
55:08.6;-0.5924112401527404;0.3979692723282751;-0.27852266216394905;1.213;0.06566491230539527
55:08.6;-0.6177938045526853;0.3978155621581835;-0.29927397037682485;1.52;0.07355196205587239
55:08.6;-0.6356266692954355;0.3727235192848986;-0.3392074096961186;1.52;0.08036264815068457
55:08.6;-0.6427336828054129;0.3238882225967093;-0.40494831976755363;1.52;0.08429965892738993
55:08.6;-0.6375688444522342;0.2549742393216102;-0.5036756529362825;1.439;0.0818793430527766
55:08.6;-0.6204831004716591;0.17167455830363085;-0.6416268256554867;1.169;0.06834683517287006
55:08.7;-0.593537134816106;0.08094444129113777;-0.8223226421311961;0.773;0.03950728397685532
55:08.7;-0.5598811515681524;-0.00999757478747372;-1.044745496453259;0.705;0.005847914528904465
55:08.7;-0.5228146473914532;-0.09473258393224414;-1.3018352183273143;0.851;0.06447675113157007
55:08.7;-0.48474327409329826;-0.1685491370920376;-1.5797724691946722;0.778;0.1290722457209924
55:08.7;-0.4463173700015262;-0.22898969316439696;-1.8585086703876574;1.092;0.189943447370914
55:08.7;-0.40601785840827154;-0.2759132157040601;-2.113778339496368;3.66;0.23679748321780958
55:08.7;-0.3603272913459581;-0.3110863715434881;-2.3203567522732906;3.66;0.26009553974867644
55:08.7;-0.3044302320103141;-0.33746049272961864;-2.455797030706052;3.66;0.2522918288115409
55:08.7;-0.233248588909004;-0.3583672804600712;-2.503710562820227;4.033;0.20928181717935734
55:08.7;-0.14259326204998454;-0.37683013996274006;-2.4559621088195596;3.8680000000000003;0.13196728990524376
55:08.8;-0.0302236211543959;-0.3951036178260824;-2.313556561780926;3.196;0.02762724791058232
55:08.8;0.1034017569625502;-0.4144815384689639;-2.0862296544096477;2.3409999999999997;0.08941187942888723
55:08.8;0.2548636953899285;-0.435342875423065;-1.790931691728857;1.59;0.19870941232564274
55:08.8;0.418072969436503;-0.45733873160413385;-1.4495808800856007;1.159;0.2771612581314508
55:08.8;0.5850319211278404;-0.479606381946922;-1.0865511249152802;1.058;0.3048699941229813
55:08.8;0.7468851258203272;-0.5009340347411211;-0.7262976206758058;1.369;0.2717371222175008
55:08.8;0.8950326416421924;-0.5198588882830231;-0.3913911111057334;1.369;0.18211063390792034
55:08.8;1.0220849696441856;-0.5347277529650657;-0.1011062335699144;1.369;0.055258317712634966
55:08.8;1.1225080219830204;-0.5437672424114566;0.12941516350049273;1.435;0.07899282761009059
55:08.8;1.1929212446435;-0.5452015579413013;0.28953197027580035;1.492;0.18830653276149886
55:08.9;1.2320979948540123;-0.5374347245824155;0.3731738539367629;1.526;0.2471053692049195
55:08.9;1.240737519717625;-0.5192882721369882;0.3787542859603585;1.508;0.2440315541527548
55:08.9;1.2210711263017444;-0.49025446982917364;0.30899464572733654;1.46;0.18497518823536227
55:08.9;1.1763679326469214;-0.4506983760480869;0.17065796099504513;1.393;0.09048065231241399
55:08.9;1.1104131816266904;-0.4019342654664878;-0.025870724768470924;1.294;0.011546443539377149
55:08.9;1.0270310720075426;-0.34612262220764467;-0.2672522977747804;1.005;0.09500249610633502
55:08.9;0.9297198611447313;-0.28599070255860765;-0.5381438371244366;1.005;0.14308773014489057
55:08.9;0.8214644855731624;-0.22445677426444777;-0.8223213379651307;1.005;0.1516222961372826
55:08.9;0.7047683946233853;-0.16427359570955807;-1.1037968313205813;1.4169999999999998;0.127791899692256
55:08.9;0.5818869911923696;-0.10777297708070384;-1.3678361882194867;1.8730000000000002;0.08577932360962905
55:09.0;0.4551792112411524;-0.0567526084731804;-1.601860734894845;2.238;0.04138023973143335
55:09.0;0.3274510447460208;-0.012536220051616557;-1.7961711440325125;2.39;0.007373279588081472
55:09.0;0.20214517859059364;0.023796509688427912;-1.9443728116346384;2.358;0.00935311317269044
55:09.0;0.08324170382448266;0.05110599454808381;-2.0434126126694627;2.405;0.008692983892526313
55:09.0;-0.025198002656651515;0.0679981262084126;-2.0932194638376553;2.339;0.0035865577404871826
55:09.0;-0.11978166074450827;0.0729194627168625;-2.096012960404125;1.749;0.018307445668288805
55:09.0;-0.19861109658871848;0.06459205791512095;-2.055425508480218;1.749;0.026368436097235406
55:09.0;-0.26186018785041776;0.04263898356286301;-1.9756906709482382;1.749;0.022059479838396234
55:09.0;-0.3118253818205016;0.008137577067672043;-1.8611802617790958;1.837;0.004722750639665504
55:09.0;-0.35236079381633073;-0.03610674019856009;-1.7164282255905698;2.049;0.02183742912238344
55:09.1;-0.3878564502305306;-0.08563701786881676;-1.5465390874216527;2.125;0.05136809436580123
55:09.1;-0.42209195552376955;-0.13473781702629922;-1.357700857452139;1.9969999999999999;0.0772148219362807
55:09.1;-0.45731732265614133;-0.1770528187817335;-1.157487437702164;1.646;0.09372097195926138
55:09.1;-0.49379211259159866;-0.20631013470231194;-0.954732232986336;1.151;0.0972626944051421
55:09.1;-0.5298517357479825;-0.2170445943927526;-0.7589224084790059;0.772;0.08727718126313533
55:09.1;-0.5624465894529234;-0.20523133414311195;-0.579235539476309;1.047;0.06686212213358234
55:09.1;-0.5880083068407695;-0.1687726045775881;-0.4234696010435525;1.047;0.0420249933966716
55:09.1;-0.6034162961172086;-0.10780203573637845;-0.29716123177710657;1.047;0.019330191067338378
55:09.1;-0.6068174250912305;-0.024782994369053235;-0.20311262969758043;1.143;0.0030545606344862335
55:09.1;-0.5981229119808958;0.07561613839481879;-0.14139100020536535;1.058;0.006394796086953771
55:09.2;-0.5790997039302085;0.18686977486194759;-0.10973076087329667;0.82;0.011874649398957167
55:09.2;-0.5530429644136492;0.301133925307631;-0.1042174681522425;0.604;0.017356377014515614
55:09.2;-0.5240963263896949;0.40991813878045735;-0.12013609875875521;0.588;0.025809629871964054
55:09.2;-0.4963798826636295;0.5048260895061376;-0.1528790858238063;0.762;0.0383092844652918
55:09.2;-0.47314404617752626;0.57830179371286;-0.1988113994109824;0.983;0.05439878516450759
55:09.2;-0.4561624280398417;0.6243176345378867;-0.2559804305599461;1.227;0.07290073031226967
55:09.2;-0.4455037090656998;0.6389404446182381;-0.3245472230386981;1.227;0.09238247671854119
55:09.2;-0.43970094806529586;0.6207193034724324;-0.4068230565044051;1.227;0.11103456920971368
55:09.2;-0.4362361352846452;0.5708540189615873;-0.5068421576901248;1.2670000000000001;0.12621745855831742
55:09.2;-0.4322188661185487;0.49311913312387295;-0.6294826965128016;1.286;0.134165041643675
55:09.3;-0.4251121309993808;0.39352892144748064;-0.7792362591400744;1.208;0.13036148715590856
55:09.3;-0.41331921431307;0.27974286115615005;-0.9587975158325454;1.091;0.11085914065279986
55:09.3;-0.39644959346201697;0.16024215486198287;-1.1676909039231216;0.831;0.07418099435565106
55:09.3;-0.3751634797371276;0.04335886190424991;-1.4011756060841647;0.551;0.022792449299455512
55:09.3;-0.3506300095006702;-0.06369712593285586;-1.649697759534303;0.743;0.03684455411115464
55:09.3;-0.3237826578577467;-0.15561968857308028;-1.8991636954708382;2.334;0.09569307828442256
55:09.3;-0.2946493811829468;-0.22942681364643633;-2.1321580481959876;2.334;0.1441348833316524
55:09.3;-0.26200545471287134;-0.28446292711315335;-2.3299050717254923;2.334;0.17364977877775736
55:09.3;-0.2234687596535981;-0.32205034108649466;-2.474549212055803;3.133;0.17808882852228872
55:09.3;-0.1760172947469245;-0.34491640974950416;-2.5513886248070765;3.662;0.15489800121520164
55:09.4;-0.11678940283913515;-0.35654093180705876;-2.5507987724176204;3.802;0.10621577745454265
55:09.4;-0.04393378787157244;-0.3605765589478936;-2.4695570624601695;3.492;0.039121473516724625
55:09.4;0.042743781219575325;-0.36045952669187553;-2.3112908551540596;2.888;0.03561098999632498
55:09.4;0.14150911447789494;-0.3592314449840819;-2.0859495113802864;2.184;0.10603824981550894
55:09.4;0.24884161936765475;-0.35949348639239775;-1.8084471886913578;1.639;0.16177815401377837
55:09.4;0.35990966991061535;-0.36338185106478205;-1.4968048085806254;0.9490000000000001;0.19575908113622875
55:09.4;0.46922595727455274;-0.37249590037694186;-1.1701957320666359;0.9490000000000001;0.2045323631386443
55:09.4;0.5713083703487516;-0.38777913995887225;-0.847268102668017;0.9490000000000001;0.1877050196826394
55:09.4;0.6612171459509719;-0.40939569415437493;-0.5449637935230144;0.9059999999999999;0.1475214005135929
55:09.4;0.7349282946681867;-0.4366490643375005;-0.27783159002684316;0.922;0.08915775538860357
55:09.5;0.7895668184302561;-0.4679812324744735;-0.05768011637215785;0.941;0.021312944477875108
55:09.5;0.8235287636958487;-0.5010861929424185;0.10660237513112221;0.997;0.04399041811053345
55:09.5;0.8365027025533127;-0.5331618256724424;0.20918377215541528;1.127;0.09329414417129166
55:09.5;0.8293893809357339;-0.5612924162352871;0.24743986890398578;1.319;0.11519067465496247
55:09.5;0.8041114458371668;-0.5829042311729591;0.22210845947942628;1.472;0.10410666915641044
55:09.5;0.7633059469394701;-0.5961926320836518;0.1373563614537317;0.9690000000000001;0.0625077733152239
55:09.5;0.7099238817199373;-0.6004131119742327;0.0006468856618069165;0.9690000000000001;0.000275733465404926
55:09.5;0.646820119986953;-0.5959680414379254;-0.17765041724735536;0.9690000000000001;0.06848141477289044
55:09.5;0.5764426838348004;-0.5842737923509903;-0.3849075216235669;0.81;0.129636989138676
55:09.5;0.500687462389721;-0.567428632378764;-0.6071412998080123;0.8759999999999999;0.1724915159314896
55:09.6;0.4209243936442624;-0.5477302098562014;-0.8301613379718887;1.2429999999999999;0.1913961923198997
55:09.6;0.33816992089363884;-0.5271287198618517;-1.0408709818310993;1.633;0.18554470101403334
55:09.6;0.2533569517006077;-0.5067324858371193;-1.228531914434443;2.026;0.15772408447757721
55:09.6;0.16761713923930738;-0.486486422088775;-1.385756130811906;2.31;0.11299935287815382
55:09.6;0.08246461654372497;-0.46512555983309994;-1.5089998626397667;2.3209999999999997;0.057879803744265705
55:09.6;-0.00020749629667453167;-0.44046994641808246;-1.5983998623572488;1.5430000000000001;0.0001460871662928246
55:09.6;-0.07832541646464987;-0.4100428434839228;-1.6569515302742042;1.5430000000000001;0.05321594194301532
55:09.6;-0.14994332260751794;-0.3718561709497567;-1.6892552657839968;1.5430000000000001;0.09418839676310062
55:09.6;-0.21355382941245524;-0.3251117135582348;-1.700190898002314;1.517;0.1180423012382892
55:09.6;-0.2683428008610108;-0.27059281315939415;-1.6938239761733962;1.409;0.1229913255614693
55:09.7;-0.31437343012600527;-0.21061781591520445;-1.6727181467132057;1.2790000000000001;0.11075509322631824
55:09.7;-0.3526685849066236;-0.14854181492091953;-1.63774378501882;1.5130000000000001;0.08579489778544747
55:09.7;-0.38512990690467097;-0.08793730601837481;-1.5884015932289475;1.8719999999999999;0.05379485180365647
55:09.7;-0.4142479810977972;-0.03171192393680273;-1.5235651337547567;2.1;0.020014466448421715
55:09.7;-0.4426296332042943;0.01855347038364242;-1.4424147316814537;2.21;0.011845565277550483
55:09.7;-0.47245502889359825;0.06285912610925173;-1.3452655558189301;1.511;0.03995184478170854
55:09.7;-0.5050152897772524;0.10261126040187993;-1.2340528787460714;1.511;0.06394893536145738
55:09.7;-0.5404403970151238;0.1401442322557625;-1.1124010986369637;1.511;0.08425281927802562
55:09.7;-0.5776534943671241;0.1781195914693956;-0.9853344773367002;1.1159999999999999;0.10138244820405011
55:09.7;-0.6145409593271947;0.218936202176136;-0.8587137973612081;0.888;0.11553587432319726
55:09.8;-0.6482999060950185;0.26421627212780613;-0.7384932406370551;0.884;0.12649752956558172
55:09.8;-0.67588815656678;0.3143966882569876;-0.6299459618285933;0.9740000000000001;0.13386162582652666
55:09.8;-0.6944705264903304;0.3684528146066575;-0.5370316712662354;0.9570000000000001;0.13741546005036764
55:09.8;-0.7017565564862339;0.42379170187034604;-0.46202878339309317;0.8370000000000001;0.13740671582281608
55:09.8;-0.6961663469414822;0.47636112173899564;-0.40547927321766397;0.7040000000000001;0.1344677054271154
55:09.8;-0.6768305953559899;0.5210145619051582;-0.36644321275299274;1.0;0.12922202010416683
55:09.8;-0.6434967188672063;0.5521212822195368;-0.3430167631620162;1.0;0.1218698198533052
55:09.8;-0.5964401746038667;0.5643212633124567;-0.3330112943440833;1.0;0.11208623114405038
55:09.8;-0.5364560944703224;0.5532751341757265;-0.33465806594107766;1.0;0.09932913021008896
55:09.8;-0.4649513107166549;0.5162963569796003;-0.34722851950427625;1.198;0.08335313247654476
55:09.9;-0.38410479942332726;0.4528129757653915;-0.3714996830100503;1.287;0.06461406209861488
55:09.9;-0.2970320462958379;0.36462155694131015;-0.4099872873294754;1.2930000000000001;0.04440338090783987
55:09.9;-0.2078721811623582;0.2558880613306226;-0.46683799404156723;1.228;0.024832050987038525
55:09.9;-0.12170844217833726;0.13285964397201538;-0.5472815933629582;1.095;0.008849620146208288
55:09.9;-0.04422903651695982;0.0032717572336653632;-0.6566159355616481;0.848;9.50167056107035e-05
55:09.9;0.01894053051709958;-0.12453779550590639;-0.7988088049337847;1.042;0.0018842397279327009
55:09.9;0.06319339417260668;-0.24271691274492807;-0.9749290140704793;1.042;0.014953564111283405
55:09.9;0.08596351943543329;-0.3449680685193777;-1.1817323124336339;1.042;0.0350438808823471
55:09.9;0.08749400898853012;-0.4273258458775923;-1.4107684581556361;1.042;0.052746447934750994
55:09.9;0.07111590645462704;-0.488478896995062;-1.6483201168110686;1.3880000000000001;0.05726036542422612
55:10.0;0.042953058470554466;-0.5296192900949871;-1.8763570256841169;1.825;0.04268481129025617
55:10.0;0.01107040531903328;-0.553877212972869;-2.0744863114815457;2.677;0.012720014126754938
55:10.0;-0.015817093665099757;-0.5654549984884811;-2.222604581553908;3.492;0.01987865237627636
55:10.0;-0.029815226926627636;-0.5686629137908176;-2.303709769229452;4.005;0.03905897023128859
55:10.0;-0.025136748299923576;-0.5671155566359719;-2.306235312551868;3.9530000000000003;0.032876401439723264
55:10.0;0.0011229063869462167;-0.5632987420217072;-2.2253847296553744;2.0669999999999997;0.0014076265089884327
55:10.0;0.0488486457494106;-0.5585663244040686;-2.063285750975456;2.0669999999999997;0.05629718192770318
55:10.0;0.11528635094136518;-0.5534497457380746;-1.828225260727884;2.0669999999999997;0.11665028135941882
55:10.0;0.19569566955260498;-0.5480738620401341;-1.5334479446536644;1.6640000000000001;0.16447100418947116
55:10.0;0.2840858876276195;-0.5425154169444298;-1.1958607662850202;1.3630000000000002;0.18430722579835954
55:10.1;0.37394798074749475;-0.5370321738370598;-0.8347511292949785;1.094;0.1676364722604781
55:10.1;0.45893309231174984;-0.5321475733979074;-0.47054509552527607;0.8959999999999999;0.11491658507089937
55:10.1;0.5334304853802558;-0.5286054660160645;-0.1236419407088036;0.835;0.034863846011275706
55:10.1;0.5930107016428924;-0.5272388312701386;0.18664545611104086;0.9309999999999999;0.0583562452738328
55:10.1;0.6347139111994482;-0.528817500825178;0.443035687017345;1.06;0.1487039644166697
55:10.1;0.6571707400699253;-0.5339350696168104;0.6311117234337872;1.308;0.2214485868051415
55:10.1;0.6605540838128575;-0.5429613605959647;0.7400370939753768;1.308;0.26541825858224755
55:10.1;0.6463803093650959;-0.5560430457888496;0.7631304297700553;1.308;0.2742807340072225
55:10.1;0.617192335802552;-0.573112614951019;0.6982662458602936;1.307;0.24699123469833986
55:10.1;0.5761577219554823;-0.5938737059789166;0.5480816941695105;1.2229999999999999;0.1875343298973107
55:10.2;0.5266189237894935;-0.6177468340926918;0.31996627833149877;1.002;0.10409052510429946
55:10.2;0.47164961010954776;-0.6437716138632709;0.025788531337368914;0.706;0.007830291188355354
55:10.2;0.41368469531238505;-0.6704815244086452;-0.3186883091905991;0.5329999999999999;0.08839392145956426
55:10.2;0.35428978590567556;-0.6957985023034702;-0.6947095956138902;0.774;0.1712558513434774
55:10.2;0.2941196900442978;-0.717022172615202;-1.0817022589275542;1.145;0.2281205562602076
55:10.2;0.23308586347714924;-0.7309936058460185;-1.4586192745766722;2.3209999999999997;0.2485257887883925
55:10.2;0.1707051210388852;-0.7344758708636974;-1.805306834623858;2.3209999999999997;0.22634719090146702
55:10.2;0.106546830788485;-0.7247168630496374;-2.1037045796896128;2.3209999999999997;0.1624402523325467
55:10.2;0.04066139300925756;-0.70009267331746;-2.338739666182418;2.667;0.06657630179913283
55:10.3;-0.026131770253515412;-0.6606908018416155;-2.4989299789871855;2.9330000000000003;0.04314407667139397
55:10.3;-0.09220667113252398;-0.608642793151487;-2.576825972440305;3.0789999999999997;0.1446138593671019
55:10.3;-0.1554050960486926;-0.5479912862416663;-2.569386243021481;3.048;0.21881057293748066
55:10.3;-0.2135644995120107;-0.4839910784465178;-2.47826157730587;3.0839999999999996;0.2561613257149576
55:10.3;-0.2650941584618528;-0.4219910096848381;-2.309871331229119;2.8480000000000003;0.25839918834027814
55:10.3;-0.30933176860111494;-0.36625765555635115;-2.0751471760405407;2.5660000000000003;0.23510406566906308
55:10.3;-0.346501956797286;-0.31913483492162736;-1.7888846028481913;1.531;0.19781637060140064
55:10.3;-0.3772992778809195;-0.2807661561475024;-1.4687503809145996;1.531;0.15558894017916175
55:10.3;-0.40230671185085715;-0.24934994868720411;-1.1340812102801352;1.531;0.11376553574478339
55:10.3;-0.42151552352604205;-0.22172442134747386;-0.8045886320672255;0.904;0.07519708329748505
55:10.4;-0.4341284421488886;-0.19407875513835543;-0.49898658318347944;0.42;0.042042168268262625
55:10.4;-0.4387073598288469;-0.16265888497700137;-0.23355007045159967;0.684;0.01666605128045572
55:10.4;-0.43363719443322857;-0.12438186381455577;-0.020747506263729905;1.044;0.00111904999744374
55:10.4;-0.41780208632402865;-0.0772973506000342;0.13179494643387257;1.245;0.004256317050178749
55:10.4;-0.3912919697159304;-0.020865323201676948;0.22176851041637366;1.229;0.0018106142366926645
55:10.4;-0.3559080342457813;0.043956456328820545;0.2520084187144231;1.093;0.003942534609236135
55:10.4;-0.3152609374747126;0.11480815628621954;0.2297462677294751;0.318;0.00831555748601214
55:10.4;-0.2743805157529198;0.1881779409956866;0.16548445639749715;0.318;0.00854435311047754
55:10.4;-0.23893349633982916;0.2597469413224917;0.07172784863247347;0.318;0.004451591304661959
55:10.4;-0.2142516965579026;0.32476666465781845;-0.038253957528825065;0.324;0.0026617795619952563
55:10.5;-0.20435932529308995;0.3784440106942723;-0.15157737113425973;0.5479999999999999;0.011722776019350987
55:10.5;-0.2111579394249889;0.4163423719790657;-0.25683727985593263;0.73;0.02257959194382347
55:10.5;-0.2339390228963065;0.4348009820814339;-0.34517179109029567;0.948;0.03510981039141356
55:10.5;-0.2693702014004379;0.43134546026886417;-0.4112624608782634;1.214;0.04778524890380665
55:10.5;-0.3119985357509922;0.4050369794616665;-0.45414293466524946;1.4880000000000002;0.057390471599390064
55:10.5;-0.3551876062919036;0.35669286710869524;-0.47762103565294095;1.665;0.060511187253885344
55:10.5;-0.39230867801953023;0.28891308503026814;-0.4901117693957351;1.3459999999999999;0.05555079241184244
55:10.5;-0.4179480295749922;0.20588301732870334;-0.5037629436007851;1.3459999999999999;0.04334799598920696
55:10.5;-0.4288734822341583;0.11298717651039772;-0.5329094437995762;1.3459999999999999;0.02582330154529522
55:10.5;-0.4245454105653201;0.01630207787764604;-0.5920150538408128;1.0270000000000001;0.004097319815830733
55:10.6;-0.40705972389944317;-0.07798839299131022;-0.6933048661515054;0.7709999999999999;0.022009610327492653
55:10.6;-0.3805257018764324;-0.16423451337285702;-0.8443470395333459;0.726;0.052767851124678085
55:10.6;-0.3499840444465548;-0.23796937830453674;-1.0459608597424765;0.956;0.08711335798988348
55:10.6;-0.32007579229653116;-0.2964617373852331;-1.2909162749796248;1.0190000000000001;0.12249533640756571
55:10.6;-0.2937753632916762;-0.3390384659359903;-1.5638522338278467;1.137;0.15576147857385395
55:10.6;-0.2715477743952297;-0.36705373901172406;-1.8426640435458423;1.584;0.1836631638939876
55:10.6;-0.25121316998144155;-0.38344597512364176;-2.1013066191678207;3.865;0.20241188803267265
55:10.6;-0.2285690381933579;-0.3919487038942001;-2.3135479024140286;3.865;0.20726459853794793
55:10.6;-0.19852344194666594;-0.3961748283042955;-2.4568345868323505;3.865;0.19323001698223988
55:10.6;-0.15634022434470385;-0.39886254553564376;-2.515395259351786;4.011;0.15685567121249913
55:10.7;-0.09867664586590524;-0.4014854266238195;-2.4820562689859726;3.699;0.09833220714511755
55:10.7;-0.024254724621104715;-0.4042693448071767;-2.358652368764151;3.009;0.0231276281298606
55:10.7;0.06588990588219136;-0.40653272613884445;-2.1551564401771834;2.161;0.05772888907109407
55:10.7;0.16857342559984229;-0.4072013957590776;-1.8878216411254094;1.483;0.12958637180693472
55:10.7;0.27896849947432356;-0.40533776672228594;-1.5767849817096862;1.122;0.17829727741457396
55:10.7;0.3913187038485391;-0.40055254970721904;-1.2436386540599806;1.014;0.19493252978960102
55:10.7;0.49971048949324287;-0.39321638514296303;-0.9093857971990744;0.997;0.17868917320831715
55:10.7;0.5987584924439407;-0.3844512319643101;-0.593012686123146;0.997;0.13650763022334358
55:10.7;0.6840925323674079;-0.3759444113742639;-0.310711327633462;0.997;0.0799089767504995
55:10.7;0.7525913054300456;-0.36965849287366365;-0.07562856889184276;0.9229999999999999;0.021040001555473403
55:10.8;0.802377060024393;-0.3674983137273907;0.10207314426139812;0.845;0.030098534296800688
55:10.8;0.8326373921747204;-0.3709796773545816;0.21506873330893156;0.804;0.06643291462541094
55:10.8;0.8433575702259342;-0.38094674490719904;0.25880337196479813;0.813;0.08314687764460471
55:10.8;0.835038596299829;-0.39738704378777506;0.23157584712360357;0.879;0.07684462832022239
55:10.8;0.8084563920738598;-0.41937582537635043;0.13474189797072375;0.968;0.0456838452694756
55:10.8;0.7644933855994845;-0.4451514709880738;-0.027079762562422734;1.013;0.009215659014086493
55:10.8;0.7040524731222344;-0.47229328902406265;-0.24596050702496378;0.845;0.08178660533663845
55:10.8;0.6280551723294784;-0.497952668644844;-0.510891938135506;0.845;0.15977723834261007
55:10.8;0.5375297240650022;-0.5190880874523897;-0.8082940625454675;0.845;0.2255344742253119
55:10.8;0.43378912785546764;-0.5326761128344181;-1.1227364706582703;1.249;0.25942971301552864
55:10.9;0.3186739267154836;-0.5359054335700335;-1.4378412406693202;1.788;0.2455532170124839
55:10.9;0.19481311320372277;-0.5263973479213473;-1.737335045527111;2.244;0.17816215596841525
55:10.9;0.06585155237012047;-0.5025149275599128;-2.0061177121622134;2.523;0.0663852197252119
55:10.9;-0.0634188836750067;-0.4637888024776253;-2.2311491206393512;2.5980000000000003;0.06562471794316566
55:10.9;-0.1871192282075203;-0.41138085640805033;-2.4020275436166227;2.625;0.18490151881008443
55:10.9;-0.2986548489784958;-0.3483742254673525;-2.51128059727493;2.7689999999999997;0.2612828037711654
55:10.9;-0.39148027106890987;-0.2796296425628177;-2.554494308713591;2.925;0.2796391847619568
55:10.9;-0.46018176829327606;-0.2110921634807564;-2.5303975149940516;2.925;0.2458047505211187
55:10.9;-0.5015781310437823;-0.14872171260256006;-2.440932193121352;2.925;0.1820827005795467
55:10.9;-0.5154451280801811;-0.0974071858114424;-2.2912650693398646;2.7969999999999997;0.11503997262582412
55:11.0;-0.5046102579342656;-0.06015869423909919;-2.0896719501079266;2.523;0.06343553240322758
55:11.0;-0.47440807723233336;-0.03770983226976406;-1.847231721421476;2.142;0.033046696600912556
55:11.0;-0.431674107723082;-0.028562041095183628;-1.5772839972138208;1.733;0.019447112956149124
55:11.0;-0.3835550127887191;-0.029429657700827484;-1.2946365614401651;1.385;0.014613718637392551
55:11.0;-0.3364273576520341;-0.03595207589947381;-1.014554170502682;0.972;0.012271298400888376
55:11.0;-0.295151299512648;-0.04347536435363731;-0.7516086105346854;0.5539999999999999;0.00964449909952619
55:11.0;-0.2627719616309042;-0.047715903811253235;-0.5185185968967027;0.373;0.006501394428538772
55:11.0;-0.24065059806125205;-0.04520055926511425;-0.32515219103633963;0.373;0.003536856490784117
55:11.0;-0.22888932969310108;-0.033484194647226614;-0.17786813165544904;0.373;0.0013632124644726224
55:11.0;-0.22686284358010836;-0.01120856416996045;-0.07929730234311436;0.46299999999999997;0.00020163771486564328
55:11.1;-0.23370595666995092;0.021933352992784007;-0.02854035851905142;0.519;0.00014629660042089017
55:11.1;-0.24866351157329114;0.065280996579783;-0.021660471380768508;0.551;0.0003516144719641081
55:11.1;-0.2712409108886912;0.11729330458620064;-0.05231918535117335;0.513;0.0016645214242553
55:11.1;-0.3011235992558692;0.1756000371926515;-0.11242588119036363;0.32899999999999996;0.005944778759591483
55:11.1;-0.33788772943184375;0.23700790336588845;-0.19273265141436932;0.121;0.015434428202763301
55:11.1;-0.38059329515517026;0.2974997892514689;-0.28339349923252316;0.147;0.0320876328144473
55:11.1;-0.4274075426493519;0.3523058834952321;-0.37457974769898444;0.6940000000000001;0.056403541140462754
55:11.1;-0.4754107349329;0.3961240232126776;-0.4572345597212286;0.6940000000000001;0.08610714980609972
55:11.1;-0.520675937998235;0.42351636852786895;-0.5239455820995506;0.6940000000000001;0.11553774604752917
55:11.1;-0.5586396400975383;0.42945728716037773;-0.5698201363593076;1.236;0.13670661125046213
55:11.2;-0.5847312076968513;0.4099844098986547;-0.5932366278995276;1.6569999999999998;0.1422170196952508
55:11.2;-0.5951753867881969;0.36287818263186067;-0.5963474876541601;1.828;0.12879684202226258
55:11.2;-0.5878060222885063;0.2882481102401829;-0.5851773008657701;1.79;0.09914891623126786
55:11.2;-0.5626833798637911;0.18888022472195848;-0.5691727220605547;1.5859999999999999;0.060491542140976275
55:11.2;-0.522331946216222;0.07023038918505546;-0.5601596724945045;1.2990000000000002;0.020548659843335485
55:11.2;-0.4714895468595727;-0.059990814885735856;-0.5707884888931;1.0170000000000001;0.016144776453498284
55:11.2;-0.4163542574575252;-0.19262792470257512;-0.6126450571806681;0.6940000000000001;0.049135025937187264
55:11.2;-0.36344036918763156;-0.3181806550522274;-0.6942792770826188;0.6940000000000001;0.0802862436665196
55:11.2;-0.3182888838737723;-0.4279848817971005;-0.8194575187828662;0.6940000000000001;0.11162882255367357
55:11.2;-0.2843243426605991;-0.5152393322131311;-0.9859509507891576;1.02;0.14443696779387885
55:11.3;-0.26207493637499507;-0.5757330605121845;-1.1851197377266163;1.185;0.17881703481666467
55:11.3;-0.2488916811564535;-0.6082197624461698;-1.4024778468685266;1.5759999999999998;0.21230827340126482
55:11.3;-0.23927467360446847;-0.614393221980854;-1.6192951150419241;2.145;0.23805053075203367
55:11.3;-0.22584271515117896;-0.5984199010592537;-1.815053181015696;2.932;0.2453022144382731
55:11.3;-0.20080173280220176;-0.5660764552595664;-1.9702894333571603;3.4989999999999997;0.22396109187466132
55:11.3;-0.15755855287690648;-0.5236924054333495;-2.0692057686257415;3.7110000000000003;0.1707347565421588
55:11.3;-0.09203492514581944;-0.47718483973762704;-2.101490199627598;2.358;0.09229255520952002
55:11.3;-0.0033607924050395943;-0.4314090006066516;-2.0630861450775546;2.358;0.0029912192789379507
55:11.3;0.10609706480522899;-0.38988451825847426;-1.956007542900518;2.358;0.08091143148506806
55:11.3;0.2312095443842065;-0.3548203051248388;-1.7875058888971;1.787;0.14664312405394964
55:11.4;0.3648860330852122;-0.32732273798632;-1.568866532570712;1.4669999999999999;0.1873783515378577
55:11.4;0.4990639127787065;-0.30769007263954734;-1.3140274487705548;1.328;0.201778128160277
55:11.4;0.6257264477327772;-0.2957135046381695;-1.0382086430044117;1.2690000000000001;0.19210572613145604
55:11.4;0.7377714959189933;-0.29092157415009184;-0.7567349436683026;1.2109999999999999;0.16242077922496612
55:11.4;0.8296069005131285;-0.2927326864053471;-0.48415887696099286;1.136;0.11757946317305687
55:11.4;0.8974361999906801;-0.30051399071015633;-0.2336880235523302;1.0490000000000002;0.0630238217309797
55:11.4;0.9392721792227994;-0.3135732039341235;-0.01684779694346703;0.9359999999999999;0.004962191516762609
55:11.4;0.9547615882576036;-0.33112439831462803;0.15671316370583865;0.9359999999999999;0.04954406064293661
55:11.4;0.9449200974243686;-0.352265267700319;0.27935174350189007;0.9359999999999999;0.09298572840214345
55:11.4;0.9118598835418291;-0.3759895642780638;0.34555320399824213;1.032;0.11847284698228072
55:11.5;0.8585505729614807;-0.40124250605930534;0.3521016613772619;1.1440000000000001;0.12129443920393712
55:11.5;0.7886091790499323;-0.427007021425537;0.2983134435277685;1.167;0.10045456316405098
55:11.5;0.7060875587590881;-0.45238761245337933;0.18626936492753976;1.073;0.05949914123288247
55:11.5;0.6152252988849278;-0.4766500248804593;0.020923260472167957;0.9359999999999999;0.006135686586294735
55:11.5;0.520155549340155;-0.4991831222043507;-0.19002917672226316;0.7509999999999999;0.049341621338498586
55:11.5;0.42457705745307167;-0.5193672826325273;-0.4365870133667866;0.63;0.09627242777098109
55:11.5;0.33143098942883376;-0.5363616303576189;-0.7071844764935113;1.452;0.12571396795772208
55:11.5;0.24264969726100533;-0.5488675449222705;-0.9896278964468722;1.452;0.13180116047796983
55:11.5;0.15906503176656592;-0.5549751105630206;-1.2720016286741227;1.452;0.11228865770289341
55:11.5;0.08054435625471233;-0.5522137520521745;-1.5433109076829075;1.745;0.06864292137055945
55:11.6;0.00635766370997351;-0.5378893877905622;-1.7937818669446013;1.9140000000000001;0.006134231440342783
55:11.6;-0.06429793079605158;-0.5097128572505514;-2.0148931537951773;2.088;0.06603506455085484
55:11.6;-0.13175791140703008;-0.46661128886164593;-2.1992678143723103;2.294;0.13521038891671125
55:11.6;-0.19552177533795148;-0.4094776739714003;-2.3405654707263;2.577;0.18738988876137402
55:11.6;-0.2542255685523952;-0.3415358663669639;-2.43350614419983;2.572;0.21129440254155601
55:11.6;-0.3060102601197921;-0.26807538336251113;-2.474086201445319;2.6439999999999997;0.2029587366571901
55:11.6;-0.34917143845573206;-0.19554247972139766;-2.4599421455411545;2.7689999999999997;0.16795955817386163
55:11.6;-0.38285068630850744;-0.13024559684849515;-2.3907592998042126;2.7689999999999997;0.11921429477291086
55:11.6;-0.40751607968307135;-0.07709007506846577;-2.268626776077918;2.7689999999999997;0.07126992010499461
55:11.6;-0.42506491539202357;-0.03871101695664348;-2.0982602367076586;2.549;0.03452623253496705
55:11.7;-0.43850808322681334;-0.015177952450546517;-1.8870194737925836;2.2569999999999997;0.01255935028712268
55:11.7;-0.4513188011784223;-0.004240080129158363;-1.6446549463113436;1.855;0.00314725755954419
55:11.7;-0.4666223130560761;-0.00195340051688899;-1.382752677528669;1.3880000000000001;0.0012603794354753978
55:11.7;-0.4864422588785002;-0.0034873819485048514;-1.1139128417933537;0.9390000000000001;0.0018896528311503193
55:11.7;-0.511197177549138;-0.003932083985727218;-0.8507704131645617;0.588;0.0017101082846524688
55:11.7;-0.5395797238176917;0.0010131885755686521;-0.6050120029863238;0.39899999999999997;0.0003307576491119999
55:11.7;-0.5688682810430098;0.014529898254554826;-0.3865400239154687;0.94;0.003194984542833502
55:11.7;-0.5956025722298061;0.038365069535288246;-0.20289108264821498;0.94;0.004636129024218123
55:11.7;-0.6164217715216164;0.0726921181361848;-0.05895021099995677;0.94;0.002641500254478872
55:11.7;-0.6288112151863553;0.11611322575728655;0.043068709527844064;1.051;0.0031445885485411147
55:11.8;-0.6315753581219455;0.1657808563602332;0.10345731821800408;1.025;0.010832302320539373
55:11.8;-0.6249620601483922;0.21763276710647153;0.12474014566053009;0.868;0.016966184444597857
55:11.8;-0.6104394654632316;0.26673282740700993;0.11131765255984803;0.6609999999999999;0.01812521268690268
55:11.8;-0.5902023094365777;0.3076979104611828;0.0689857671611465;0.455;0.012528092457332683
55:11.8;-0.5665694044330569;0.33518485258643615;0.0042754307225059095;0.413;0.0008119277334185825
55:11.8;-0.5414768906649372;0.34440857326506863;-0.07639496483303794;0.653;0.014246842244783224
55:11.8;-0.5162329937417629;0.33165393451884856;-0.16766088540102403;1.195;0.028705338139428386
55:11.8;-0.4915856180362687;0.2947320328606289;-0.2660490905481885;1.195;0.03854679612324691
55:11.8;-0.4680181402308421;0.23332613674736333;-0.3704694832366384;1.195;0.04045558787281718
55:11.8;-0.4461152843516738;0.14917611837283093;-0.4821795493957992;1.157;0.0320889267635611
55:11.9;-0.42685755612729503;0.04606076163347095;-0.6041761924797007;1.04;0.01187894021113879
55:11.9;-0.41174726551766394;-0.07044343912938592;-0.7401064286373369;0.893;0.021466708093321057
55:11.9;-0.4026958532932883;-0.19342313953866655;-0.8928833987031748;0.7240000000000001;0.06954730957111852
55:11.9;-0.40163542789418916;-0.3152821948313389;-1.0632555623066733;0.563;0.13463845615125308
55:11.9;-0.4098851701333405;-0.42853598724899256;-1.2486187410772203;0.7929999999999999;0.21932056366825406
55:11.9;-0.42740489301826545;-0.5266464605771936;-1.4423862234123594;1.072;0.32466855283195284
55:11.9;-0.4521715179907512;-0.6047485345440089;-1.634198468805402;2.3680000000000003;0.44687167403272243
55:11.9;-0.47993502071873795;-0.6601183412234228;-1.8110521264889812;2.3680000000000003;0.5737665049936558
55:11.9;-0.5044952641986996;-0.6923002024517196;-1.959078301844466;2.3680000000000003;0.684231945838609
55:11.9;-0.518479644996435;-0.7028937581491135;-2.06548789462334;2.98;0.7527383657101869
55:12.0;-0.5144948132633214;-0.695065341957693;-2.120292227434338;3.2060000000000004;0.7582324309567356
55:12.0;-0.48643713731251415;-0.6729012055890432;-2.117576447036913;3.095;0.6931338812386181
55:12.0;-0.43065761247788337;-0.6407627478007388;-2.056172808169489;2.747;0.5673995604556283
55:12.0;-0.34668545645344434;-0.6027890674901749;-1.939656196981017;2.353;0.4053458664983803
55:12.0;-0.23735429307626818;-0.562607253292915;-1.7757240936504592;1.974;0.2371253066933036
55:12.0;-0.10834743751038116;-0.523217784634378;-1.5751322138877086;1.61;0.089293152417932
55:12.0;0.032699707470967496;-0.48698522763930624;-1.3503888993967663;0.98;0.021503963497500306
55:12.0;0.1773254206956012;-0.4556813301593353;-1.1144205514897072;0.98;0.09004950849464072
55:12.0;0.31733811309598403;-0.430556064276273;-0.8794319032363085;0.98;0.12015840702588466
55:12.0;0.4456659710453201;-0.4124246030642352;-0.6561311210977743;0.953;0.12059926948346403
55:12.1;0.5568690216807222;-0.4017572172258605;-0.45335093863541437;0.93;0.10142645942417416
55:12.1;0.6473363606203938;-0.39875853412147233;-0.27798218888764314;0.897;0.07175579211354433
55:12.1;0.7152294810616556;-0.40342817303987266;-0.13511658614652242;0.866;0.038987042785359784
55:12.1;0.7602358441017386;-0.4156026120610488;-0.0283177027379056;0.863;0.008947148159632237
55:12.1;0.7832024455269613;-0.43498486260874913;0.04005517505499341;0.816;0.013646045430890843
55:12.1;0.7857221819738291;-0.461174097147249;0.06855581811326246;0.7879999999999999;0.024841524131487613
55:12.1;0.7697420202015288;-0.493708257937891;0.056481841132882474;0.902;0.02146468066201883
55:12.1;0.7372527621933783;-0.5321166906328717;0.0038884624770247553;0.902;0.0015254613277335162
55:12.1;0.6901008348661505;-0.5759474028067667;-0.08822092747243648;0.902;0.03506444717662506
55:12.1;0.6299325797346821;-0.6247184929947169;-0.2176010296222051;0.902;0.08563264892924122
55:12.2;0.5582507830693312;-0.6777699422186544;-0.3804713731293391;0.9109999999999999;0.14395727975144956
55:12.2;0.4765409967050784;-0.7340343210102336;-0.571329763587046;0.887;0.19984969266926841
55:12.2;0.3864152211336176;-0.791772459431322;-0.7829680702750781;0.982;0.23955137519605887
55:12.2;0.28972575591528754;-0.8483387391851166;-1.006743517551058;1.192;0.2474430418718985
55:12.2;0.18862390107987917;-0.9000640266067919;-1.2330794676572798;1.4569999999999999;0.20934432541495251
55:12.2;0.08556935939050592;-0.9423682483170378;-1.452092610149613;1.778;0.1170936221894826
55:12.2;-0.01668083070216061;-0.970209664319642;-1.6542087347774799;2.397;0.026771553963639953
55:12.2;-0.11507844041296136;-0.9788822989045056;-1.8306456353320237;2.397;0.20621902408878295
55:12.2;-0.2062927448065247;-0.9649855909643195;-1.9737023050057412;2.397;0.3929039828333467
55:12.2;-0.28677237374245335;-0.9272625910255188;-2.0768798764989507;2.397;0.5522699698479876
55:12.3;-0.3529368883804984;-0.8670544213160306;-2.134930789375635;2.451;0.6533218905932098
55:12.3;-0.4015607795334104;-0.7882514287436714;-2.1439529764254273;2.354;0.6786272755568787
55:12.3;-0.43034185960735766;-0.6967171225942755;-2.101614656537161;2.4019999999999997;0.6301198554170757
55:12.3;-0.4385279076358016;-0.5992612792581747;-2.0075285144304917;2.56;0.5275640291892686
55:12.3;-0.4273730432038018;-0.5023894386226773;-1.8637051440017298;2.6630000000000003;0.4001518510180293
55:12.3;-0.40019218591594236;-0.4111790388039042;-1.6749253058644973;2.56;0.2756100282547548
55:12.3;-0.3619093276995538;-0.32861780095777066;-1.4488278359616957;1.2409999999999999;0.17230887346114165
55:12.3;-0.3182028415283031;-0.25555693899999643;-1.1955887903694369;1.2409999999999999;0.09722401808485392
55:12.3;-0.27452305414386746;-0.19117298967469964;-0.9272505500319256;1.2409999999999999;0.04866340052134525
55:12.3;-0.23527897159475983;-0.13367250723153629;-0.6568691074113074;0.733;0.020658750215864205
55:12.4;-0.2033683543875468;-0.08099244047261396;-0.39759281010711334;0.385;0.00654887018941261
55:12.4;-0.18008523268171894;-0.03134782797481111;-0.16172606117789526;0.313;0.0009129890433766756
55:12.4;-0.16536102851787776;0.01644248249307901;0.040125340716675666;0.39799999999999996;0.000109098627274945
55:12.4;-0.15824861972330292;0.06285823588939975;0.19969956224940083;0.556;0.0019864572904220524
55:12.4;-0.15750831644531577;0.10775289534182064;0.3114545588708785;0.7170000000000001;0.0052859996524950775
55:12.4;-0.16211875715434085;0.15050655999428109;0.3727132335928746;0.787;0.009094179213683525
55:12.4;-0.17155013144287615;0.19016148998512797;0.38366444783229237;0.575;0.012515989323768639
55:12.4;-0.18572750504299118;0.2254864722624196;0.34728376904189756;0.575;0.014543910825275012
55:12.4;-0.20475257353202897;0.25498174127293605;0.26917401305586947;0.575;0.01405308202199275
55:12.4;-0.22854430787794489;0.2768843144415097;0.15726914162894798;0.575;0.009952043811162999
55:12.5;-0.25654042572074687;0.2892371700394798;0.02132324669911763;0.424;0.0015822067984236493
55:12.5;-0.2875342810245736;0.29005928493875605;-0.12788478060780253;0.292;0.010665844931159409
55:12.5;-0.3196811557736016;0.27761929278177044;-0.2796560953525742;0.669;0.024819382367540305
55:12.5;-0.3506838976653571;0.250776987168832;-0.4247169313035821;1.21;0.0373510727665656
55:12.5;-0.3781297612708133;0.20931954126230035;-0.5566080209814557;1.693;0.04405549600992392
55:12.5;-0.39990883764550894;0.15419998540266028;-0.6728167242945341;1.9780000000000002;0.041489873684001075
55:12.5;-0.4146219177103869;0.08759990664156077;-0.7753225060507869;1.511;0.028160365685388888
55:12.5;-0.4218834999184092;0.012791668035599647;-0.8703237655387204;1.511;0.004696783733228574
55:12.5;-0.4224362955845719;-0.0661584855498358;-0.9671149363113011;1.511;0.02702868216455537
55:12.5;-0.41801717279341477;-0.14478216719619483;-1.0762635648087522;1.16;0.06513701236933216
55:12.6;-0.4109523871941653;-0.21866487477941787;-1.2073172067447657;0.7090000000000001;0.10849055317777638
55:12.6;-0.4035115553121255;-0.2839631918332263;-1.366329463517083;0.598;0.15655734900095236
55:12.6;-0.3971200467668929;-0.3379466205764371;-1.5536197100924134;0.922;0.20850412010080663
55:12.6;-0.39161409076909093;-0.37945541346142436;-1.7623108772780895;0.98;0.2618795492089318
55:12.6;-0.3847837158686868;-0.4091207628697906;-1.9781876534524565;1.13;0.31141224956069646
55:12.6;-0.37242694092634154;-0.4292210409463229;-2.1811977122079518;2.056;0.3486720432522669
55:12.6;-0.3490027398823323;-0.44314908610939635;-2.3484928796403732;4.372;0.3632184846826389
55:12.6;-0.30875424774250104;-0.45461085277928925;-2.4583880866532266;4.372;0.34506680534454054
55:12.6;-0.24698638078659516;-0.46679597144290286;-2.494240415392583;4.372;0.28756658342675595
55:12.6;-0.161142896638045;-0.4817700591220793;-2.447282391860364;4.115;0.18999188765015232
55:12.7;-0.051440331396268316;-0.5002293634929581;-2.317862960471125;3.313;0.05964316679403548
55:12.7;0.0790289146823181;-0.5216154524702374;-2.115037551095331;2.324;0.08718756499353049
55:12.7;0.2246848194750181;-0.5444859824789057;-1.854799294363938;1.547;0.22691194395845538
55:12.7;0.3781978190962378;-0.5669926649039397;-1.5574731810576175;1.202;0.3339773679203387
55:12.7;0.531374929554105;-0.5873191315727829;-1.2449002403458325;1.12;0.38851676073826785
55:12.7;0.6760088116364253;-0.6039699825782457;-0.937968625293459;1.058;0.38296230036670525
55:12.7;0.80458561680945;-0.6158683571341467;-0.6548304261985087;1.172;0.3244808013984643
55:12.7;0.9108279010773539;-0.622293683618404;-0.40988593086659947;1.172;0.23232434971432975
55:12.7;0.9900815642768791;-0.6227434062344723;-0.21342725033562493;1.172;0.13159214947040626
55:12.7;1.039559352987491;-0.616807995651944;-0.07174745503849483;1.3019999999999998;0.04600507952195433
55:12.8;1.0584573611515133;-0.6041147105469078;0.012483846410633638;1.371;0.007982541695284222
55:12.8;1.0479512667208972;-0.5843557140670746;0.03973563554480728;1.391;0.024333161901117194
55:12.8;1.0110512286877678;-0.5573892355519109;0.013120324375803901;1.3619999999999999;0.007393946619265781
55:12.8;0.9522826114608075;-0.523381700694725;-0.062061801500386704;1.248;0.03093205446765332
55:12.8;0.8771820428631459;-0.4829403189291219;-0.17873034321617481;1.065;0.07571492324161874
55:12.8;0.791640576866386;-0.4371790717992677;-0.32842573152722887;0.847;0.11366443203818566
55:12.8;0.7011753031832133;-0.38767512325527054;-0.5017801309491681;0.94;0.13639800087354298
55:12.8;0.6102608029439154;-0.3363109743696246;-0.6890988031141512;0.94;0.1414288503173059
55:12.8;0.5218767060986607;-0.28504694456846214;-0.8809883864963683;0.94;0.13105526899623265
55:12.8;0.4373897888483173;-0.23568899355233225;-1.0689151451706118;1.24;0.11019228079208077
55:12.9;0.35679318684875383;-0.18969300742643247;-1.2456335333148196;1.518;0.08430593821769361
55:12.9;0.2792266164783343;-0.14802083717418868;-1.405485950917256;1.743;0.05809064234418133
55:12.9;0.20364144289339245;-0.11106908921553313;-1.5445565802249048;1.916;0.03493519712653686
55:12.9;0.12945337071508325;-0.07870946414848191;-1.6606258859724294;1.949;0.01692045831314616
55:12.9;0.05702944398705728;-0.05047405553621643;-1.7528840252564115;1.8519999999999999;0.005045689503074283
55:12.9;-0.012131548152350206;-0.02586469423635364;-1.8214220245459798;1.695;0.0005715235872371831
55:12.9;-0.07563666841434115;-0.004674179935661521;-1.8666062470633225;1.653;0.0006599188487079931
55:12.9;-0.1308526161299934;0.012833335070872497;-1.8885082121063277;1.653;0.0031713255111334602
55:12.9;-0.17576830322335962;0.025955218408897463;-1.8865562835814162;1.653;0.008606667287242586
55:12.9;-0.20973146030701476;0.03374989946848956;-1.8595083509727175;1.653;0.013162373107184766
55:13.0;-0.23380923479493784;0.03532258827839224;-1.8057733650281953;1.8880000000000001;0.014913425968473924
55:13.0;-0.250701420731763;0.03014337203647937;-1.7240473504275997;2.128;0.01302860202703781
55:13.0;-0.26425441859040255;0.018341343473094237;-1.6141429118503035;2.281;0.007823397286266798
55:13.0;-0.27869558144983964;0.0008935046509848753;-1.4777897929926702;2.202;0.0003679930049246681
55:13.0;-0.29777328790675;-0.020357967108670355;-1.3191370492976229;1.899;0.007996686359480828
55:13.0;-0.32401920403298606;-0.042863378312775924;-1.144746262848832;1.432;0.01589887454984514
55:13.0;-0.35830877284956447;-0.06364015371366567;-0.9630192128137874;0.506;0.021959558948438332
55:13.0;-0.3997866637096649;-0.07959118164210571;-0.7832046409772996;0.506;0.02492117456718441
55:13.0;-0.44609918038553803;-0.08781938493670209;-0.614286521459189;0.506;0.024065384373606096
55:13.0;-0.493818249560419;-0.08592301253716667;-0.46405215048709203;0.55;0.019689895928206504
55:13.1;-0.5389703809590078;-0.07226966817899864;-0.33847591228142504;0.6629999999999999;0.013184046538989259
55:13.1;-0.5776227159529548;-0.04623972449810854;-0.24139501997944948;0.812;0.006447447409289811
55:13.1;-0.6064702387138048;-0.008411325896832147;-0.1744007605804941;0.948;0.0008896564428892983
55:13.1;-0.6233372934632888;0.03935811097259035;-0.1368804093712799;1.0390000000000001;0.0033581388744752323
55:13.1;-0.6274896460942957;0.09400378695696981;-0.12616996444901654;1.03;0.0074423123706401405
55:13.1;-0.6196618756093292;0.15151169479912638;-0.13781297789710262;0.9259999999999999;0.012938712133608941
55:13.1;-0.601750961552815;0.20735474664352713;-0.1659557607648097;0.562;0.020707282425906703
55:13.1;-0.5762274888679019;0.25703963451494055;-0.20391210316983635;0.562;0.030202095149907036
55:13.1;-0.545438088732766;0.2966454699050561;-0.24489274129275862;0.562;0.03962407119811862
55:13.1;-0.5110201231046859;0.32323371688328884;-0.2828564737746483;0.669;0.04672193075462425
55:13.2;-0.4735860520902794;0.3350662819732075;-0.313423184593762;0.8859999999999999;0.04973484271157877
55:13.2;-0.4327433493126684;0.331634986591862;-0.3347533397753175;1.054;0.04804140076566494
55:13.2;-0.3874553466439715;0.31354178648738856;-0.3482305689302842;1.208;0.042304247973822984
55:13.2;-0.3366860307333894;0.2822811772991587;-0.35874452685532443;1.301;0.034095126159020425
55:13.2;-0.28018376276453183;0.23997256649131335;-0.3744059726578775;1.34;0.025173715970053863
55:13.2;-0.2191745021533544;0.18906920471783029;-0.4056196309990921;1.256;0.01680853225188998
55:13.2;-0.1567095529957291;0.13204748996771398;-0.4635651479041858;0.20800000000000002;0.009592601411686798
55:13.2;-0.09750883107769577;0.07108957788367588;-0.5582800533521145;0.20800000000000002;0.0038699200869032036
55:13.2;-0.04733826470781609;0.007815327878506348;-0.6966654824826853;0.20800000000000002;0.00025774119028529205
55:13.2;-0.012099152084033418;-0.05685928064270676;-0.8807719225331799;0.20800000000000002;0.0006059262372181962
55:13.3;0.0032160554416854926;-0.12269972597585603;-1.106655587683602;0.41200000000000003;0.00043669638916811406
55:13.3;-0.004390487351848027;-0.18998754814240904;-1.3640157966135624;0.8390000000000001;0.0011377773091569004
55:13.3;-0.03493675240212245;-0.2592567009416473;-1.6367742498390183;1.3719999999999999;0.014825225444528915
55:13.3;-0.0848269859216174;-0.3309698414187723;-1.904659448133638;2.1790000000000003;0.05347364556663094
55:13.3;-0.14683385121119535;-0.40517467250257655;-2.1456490017518113;3.074;0.127651863295499
55:13.3;-0.2108374781335898;-0.4812127715069738;-2.3388603925849023;3.7680000000000002;0.2372953660924408
55:13.3;-0.26527195950473526;-0.5575843436060993;-2.467306177161328;3.75;0.36494293644766973
55:13.3;-0.29902223004049194;-0.6320356589263671;-2.5199597982210755;3.75;0.47625403689389656
55:13.3;-0.3033328117461877;-0.7018342143255858;-2.4928049418642106;3.75;0.5306916128094795
55:13.3;-0.27325671656948514;-0.7641315644004246;-2.3888081181967973;2.93;0.49879288694709634
55:13.4;-0.20834448881586395;-0.8163360751414838;-2.216942598914667;2.164;0.37705565136256547
55:13.4;-0.11252048235291584;-0.856451759234681;-1.9905489992352408;1.723;0.19182595263028834
55:13.4;0.00671686905247817;-0.8833290252478376;-1.7254597500687243;1.545;0.01023750709424113
55:13.4;0.1395237256134797;-0.8967651943944167;-1.438320439967032;1.5190000000000001;0.17996268354179834
55:13.4;0.27509252285713504;-0.8974309068968063;-1.1453629863542791;1.5430000000000001;0.2827632422595045
55:13.4;0.40295894640641317;-0.8866592085819717;-0.8616414742315879;1.4980000000000002;0.30785352187149706
55:13.4;0.5140869223235134;-0.8661748535833417;-0.6005737940490445;1.23;0.26742900307640116
55:13.4;0.6016507674339114;-0.8378448757313638;-0.37361449455200624;1.23;0.18833533521931703
55:13.4;0.6614763456676515;-0.8035042665277798;-0.18998167040707972;1.23;0.10097508036920448
55:13.4;0.6921379129391433;-0.7648717334908427;-0.05643793527345093;1.1740000000000002;0.029878058115583295
55:13.5;0.6947417321626259;-0.7235390886990708;0.022886620791092493;1.1420000000000001;0.011504481750336424
55:13.5;0.6724513918448699;-0.6810007305472643;0.046656610864708986;1.064;0.021365923205347765
55:13.5;0.6298219636053025;-0.638684357100718;0.016456479924643934;0.9309999999999999;0.006619741418643735
55:13.5;0.5720259007851837;-0.5979485411538933;-0.06320370868850783;0.777;0.02161832626924081
55:13.5;0.5040783059409059;-0.5600250825970615;-0.1850985931300046;0.653;0.05225268405521288
55:13.5;0.43018764808669985;-0.5258978229714419;-0.33978361783597844;0.56;0.07687086101905795
55:13.5;0.35334980619160017;-0.4961237723204963;-0.5163900320357157;1.1079999999999999;0.09052587787814977
55:13.5;0.2752545751103983;-0.47062944673711515;-0.7036361321032744;1.1079999999999999;0.091151071005217
55:13.5;0.19649215764523406;-0.4485536312017475;-0.890864558073972;1.1079999999999999;0.07851837081394848
55:13.5;0.11697595872123406;-0.4282225725256918;-1.0688967708628627;1.469;0.05354290551129344
55:13.6;0.03647564958063207;-0.4073198121283981;-1.230590929235581;1.746;0.01828320290954959
55:13.6;-0.04483618241343899;-0.383277635097557;-1.3710713845505884;1.781;0.023561458596723366
55:13.6;-0.1259211296688647;-0.3538693341580693;-1.4876082765804441;1.672;0.06628726890358815
55:13.6;-0.20460980209503357;-0.3178919116020863;-1.5791637895144828;1.605;0.10271481546189849
55:13.6;-0.27764830416569575;-0.27572814943786056;-1.6457325156861913;1.5659999999999998;0.1259897984233264
55:13.6;-0.34111883156545736;-0.22954657757157199;-1.6876943254490129;1.538;0.1321509555082987
55:13.6;-0.39118562233789744;-0.1829894362117417;-1.7053814853972005;1.99;0.12207604401501525
55:13.6;-0.42497604262186456;-0.1404025249780314;-1.698947488263093;1.99;0.10137230508227899
55:13.6;-0.4413106250971099;-0.105875337818927;-1.6684938809702112;1.99;0.07795856045816878
55:13.6;-0.44102472906750745;-0.08242451941912425;-1.6143440475149142;1.9169999999999998;0.05868342622906617
55:13.7;-0.426776461383991;-0.07153099528595039;-1.5373580736342094;1.7369999999999999;0.04693207531848689
55:13.7;-0.4024272917614004;-0.07306818136107895;-1.4392065137424495;1.6219999999999999;0.04231933551817817
55:13.7;-0.3722234099906143;-0.08554648324415934;-1.3225359993729495;1.5;0.04211272520754787
55:13.7;-0.3400413409971622;-0.10654213747852831;-1.1909832461979477;1.3090000000000002;0.04314781201038239
55:13.7;-0.3088900863907621;-0.13315913042079475;-1.0490311057215385;1.072;0.04314825995515202
55:13.7;-0.2807407371942945;-0.16240290516642197;-0.9017380436943581;0.865;0.041113043006658766
55:13.7;-0.2566438350928579;-0.19141651149780964;-0.7544026839429484;0.721;0.03706068637668439
55:13.7;-0.23702120467323398;-0.21760389791584628;-0.6122400894891946;0.721;0.03157734670435734
55:13.7;-0.22199130610032064;-0.23870251160276912;-0.4801321638048905;0.721;0.025442146858128442
55:13.7;-0.21160784696880536;-0.25286339690756576;-0.36246416769928935;0.653;0.019394688825939716
55:13.8;-0.20594375148642208;-0.2587708757799134;-0.262999123940775;0.5579999999999999;0.01401581373035883
55:13.8;-0.20500895777103903;-0.25580031041030327;-0.18471998784475022;0.445;0.009686966464576547
55:13.8;-0.20853933020526227;-0.24417869772768253;-0.12960447464264999;0.436;0.006599571577519538
55:13.8;-0.21573679380344857;-0.2250900181100296;-0.09836471176144646;0.47200000000000003;0.004776609960422731
55:13.8;-0.22506955925492578;-0.20066754514428295;-0.09024783822190503;0.47100000000000003;0.004075967438917856
55:13.8;-0.23424043688900137;-0.17384081684609776;-0.10302503225346692;0.29100000000000004;0.004195235862479649
55:13.8;-0.24039165339858354;-0.14804421252602484;-0.13326670656320527;0.57;0.004742774583689648
55:13.8;-0.24053703875160415;-0.12683187514210315;-0.17689502835675883;0.57;0.0053966717187974265
55:13.8;-0.23212558564804545;-0.11346669185796719;-0.22987133565207163;0.57;0.00605447129999069
55:13.8;-0.2136013624526318;-0.11054732571170342;-0.28882514562188594;0.737;0.006820045316177176
55:13.9;-0.18484847907579205;-0.11971381492525937;-0.3514959052117431;0.797;0.007778223576345325
55:13.9;-0.14744462598061403;-0.1414550852142177;-0.4169453186954952;0.7240000000000001;0.008696141842636824
55:13.9;-0.10466569128714222;-0.17503776978376365;-0.4855397641365831;0.612;0.008895306571683158
55:13.9;-0.06121327101100139;-0.21856906507097254;-0.5587249261678541;0.752;0.0074753637220156205
55:13.9;-0.022681144940096043;-0.2691937326425924;-0.638633163053631;0.861;0.0038992527330787598
55:13.9;0.00519245284369325;-0.3234177455910573;-0.7275520822944757;0.9420000000000001;0.00122180105169059
55:13.9;0.017423203863486635;-0.37754463747337497;-0.8272575424522908;1.078;0.005441730876869173
55:13.9;0.010718838524558136;-0.42817666590211423;-0.9382500723682915;1.078;0.00430615175747137
55:13.9;-0.015742713269341006;-0.4726674592693701;-1.0590478021205496;1.078;0.007880447010567206
55:13.9;-0.05993794712880692;-0.5093865709089074;-1.1857746221299232;1.028;0.03620357908766371
55:14.0;-0.11718328573464025;-0.5377324574156769;-1.3122324297175287;1.1320000000000001;0.08268803829578512
55:14.0;-0.18086324953769564;-0.5579535741575339;-1.4304929014095566;1.6640000000000001;0.14435575432011802
55:14.0;-0.24350645223938974;-0.570892749494081;-1.531895178290289;2.217;0.21295804433304422
55:14.0;-0.2979187953204591;-0.5777240923766609;-1.608239059286282;2.292;0.2768018495875001
55:14.0;-0.33812106661136726;-0.5796877604378919;-1.6529151892059337;2.24;0.3239790529924403
55:14.0;-0.3599646378252782;-0.5778380952206119;-1.6617374304863366;2.134;0.3456435136746713
55:14.0;-0.36140473525459116;-0.5728769321276629;-1.6333536338346017;1.84;0.3381702484734321
55:14.0;-0.34246503629191555;-0.5651386448424347;-1.5692526821349913;1.84;0.30371351956113435
55:14.0;-0.30496747847461647;-0.5547067039489874;-1.4734742361646171;1.84;0.24926395991358505
55:14.0;-0.25211977427764104;-0.5415710876602655;-1.3521289306452793;1.399;0.18462073935954687
55:14.1;-0.18803000263244876;-0.5257487912401949;-1.2127965496998994;1.204;0.11989287863281956
55:14.1;-0.11719055779931863;-0.5073447078295004;-1.0638622688225214;1.077;0.06325300495655402
55:14.1;-0.04397653735968063;-0.48656538136945177;-0.9138721331036452;0.958;0.019554543027066978
55:14.1;0.0277836072920932;-0.4637060366423572;-0.7709764026137874;0.848;0.009932817755436104
55:14.1;0.09510887757094319;-0.4391315491472289;-0.6424826880338923;0.738;0.026833487829298727
55:14.1;0.1559989761064488;-0.41327047312445686;-0.5345099490540329;0.653;0.03445973383230756
55:14.1;0.20939078022893487;-0.38663275896212507;-0.45173444077170355;0.55;0.0365712164802138
55:14.1;0.2549658605301052;-0.35984793981976393;-0.3972296455352761;0.55;0.03644539876989801
55:14.1;0.2928677480688404;-0.3337091034256396;-0.3724062251067058;0.55;0.03639624116001117
55:14.1;0.32339889007106243;-0.3092023624971949;-0.37704909120124497;0.55;0.03770328812535508
55:14.2;0.3467588618362072;-0.287501162495865;-0.40943375344742733;0.564;0.040817914968639804
55:14.2;0.3628686538483806;-0.269910309377601;-0.4664971502880261;0.563;0.0456896595194693
55:14.2;0.3713068205416707;-0.2577559479088309;-0.5440477197968977;0.545;0.05206892566931234
55:14.2;0.3713621236923462;-0.25223049561716454;-0.6370238840580604;0.621;0.05966929624268725
55:14.2;0.3621877748888866;-0.2542111757426675;-0.7398342715437463;0.802;0.06811815428938117
55:14.2;0.34302604778295503;-0.2640785625968199;-0.8468110033616819;1.014;0.07670907389360315
55:14.2;0.3134571258941616;-0.2815701582115888;-0.9527632173997181;1.5330000000000001;0.08409104594847913
55:14.2;0.27362235565121135;-0.30570539215901327;-1.0535402553333413;1.5330000000000001;0.0881263556893616
55:14.2;0.22438952964870287;-0.3348031353182255;-1.1464451824870774;1.5330000000000001;0.08612820541669537
55:14.3;0.1674477345330754;-0.36659462604261606;-1.2303451919794766;1.5330000000000001;0.07552528049750276
55:14.3;0.10531509891626764;-0.39843058237796886;-1.3054203194878307;1.3519999999999999;0.054776423757247124
55:14.3;0.041223184288249656;-0.4275728997057346;-1.3726144432451401;1.124;0.024193587482665355
55:14.3;-0.021155334362381817;-0.4515315309083944;-1.4329484796167038;1.21;0.013687954494831931
55:14.3;-0.07811944839912599;-0.4683850156456686;-1.486897600830474;1.423;0.05440555207972613
55:14.3;-0.126406965707188;-0.47702646126640263;-1.533995184132922;1.625;0.09249909279790922
55:14.3;-0.16359695756746426;-0.47727874551900584;-1.5727256343257123;1.62;0.1228005417748922
55:14.3;-0.1883539356625455;-0.46982976457645376;-1.6006752972285077;1.6680000000000001;0.14165061634457932
55:14.4;-0.2004817149078196;-0.4559924271368858;-1.6148663890080905;1.6680000000000001;0.14762808773160307
55:14.4;-0.20081991932462007;-0.43737279842928317;-1.6121941397654418;1.6680000000000001;0.14160412210474768
55:14.4;-0.19104887778550142;-0.41555810316834496;-1.589903707437877;1.6680000000000001;0.1262254908809695
55:14.4;-0.17345546460429528;-0.3918956538142484;-1.5460662898751563;1.77;0.10509608657763521
55:14.4;-0.15068469308943455;-0.3673792463093969;-1.4800197912481767;1.818;0.08193157049919425
55:14.4;-0.125492760684566;-0.3426331910315253;-1.3927160929308304;1.7369999999999999;0.05988398573536455
55:14.4;-0.10052195775285921;-0.3179751476350913;-1.2868919682601292;1.589;0.041133551296675105
55:14.4;-0.0781169877310037;-0.2935278907957151;-1.1669924883560985;1.396;0.026758571351194808
55:14.4;-0.06019334405864138;-0.2693406489626331;-1.0388240920748575;1.1909999999999998;0.016841950501951957
55:14.5;-0.04816042495773877;-0.24548427950659207;-0.9089737148524952;0.531;0.010746457384826543
55:14.5;-0.04289574103894525;-0.22210453938004443;-0.7840951854931649;0.531;0.00747034048742204
55:14.5;-0.04475711666374882;-0.1994445815705143;-0.6702217463724609;0.531;0.005982777584829146
55:14.5;-0.05361272841097892;-0.17786045884231463;-0.5722550259614085;0.531;0.005456786141278362
55:14.5;-0.06887314055721223;-0.15784179900807427;-0.4936869194346035;0.469;0.0053669003242505795
55:14.5;-0.08952092031045365;-0.1400318123774212;-0.43651417015061295;0.419;0.00547204417071315
55:14.5;-0.11414155556155871;-0.12523553923064978;-0.40127874493447585;0.375;0.005736110824569183
55:14.5;-0.14096259274511072;-0.11440828278351248;-0.3871921688305754;0.342;0.006244359684935552
55:14.5;-0.16791149322670096;-0.10861615550984752;-0.39233419675891934;0.28;0.00715535218455618
55:14.5;-0.19271022577340266;-0.10895958935893561;-0.41393973727639033;0.266;0.008691752230936307
55:14.6;-0.21302967791403496;-0.11645668908001763;-0.4487949726845487;0.821;0.01113403373606769
55:14.6;-0.22671195676048694;-0.13189613292004862;-0.49372940103313007;0.821;0.014763709042653417
55:14.6;-0.23203094812436914;-0.15568115460649448;-0.5461167602913801;0.821;0.01972729158002276
55:14.6;-0.22793487123597725;-0.18769145603232057;-0.6042572266437813;0.821;0.02585098695224865
55:14.6;-0.21422468116927298;-0.22718996358233856;-0.6675570981201541;1.018;0.03248980203835436
55:14.6;-0.1916430461317274;-0.2728009388917338;-0.7364881621630105;1.127;0.038503897861340945
55:14.6;-0.161848252544117;-0.322585112924277;-0.8123230374101117;1.119;0.04241125323118503
55:14.6;-0.12724073717161222;-0.3742265999941624;-0.8966317872521763;0.9620000000000001;0.04269479786390185
55:14.6;-0.09063233707505304;-0.4253160304946323;-0.9905592797401228;0.747;0.03818347075275549
55:14.6;-0.05480216532392689;-0.47367708784550927;-1.0939987572103955;0.7070000000000001;0.0283985996446315
55:14.6;-0.022033147979420957;-0.5176674683889002;-1.2048763858134417;1.219;0.0137426320177295
55:14.6;0.006262516416759341;-0.5563926796287078;-1.3187696512153675;1.219;0.004595145093439473
55:14.6;0.029745576230422652;-0.5897814633856734;-1.4289748251500825;1.219;0.025069061912477552
55:14.7;0.04914197229814276;-0.6184875669433951;-1.527020545991985;1.4980000000000002;0.04641180266071058
55:14.7;0.0660326957271837;-0.6436218532035821;-1.6035779687018832;1.8359999999999999;0.06815220157105406
55:14.7;0.08248576345209499;-0.6663737126444045;-1.6496769087749765;2.169;0.09067670916904555
55:14.7;0.10060564153144538;-0.6876219568189395;-1.658043686071414;2.3819999999999997;0.11470122068798357
55:14.7;0.12209435859678071;-0.7076390994498791;-1.624297196748843;2.3930000000000002;0.14033723437692272
55:14.7;0.14791493489361612;-0.7259594757413215;-1.5477464568444539;2.2680000000000002;0.16619739928975583
55:14.7;0.178120498575491;-0.7414322807843688;-1.4316157899946076;2.052;0.18906531929839251
55:14.7;0.2118689872014308;-0.752434527491118;-1.2826496018255673;1.214;0.20447684584030032
55:14.7;0.24759374414104002;-0.7571845329523691;-1.1102082839065832;1.214;0.20813535825556992
55:14.7;0.2832625198015402;-0.7540821654315611;-0.9251157303720646;1.214;0.19760769362319713
55:14.8;0.3166548937811844;-0.7420133965219149;-0.7385401216141538;1.067;0.17352899201406496
55:14.8;0.3456176127680691;-0.7205822949321092;-0.5610593484095142;0.9890000000000001;0.13972954865590032
55:14.8;0.3682812572295941;-0.6902529036667615;-0.4019350391346372;0.929;0.10217478376168752
55:14.8;0.38322190362866415;-0.6523916281876362;-0.2685960139300587;0.86;0.06715189402296307
55:14.8;0.3895491356653391;-0.6092082757998253;-0.16634336219765217;0.815;0.03947603404279313
55:14.8;0.3869113618190464;-0.5636045992348849;-0.09826577865053196;0.767;0.021428329283255623
55:14.8;0.37542098908592075;-0.5189469063984119;-0.0653155372682319;0.675;0.012725005551594372
55:14.9;0.35551064809961014;-0.4787830662834816;-0.06648044222496348;0.42700000000000005;0.011315800822514764
55:14.9;0.32774945106329306;-0.4465320194737812;-0.09900172577975051;0.42700000000000005;0.014488964371150662
55:14.9;0.29267471119735233;-0.42518446159616247;-0.15861576403194075;0.42700000000000005;0.019738262973009076
55:14.9;0.25069998068338534;-0.4170501879534897;-0.23982466270787284;0.42700000000000005;0.02507474147698395
55:14.9;0.20212905342477266;-0.4235669456894754;-0.3362240014250968;0.435;0.028785880350491046
55:14.9;0.14726632244464943;-0.44516850971568844;-0.44092641825897194;0.586;0.02890639932264329
55:14.9;0.08659475323016412;-0.48120886988761946;-0.5470997262962707;0.8370000000000001;0.022797734958081156
55:14.9;0.02098553075728411;-0.5299439973075012;-0.6485858807454394;1.068;0.0072130247949269855
55:14.9;-0.048108555342517206;-0.5885761351904903;-0.7405054381196577;1.3;0.020967816961213907
55:14.9;-0.11853692033517657;-0.6533767700709956;-0.8197077312774979;1.479;0.06348576551782033
55:14.9;-0.18746964882119382;-0.719916070993144;-0.8849239301344044;1.18;0.11943146894107112
55:14.9;-0.25157407282175054;-0.7834071356938895;-0.9365536299934112;1.18;0.18458060080573616
55:14.9;-0.3073204749990551;-0.839124074071124;-0.9761592657035272;1.18;0.251731960251103
55:15.0;-0.3513611816171536;-0.8828270699378551;-1.0058525776561573;1.374;0.3120065803235074
55:15.0;-0.38094144512502554;-0.9111428578634753;-1.0277453419745999;1.595;0.35672226536261575
55:15.0;-0.39430522383310807;-0.9218586224211403;-1.0435470622526362;1.683;0.37932275195204584
55:15.0;-0.39102359263173897;-0.9140797286050881;-1.0543102686545283;1.574;0.37683868167381657
55:15.0;-0.372144211975513;-0.8882196142169213;-1.0602846552393437;1.3719999999999999;0.3504726272880967
55:15.0;-0.3400870512728916;-0.8458378475646531;-1.0608579243177383;1.19;0.3051647986211367
55:15.0;-0.29828709304273193;-0.7893774043844337;-1.0546161437974146;1.17;0.24832106808680904
55:15.1;-0.2506686736119308;-0.7218561424904252;-1.0395836166442758;1.2819999999999998;0.1881092474445471
55:15.1;-0.2010886740021114;-0.6465616348831935;-1.0136532607976045;1.2819999999999998;0.13179136720371676
55:15.1;-0.15288171086817118;-0.5667974106770343;-0.9751284076316317;1.2819999999999998;0.08449776081454825
55:15.1;-0.1085858503120972;-0.4857129721568909;-0.9232485011839539;1.2819999999999998;0.048693562609529804
55:15.1;-0.06985979478213018;-0.406208600493257;-0.8585917349292339;1.217;0.024364815290969996
55:15.1;-0.037555196354117894;-0.33087116070704964;-0.783289661042275;1.083;0.009733103600916917
55:15.1;-0.011886248082592789;-0.26190316132007757;-0.701016374499116;0.8690000000000001;0.00218229618486324
55:15.1;0.007360112548882459;-0.20104653742936812;-0.6167401347013772;0.7190000000000001;0.0009126058840415144
55:15.1;0.020612754369992086;-0.1495389372693048;-0.5362587053175406;0.6409999999999999;0.0016529688648156003
55:15.1;0.02833168617311553;-0.10814444298053254;-0.4655647991357638;0.514;0.0014264507014656468
55:15.1;0.030881732358552065;-0.07727260103378435;-0.4100995006945292;0.20800000000000002;0.0009786252710273944
55:15.1;0.028490846442212656;-0.05716108219940034;-0.3739835996740078;0.20800000000000002;0.0006090575791249719
55:15.1;0.02129361531089377;-0.04806775443506228;-0.3593802711535435;0.20800000000000002;0.0003678387428945125
55:15.2;0.009436348359840424;-0.05040974809415822;-0.36616899413849063;0.22;0.00017418071121013762
55:15.2;-0.006790004384567093;-0.06480406309791766;-0.3920505189466415;0.215;0.00017251001938893207
55:15.2;-0.026831744187122475;-0.09199401911574183;-0.4331046664427754;0.436;0.0010690582291156751
55:15.2;-0.049819128578187995;-0.13267324046170387;-0.48473406929045626;0.816;0.0032039299213782926
55:15.2;-0.07461565460236685;-0.18724049760370007;-0.5428352271711986;1.2790000000000001;0.007583990204044002
55:15.2;-0.09997567470736468;-0.2555351087787801;-0.6049419869828901;1.65;0.015454631345848098
55:15.2;-0.12478127519796442;-0.3366135124245554;-0.6710214591059664;1.764;0.028184956842081346
55:15.3;-0.14829904522323945;-0.4286282127245587;-0.7436228812145587;0.987;0.04726850348494204
55:15.3;-0.17037653311675058;-0.5288415883521714;-0.8272448357821676;0.987;0.07453657665741524
55:15.3;-0.19150270574696157;-0.633749566774585;-0.9270573867935616;0.987;0.11251209429090134
55:15.3;-0.21268967002634206;-0.7392614750152732;-1.0473040045187356;0.987;0.1646710429332097
55:15.3;-0.2351732098561892;-0.8409220583573468;-1.1896991442867;0.8;0.23527768631652218
55:15.3;-0.2599673272872768;-0.9342120296401568;-1.352068227305432;0.941;0.3283695152344624
55:15.3;-0.2873554916434308;-1.0149515630118247;-1.52749755109988;1.274;0.44549757124695816
55:15.3;-0.31645312027121003;-1.0797650907801186;-1.7042960548388724;1.699;0.5823494952296334
55:15.3;-0.34499492658827335;-1.1264982486552093;-1.8669692732426169;2.314;0.7255718076442625
55:15.3;-0.36946027358452127;-1.1544473280975478;-1.998161135085199;2.9619999999999997;0.8522605342317244
55:15.4;-0.38555779729544404;-1.1642935792787237;-2.081237281304212;3.5839999999999996;0.9342725517212842
55:15.4;-0.38897222204849785;-1.1577414862349398;-2.102972471864169;3.5839999999999996;0.9470300758727528
55:15.4;-0.37617372938982335;-1.1369966206113775;-2.0557469685018117;3.5839999999999996;0.8792599570048582
55:15.4;-0.3450681584658608;-1.1042807777573187;-1.9387856498814933;3.0239999999999996;0.7387784100507571
55:15.4;-0.295343038494998;-1.0615247471818703;-1.7582306137371906;2.423;0.5512298146495863
55:15.4;-0.22847607353569702;-1.0102748884628079;-1.5261149300117935;1.778;0.35226340275757884
55:15.4;-0.14745849573178382;-0.9517732691233036;-1.2585261035330852;1.25;0.1766304316958999
55:15.4;-0.056334607073648006;-0.8871313560731083;-0.9733787691045085;1.028;0.048645768504324324
55:15.4;0.04032728830699769;-0.8175095312866417;-0.6882428688590305;0.9490000000000001;0.02268995136919208
55:15.4;0.13793241813752946;-0.7442366562948161;-0.4185990199146115;0.8740000000000001;0.04297101518474301
55:15.4;0.23225544488339134;-0.6688430073458813;-0.17674084988176694;0.68;0.027455353141242297
55:15.4;0.31969861142148337;-0.5930247573917353;0.028638882832632905;0.68;0.0054296226410348114
55:15.4;0.397407535833426;-0.5185913352372901;0.19229784053810622;0.68;0.03963106667445956
55:15.5;0.4632680881289359;-0.4474415779123279;0.31193366607543543;0.659;0.06465929610246218
55:15.5;0.515829502852878;-0.38157366788714175;0.3875255229696265;0.674;0.07627546882899429
55:15.5;0.5542030752611785;-0.3230989166896963;0.4207001096421809;0.711;0.0753315768841173
55:15.5;0.5779695959366697;-0.2742247674489396;0.4142344847442455;0.748;0.06565350563396327
55:15.5;0.5871062295517325;-0.23718434072536201;0.3717353588509415;0.792;0.05176504236881524
55:15.5;0.5819281162222085;-0.2141033474569894;0.2974620267411908;0.799;0.03706161421156569
55:15.5;0.5630336964726609;-0.20680826268161284;0.19620772861836538;0.753;0.022846431961950044
55:15.6;0.5312452070039143;-0.21659236957108272;0.07314232383671616;0.504;0.008416023350505642
55:15.6;0.48754994529227846;-0.24396805259356488;-0.06642712438893154;0.504;0.007901281304282318
55:15.6;0.43306752203758614;-0.28844330946226127;-0.21732091181580845;0.504;0.02714673499037166
55:15.6;0.3690700256297097;-0.3483654854158428;-0.37467391254023896;0.504;0.048172296511474026
55:15.6;0.29705482215977397;-0.4208749248626781;-0.5340106154416915;0.691;0.06676356963440022
55:15.6;0.21883832446986065;-0.5020033735055978;-0.6912609184669102;0.94;0.07594024967170705
55:15.6;0.13663336644283597;-0.5869316060367182;-0.842767575293521;1.1909999999999998;0.0675852747659329
55:15.6;0.05309016769258574;-0.670390180781707;-0.9852674127464712;1.306;0.035066777731458644
55:15.6;-0.028710969240360682;-0.7471553892851137;-1.1157937227094212;1.281;0.02393551085715411
55:15.6;-0.10535090626811115;-0.8125673324969744;-1.2315016380017383;1.239;0.105422334283353
55:15.7;-0.1733076076959305;-0.8629876529074832;-1.329517927338636;1.857;0.1988457931350341
55:15.7;-0.22935779592194813;-0.8961241442205878;-1.4069472042859537;1.857;0.2891741621727741
55:15.7;-0.27106164729052923;-0.9111711321041834;-1.4610729499879154;1.857;0.36086098112121107
55:15.7;-0.29718296240330855;-0.9087434234388032;-1.4896775510958853;1.9609999999999999;0.40230688179809015
55:15.7;-0.30793162495295884;-0.890619725196787;-1.4913848338638067;1.9180000000000001;0.40901225965889393
55:15.7;-0.30498126813704735;-0.8593578802087564;-1.4659608867576766;1.798;0.38421083911375165
55:15.7;-0.2912544299215187;-0.8178811116191654;-1.4145236221170054;1.695;0.3369557894365264
55:15.7;-0.27050812229706944;-0.7691302293107545;-1.3396258978079292;1.633;0.2787171711419108
55:15.7;-0.2468080205786671;-0.7158268586109283;-1.2452044402620475;1.581;0.21999252234439992
55:15.7;-0.22400898387032334;-0.6603356274153579;-1.1363977094282305;1.5130000000000001;0.16809721388777907
55:15.8;-0.2053387426602547;-0.6045874706893063;-1.0192284799907985;0.961;0.1265323551508661
55:15.8;-0.1931316900344419;-0.5500385442141025;-0.9001611926133981;0.961;0.0956240097362894
55:15.8;-0.18871573800102967;-0.49766826403805936;-0.7855899770793514;0.961;0.07378090884543406
55:15.8;-0.19243427085692744;-0.44803202103513917;-0.6813330005868306;0.738;0.05874229332822186
55:15.8;-0.20378064876028285;-0.40136932063253933;-0.5921739259490761;0.595;0.04843467555575042
55:15.8;-0.22161754817189527;-0.3577525915435567;-0.5214647223368263;0.55;0.04134394055395406
55:15.8;-0.24444090446719435;-0.31726218050773414;-0.4708244386218967;0.5670000000000001;0.036513308291507306
55:15.8;-0.2706359788236691;-0.28017435401359503;-0.4399893983600447;0.633;0.033362310765381965
55:15.8;-0.29866968839789465;-0.24713799036149298;-0.4268579846450543;0.652;0.03150750902011625
55:15.8;-0.3271730167282735;-0.21929792291353625;-0.4277495410240559;0.578;0.030690329343275546
55:15.9;-0.35489525352961904;-0.19831637577898634;-0.43788046344539705;0.631;0.030818701555133072
55:15.9;-0.3805587618283703;-0.18626671094937414;-0.4520329612020829;0.631;0.03204255032665535
55:15.9;-0.4026896276089905;-0.1854185528160077;-0.4653416985547177;0.631;0.03474526282117231
55:15.9;-0.41951464566067836;-0.19796201418465761;-0.4740931540769121;0.631;0.039372471303814424
55:15.9;-0.42899223060724945;-0.2257109546553893;-0.4764555741860865;0.9329999999999999;0.0461343575025317
55:15.9;-0.42900733611652553;-0.2698067294857602;-0.4730804525648948;1.212;0.05475862066112469
55:15.9;-0.4177220493669389;-0.33044215070432204;-0.46747526663372374;1.4280000000000002;0.06452700057199341
55:15.9;-0.3940274965071823;-0.4066366712710624;-0.4659740411912797;1.4809999999999999;0.07466117050227747
55:15.9;-0.3579890988885502;-0.49610608931954064;-0.47711515049246384;1.3730000000000002;0.08473592357464663
55:15.9;-0.31113274476977887;-0.5952811097107081;-0.5103174460750688;1.127;0.09451663188914042
55:16.0;-0.25641775622346885;-0.6995263847677405;-0.5739199849841343;1.264;0.10294459359243191
55:16.0;-0.19783199759680986;-0.803561507770669;-0.6729051681008996;1.264;0.10697185453461432
55:16.0;-0.1397092959987053;-0.9019957412001143;-0.8068784107064412;1.264;0.10168054998638898
55:16.0;-0.0859757614677775;-0.9898465209836704;-0.9689445053539498;1.2409999999999999;0.08245989856786082
55:16.0;-0.03949839613981279;-1.0629596431777797;-1.1459169271747407;1.47;0.048111552593361306
55:16.0;-0.001634969463230168;-1.1183019231153344;-1.319945120031617;2.141;0.0024133737913963134
55:16.0;0.027943387245091367;-1.1540955682484584;-1.471278652757009;2.923;0.04744776459738511
55:16.0;0.05111377815548406;-1.169766026987842;-1.58156892552973;3.497;0.09456384257095471
55:16.0;0.07087398562929145;-1.1657306862315215;-1.6369338909114233;3.59;0.1352434451706185
55:16.0;0.09072682229880855;-1.1431219466884632;-1.6300615807487422;3.292;0.16905665606024298
55:16.0;0.11401869723745446;-1.1035534538028309;-1.5609024248409549;1.577;0.19640168259160515
55:16.0;0.14336834598253254;-1.0489926184733118;-1.435947909611695;1.577;0.21595556144625427
55:16.0;0.18026983971234306;-0.9817324810317469;-1.266548757915651;1.577;0.22414969175321606
55:16.1;0.22489436793369388;-0.9044068724046376;-1.0668960999234078;1.143;0.21700241186204255
55:16.1;0.2760858174673922;-0.8199865692981608;-0.8521042830272934;0.899;0.1929050445634975
55:16.1;0.3315327647360638;-0.7317212671226506;-0.6365948701538747;0.8;0.15443127881023486
55:16.1;0.3880797130107767;-0.6430274189944526;-0.4328991400627644;0.753;0.10802820388044787
55:16.1;0.4421226702842512;-0.5573435798079981;-0.2509652071930342;0.736;0.061841398731594825
55:16.1;0.4900321719646397;-0.47797782328479144;-0.09796864945129798;0.738;0.022946659000791327
55:16.1;0.5285551909637599;-0.40796528864624604;0.021476287684618404;0.753;0.004630978539464259
55:16.2;0.5551572011074837;-0.34994694386504804;0.10486709677927805;0.7659999999999999;0.02037311457027031
55:16.2;0.5682736920476744;-0.30607658763677625;0.15129398359159862;0.7659999999999999;0.026315360264478282
55:16.2;0.5674470588616972;-0.27796057100211635;0.16098976541479018;0.7659999999999999;0.025392578987922236
55:16.2;0.5533334600355548;-0.2666283045529538;0.13504069455720183;0.701;0.019923142756275367
55:16.2;0.5275775690719486;-0.27252224895008986;0.07530095682932911;0.6409999999999999;0.010826517478811127
55:16.2;0.49256958669967327;-0.2954936998733725;-0.015500147885940918;0.589;0.002256065274071844
55:16.2;0.45111456709164205;-0.3347980042782679;-0.13352951503907048;0.5529999999999999;0.020167264000837997
55:16.2;0.4060554086328863;-0.38909173404810565;-0.2736252773258775;0.494;0.04323082455403896
55:16.2;0.3598967358267476;-0.45643914815704284;-0.42922543240454364;0.48;0.07050927363373942
55:16.2;0.31447927030414685;-0.5343362796216821;-0.5925785140112139;0.579;0.09957552067518399
55:16.3;0.2707542210800428;-0.619758680348107;-0.7552928797403502;1.4569999999999999;0.12673986634804346
55:16.3;0.22870184048447628;-0.7092325494604846;-0.9091561016077417;1.4569999999999999;0.14746765567454162
55:16.3;0.18742287635386853;-0.7989246054445641;-1.0470194835026412;1.4569999999999999;0.15677729207310406
55:16.3;0.14540695778655488;-0.8847578749482534;-1.1635062869232395;1.7830000000000001;0.1496850267705256
55:16.3;0.10095580889152396;-0.9625851243915583;-1.2553965930900934;1.879;0.12199763296951764
55:16.3;0.052711322399190616;-1.0284550381630535;-1.3216482745630553;1.851;0.07164817210173106
55:16.3;0.00019519261585104796;-1.078965751669859;-1.3630736175201184;1.7469999999999999;0.0002870716833204452
55:16.3;-0.055786872537094835;-1.1116389554209216;-1.3817704974444023;1.817;0.08569030493681189
55:16.3;-0.11304115032462922;-1.125206321102793;-1.3805000904017053;1.901;0.17559218011526057
55:16.3;-0.1682818054311656;-1.1197011417980278;-1.362202189340392;2.0269999999999997;0.25667339662424155
55:16.4;-0.21778579481873095;-1.0963009018760368;-1.3297112759052772;1.665;0.3174802197487166
55:16.4;-0.25821582993899206;-1.056965404910486;-1.2856005631349159;1.665;0.3508727898440632
55:16.4;-0.2873453736181093;-1.0040087298891134;-1.2320629394064233;1.665;0.3554467866089095
55:16.4;-0.3044650851340727;-0.9397564592772059;-1.1708052235539046;1.3969999999999998;0.33499433854695704
55:16.4;-0.31038444934173903;-0.8663644347895756;-1.102981982359371;1.253;0.2965985259151004
55:16.4;-0.30708776125043485;-0.7857857207500369;-1.0292123343482524;1.22;0.2483542653417709
55:16.4;-0.2971994468635148;-0.69982755398226;-0.9497263590095023;1.24;0.19753202970483133
55:16.4;-0.2834362484393349;-0.6102360400051081;-0.864653879243831;1.2590000000000001;0.14955314088377794
55:16.4;-0.2681830063008587;-0.5187601270889546;-0.7743981586716501;1.236;0.10773632432385241
55:16.4;-0.2532601626035207;-0.4271661784350255;-0.6799778149416591;1.125;0.07356283947798989
55:16.5;-0.23988650485671728;-0.33719667429374534;-0.5832146335127206;0.5820000000000001;0.04717560862494479
55:16.5;-0.22879044883736518;-0.2504945108076113;-0.4867096898232699;0.5820000000000001;0.027893698114804584
55:16.5;-0.22039263048443183;-0.168542160348308;-0.39365051757855996;0.5820000000000001;0.014622325644442057
55:16.5;-0.21498198383448475;-0.09266368514928695;-0.30754053190088104;0.446;0.00612652196723752
55:16.5;-0.21283302304196183;-0.024098858897256215;-0.23190705577285595;0.35100000000000003;0.0011894589398964732
55:16.5;-0.21424089862204168;0.03587792210402546;-0.17000193448541176;0.281;0.0013067229757413295
55:16.5;-0.21946995480114884;0.08582848326878642;-0.1245154763096626;0.218;0.002345469805021949
55:16.5;-0.2286288751249478;0.12404188284461036;-0.09734969105659737;0.16699999999999998;0.0027607940290372795
55:16.5;-0.24150822442933154;0.14847790722520895;-0.08950441309345836;0.11599999999999999;0.003209506146325233
55:16.5;-0.25743795886742576;0.15679762309964787;-0.10111848675425461;0.07;0.004081714460691965
55:16.6;-0.2752289083300218;0.1465081246701232;-0.13167865705978046;0.451;0.005309714201774333
55:16.6;-0.293240971466155;0.11522740172226412;-0.18035570647127147;0.451;0.006094110246240675
55:16.6;-0.3095796215333041;0.061045364553021876;-0.24636905767136766;0.451;0.004655981210065028
55:16.6;-0.32239212220617364;-0.01706678373501379;-0.3292668818845842;0.6859999999999999;0.0018116911270741702
55:16.6;-0.3302272297993017;-0.11885612791730663;-0.4290491779712477;0.8959999999999999;0.016839978525110027
55:16.6;-0.33240892417099877;-0.24245678707062662;-0.5460981868598157;1.043;0.04401267401276948
55:16.6;-0.32934000847447936;-0.3841907995039962;-0.680885588805921;1.09;0.08615204581312605
55:16.6;-0.3226217998101314;-0.5385612380158765;-0.8334430161502223;1.092;0.1448120541616913
55:16.6;-0.3148820173265958;-0.6984839013415949;-1.0026400900604073;1.02;0.22052068138508102
55:16.6;-0.3092525748649788;-0.8557793654585462;-1.1853912244083604;0.94;0.3137161254682605
55:16.6;-0.30853342730600186;-1.00190327128987;-1.375981783882701;1.7630000000000001;0.425344383587316
55:16.6;-0.31421406757059;-1.128815066420792;-1.5657335542662545;1.7630000000000001;0.5553493666635193
55:16.6;-0.3256481533969648;-1.2298059657633142;-1.7431915219415377;1.7630000000000001;0.6981203863166661
55:16.7;-0.33968991190631365;-1.3001082807834707;-1.8949393174801088;2.31;0.8368690002185668
55:16.7;-0.3509727943366861;-1.3372034543200588;-2.007060310351958;2.9360000000000004;0.9419576251264656
55:16.7;-0.35281958510101225;-1.3408429971127107;-2.067093766435835;3.522;0.9778917683583607
55:16.7;-0.33859355011389974;-1.312838552446492;-2.06610061811353;3.787;0.9184202909972743
55:16.7;-0.303161870516953;-1.2566907011372084;-2.000315077974572;3.5780000000000003;0.7620814458644815
55:16.7;-0.2440838729044213;-1.177131372637481;-1.8719371716128512;3.056;0.5378427125286058
55:16.7;-0.16219490128927333;-1.0796462005227723;-1.6888650427610685;2.4419999999999997;0.295742408186108
55:16.8;-0.061432911939708665;-0.970021654640971;-1.463453399731201;0.951;0.08720902456180331
55:16.8;0.051989660357925425;-0.8539445615120179;-1.2106465084917613;0.951;0.05374821071519596
55:16.8;0.1707421418659698;-0.7366839895942151;-0.9460046774109533;0.951;0.11899130847834569
55:16.8;0.2874940919075992;-0.6228840439835434;-0.6840981921809535;0.863;0.1225052139029175
55:16.8;0.39578207997985565;-0.5164650998998825;-0.4374863471379232;0.835;0.08942554802127853
55:16.8;0.4905751940522505;-0.4206022504165252;-0.21625191112027106;0.8009999999999999;0.044620777205786534
55:16.8;0.568554603335464;-0.33775504285853025;-0.02796380947009152;0.763;0.0053699514171620276
55:16.8;0.6281395738971586;-0.2697388891710704;0.12208000070552612;0.752;0.020684462663916377
55:16.8;0.6693124862413946;-0.217830189084338;0.2304912213641449;0.752;0.03360480538856664
55:16.8;0.6933059798738292;-0.1828882775132081;0.29545864351846723;0.773;0.037463428120625634
55:16.9;0.7022086427398614;-0.1654684754271319;0.3165341908805118;0.711;0.0367791818117188
55:16.9;0.6985382700912979;-0.1658978989620771;0.29455367628629103;0.711;0.03413465656518097
55:16.9;0.6848326678899312;-0.1842916146104481;0.23165268592107033;0.711;0.029236634865848765
55:16.9;0.6633038398198804;-0.22049881665463988;0.13131582161080468;0.711;0.019205951587043402
55:16.9;0.6355813964047319;-0.2739830738416509;-0.0016031915469137098;0.614;0.0002791774427964384
55:16.9;0.6025499211666738;-0.3436553919473048;-0.16094780766328146;0.54;0.03332738677894375
55:16.9;0.5642819738860536;-0.4276925570166588;-0.3394522652546526;0.574;0.08192313823309644
55:16.9;0.5200803454268289;-0.5233842908071707;-0.5290690879467577;0.735;0.14401360184603276
55:16.9;0.46865280126000275;-0.6270598875907714;-0.7213986432164315;0.956;0.2119998524710467
55:16.9;0.408438738518218;-0.7341467178410992;-0.9081646885715565;1.161;0.27231677758489264
55:17.0;0.3380863198399223;-0.8394009452497048;-1.081673596428371;1.778;0.3069681244565884
55:17.0;0.2570325742306692;-0.9373057767410384;-1.235199958615717;1.778;0.29758204769983104
55:17.0;0.16607190923141368;-1.0225629017179105;-1.3632585893455509;1.778;0.23150717411799615
55:17.0;0.06775263307590661;-1.0905718312418038;-1.4617646160196354;1.9140000000000001;0.1080084910752635
55:17.0;-0.033547087256742596;-1.1378254882749157;-1.5281375466203866;2.129;0.05833012712846166
55:17.0;-0.13195587054264107;-1.1621803316329935;-1.561420556370763;2.3280000000000003;0.23945401870331423
55:17.0;-0.22086418282011527;-1.1629520991975284;-1.5624244173852107;2.428;0.4013156879057234
55:17.0;-0.29398188746719806;-1.1408052897271173;-1.533799800846978;2.404;0.5143997835886113
55:17.0;-0.34645373098920956;-1.0974723057435722;-1.4798853275836237;2.17;0.5626869938404709
55:17.0;-0.3757228087150445;-1.0353977794615805;-1.406240811060805;1.7990000000000002;0.547059402878088
55:17.1;-0.3818882580009958;-0.9574079855918292;-1.3189259442270915;1.214;0.48222948616247313
55:17.1;-0.3674891517199909;-0.8664693241411733;-1.223718739578273;1.214;0.38965416774752104
55:17.1;-0.3368737404072144;-0.765555574478562;-1.12549617175778;1.214;0.2902604765954336
55:17.1;-0.2954197100222752;-0.6576041000648111;-1.0279160177979918;1.166;0.19969243534577027
55:17.1;-0.2488022609507878;-0.5455149099157773;-0.9334127611329482;1.138;0.12668776713679405
55:17.1;-0.20238775541892087;-0.43214794090710057;-0.8434246854211802;1.048;0.07376714744482997
55:17.1;-0.160772746390906;-0.32030031620781213;-0.7587302946079217;0.915;0.039071242552907205
55:17.1;-0.12747722100067643;-0.21267073573410028;-0.6797832053105639;0.799;0.018429381127863083
55:17.1;-0.10479594867257995;-0.11182473825733227;-0.6069766695898151;0.7040000000000001;0.00711302577122591
55:17.1;-0.09380406335274924;-0.020166658323709823;-0.5408129041672206;0.64;0.0010230636099018686
55:17.2;-0.09450051417022648;0.06008591303679518;-0.48197767275352693;0.521;0.0027367413665604304
55:17.2;-0.10605201389993933;0.1269304686954434;-0.4313319988767747;0.521;0.005806260032756556
55:17.2;-0.12707758225552562;0.17860820128897678;-0.3898406843196922;0.521;0.00884825236874531
55:17.2;-0.1559107752118024;0.21362994863324003;-0.35845550358451556;0.465;0.011939153056107127
55:17.2;-0.19080013692004055;0.23080972887398218;-0.3379612451781404;0.41600000000000004;0.014883315715309412
55:17.2;-0.2300357037627283;0.2293228719789811;-0.3287994924655618;0.365;0.017344978209132063
55:17.2;-0.27200627707767716;0.20879324924525403;-0.330916049299061;0.335;0.01879373981003179
55:17.2;-0.31520949485844046;0.16939491901178105;-0.34370677039189995;0.349;0.0183521841157852
55:17.2;-0.3582553027269142;0.11194138344845078;-0.36613620379811285;0.426;0.014683377744537979
55:17.2;-0.3999047692406388;0.03793395462625336;-0.39706604689572866;0.636;0.006023479769750361
55:17.3;-0.43915963327303065;-0.05044838556969798;-0.4357586203086274;1.2229999999999999;0.009654186263019936
55:17.3;-0.47537212428217085;-0.15041005557406636;-0.48242496266624235;1.2229999999999999;0.03449374550680394
55:17.3;-0.508305247675679;-0.25861864832214754;-0.5386089086210218;1.2229999999999999;0.070804027688021
55:17.3;-0.5380730956234477;-0.37127854973943464;-0.6072045490100431;1.2;0.1213042879265016
55:17.3;-0.5649330916115913;-0.48421545830108265;-0.6920047453501813;1.1179999999999999;0.18929743850538525
55:17.3;-0.588954885489398;-0.5930222142594914;-0.7968007831932327;0.966;0.27829329511723716
55:17.3;-0.6096294789652545;-0.6933081136445011;-0.9241512048450854;0.8809999999999999;0.3906027316138545
55:17.3;-0.6255136737156418;-0.7810493139861366;-1.0740357065261588;0.993;0.5247276903238667
55:17.3;-0.6340349757705672;-0.8529793503772859;-1.242718171848428;1.113;0.6720852780480032
55:17.3;-0.6315911016871208;-0.9069182530590914;-1.422212092549661;1.238;0.8146452179249108
55:17.4;-0.6140315161411374;-0.9419434582041007;-1.600684892056976;2.6689999999999996;0.9258088815183431
55:17.4;-0.5774824858891922;-0.9583568725061172;-1.7638659734631987;2.6689999999999996;0.9761839463753497
55:17.4;-0.5193139835953018;-0.9574753453261099;-1.8971136001560611;2.6689999999999996;0.9433024324100354
55:17.4;-0.43896437943508626;-0.9413217056436464;-1.9875728854688113;3.094;0.8212784297676238
55:17.4;-0.3383959050283787;-0.9122949160944571;-2.025982820950716;3.1830000000000003;0.6254550625653262
55:17.4;-0.22207391697006534;-0.8728774492553948;-2.007904143529091;2.952;0.3892187937594902
55:17.4;-0.09647030037007806;-0.825424779512349;-1.9342278523952583;2.645;0.1540205840347086
55:17.4;0.030812943466178404;-0.7720646153436351;-1.8108883525163006;2.36;0.04308027939035068
55:17.4;0.1521170793126645;-0.7146939396742628;-1.6478372551396439;1.73;0.17914817779684997
55:17.4;0.2607631092999978;-0.6550162242604284;-1.4574845932346634;1.2770000000000001;0.24894429652255382
55:17.5;0.3518342067772311;-0.5945541643062615;-1.252935922468642;0.887;0.2620947654334497
55:17.5;0.4225800045492482;-0.534621629102778;-1.0464036791907534;0.887;0.23640394870793235
