Time;AccX;AccY;AccZ;Acc-old;Acc-trns
53:02.9;0.17756155753410857;-0.3999423034271651;-0.8494491351562719;0.9520000000000001;0.06032310224784464
53:02.9;0.14489909852054003;-0.392082222228831;-0.8666110851379517;1.081;0.04923422142278686
53:02.9;0.11358075047219082;-0.3841604417691715;-0.8817817837539226;1.102;0.038474988507148415
53:02.9;0.08459973067457911;-0.37601077507086045;-0.8931095015862465;1.047;0.028410179689836137
53:02.9;0.058736066209866405;-0.3673937806029056;-0.8991926658334903;1.047;0.019403917202063022
53:02.9;0.03647268679683405;-0.35800128587548546;-0.899187866624119;0.985;0.01174093765157231
53:02.9;0.01793867728039141;-0.3474868706440632;-0.8928158987316287;0.963;0.005565327577728827
53:02.9;0.002900278735165752;-0.33552267416463;-0.8802926898863792;0.932;0.0008566209830438821
53:02.9;-0.009195369668434228;-0.3218723274687223;-0.8622194109487409;0.907;0.002551941000264971
53:02.9;-0.019131591836980804;-0.306461512445635;-0.8394629971465385;0.905;0.004921852619088978
53:03.0;-0.02780366649151043;-0.28942543275354027;-0.8130476805805881;0.8809999999999999;0.006542666401673864
53:03.0;-0.036087061437393445;-0.2711195315755305;-0.7840633058290171;0.8290000000000001;0.007671202617545174
53:03.0;-0.044708217410958914;-0.2520934297978092;-0.7535846769295046;0.78;0.00849338753184646
53:03.0;-0.054134149102077415;-0.23303989974266448;-0.7225964383683474;0.6659999999999999;0.009115855161068942
53:03.0;-0.06449719720733406;-0.21473520057819162;-0.6919300996535742;0.6659999999999999;0.009583106349584647
53:03.0;-0.07556800684423959;-0.19798494944788447;-0.6622319714779199;0.6659999999999999;0.009907869747257684
53:03.0;-0.08678488262919117;-0.18358277717832494;-0.633978909301343;0.634;0.010100684972847433
53:03.0;-0.09734199222033246;-0.17228029526752936;-0.6075433887810141;0.647;0.010188567735208638
53:03.0;-0.10632851928779914;-0.16476175521530498;-0.5832949680737993;0.669;0.010218670739798964
53:03.0;-0.11289623672550785;-0.16161636002054527;-0.5617178499691565;0.687;0.010249035832574685
53:03.1;-0.11642245841635832;-0.16330226301702241;-0.5435188322361735;0.6829999999999999;0.010333407717386167
53:03.1;-0.11663479793905873;-0.1700996597676273;-0.5296964199251794;0.6679999999999999;0.010508933017775344
53:03.1;-0.11367280664338843;-0.18205872119570268;-0.5215449861478928;0.647;0.010793439105064051
53:03.1;-0.10807708784406302;-0.1989571869607673;-0.5205782461424855;0.5489999999999999;0.01119384481469113
53:03.1;-0.10071580345326413;-0.22028340437426477;-0.5283737270895345;0.5489999999999999;0.011722510107843451
53:03.1;-0.0926738075383787;-0.2452527456248702;-0.546361409634008;0.5489999999999999;0.012417978438422121
53:03.1;-0.08513101021775066;-0.27285917358741313;-0.5755934229963553;0.555;0.013370331319944508
53:03.1;-0.07924369799300683;-0.301963674316866;-0.6165306726887182;0.628;0.014752788736084798
53:03.1;-0.07602755587808784;-0.3314172326215235;-0.6688753870110783;0.669;0.01685354755931651
53:03.1;-0.07623581408091645;-0.3602030792205989;-0.7314744610411894;0.727;0.02008656298763244
53:03.2;-0.08023446889485787;-0.3875711081346863;-0.8023165282934118;0.83;0.024949285681890046
53:03.2;-0.08789642335030871;-0.4131343887056117;-0.878642140603349;0.943;0.031906162918638195
53:03.2;-0.09855637557100887;-0.4369005478387714;-0.9571758037323248;1.0979999999999999;0.04121535308905145
53:03.2;-0.1110690033618465;-0.4592181373049629;-1.034464748884762;1.3559999999999999;0.052762771935355765
53:03.2;-0.12397919270381452;-0.4806381719459037;-1.1072707930544659;1.3559999999999999;0.0659813060455364
53:03.2;-0.13575943434342944;-0.5017246232171226;-1.1729274864331254;1.3559999999999999;0.07989260809646799
53:03.2;-0.14504232077702064;-0.5228714803866703;-1.229581063155905;1.48;0.0932495748306695
53:03.2;-0.15079681778638857;-0.5441769392667373;-1.2762790207660015;1.52;0.10473164884843084
53:03.2;-0.15243221499480133;-0.56539901265088;-1.3129066932298634;1.4809999999999999;0.11315289467441678
53:03.2;-0.14982844300494513;-0.5859952710735419;-1.3399839784869916;1.4369999999999998;0.11764893048914017
53:03.3;-0.1432884047807756;-0.6052382273175435;-1.3583524628711403;1.349;0.11780124295828676
53:03.3;-0.13340743271290859;-0.6223855986740453;-1.3688200087175202;1.331;0.11365430918419857
53:03.3;-0.12087522093923173;-0.636858439669544;-1.3718640916502602;1.4669999999999999;0.10560665283428898
53:03.3;-0.10626461118807667;-0.6483510717050492;-1.367496053707413;1.499;0.0942160673077096
53:03.3;-0.08988169936994662;-0.6568103897415944;-1.355333240077293;1.499;0.08001241496755365
53:03.3;-0.07172142740268764;-0.6622972752185229;-1.3348379154228935;1.499;0.06340601027043143
53:03.3;-0.05152100516024377;-0.6648140562631385;-1.305628840663151;1.521;0.04472025337268347
53:03.3;-0.028879540764140288;-0.6641821446103324;-1.2677811559274457;1.547;0.024317659397464022
53:03.3;-0.0034162777850829436;-0.6600090120927387;-1.2220590742949822;1.534;0.0027554671811234645
53:03.3;0.025057995166990973;-0.651748407596748;-1.1700381635597914;1.4709999999999999;0.019108488152253574
53:03.4;0.056388902459302344;-0.6388386349369098;-1.114082721215993;1.41;0.040133058052813864
53:03.4;0.08998129331492892;-0.6208884454286898;-1.057165331672666;1.321;0.05906207781441691
53:03.4;0.12478467223966527;-0.5978686574895327;-1.0025439339783122;1.212;0.07479463426598684
53:03.4;0.15937472064300381;-0.5702646588677001;-0.953339838752936;0.929;0.08664502598370973
53:03.4;0.1921223608272874;-0.5391561131544222;-0.912092494171919;0.929;0.09447813903733272
53:03.4;0.22141361293112194;-0.5062128673089974;-0.8803947601636429;0.929;0.09867677515394147
53:03.4;0.24587082098730223;-0.4736121452799531;-0.8587057840994502;0.8740000000000001;0.09999406192530035
53:03.4;0.26453818224260445;-0.4438847190260414;-0.8463913846790658;0.9279999999999999;0.09938704849846841
53:03.4;0.27700657002846935;-0.4197031326677854;-0.841987079740598;1.084;0.09788986011110284
53:03.4;0.2834533215212459;-0.4036363616339652;-0.8436315307430942;1.2329999999999999;0.09652162754930917
53:03.5;0.2845828229329857;-0.3978969982228369;-0.8495669998781832;1.287;0.0962004227245208
53:03.5;0.2814792232019319;-0.4041022697230234;-0.8585641866854652;1.205;0.09765857937365088
53:03.5;0.27540577940193606;-0.42307571111526115;-0.8701396276340236;1.094;0.1013864905524664
53:03.5;0.26759467131375275;-0.45472611556409953;-0.884503609955026;0.9159999999999999;0.10762842073231875
53:03.5;0.2590674690751473;-0.498030160875332;-0.9022739294153203;0.9159999999999999;0.11641446210572494
53:03.5;0.2505149107246909;-0.5511141293579541;-0.9240671882029369;0.9159999999999999;0.12757884774796158
53:03.5;0.24225008183320512;-0.6114112544654833;-0.9500964187360416;0.997;0.14072298611239134
53:03.5;0.23423292688368036;-0.6758778881960656;-0.9798666585026203;1.1540000000000001;0.15512548917549357
53:03.5;0.2261466429518867;-0.7412520519146618;-1.012011325489346;1.2930000000000001;0.1696451415897735
53:03.5;0.21749335756939317;-0.804315157655742;-1.044278347417585;1.355;0.18267895737216736
53:03.6;0.20767778395373135;-0.8621036435272333;-1.0736512140237102;1.389;0.19222627095646203
53:03.6;0.19606669154012332;-0.912038745180883;-1.096573089386148;1.419;0.19608965966346853
53:03.6;0.18203494752787006;-0.9519821283251465;-1.1092379438274016;1.443;0.19222429884746392
53:03.6;0.1650157937556786;-0.9802491025985819;-1.1079212312705193;1.508;0.17921355342731843
53:03.6;0.14456322820059384;-0.9956083116009388;-1.0893331303291105;1.508;0.15678592173529943
53:03.6;0.1204237997249578;-0.9972813886456633;-1.050978515593466;1.508;0.1262187511405072
53:03.6;0.09260975283551663;-0.9849455299214611;-0.9915002817052863;1.505;0.09044025550067847
53:03.6;0.06145779526237088;-0.9587387902379998;-0.9109750113216663;1.4509999999999998;0.053676444365359954
53:03.6;0.02764790450524423;-0.9192648122033334;-0.8111270417465425;1.3430000000000002;0.020615398658163194
53:03.6;-0.007842433028011115;-0.8675896827238982;-0.6954293044371075;1.2570000000000001;0.004731710711268984
53:03.7;-0.04385310679386777;-0.805224250339487;-0.5690637431889649;1.147;0.020094542762590203
53:03.7;-0.0792012264967675;-0.7340903504163357;-0.4387153417417384;0.992;0.025507285558515665
53:03.7;-0.11284329683115867;-0.6564730363180746;-0.3121754436013489;0.862;0.023125514103210537
53:03.7;-0.1439971128419367;-0.5749618836417808;-0.19774916599659836;0.5479999999999999;0.016372217282909232
53:03.7;-0.17219568117960138;-0.49238792530819525;-0.10351583898204868;0.5479999999999999;0.008776805120962492
53:03.7;-0.1972680871010343;-0.41176706328243795;-0.03656068136651776;0.5479999999999999;0.0029697693394653037
53:03.7;-0.21926237054189013;-0.3362514013256474;-0.002312470650857126;0.502;0.00017049216967064923
53:03.7;-0.238334873468784;-0.2690664680620602;-0.0040627795787761154;0.45799999999999996;0.00026053761445094236
53:03.7;-0.25463228931382564;-0.21340144441812;-0.042682986871224966;0.40299999999999997;0.002319346484232323
53:03.7;-0.26819455719695035;-0.17223472269665277;-0.11655198665859437;0.293;0.005383817758669715
53:03.8;-0.27890563532954293;-0.1481011931552423;-0.22171844945736283;0.257;0.009158359336968978
53:03.8;-0.28650729841491845;-0.1428283255161018;-0.3522968584336196;0.41200000000000003;0.014416465753764896
53:03.8;-0.2906729372322199;-0.15728685485278185;-0.5010523093842167;0.595;0.02290762661054156
53:03.8;-0.2911217853166213;-0.19121162690231644;-0.660097813168093;1.247;0.03674491918520335
53:03.8;-0.28773756720964955;-0.2431354340630019;-0.8215989020423062;1.247;0.05747840051083484
53:03.8;-0.280641928833297;-0.31044737913492343;-0.9783468287865613;1.247;0.0852380284558708
53:03.8;-0.2701759859282178;-0.3895659391610709;-1.1240793678053798;1.262;0.11831088411690047
53:03.8;-0.2567718682533889;-0.4762188658268067;-1.2535273998738867;1.2329999999999999;0.1532808389182241
53:03.8;-0.24074495945450897;-0.5658168893615176;-1.3622770707966088;1.2770000000000001;0.18556606419687033
53:03.8;-0.22208764973522865;-0.6538732670564648;-1.446594926106437;1.44;0.2100704315839773
53:03.9;-0.2003664517530692;-0.7363829597889111;-1.503364219563174;1.739;0.22181603979905407
53:03.9;-0.1747919030577051;-0.8100696777160211;-1.5302234197300115;1.984;0.21666987429178824
53:03.9;-0.1444500146104755;-0.8724472530357168;-1.5258840149531114;2.138;0.19229956113378877
53:03.9;-0.10859743300855329;-0.9217122642880944;-1.490491612456017;1.775;0.14919163118934864
53:03.9;-0.0668928557721864;-0.9565519481165498;-1.4258688761553335;1.775;0.09123634672988036
53:03.9;-0.019488249760823095;-0.9759736611282545;-1.335555280755551;1.775;0.025402286105075417
53:03.9;0.03302298229394694;-0.9792351062443303;-1.2246446111684373;1.645;0.039601655577201376
53:03.9;0.08976477459073803;-0.9659061267587357;-1.0994431936092741;1.5490000000000002;0.09532650278492769
53:03.9;0.14978237495065663;-0.936041326424597;-0.9669696542180688;1.463;0.1355715561030758
53:03.9;0.21219927174656936;-0.8903983677384825;-0.834341881736067;1.3259999999999998;0.1576421280352264
53:04.0;0.27624180152701133;-0.8306168786747394;-0.7081293942796265;1.139;0.16248107054442287
53:04.0;0.3411156091297806;-0.7592830168866872;-0.5937662163953831;0.935;0.1537874028290117
53:04.0;0.40581472428732346;-0.6798343107669568;-0.4951271794620759;0.7509999999999999;0.13659903995698575
53:04.0;0.46900266881351177;-0.5963035772621688;-0.4143582299214418;0.838;0.11588272466644813
53:04.0;0.5290634888979122;-0.512958629898782;-0.3519927397424238;0.838;0.09552649385840178
53:04.0;0.5842931636788864;-0.4339403652111209;-0.30729838536737913;0.838;0.07791501050216497
53:04.0;0.6331100207813193;-0.3629922178247661;-0.27874495180733144;0.892;0.06405949530112215
53:04.0;0.6741865616268814;-0.30331100100530783;-0.2644919829541798;0.872;0.05408548973920289
53:04.0;0.7064786280171611;-0.25749058661225227;-0.2628313166603781;0.897;0.04781206438634308
53:04.0;0.7291704101632045;-0.22751000911578004;-0.27254182693785917;0.9;0.04521293573562271
53:04.1;0.741568875624901;-0.2147202568915367;-0.2931172085083473;0.87;0.046673011921059056
53:04.1;0.7429914147242038;-0.21979586267113663;-0.32482619861529977;0.85;0.05304620977565914
53:04.1;0.7326949717508118;-0.24264239768680473;-0.36857162524733156;0.8;0.06552571939049134
53:04.1;0.7098870258791062;-0.28228258171185217;-0.42554231504115203;0.721;0.08527388934435862
53:04.1;0.6738377049523466;-0.3367646257486336;-0.49670492842657715;0.721;0.11271461812520467
53:04.1;0.6240862966006627;-0.4031405164035777;-0.5822421958348426;0.721;0.1464889177742984
53:04.1;0.5607131845545058;-0.4775571970285179;-0.6810724301805048;0.905;0.18237254682761145
53:04.1;0.4846259675178211;-0.5554887365103388;-0.790566478148897;1.14;0.2128238687719864
53:04.1;0.39777889027426844;-0.6320978337399757;-0.9065318870569293;1.3159999999999998;0.2279340035291295
53:04.1;0.30322163889219683;-0.7026588989389375;-1.0234814272563926;1.439;0.21806436828259715
53:04.2;0.20489185599694162;-0.7629434551984668;-1.135150318226326;1.544;0.17744772001194767
53:04.2;0.1071463352449467;-0.8094882303496314;-1.2351756902508053;1.797;0.10713135443779503
53:04.2;0.014144236582538404;-0.8397220411189513;-1.3178089790140064;1.8880000000000001;0.01565191666728976
53:04.2;-0.07071825467403721;-0.8519840446738149;-1.378516933282631;1.7469999999999999;0.08305678202352197
53:04.2;-0.14514069002230223;-0.8454926774465139;-1.414367202075229;1.7469999999999999;0.17356462367343042
53:04.2;-0.2079566288711363;-0.8203111701378031;-1.4241797559888947;1.7469999999999999;0.24294960770824134
53:04.2;-0.2589395574005045;-0.7773208131053216;-1.4084939071758564;1.714;0.283500396279046
53:04.2;-0.29848798134524995;-0.7181878633441111;-1.369409769724738;1.6280000000000001;0.2935609824849628
53:04.2;-0.3272958807205587;-0.645303748996089;-1.3103384482255234;1.511;0.27675037115162116
53:04.2;-0.34609959926836953;-0.561682435835503;-1.235680196721503;1.383;0.240213840386187
53:04.3;-0.35556335697394814;-0.4708109625421786;-1.1504502728833197;1.276;0.19258897238125225
53:04.3;-0.3563127260649706;-0.37646836744416684;-1.0598734226077038;1.162;0.14217191934720613
53:04.3;-0.3490696384303281;-0.28254240788875906;-0.9689665028444764;1.048;0.09556623617875219
53:04.3;-0.33481010835291325;-0.1928721785918648;-0.8821351175049508;0.7140000000000001;0.056964364808991454
53:04.3;-0.3148692670977391;-0.11113260156604618;-0.8028323367059946;0.7140000000000001;0.028092902452671986
53:04.3;-0.2909516000588605;-0.04076086070247741;-0.7333503853176251;0.7140000000000001;0.008697123163796595
53:04.3;-0.265039623577131;0.015095163180870227;-0.6748059684022558;0.604;0.002699774763130891
53:04.3;-0.2392128018193372;0.0536430017202931;-0.6273326909850864;0.604;0.008049991269247523
53:04.3;-0.21540594411195194;0.0725588908974701;-0.5904463641600672;0.677;0.009228450175111976
53:04.3;-0.19516344868647012;0.07015602979705088;-0.5635197198611027;0.787;0.007715651550699595
53:04.4;-0.17945956327847473;0.04558907635021342;-0.5462790331339349;0.875;0.004469324950205858
53:04.4;-0.168634442260482;-0.0009401008563791445;-0.5392148962145213;0.924;8.548356197583659e-05
53:04.4;-0.16244922825358965;-0.06802177751056954;-0.5437984787873128;0.956;0.006009019555417895
53:04.4;-0.16021548187383264;-0.1529783032573349;-0.562421575911102;0.754;0.013784667437471698
53:04.4;-0.1609339716024758;-0.25194878393634296;-0.5980307935482767;0.754;0.024248425416344397
53:04.4;-0.16339808155917881;-0.3601241160524771;-0.6534873933548245;0.754;0.03845354403965596
53:04.4;-0.16625404373753822;-0.4721111363312299;-0.7307279340075127;0.7190000000000001;0.057355117242146036
53:04.4;-0.16803044680154797;-0.5824086104571342;-0.8298262406704306;0.8320000000000001;0.08120877009865882
53:04.4;-0.1671507567784146;-0.6859611844388519;-0.948102298929101;1.052;0.10870839616825737
53:04.4;-0.16194481445582423;-0.778695566298578;-1.0794980915273258;1.192;0.1361308721981393
53:04.5;-0.1506909951369614;-0.8578957686949032;-1.2144838074004076;1.274;0.15700502611977682
53:04.5;-0.131737227105281;-0.9222970470204005;-1.3406975895998607;1.5719999999999998;0.16289590415928792
53:04.5;-0.10373080974080791;-0.971867193269792;-1.444341516210854;2.057;0.14560778153339865
53:04.5;-0.0659207418287182;-1.0073614657131293;-1.5121129073666584;2.562;0.10041339257382152
53:04.5;-0.018432405994128633;-1.0298236644554586;-1.5332546966923457;2.562;0.029104436733817553
53:04.5;0.03758565246139774;-1.040204567846582;-1.5012640679265563;2.562;0.05869457203343192
53:04.5;0.09999346440504243;-1.0391930186762275;-1.41491667488828;2.315;0.14702754330248738
53:04.5;0.16587391109374328;-1.0272666565281292;-1.2784614507228356;1.955;0.21784566093161273
53:04.5;0.23189560902253434;-1.00489675214152;-1.1010315685212075;1.6869999999999998;0.2565746463698518
53:04.5;0.2947526474513494;-0.9727906822233918;-0.8954622785175514;1.4409999999999998;0.25675825329087576
53:04.6;0.35159417555702305;-0.9320516302185394;-0.676782175652883;1.169;0.22178417499530895
53:04.6;0.40037216693600075;-0.8841896080973779;-0.4606376063716881;1.0070000000000001;0.16306797409889778
53:04.6;0.440057716248163;-0.8310021318050357;-0.2618485233654575;0.934;0.09575509855979354
53:04.6;0.4706912824296658;-0.774408435120191;-0.0932238340680652;0.912;0.03398076800062541
53:04.6;0.4932520078348533;-0.716331294754324;0.035295151330812215;0.912;0.012470901095010308
53:04.6;0.5093629612820356;-0.6586774835686713;0.11714752732191054;0.912;0.03930368817547222
53:04.6;0.5208759386536913;-0.6034080441020888;0.1493535068347236;0.9520000000000001;0.04694191642976206
53:04.6;0.5293900757845044;-0.552644368303645;0.1324597411818739;0.898;0.03875301053366248
53:04.6;0.535770863818645;-0.508732344483713;0.07027499294095714;0.755;0.019154430903021453
53:04.6;0.5397601462724257;-0.47418908668453386;-0.03058514323151121;0.602;0.007828217580472833
53:04.7;0.5397788372208396;-0.45149322398521124;-0.16133291377349998;0.503;0.039317877726753235
53:04.7;0.5329970870934044;-0.4427398235093197;-0.3117916566937615;0.581;0.07357629466384358
53:04.7;0.5156878144101389;-0.44923895887838794;-0.4712714873093863;0.8109999999999999;0.10917807844317465
53:04.7;0.483815180475701;-0.47116990007530285;-0.6294591171066715;1.35;0.14349096544623757
53:04.7;0.4337589496852693;-0.5073895502433713;-0.777216967306231;1.35;0.1710536084699667
53:04.7;0.36304828953595;-0.5554346308484631;-0.9071693948381456;1.35;0.18293033895957359
53:04.7;0.27098120087140226;-0.6117005460124318;-1.0139871446803994;1.456;0.16807784852218904
53:04.7;0.15903121726512762;-0.6717637267803254;-1.0943648803921135;1.415;0.11691253576805449
53:04.7;0.030972098303008528;-0.7308086482340536;-1.146762671717169;1.375;0.025956603006887017
53:04.7;-0.10732316515633179;-0.7840931664144615;-1.1710228211320712;1.358;0.09854316345425562
53:04.8;-0.2484219638821715;-0.8273616794781974;-1.1679941084318717;1.3330000000000002;0.24006345096161716
53:04.8;-0.3841730511395369;-0.8571341779720157;-1.1392863087908347;1.4769999999999999;0.3751531418762026
53:04.8;-0.506736085737988;-0.8708594140563051;-1.0872170317121936;1.7819999999999998;0.47978440840122033
53:04.8;-0.6096136384847769;-0.8669751598661086;-1.0149222727293776;1.8619999999999999;0.5364065994992553
53:04.8;-0.6884780101435222;-0.844924188091135;-0.9265305966552526;1.8619999999999999;0.5389737104773583
53:04.8;-0.7416334199386153;-0.8051446440362438;-0.8272768903021781;1.8619999999999999;0.4939853768105597
53:04.8;-0.7700430150578494;-0.7490294977679047;-0.7234479218098758;1.489;0.4172738609860011
53:04.8;-0.7769404064179121;-0.6788487188994591;-0.622094375592025;1.187;0.32810812577167336
53:04.8;-0.7671168576912585;-0.5976459670218244;-0.5305110216070867;0.956;0.24322036216527998
53:04.8;-0.7460209617495482;-0.5091422600480446;-0.4555583645959386;0.769;0.17303509739164746
53:04.9;-0.7188251731569519;-0.4176742840088452;-0.4029373257175429;0.636;0.12097580317892104
53:04.9;-0.6896128551801045;-0.32815613428745444;-0.37653306943944875;0.579;0.08520969293655277
53:04.9;-0.6608361650919965;-0.2460051704951145;-0.3779503641592068;0.593;0.06144305563430249
53:04.9;-0.633177066904875;-0.1769510804777684;-0.4063677961485983;0.856;0.04553000302870369
53:04.9;-0.605863605147625;-0.12667841980367758;-0.4587794191847293;0.856;0.035211248906359974
53:04.9;-0.577349055102283;-0.10032483930253502;-0.5305576978514335;0.856;0.030731202349111537
53:04.9;-0.5461538086925773;-0.10190962869927692;-0.6161738376871897;1.278;0.034295207939321566
53:04.9;-0.5116679590332766;-0.13377157600467282;-0.7099260979762168;1.5919999999999999;0.048592048437968535
53:04.9;-0.47474601183851256;-0.19609989799011246;-0.8065653011672698;1.7309999999999999;0.07508932966825432
53:05.0;-0.437933640000493;-0.2866698206629139;-0.9016961458622825;1.624;0.11320106038821136
53:05.0;-0.40520097415767387;-0.4008920051471435;-0.9918370465211352;1.1840000000000002;0.16111582590802712
53:05.0;-0.3811649535517068;-0.5322175709905449;-1.074111862812991;0.735;0.2178972172604145
53:05.0;-0.36993966095278896;-0.67284250242047;-1.1457140102321106;0.9740000000000001;0.28518096575868396
53:05.0;-0.3738990948739426;-0.8145760904701166;-1.2034417172013352;1.8090000000000002;0.3665313567905112
53:05.0;-0.39270104168588366;-0.9496921625091177;-1.2436066947170885;1.8090000000000002;0.4637970249851678
53:05.0;-0.42286207175098894;-1.0715753055555517;-1.2624148952134322;1.8090000000000002;0.5720362356934755
53:05.0;-0.4580319862598513;-1.1750356480307707;-1.2566859675712185;2.162;0.6763533036430371
53:05.0;-0.4899493301886594;-1.2562940101182056;-1.2246850015561273;2.479;0.7538186127814268
53:05.0;-0.5098689278361511;-1.312771168366364;-1.1668167117729926;2.5069999999999997;0.7809985308364377
53:05.0;-0.5100771134579996;-1.342879298586485;-1.0859181038120513;2.2230000000000003;0.7438234914358579
53:05.1;-0.4850753732987119;-1.3459741746359561;-0.9869826641170449;1.9409999999999998;0.6443999206048576
53:05.1;-0.4321718104872899;-1.3224972607408458;-0.8763789553110191;1.82;0.5008909175376944
53:05.1;-0.35147404710123686;-1.2741880952158717;-0.760848825942156;1.758;0.3407416170560302
53:05.1;-0.24548224406360006;-1.2041750478458257;-0.6466514592285358;1.22;0.1911524947605608
53:05.1;-0.11854527833477682;-1.1168184925969038;-0.539108284675242;1.22;0.07137446452382795
53:05.1;0.023636124799885794;-1.0173385602550433;-0.4425560940324565;1.22;0.010641677803266176
53:05.1;0.17441661316850576;-0.9113610550869462;-0.3605115725608501;0.927;0.057305660884868104
53:05.1;0.3265808855691219;-0.8044872141030881;-0.2958341988742807;0.769;0.07772456250190177
53:05.1;0.47275415143762595;-0.701929508383627;-0.25079403310804;0.8170000000000001;0.08322351429355714
53:05.2;0.6058638357326083;-0.6082391381724458;-0.22706364044090993;0.9490000000000001;0.08367524423123052
53:05.2;0.7196073337042278;-0.5271497222097152;-0.2256860478441034;1.074;0.08561192730618741
53:05.2;0.8088535332636491;-0.46153970536348055;-0.24703623051945336;1.14;0.09222307679774208
53:05.2;0.8699176481444016;-0.41348383113266995;-0.29075310927554926;1.166;0.10458298681631767
53:05.2;0.9006827079874365;-0.3843383014319298;-0.35562325755572655;1.008;0.12310498716389236
53:05.2;0.9005811923443348;-0.37479928138743335;-0.4394404504763888;1.008;0.14832749206719306
53:05.2;0.8704830352910693;-0.38489726007687936;-0.538908399694264;1.008;0.180559392122257
53:05.2;0.8125429698642115;-0.41392392104815606;-0.6496728458864207;0.988;0.21850509980805158
53:05.2;0.7300366922056274;-0.46031717684736567;-0.7665544178581364;1.133;0.2575994079800501
53:05.2;0.6271844116845063;-0.521559002433393;-0.8839958777790209;1.385;0.2891671412374937
53:05.3;0.508944421242707;-0.5941626234227794;-0.9966432213112284;1.652;0.3013806768843813
53:05.3;0.3807602494889326;-0.6738096337786639;-1.09989305485964;1.765;0.2821884788550601
53:05.3;0.24825535496434042;-0.7556383020175835;-1.1902161795086705;1.672;0.2232741467068252
53:05.3;0.11688032370009388;-0.834619854325428;-1.26513802652127;1.565;0.1234150225815157
53:05.3;-0.0084732237047051;-0.9059293513452105;-1.3228972141970445;1.4080000000000001;0.010154746939819522
53:05.3;-0.1238525861867201;-0.9652337439821352;-1.3619446330342075;1.4080000000000001;0.16281598028808922
53:05.3;-0.22653489960804435;-1.0088704399991055;-1.3805124892934568;1.4080000000000001;0.31550834864250416
53:05.3;-0.31513814150132113;-1.0339428545603477;-1.3764496901904615;1.581;0.44849525026267695
53:05.3;-0.38952334856078;-1.0383780751307505;-1.347419918099929;1.735;0.5449943094220254
53:05.3;-0.4505362924763708;-1.020971968433629;-1.2914413737186536;1.867;0.5940435639231225
53:05.4;-0.49966915354082375;-0.9814198142030586;-1.2076446333304092;1.98;0.5922110645017665
53:05.4;-0.5387172907389857;-0.9203220534173893;-1.097054969908436;1.972;0.543912617055097
53:05.4;-0.5694911175428575;-0.839161858793921;-0.9631792976896223;1.8659999999999999;0.4602987869573094
53:05.4;-0.5936281569817956;-0.7402563779291286;-0.8122006201548798;1.66;0.3569110277360425
53:05.4;-0.6125308139780777;-0.6266822544994303;-0.6526608879769978;0.946;0.2505318387352638
53:05.4;-0.6274178101580764;-0.5021834166332481;-0.4946581081845148;0.946;0.15585629281341715
53:05.4;-0.6394253890633269;-0.37108718975721866;-0.34874926794544003;0.946;0.08275212282327762
53:05.4;-0.6496679540630189;-0.23825053421371273;-0.22480713974287256;0.877;0.03479648921999537
53:05.4;-0.6591912842967812;-0.10901853971612806;-0.13099165473904956;0.8340000000000001;0.009413593603772879
53:05.4;-0.6687975603522963;0.010854069256203339;-0.07291321932590465;0.753;0.0005292898217031746
53:05.5;-0.6787658416723655;0.11536126009220113;-0.05307628911953817;0.625;0.00415604767705396
53:05.5;-0.6885384761516236;0.19850504422588378;-0.07071101224545819;0.499;0.009664665234297244
53:05.5;-0.6964813011616915;0.25465914898939523;-0.12205392735717759;0.47100000000000003;0.021648135767580533
53:05.5;-0.6998262197060369;0.27902148990261333;-0.2010531346919674;0.603;0.039258952881778345
53:05.5;-0.6948630119769009;0.2681188122731948;-0.30038976317123195;1.192;0.055964368796293455
53:05.5;-0.6773791316224719;0.22030841432258116;-0.4126309496966431;1.192;0.06157787491031382
53:05.5;-0.643280414622791;0.13620874678869346;-0.5312788688942199;1.192;0.04655087715652281
53:05.5;-0.5892951821433629;0.018984464949925735;-0.6515116697339643;1.347;0.007288756660069119
53:05.5;-0.5136688498218671;-0.1255879906418773;-0.7705233441904213;1.4669999999999999;0.04970695307041479
53:05.5;-0.41675538266158546;-0.2893404877834187;-0.8874632556384764;1.588;0.10701405177413226
53:05.6;-0.30138741605554237;-0.4622614000014298;-1.00299416776892;1.666;0.1397369156502282
53:05.6;-0.1728912116700559;-0.6333643956792004;-1.118479676286967;1.391;0.12247703411632235
53:05.6;-0.038648994013702344;-0.7917964248970369;-1.234855778108727;1.3119999999999998;0.03778922358027895
53:05.6;0.09278685121273644;-0.9280223185561157;-1.351376501986538;1.5519999999999998;0.116364691074905
53:05.6;0.2128876768356521;-1.034868887805128;-1.4645951073350847;2.043;0.3226661686236651
53:05.6;0.3144003316139213;-1.108223640382223;-1.5679773893839473;2.043;0.5463239017766625
53:05.6;0.39237406597501745;-1.1472645781828448;-1.6523458763011367;2.043;0.7438148433564529
53:05.6;0.4447505220091613;-1.1542012095279692;-1.7070926202567622;2.474;0.8763045697867874
53:05.6;0.4724454416046225;-1.1335991745860192;-1.7219484690445381;2.845;0.9222132011535554
53:05.6;0.4789795787194931;-1.0914480930542958;-1.6889794774701832;2.972;0.8829669676474224
53:05.7;0.46978246432763965;-1.0341925997776373;-1.6043514990310883;2.7560000000000002;0.7794670334125869
53:05.7;0.4513071722905906;-0.9679228139474896;-1.4694175950565167;2.347;0.641886434745128
53:05.7;0.43008891540269917;-0.8978203170058312;-1.2908907238945377;1.886;0.49846785702469537
53:05.7;0.41187601732225715;-0.8278611756752212;-1.0801162151026356;1.46;0.3682938836273459
53:05.7;0.4009541182682856;-0.760738894586462;-0.8516365546703926;0.713;0.25976736798942074
53:05.7;0.3997498370681058;-0.6979665597053324;-0.6213600350456729;0.713;0.1733669176064924
53:05.7;0.4087371480575504;-0.6401132150462433;-0.4047196173058603;0.713;0.10589005144920514
53:05.7;0.4266168789806032;-0.5871187884846063;-0.2151593884520923;0.787;0.05389200159213845
53:05.7;0.45071980541218154;-0.5386288834684827;-0.06310472389306856;0.878;0.015319978342824404
53:05.7;0.47756918065391596;-0.49430184896937607;0.0445852029599777;0.943;0.010524931435230592
53:05.8;0.5035094342018326;-0.4540573447560406;0.10472956007708245;0.976;0.02394349790064694
53:05.8;0.525288659617198;-0.41824714625955517;0.11756117473352684;0.951;0.025828246853063397
53:05.8;0.5404965725090932;-0.3877315227895331;0.0861770849494743;0.9279999999999999;0.018059921345065243
53:05.8;0.547798650439599;-0.36384305299941005;0.015824708386882675;0.885;0.0031540658839250366
53:05.8;0.5469518363704471;-0.34822501181406773;-0.08685487451106572;0.691;0.016542580006502647
53:05.8;0.5386287914477009;-0.3425545271939493;-0.21452479247489006;0.691;0.039581911749673106
53:05.8;0.5241105520043139;-0.34819555615455866;-0.35972499969305854;0.691;0.06564728182955273
53:05.8;0.504915620566368;-0.3658458165908496;-0.5153058737980099;0.732;0.09518795416619108
53:05.8;0.48241689698957263;-0.3952359000788639;-0.6747579832779987;0.889;0.12865507667440498
53:05.8;0.45748924849903344;-0.43493450614999346;-0.8324737739206067;1.14;0.16564385034458148
53:05.9;0.43024813609275564;-0.48232185970201347;-0.9839231756846872;1.359;0.20418184940094747
53:05.9;0.3999555602377863;-0.53378607353691;-1.125671158096281;1.421;0.2403203326168703
53:05.9;0.3651470948877951;-0.585152469595361;-1.2551688094304825;1.371;0.2681878080037008
53:05.9;0.3239668387781502;-0.6322796757178282;-1.3703310008886238;1.578;0.280695378882825
53:05.9;0.2746151712261261;-0.6716736559152742;-1.469038410499286;1.6019999999999999;0.2709667438688433
53:05.9;0.21577428458306072;-0.7009348006161937;-1.5487714466389588;1.6019999999999999;0.2342419320083218
53:05.9;0.14691488379987208;-0.7189111670847673;-1.6065282873367335;1.6019999999999999;0.16967951047140079
53:05.9;0.06845953561208418;-0.7255441970092944;-1.639064486133481;1.766;0.0814130194554731
53:05.9;-0.018181061068107525;-0.7214814634188352;-1.6434111219682441;2.028;0.021557114320551726
53:05.9;-0.11066532622680084;-0.7075828487624385;-1.6175618082493146;2.124;0.12666299427205896
53:06.0;-0.20582549273925288;-0.6844734187138182;-1.561141272591888;2.072;0.21993682758603894
53:06.0;-0.2997938514188624;-0.6522703859338014;-1.475846399565649;1.905;0.2885968210698147
53:06.0;-0.3881754178219801;-0.6105366884029687;-1.365522599152315;1.653;0.32362248462969406
53:06.0;-0.4663196631435962;-0.558443881512324;-1.235851528580545;1.4609999999999999;0.3218322523697198
53:06.0;-0.5297190659853993;-0.4950922012822249;-1.093724931104626;1.121;0.2868400581056673
53:06.0;-0.5745029592843259;-0.4199228239359442;-0.9464555169225173;1.121;0.22832946419877298
53:06.0;-0.5979414544350437;-0.3331496543625175;-0.8010193171050618;1.121;0.15956624313250048
53:06.0;-0.5988644689866752;-0.23613335109927377;-0.6634901496100926;1.1179999999999999;0.09382538538124385
53:06.0;-0.5779299366544514;-0.13162446409215364;-0.5387184473932571;1.082;0.04098016047962847
53:06.0;-0.5376935424988981;-0.02382265485474212;-0.43021433188762;0.96;0.005510739141454836
53:06.1;-0.4824270909319481;0.08176505507685425;-0.340176878325491;0.696;0.013418507490022352
53:06.1;-0.4176521923343924;0.1786482324575015;-0.2696329714121746;0.395;0.020118077964346358
53:06.1;-0.34942834459749267;0.2598222352244711;-0.2186678963256379;0.28;0.019852695081464908
53:06.1;-0.28352437531325797;0.31834266264880284;-0.1867397980769211;0.44299999999999995;0.016854742872952036
53:06.1;-0.2246558820334666;0.34796206955586756;-0.17306626508342024;0.639;0.013528888593416971
53:06.1;-0.17596145902029908;0.34377542010889117;-0.17704187979161878;0.7959999999999999;0.010709480095965514
53:06.1;-0.13881918850162966;0.30280528175497795;-0.19859912295647209;0.7959999999999999;0.008348150573878924
53:06.1;-0.11300284180649564;0.22444713645976713;-0.23839752005641565;0.7240000000000001;0.006046515459243233
53:06.1;-0.0970956473196538;0.11070316255239068;-0.29775045511377424;0.5660000000000001;0.0032004586711681304
53:06.1;-0.08904368539080043;-0.03383566226837097;-0.3782706521320676;0.475;0.0011396735157886391
53:06.2;-0.08672286228049916;-0.20225673773766878;-0.48129555762650866;0.555;0.008442060389507499
53:06.2;-0.08839476915105687;-0.3858067381332652;-0.6072053720439566;0.6970000000000001;0.020707705479331193
53:06.2;-0.0929400405334903;-0.5745396039039665;-0.754755053069174;0.833;0.04030220961549751
53:06.2;-0.09979098808931314;-0.7580920445532621;-0.9205198052955231;0.9640000000000001;0.06963801751616577
53:06.2;-0.10855069847110436;-0.9265482407907016;-1.0985301119635837;1.6780000000000002;0.11048736697222038
53:06.2;-0.11839745067781629;-1.0713173216969931;-1.280168348387327;1.6780000000000002;0.16237814040572424
53:06.2;-0.1274988759001965;-1.1858816332421718;-1.4544161094754948;1.6780000000000002;0.21990564348471944
53:06.2;-0.13270312524230088;-1.2662630937813266;-1.6085605138989945;2.099;0.27029779555065553
53:06.2;-0.1296845871042561;-1.3111348767320405;-1.7294329615489823;2.55;0.29406237846213623
53:06.2;-0.11356409162382504;-1.3216009713752843;-1.805103756826005;3.0239999999999996;0.27092154940505786
53:06.3;-0.07987045822060924;-1.3007244176301762;-1.8267302335124997;3.2510000000000003;0.18977800885719182
53:06.3;-0.025589796590517137;-1.2529278555208168;-1.7901043243566592;3.137;0.05739462731316368
53:06.3;0.049995765283504474;-1.1834074824742775;-1.6964803063397305;2.7039999999999997;0.1003728726863926
53:06.3;0.14491549004915208;-1.0976543339354723;-1.5524640496336222;2.19;0.24694597861377238
53:06.3;0.2546607214845716;-1.0010907440566053;-1.3690147888856037;1.158;0.3490145646446136
53:06.3;0.37281106504806494;-0.8987846659857077;-1.1598609230960082;1.158;0.38864256609352044
53:06.3;0.4919293197212594;-0.7952272753004462;-0.9397741825821563;1.158;0.3676355370254983
53:06.3;0.604490058945592;-0.694187788414826;-0.7230879105816455;1.115;0.30342910307462845
53:06.3;0.7036997641617647;-0.5986479467158866;-0.5226223654727428;1.139;0.2201642975948774
53:06.3;0.7841575082205123;-0.5108039866743156;-0.34898669517111924;1.186;0.13978689344188835
53:06.4;0.8423164974455332;-0.43213523746790533;-0.2101763324984176;1.213;0.07650305841003908
53:06.4;0.8766951779751534;-0.363545324295571;-0.11141044265589585;1.187;0.03550856167920817
53:06.4;0.8878072742625347;-0.30556370646917513;-0.055176115912686285;1.0959999999999999;0.01496826949537428
53:06.4;0.8778233133806044;-0.2585687472975913;-0.041451966489515414;0.988;0.00940867095680456
53:06.4;0.8500238100852717;-0.22297689517201197;-0.06807860268964579;0.679;0.012903323573112087
53:06.4;0.8081514251033238;-0.1993463167026825;-0.13122268019834324;0.679;0.021140237528665885
53:06.4;0.7557998439372869;-0.18836862746256017;-0.22585578944599854;0.679;0.0321548581986191
53:06.4;0.695960112557217;-0.19074993295481973;-0.3461754785025612;0.675;0.04595629883772887
53:06.4;0.6307824956809996;-0.2069974936318361;-0.4859411312495591;0.746;0.063449525761506
53:06.4;0.5615517298206948;-0.23714528783386715;-0.638734851960358;0.866;0.08505990288744433
53:06.5;0.48884351701411716;-0.2804803624128847;-0.7981575549252545;0.998;0.10943618595304674
53:06.5;0.41281131947184;-0.3353529155813788;-0.9579596796966651;1.136;0.13261752358677353
53:06.5;0.3335315373276103;-0.39914872738603524;-1.112108761155372;1.234;0.14805358102816762
53:06.5;0.2513241782115833;-0.46847396356572013;-1.2548076024989134;1.298;0.1477395838954562
53:06.5;0.1669770242449573;-0.5395477207368531;-1.3804915612469606;1.6440000000000001;0.12437134630023862
53:06.5;0.08183463794395877;-0.6087104006022489;-1.483849248622866;1.6440000000000001;0.07391586587699127
53:06.5;-0.0022467887866694704;-0.6728714600996136;-1.5599198403069976;1.6440000000000001;0.002358286894789889
53:06.5;-0.08306062331543478;-0.7297188530778488;-1.6043194407544663;1.725;0.0972392496543126
53:06.5;-0.15830689020207706;-0.7776220702899288;-1.6136309388399024;1.882;0.1986426992531761
53:06.5;-0.22589306306932985;-0.8153073332403915;-1.5859363711154872;2.033;0.2920855028896621
53:06.6;-0.28417640158140844;-0.8414750568003256;-1.5213891804323811;2.081;0.36380576860683667
53:06.6;-0.33205431874273594;-0.8545277222562037;-1.4226689442728282;1.9869999999999999;0.40368177326298227
53:06.6;-0.3688968862262632;-0.8525033400780526;-1.295165845616956;1.906;0.407311302905817
53:06.6;-0.39441198722807336;-0.8332292666764285;-1.1467870783574947;1.811;0.3768750720526915
53:06.6;-0.4085647244029627;-0.7946674236135589;-0.9873378015185346;1.16;0.3205620019791283
53:06.6;-0.4116249304462135;-0.735397345031694;-0.8275269047540362;1.16;0.2504989158077565
53:06.6;-0.4043357542062242;-0.6551484196579227;-0.6777800671455839;1.16;0.17954389259941161
53:06.6;-0.3881437090972685;-0.555264180717009;-0.5471001571246348;1.077;0.11791228344562435
53:06.6;-0.3654170185417599;-0.43898781242447454;-0.44214843180859453;1.124;0.07092662945918822
53:06.6;-0.3395622374551649;-0.31149098292509836;-0.36665691892871444;0.985;0.03878151318284093
53:06.7;-0.314921869500568;-0.17961221183419243;-0.3212867035694773;0.619;0.01817320119228586
53:06.7;-0.2963558115737182;-0.05132741653707854;-0.3040088655138614;0.4;0.004624333022794809
53:06.7;-0.28851416684353226;0.06496645611604167;-0.3109507918653435;0.6709999999999999;0.005828381715651565
53:06.7;-0.2949579096498315;0.16124065618589575;-0.33750977889410483;0.924;0.016051697404914134
53:06.7;-0.31738853111523313;0.23058675749131619;-0.37947781622862137;1.003;0.027772308728247277
53:06.7;-0.35522599955672546;0.2678500608287935;-0.43395197977272393;1.003;0.041289361630490136
53:06.7;-0.4056309537116493;0.27009599170243737;-0.49987927447929525;1.003;0.05476642075107503
53:06.7;-0.4639245114199792;0.23688824920514784;-0.5781641645999271;1.1840000000000002;0.06353923873291091
53:06.7;-0.5243047770450651;0.17037075493023743;-0.6713306155464017;1.359;0.05996741328605143
53:06.7;-0.5807320191473561;0.0751431846752153;-0.7827679895563737;1.4269999999999998;0.034158471298013734
53:06.8;-0.6277973115802212;-0.0420842807677456;-0.9156183732836297;1.413;0.02419100213655429
53:06.8;-0.661357652208683;-0.17306052942761593;-1.0714187779249622;1.229;0.12262913490572747
53:06.8;-0.67876996080196;-0.3087617055046391;-1.2487101992812346;0.9179999999999999;0.2617023993529015
53:06.8;-0.6786798351650141;-0.44029006139270027;-1.4419523683980164;0.885;0.4308784191471963
53:06.8;-0.6604871328738264;-0.5597899881588879;-1.641168927436882;2.202;0.6067960905519585
53:06.8;-0.6237539835068224;-0.6612277617560824;-1.8326226788989368;2.202;0.755853220967572
53:06.8;-0.5678516726706873;-0.7408622091143563;-2.0004361470880783;2.202;0.8415831763403807
53:06.8;-0.4920364878568186;-0.7972751098655425;-2.128745584492712;2.9730000000000003;0.8350822949579785
53:06.8;-0.39596011150439964;-0.8309603045255329;-2.2039624561523765;3.51;0.7251634522331801
53:06.8;-0.2804261775892211;-0.8436398485289901;-2.216801744088445;3.608;0.5244480703071756
53:06.9;-0.14807515217217432;-0.837576084160064;-2.1637209298933398;3.282;0.26835377059043614
53:06.9;-0.003694832995698543;-0.8151075736402609;-2.047452341268065;2.802;0.006166284285117983
53:06.9;0.14599065604424852;-0.7784875964882199;-1.8765149964833794;2.2569999999999997;0.21326952275200148
53:06.9;0.293009224003201;-0.7299503243330407;-1.6638384593739572;1.8419999999999999;0.3558653936869834
53:06.9;0.42913001582195603;-0.6718542760270526;-1.4248069052353467;1.188;0.410790119745458
53:06.9;0.5469206589553008;-0.606776229929638;-1.1751369869023403;1.188;0.38997914548788454
53:06.9;0.6406456215546892;-0.5375120538048713;-0.9290361866808048;1.188;0.31991801804814685
53:06.9;0.7068487935465327;-0.46700477802997636;-0.6979823281557288;1.085;0.23040519771684084
53:06.9;0.7445740884613034;-0.3982270227148178;-0.4902310337221893;1.035;0.14535816969352022
53:06.9;0.7552625081870042;-0.3340378265750604;-0.31094754681777054;0.978;0.07844778951606364
53:07.0;0.7423912294276194;-0.27704700526337006;-0.16276687446930896;0.902;0.033477445874029566
53:07.0;0.7109204818744426;-0.2295275442661922;-0.046566680658930056;0.802;0.00759855687737692
53:07.0;0.6666169254638779;-0.19339699240648078;0.03775468200865641;0.669;0.0048673981073719
53:07.0;0.61532895724981;-0.17025627614527392;0.09066360219815497;0.536;0.009498246884352388
53:07.0;0.562294710510482;-0.1614475621920069;0.11263902361143617;0.384;0.010225495620401471
53:07.0;0.5115663505055617;-0.16808141272064625;0.10409498326313131;0.384;0.008950585785303933
53:07.0;0.4656280846340352;-0.190989911384942;0.06551121211623659;0.384;0.005825929560266273
53:07.0;0.4252582096118225;-0.23058236454223052;-0.002330736400626506;0.364;0.0002285451206542411
53:07.0;0.3896418254891738;-0.28660778908923823;-0.09809415400236898;0.32299999999999995;0.010954604039774973
53:07.0;0.35670334883934307;-0.357861457560923;-0.21967623173374218;0.371;0.028041754530824723
53:07.1;0.3236070332826167;-0.441907649646695;-0.36407881178453017;0.508;0.0520648805831009
53:07.1;0.2873588778053863;-0.5349158615592202;-0.5273773237781829;0.775;0.08106465653746257
53:07.1;0.24542688733585913;-0.6317096645415295;-0.7047709978495644;1.035;0.10926666419292971
53:07.1;0.1962851184559045;-0.726101692931264;-0.8906636801186463;1.213;0.1269400212120451
53:07.1;0.13979375563576119;-0.8115309282254402;-1.078713646471073;1.6480000000000001;0.12237677988036089
53:07.1;0.07735906067967815;-0.8819157771233274;-1.261830474410663;1.6480000000000001;0.08608734451580019
53:07.1;0.011856511334089197;-0.9325165747729062;-1.4321841815557272;1.6480000000000001;0.015834791643771797
53:07.1;-0.05268157439217793;-0.9605640387190133;-1.581370412408607;1.8769999999999998;0.08002370925044781
53:07.1;-0.1116108584760856;-0.9654981884720891;-1.7008765703789468;2.127;0.18328659813883505
53:07.1;-0.16041657289215697;-0.9487894635272927;-1.7828921152948503;2.399;0.2713589508033354
53:07.2;-0.1955352562227125;-0.9134140416020119;-1.8213440767912525;2.633;0.32530051892804895
53:07.2;-0.2150638795363245;-0.8631385854608271;-1.8129067791344453;2.677;0.3365297635230233
53:07.2;-0.21915866943504475;-0.8018173979760541;-1.7577041742599648;2.495;0.3088729774481788
53:07.2;-0.21000679400820643;-0.7328730991023108;-1.659495625166638;2.1959999999999997;0.25541020024090055
53:07.2;-0.19138551393168454;-0.6590300186677173;-1.5252755406469574;1.232;0.1923811718099979
53:07.2;-0.16795162989603155;-0.5822651097780813;-1.364394345585958;1.232;0.1334273624255847
53:07.2;-0.1444724014480862;-0.503897857443829;-1.187457691428244;1.232;0.086446128554151
53:07.2;-0.12518343540421417;-0.4247535114260399;-1.005271020282856;0.94;0.05345237499771756
53:07.2;-0.11336910425578749;-0.34535498906127593;-0.8279639194397475;0.7120000000000001;0.032416928362169785
53:07.2;-0.11117723335823967;-0.2661126237914716;-0.6643064882161919;0.5429999999999999;0.01965394940026729
53:07.3;-0.11963389415668921;-0.18749565950618458;-0.5212094461809863;0.449;0.01169116354858127
53:07.3;-0.13879977009520994;-0.11017739621866372;-0.40341651230886805;0.39;0.006169286252725636
53:07.3;-0.16799418108436148;-0.03514294852942071;-0.3133902382130565;0.36200000000000004;0.0018501966914950126
53:07.3;-0.20601098928470846;0.036254115268238546;-0.2513741849040122;0.377;0.0018774499762269675
53:07.3;-0.25126648541293684;0.10229492652378999;-0.2156057460543181;0.318;0.005541776297068818
53:07.3;-0.30185221862797573;0.1609553931705399;-0.2026551420206648;0.318;0.009845947897184161
53:07.3;-0.35550757273281514;0.21000979177098264;-0.20787343172560394;0.318;0.015519845238712613
53:07.3;-0.4095604804619694;0.2471676087759869;-0.22594137401081119;0.33899999999999997;0.022872064406868387
53:07.3;-0.46089813100230825;0.2702485259879916;-0.25151406470288706;0.478;0.031327847552067106
53:07.3;-0.5060250278249775;0.27740351660348495;-0.27994547435578254;0.725;0.039296820283327816
53:07.4;-0.5412443686946821;0.26736861919399263;-0.30804498276758074;0.971;0.044577731462805775
53:07.4;-0.5629608377443143;0.23971011573063938;-0.33476660967998473;1.157;0.04517588611647753
53:07.4;-0.5680651749389425;0.1950069221072991;-0.3616826877314021;1.247;0.04006599337090463
53:07.4;-0.5543414673879176;0.13492210807587204;-0.39307834962711913;1.272;0.029399477311267186
53:07.4;-0.5208335986886248;0.06213595996471642;-0.4355434084652091;0.879;0.014095271655916184
53:07.4;-0.46810765895182277;-0.019852862170151732;-0.4970405472417471;0.879;0.004619135403221986
53:07.4;-0.39835226809300994;-0.10701434728322755;-0.5855602660245534;0.879;0.024962087464804657
53:07.4;-0.31526828311491967;-0.19511153265881154;-0.7075572615062798;0.627;0.04352360042360489
53:07.4;-0.22371572104786816;-0.28004096407468043;-0.8663740077556575;0.451;0.05427795575363342
53:07.4;-0.12912492341166787;-0.35818574454325824;-1.0608663774002467;0.509;0.04906581980832149
53:07.5;-0.0367460292601263;-0.4267554633989665;-1.2844963365169084;0.742;0.020142917603761242
53:07.5;0.04911956703319824;-0.4840545954455203;-1.5251865308179122;1.099;0.036263677086508114
53:07.5;0.1257247041484919;-0.5296070772800734;-1.7661607548329508;1.65;0.11759927183638634
53:07.5;0.192157236808883;-0.5640746032017094;-1.9878035768356317;2.436;0.21546005149878256
53:07.5;0.2492173221552106;-0.5889480128751263;-2.170302469856832;3.682;0.31854841657631494
53:07.5;0.298936792192015;-0.6060711182484425;-2.296564751864967;3.682;0.41608461083769116
53:07.5;0.3438974548542077;-0.6171407166349199;-2.354750825235432;3.682;0.499756118554025
53:07.5;0.38654208849686755;-0.6233484583330872;-2.3398542523191215;3.4189999999999996;0.5637888530079904
53:07.5;0.42862807976062345;-0.62526287086818;-2.2540550018563423;2.812;0.6040985149727015
53:07.5;0.47090459694241465;-0.6229409509628481;-2.105895985374917;2.149;0.6177556529029908
53:07.6;0.5130376215002064;-0.6161746838207396;-1.9085720640143822;1.629;0.6033393166947616
53:07.6;0.5537567201714005;-0.6047519169395446;-1.6777661143524552;1.348;0.5618594401366265
53:07.6;0.591154293883667;-0.5886386785219866;-1.4294980593116524;1.216;0.4974314203119266
53:07.6;0.6230503857259584;-0.5680423216084521;-1.1783550372997806;1.125;0.417042221818962
53:07.6;0.6473487389928746;-0.5433647616283693;-0.9362977837789377;0.929;0.3293394620850673
53:07.6;0.6623383576922417;-0.5150929950754947;-0.7120801290900343;0.929;0.24293742138194618
53:07.6;0.6669214893074447;-0.4836931043131401;-0.5112258866245999;0.929;0.16491396903891095
53:07.6;0.6607647731298613;-0.44956263357171955;-0.33645883470282356;0.946;0.09994683014296982
53:07.6;0.644374603279417;-0.413060744003795;-0.18844043726243864;0.934;0.05015640973264729
53:07.6;0.6190934737376226;-0.37460252181728715;-0.0666421415762601;0.9259999999999999;0.015455244055608915
53:07.7;0.5870084687144711;-0.33478752467517586;0.02981819030940581;0.865;0.005859963559904028
53:07.7;0.5507643425362111;-0.29452542652014246;0.10151784905816594;0.764;0.016467626813060642
53:07.7;0.513284313880013;-0.2551172262898676;0.14834541800330853;0.631;0.0194254869102312
53:07.7;0.4774197621327219;-0.21825283055883998;0.16942862401472772;0.499;0.017654160099087997
53:07.7;0.44557213553755304;-0.18590126181501768;0.16334677143331677;0.35100000000000003;0.013530408740625466
53:07.7;0.4193506681645568;-0.16010237493179796;0.12854471721895847;0.35100000000000003;0.008630368641514612
53:07.7;0.3993368311394646;-0.14270680459768295;0.06383245387117122;0.35100000000000003;0.003637689187607142
53:07.7;0.38500962063981814;-0.13512353659131518;-0.03114454390088956;0.33899999999999997;0.001620259440328105
53:07.7;0.37484861889696897;-0.13811388481388287;-0.1555520725903339;0.34600000000000003;0.008053210631977012
53:07.7;0.3665921170494783;-0.15164841569614412;-0.30718451172598843;0.485;0.017077343504847804
53:07.8;0.35759735518149166;-0.17484196694313162;-0.4824665907607733;0.6990000000000001;0.030165270693411093
53:07.8;0.34523233752344673;-0.20598859614402984;-0.6766052320100057;0.9390000000000001;0.048116053419279
53:07.8;0.3272286014888296;-0.24271638386562344;-0.8838163216075396;1.087;0.0701960002546741
53:07.8;0.30194374906171284;-0.2822685535277089;-1.0975437464783406;1.168;0.09354280323904389
53:07.8;0.26851280629403906;-0.32188924768694893;-1.310622783584941;1.464;0.11327894267604652
53:07.8;0.22689421622106154;-0.3592447199082795;-1.515397467605322;1.464;0.12352087977282411
53:07.8;0.17782770078158108;-0.3927647509392111;-1.7038525891270553;1.464;0.11900465141157048
53:07.8;0.12271428317385027;-0.4217913346648936;-1.867854791385671;1.7719999999999998;0.09667983018349227
53:07.8;0.06341907806130663;-0.4464843726685939;-1.9995978742940368;2.116;0.05661986812523502
53:07.8;0.0020113829533703405;-0.46751659050298483;-2.0922781807129702;2.445;0.0019674840405588413
53:07.9;-0.05950668438692588;-0.4856534154430642;-2.1409003827641766;2.687;0.06187121718419821
53:07.9;-0.11940859861315307;-0.5013416376565166;-2.143014375698495;2.772;0.12829048919220765
53:07.9;-0.17633214535081151;-0.5144137736835248;-2.099166842143797;2.6719999999999997;0.19041056323460556
53:07.9;-0.2292417734975869;-0.5239617530385029;-2.012906254893267;2.44;0.24177806391015874
53:07.9;-0.27731062825006425;-0.5283742999591456;-1.8902866910639227;1.4680000000000002;0.2769720062144158
53:07.9;-0.31979090370273955;-0.5254961524262902;-1.7389712713634273;1.4680000000000002;0.29223219098453673
53:07.9;-0.35592402545333585;-0.5128629692487965;-1.567188755887463;1.4680000000000002;0.28607503124774114
53:07.9;-0.38491374972413805;-0.4879807593014302;-1.3828226306317837;1.22;0.259736271454972
53:07.9;-0.40597092469282087;-0.4486331603644284;-1.1927847683218191;1.1059999999999999;0.21724429804039297
53:07.9;-0.4184262332418073;-0.39320445077816585;-1.0026913570717266;1.079;0.164969858291996
53:08.0;-0.4218827987179118;-0.3210017029136913;-0.8168107941542956;1.099;0.1106166808806954
53:08.0;-0.4163595796502249;-0.2325473483120181;-0.6382309057226268;1.043;0.06179563278826691
53:08.0;-0.4023793279776085;-0.12979630795460598;-0.46914891014773663;0.899;0.024502404880721747
53:08.0;-0.3809794074753462;-0.016219873388154945;-0.3111578868234001;0.703;0.00192278079290069
53:08.0;-0.3536504567007368;0.10329209756620687;-0.16543046673866077;0.41100000000000003;0.006043058731398777
53:08.0;-0.3222247814218323;0.2227161739316117;-0.03279335804253307;0.41100000000000003;0.0023534045333375763
53:08.0;-0.28874580639463987;0.3353171055578726;0.08620208119049347;0.41100000000000003;0.008346206877033734
53:08.0;-0.25534828585699715;0.4341423353767489;0.19107720814621657;0.512;0.021182341823032108
53:08.0;-0.22416206606182623;0.5125623034057429;0.28104187467981645;0.67;0.03229087527776229
53:08.0;-0.1972352584401206;0.5648467900127252;0.35450043502541245;0.8220000000000001;0.039494079039445656
53:08.1;-0.17647056993402457;0.5867284319594741;0.40859623390907523;0.905;0.04230617695831256
53:08.1;-0.16357663161943578;0.5758596653529203;0.43896451017923566;0.894;0.041349220885794735
53:08.1;-0.16004424624193755;0.5320672069097973;0.43983265584519027;0.799;0.037453639761631304
53:08.1;-0.16715669163942082;0.4573452187691728;0.40452768964090496;0.723;0.030925459720658684
53:08.1;-0.18602513660802272;0.355586462242343;0.32635440876005445;0.631;0.021587698027782404
53:08.1;-0.21760856590450225;0.2321229175965487;0.19972543898654832;0.631;0.01008851843422764
53:08.1;-0.26265568101794584;0.09320776698731233;0.02136948076412222;0.631;0.000523158001419913
53:08.1;-0.32151746969913214;-0.0544384233096094;-0.2085749178975323;0.508;0.0036506667891541074
53:08.1;-0.3938176419531044;-0.203982243447045;-0.48575125133037733;0.406;0.039021275341805606
53:08.1;-0.47800817829632575;-0.34878404431201787;-0.8011812344683583;0.505;0.13357423784315728
53:08.2;-0.5708727530346052;-0.4827285760946501;-1.1413246337965728;0.731;0.3145223520383883
53:08.2;-0.6670879047779869;-0.6006193017539353;-1.4886316249579736;1.0590000000000002;0.596443887469756
53:08.2;-0.7590166546273392;-0.6986162816909435;-1.8226296879255888;1.7930000000000001;0.9664701572375671
53:08.2;-0.8369708516600353;-0.7746170748064269;-2.121595632313244;2.57;1.3754981545094065
53:08.2;-0.8901607501055553;-0.8284193076867515;-2.3647704142990476;4.257;1.7438440207200387
53:08.2;-0.9083297313124825;-0.8615507740314154;-2.5348368647309067;4.257;1.98369281900445
53:08.2;-0.8836888062140706;-0.8768192745121521;-2.620136570515105;4.257;2.030174509919613
53:08.2;-0.8125416403865806;-0.8777705800136282;-2.6160934443511823;3.938;1.8658636313277026
53:08.2;-0.6961322642041395;-0.868223158924939;-2.5255787361962114;3.27;1.5264551245669717
53:08.2;-0.5405565425523077;-0.8519367329726868;-2.358279604341669;2.67;1.0860348640783921
53:08.3;-0.3558197809853371;-0.8323865807072419;-2.129338153675316;2.198;0.6306665457073967
53:08.3;-0.15428762100826285;-0.8125851273917613;-1.8575877615269616;1.881;0.23288916993733902
53:08.3;0.05111125439821682;-0.7949019521163678;-1.5636676489982844;1.706;0.06352937084038057
53:08.3;0.24855224026207984;-0.7808720650890374;-1.2682017893218156;1.5019999999999998;0.24614211622562043
53:08.3;0.428554504682581;-0.7710264927971552;-0.9901529230341236;1.077;0.3271731378311978
53:08.3;0.5846406657477182;-0.7648016218600786;-0.7454527807190169;1.077;0.333317380092655
53:08.3;0.7134172247740226;-0.7605792621898454;-0.5460391605737355;1.077;0.2962864980953575
53:08.3;0.8141853320688984;-0.7558888492166742;-0.39940397246798726;1.063;0.24580663010476692
53:08.3;0.8882371433428299;-0.7477727222821228;-0.30864351519434624;1.0979999999999999;0.2050008705411906
53:08.3;0.9380034873975203;-0.7332742644830615;-0.2728963896866459;1.135;0.18770190751884186
53:08.4;0.9662225792883157;-0.7099646632812159;-0.2880259010699998;1.161;0.1975811275065374
53:08.4;0.975291194789168;-0.676398876180828;-0.34742618662699315;1.193;0.2291921455272467
53:08.4;0.9669187670326815;-0.6324004316109271;-0.44286864345424665;1.273;0.2708052497223324
53:08.4;0.9421257800473365;-0.5791100763831821;-0.5653469066463375;1.411;0.3084501812013754
53:08.4;0.901529177207177;-0.5187817872327355;-0.7059008942486742;1.7309999999999999;0.330147672508131
53:08.4;0.8457773576048173;-0.4543751537300571;-0.8563674119788033;1.7309999999999999;0.32910218215506487
53:08.4;0.775970062572563;-0.3890637413251996;-1.009934729262538;1.7309999999999999;0.304901128503687
53:08.4;0.6939264263786804;-0.32579920930664624;-1.161365399850198;1.669;0.2625622805241591
53:08.4;0.6022259199726683;-0.26702269839082104;-1.3068378299602377;1.526;0.21014996494277594
53:08.4;0.504024857929672;-0.21456166386876382;-1.443464135377591;1.2790000000000001;0.1561025803780079
53:08.5;0.4027240034740838;-0.16972157887138437;-1.5686121623832592;1.099;0.10721613731416005
53:08.5;0.3015920721908383;-0.13353192294695568;-1.6792214952797333;1.14;0.06762589242600489
53:08.5;0.20342194848463596;-0.10702444490216345;-1.7713539640755984;1.308;0.03856436169382641
53:08.5;0.1102526164563197;-0.0913717231470869;-1.8401963648290298;1.568;0.01853808582034389
53:08.5;0.023182020398712467;-0.08775929143238104;-1.8806034647053984;2.448;0.0038259705575623016
53:08.5;-0.05768010101605324;-0.09700415277419965;-1.888064361569718;2.448;0.010564115333369277
53:08.5;-0.13306984877491404;-0.119077822252078;-1.8597894400633885;2.448;0.029469605644318577
53:08.5;-0.2042350642588121;-0.15273538465323694;-1.7955702544915375;2.363;0.05601087684676609
53:08.5;-0.2724701241722286;-0.1953850486174801;-1.6981803566428335;2.093;0.09040532877439675
53:08.5;-0.3386287490417913;-0.2432327914055752;-1.5732463173944107;1.785;0.1295814018625236
53:08.6;-0.4027459760960924;-0.29165452074027975;-1.4286356626939616;1.456;0.1678113803101667
53:08.6;-0.46387478864312154;-0.3356958407777403;-1.2734877428955735;1.171;0.19830857747381878
53:08.6;-0.5201687990113167;-0.3705915429176453;-1.1170693190400889;0.951;0.21533762890849611
53:08.6;-0.5691659787468832;-0.3922278063411897;-0.9676629914312339;0.888;0.21602372143204984
53:08.6;-0.6081917420156017;-0.3975089283529132;-0.8316886572917842;0.975;0.2010704200785184
53:08.6;-0.6347958750280028;-0.3846203324020778;-0.7132085716192846;0.975;0.1741337244157376
53:08.6;-0.6471449587826043;-0.35319966645031803;-0.6138781812465338;0.975;0.14031498524140407
53:08.6;-0.6443107192157428;-0.30443225077080455;-0.5333096603323515;1.058;0.10460813653694179
53:08.6;-0.6264250703272534;-0.24107489884265498;-0.4697429801202733;1.126;0.07093840546719071
53:08.6;-0.5946974876387106;-0.1673955968412622;-0.4208687062267713;1.077;0.04189737065075684
53:08.7;-0.5513047386739308;-0.08900560669639784;-0.38461978068934743;0.905;0.018872989842762457
53:08.7;-0.49917901874238274;-0.012558702626397165;-0.3597736892524065;0.703;0.002255435956017736
53:08.7;-0.44173939438133214;0.05469620472659162;-0.34628548306803086;0.58;0.00836676573951809
53:08.7;-0.38261931857002335;0.1055010678221107;-0.3453616852162102;0.541;0.013941127659584624
53:08.7;-0.32543070655531486;0.13328184245557337;-0.35933470047944077;0.758;0.015585784793898851
53:08.7;-0.27357886586794566;0.13288646382202896;-0.39139058363648205;0.758;0.014228976512104653
53:08.7;-0.23011668491669102;0.10126630703775868;-0.44516425663496995;0.758;0.010373692440180167
53:08.7;-0.19760945371365088;0.037982495241267206;-0.5241904982035546;0.858;0.0039344166932936695
53:08.7;-0.17797568775551756;-0.054561192111147475;-0.6312061509813058;0.831;0.0061293687935046305
53:08.7;-0.17227809139039352;-0.17122486026410313;-0.7673196452647065;0.6990000000000001;0.02263461904918261
53:08.8;-0.18046251558051085;-0.3046073163489383;-0.9310919635397675;0.445;0.05118231384946169
53:08.8;-0.20107162557115008;-0.445853103204246;-1.1176433734124447;0.623;0.10019494939212553
53:08.8;-0.2309924981247921;-0.5856713457317949;-1.3180327402996992;1.227;0.1783109650640024
53:08.8;-0.26535062331367465;-0.7153724529350832;-1.5192917773534602;1.584;0.28839884192900456
53:08.8;-0.29771473037693885;-0.8276919771036478;-1.705477974403102;3.127;0.42025722051190645
53:08.8;-0.32072558505592746;-0.91722526737655;-1.8597713232250037;3.127;0.5471030839565608
53:08.8;-0.32707335904646634;-0.9804648097045443;-1.9670985699649326;3.127;0.6308168779581454
53:08.8;-0.31058590460555446;-1.0155987083728726;-2.0164916362620273;3.367;0.6360632545518691
53:08.8;-0.26719167382272935;-1.0222628924151185;-2.0026028476522275;3.23;0.5469912087772387
53:08.8;-0.19559794373479347;-1.0013671240520265;-1.9261792239467233;2.7119999999999997;0.3772717686087966
53:08.9;-0.09757609245087855;-0.9550225300975921;-1.793538141539903;2.115;0.1671350964672377
53:08.9;0.022194235650611044;-0.88651741378994;-1.6152481329398307;1.625;0.031780938028501585
53:08.9;0.1566809023471947;-0.8002415254021149;-1.4043673059235433;1.256;0.17608317402973608
53:08.9;0.29734199389270294;-0.701472832953793;-1.1746467511950598;1.089;0.24500468401130446
53:08.9;0.43510933309574634;-0.5960041683603583;-0.9390294680883297;0.9359999999999999;0.24351567253853065
53:08.9;0.5613567991596811;-0.4896665831492997;-0.7086343814215837;0.9359999999999999;0.1947877646510554
53:08.9;0.6687104096844503;-0.3878632040191309;-0.4922860052875067;0.9840000000000001;0.12768331639984942
53:08.9;0.751608947732978;-0.2952224715212355;-0.2965466816213681;0.9840000000000001;0.06580129214245711
53:08.9;0.8065999887545824;-0.2154164883680117;-0.12611911457187383;1.0070000000000001;0.02191381881893698
53:08.9;0.8324094710732276;-0.15112622153476804;0.015568143503996006;1.01;0.0019584552987799236
53:09.0;0.8298313579883095;-0.10411052196258258;0.1257790790377041;0.992;0.010866579868997132
53:09.0;0.8014663586274757;-0.07533638497742377;0.20203382535547043;0.943;0.012198717144976468
53:09.0;0.7513216543790618;-0.0651276768824275;0.24189235741987503;0.846;0.011836236664907563
53:09.0;0.6842825871340034;-0.0732848138761242;0.24296775876519436;0.708;0.012184231036906619
53:09.0;0.6054892656482305;-0.09913206664253202;0.2031330099805179;0.245;0.01219273436497807
53:09.0;0.5196966864272481;-0.14147573545151454;0.12086913833375262;0.245;0.008886839447030144
53:09.0;0.4307413692715814;-0.19849973452902522;-0.004291511180685062;0.245;0.0003669329926077648
53:09.0;0.3412291964282765;-0.2676590738676577;-0.17127073811492002;0.16;0.01564268585723811
53:09.0;0.25248950459273606;-0.34564077019237727;-0.37696020792445994;0.188;0.032897568715045705
53:09.0;0.16476959366808516;-0.42845514161372517;-0.6158302589543524;0.439;0.043475386723346034
53:09.1;0.07761006451508998;-0.511700255474951;-0.8797174798709517;0.81;0.03493629931175665
53:09.1;-0.00967739303435944;-0.5909920071495167;-1.1578643875902892;1.1179999999999999;0.006622129715927722
53:09.1;-0.0975296483742135;-0.6624745674803104;-1.4372738667401863;1.515;0.09286357478230503
53:09.1;-0.18576387849729542;-0.7232558196707516;-1.7034354963737095;1.944;0.2288647460027421
53:09.1;-0.27342710538882264;-0.7715953167887242;-1.9414445901887218;2.8;0.40959641608412506
53:09.1;-0.3589042190912196;-0.8067538670512256;-2.137411672571673;2.8;0.6188819212461739
53:09.1;-0.44020704715763326;-0.8285820314308227;-2.2798933093618396;2.8;0.8315857254361212
53:09.1;-0.5152941115940985;-0.8370518297114347;-2.361032355808199;2.99;1.0183790781615811
53:09.1;-0.5823105362672398;-0.8319151770008434;-2.3772311664118484;2.984;1.1516091610923258
53:09.2;-0.6397132527451165;-0.8125651971550802;-2.3293355672513107;2.799;1.210808952100989
53:09.2;-0.6862815999293319;-0.7780933328507618;-2.2223692211736283;2.592;1.1867254680554014
53:09.2;-0.7210352938421535;-0.727497763341701;-2.0648813597780333;2.327;1.0831367458386905
53:09.2;-0.7431163489968591;-0.6599830232091424;-1.8680020003034823;2.07;0.9161506992032292
53:09.2;-0.7517122082652403;-0.5752829140678758;-1.644318564612621;1.795;0.711080942256724
53:09.2;-0.7460833392406553;-0.47393874226692867;-1.406694374447733;1.151;0.4974040352696892
53:09.2;-0.7257137752801216;-0.3574881380158649;-1.1671713012841225;1.151;0.30280399671102765
53:09.2;-0.6905466104702922;-0.22856432082992356;-0.9361245144432955;1.151;0.14775257338615813
53:09.2;-0.6412309126936838;-0.09092573321088544;-0.7217944014942854;1.036;0.04208378292993798
53:09.2;-0.579306546873227;0.05058850530496141;-0.5301958806022364;0.9540000000000001;0.015538054255792088
53:09.3;-0.5072692041203706;0.19019889190009348;-0.36529841203042834;0.778;0.035244736190950005
53:09.3;-0.4284787991504782;0.3214207970598551;-0.22934874061683327;0.574;0.03158636660071522
53:09.3;-0.3469128703986515;0.43737108840585587;-0.1232396162432369;0.47100000000000003;0.018699105035162616
53:09.3;-0.2668163978472854;0.5311302798846465;-0.04687125802124172;0.44;0.006642326023833613
53:09.3;-0.1923306980460193;0.5961654025076263;0.0005010142342622773;0.537;5.744674702904172e-05
53:09.3;-0.12717999796249932;0.6268248958503431;0.019906501237042858;0.858;0.0015869380965889998
53:09.3;-0.07446075531334381;0.6188915485074697;0.012277057806210502;0.858;0.0005657652774061904
53:09.3;-0.036532180679431724;0.5701317724462863;-0.021894047584473816;0.858;0.00045601265874917836
53:09.3;-0.014970242609838483;0.4807484407178114;-0.08273585049162117;0.889;0.0005954433626343089
53:09.3;-0.010541501046295426;0.3536518920273254;-0.1709335533305357;0.787;0.0006372440114293752
53:09.4;-0.02317510866529442;0.19448768319699367;-0.28738377614088584;0.588;0.0012953171900591354
53:09.4;-0.05193789750709762;0.01138417306065163;-0.4325965107368499;0.33799999999999997;0.00025578134479845043
53:09.4;-0.09502339392369655;-0.1855835071300632;-0.6059235232521691;0.354;0.010685324820261178
53:09.4;-0.1497436581479611;-0.38517656369114184;-0.8047528043897842;0.599;0.046416329196344405
53:09.4;-0.21248323562235086;-0.5759552823382567;-1.023847403226701;0.7509999999999999;0.12529930725058033
53:09.4;-0.27857973074589854;-0.7473299676337467;-1.2550085083100342;1.756;0.26128145271141057
53:09.4;-0.3421720179225664;-0.8905676239916455;-1.4871961022124722;1.756;0.45318928402546793
53:09.4;-0.39617566972646723;-0.9995737919812766;-1.7071514064917293;1.756;0.6760435937327899
53:09.4;-0.43260275216727495;-1.0712842753613785;-1.9004976720903963;2.428;0.8807676405775151
53:09.4;-0.4433689434403893;-1.105607755385723;-2.0532591185439903;3.1180000000000003;1.00649148614928
53:09.5;-0.4215529225276872;-1.1049853207902969;-2.153621392904123;3.511;1.0031779316310798
53:09.5;-0.3628620351261843;-1.073714733790622;-2.1935701692955885;3.583;0.8546375612299507
53:09.5;-0.2668968289103316;-1.017222187062066;-2.1699872506614044;3.2710000000000004;0.5891371646113143
53:09.5;-0.1377898035512796;-0.9414430416892926;-2.0849438975076606;2.6839999999999997;0.2704615322530123
53:09.5;0.016040105996054845;-0.8523849480474212;-1.9451849675699844;2.061;0.02659523980227307
53:09.5;0.18299403373421988;-0.7558372956542116;-1.7610118504560606;1.601;0.24357209221439743
53:09.5;0.34996142849122985;-0.6571474289917528;-1.5448970932488828;1.601;0.3552896447439792
53:09.5;0.5040994259509375;-0.5610308171523963;-1.310168438896164;1.601;0.3705356969552916
53:09.5;0.6343290998836814;-0.47143483676780373;-1.0699712068511842;1.4880000000000002;0.3199693637145266
53:09.5;0.7323654141663338;-0.3914697217003301;-0.8365318104517285;1.354;0.23983273721198348
53:09.6;0.793282839458901;-0.3233992154276307;-0.620632468321453;1.226;0.15922142757454602
53:09.6;0.8156803767688994;-0.2686909109073254;-0.43121072592076204;1.135;0.09450668832085035
53:09.6;0.8015027221630713;-0.22813544184560255;-0.27505487641753434;1.033;0.05029410807438149
53:09.6;0.7555635317852297;-0.20202922687382266;-0.1566148842084547;0.9390000000000001;0.023906622487522053
53:09.6;0.6848160635117304;-0.19038945931555956;-0.07796528669628672;0.8590000000000001;0.010165251303247717
53:09.6;0.5974290511929191;-0.19314959893536338;-0.03894175181405155;0.381;0.004493612640078851
53:09.6;0.501762601592316;-0.21027909319870441;-0.03743888411846292;0.381;0.003950183584435468
53:09.6;0.40538691697437296;-0.24178845094188575;-0.06982196949839524;0.381;0.006843801056717015
53:09.6;0.31428683208110675;-0.2876120474819021;-0.1313928183473005;0.327;0.011876948887439145
53:09.6;0.2323278953613553;-0.34738983676112734;-0.21686675157771382;0.444;0.017502957612630866
53:09.7;0.16099725217102306;-0.42019021212801416;-0.32083440932860824;0.597;0.021704277601827318
53:09.7;0.09942340332174902;-0.504232632115176;-0.4381710067654083;0.794;0.021966618666470098
53:09.7;0.04468354117820303;-0.5966801457860342;-0.564330074561009;0.941;0.015046045347492421
53:09.7;-0.007612260449221868;-0.6935772491036144;-0.6954468324947098;1.023;0.003671744147322648
53:09.7;-0.06250366785268088;-0.7900052127484445;-0.8281939004073818;1.02;0.04089474344899548
53:09.7;-0.12470744596829247;-0.8804979251098664;-0.9593889824702977;1.48;0.10534536895958209
53:09.7;-0.19761739441854215;-0.9596753953155821;-1.0854521326145934;1.48;0.2058544242494541
53:09.7;-0.2824690987018466;-1.0229318687713618;-1.2019140752914133;1.48;0.3472890372362038
53:09.7;-0.37788643141398054;-1.0669680370482855;-1.3032150092682682;1.6980000000000002;0.5254468355475505
53:09.7;-0.4799630590859258;-1.0900336580048653;-1.3829568744300762;1.959;0.7235296922322633
53:09.8;-0.5828948425502164;-1.0918645623426764;-1.4346023048341698;2.261;0.9130414787943243
53:09.8;-0.6800144200948591;-1.0733833415585285;-1.452431250700872;2.495;1.0601530274492383
53:09.8;-0.7649458667786766;-1.0362882073720407;-1.4324709122857855;2.463;1.1355259678536993
53:09.8;-0.8325648465795441;-0.9826673091403451;-1.3731537904148514;2.242;1.1234241567175163
53:09.8;-0.8795445133335011;-0.9147266143094364;-1.2755870702288976;2.045;1.026264361001362
53:09.8;-0.9044379416837556;-0.8346440264080649;-1.14344824884176;1.3980000000000001;0.8631704737541648
53:09.8;-0.9074081910880045;-0.7445195317841182;-0.982609643442408;1.3980000000000001;0.6638344901975926
53:09.8;-0.8897998910413122;-0.6463933027821839;-0.8006298906419549;1.3980000000000001;0.460490840644831
53:09.8;-0.8537286947908392;-0.5423117360134059;-0.606219182595949;1.123;0.2806716555896254
53:09.8;-0.8017844517544872;-0.4344118066123913;-0.40870597221729804;0.8909999999999999;0.14235418333124983
53:09.9;-0.7368688586230605;-0.3249911421881312;-0.2174908290245232;0.778;0.05208380158430709
53:09.9;-0.6621497317447043;-0.21655010120899754;-0.04150255201252384;0.7709999999999999;0.005950992473611383
53:09.9;-0.5810924238649361;-0.11181073689393536;0.11129433559414079;0.799;0.007231056986605637
53:09.9;-0.4975045267880353;-0.013719439830853128;0.23430173471738497;0.79;0.0015992226057888535
53:09.9;-0.4155122105374055;0.07456865929420006;0.3225898130273943;0.736;0.00999518356216331
53:09.9;-0.33940064623428934;0.1497355415340767;0.3731016661138649;0.574;0.018961153362646727
53:09.9;-0.273312190508323;0.2083908497638789;0.38475688690680665;0.574;0.021914120766980752
53:09.9;-0.22087604675618291;0.24721302942708176;0.3584371827027389;0.574;0.019571901997449532
53:09.9;-0.18487424438022523;0.26314114893229373;0.29683236080887454;0.478;0.014440306944135294
53:09.9;-0.16701057862717322;0.2536225745784961;0.20413369707222329;0.34600000000000003;0.008646624292570104
53:10.0;-0.1678028099385247;0.21692064656212606;0.08558313252308378;0.262;0.0031152169543223716
53:10.0;-0.1866059113787281;0.1524672732326618;-0.05308232969622204;0.373;0.0015102609937129676
53:10.0;-0.22176953493941695;0.061218573166869336;-0.20622036372610136;0.579;0.002799733136465993
53:10.0;-0.27091101563495623;-0.05405355733322337;-0.36881836587579053;0.81;0.005400867022367488
53:10.0;-0.331252883322146;-0.18862508001686396;-0.5368862566780439;1.121;0.033546050092586245
53:10.0;-0.39994224309421406;-0.3359360907574638;-0.7076324960283531;1.369;0.09507398783259392
53:10.0;-0.4742506216653474;-0.4880041280728461;-0.8793651049054078;1.369;0.20351697203325478
53:10.0;-0.5515671601844848;-0.6360728945987619;-1.0510904963569803;1.369;0.36876135253468384
53:10.0;-0.6291547342817675;-0.7713766445911024;-1.2218446836171692;1.3559999999999999;0.5929798799116106
53:10.0;-0.7037272607186456;-0.8859384676716779;-1.3898732766298398;1.3769999999999998;0.866529074085509
53:10.1;-0.7710091136815824;-0.973356107831407;-1.5518528812809778;1.5290000000000001;1.1646134916933955
53:10.1;-0.8255146708824808;-1.0294930230625061;-1.7023945124913147;1.891;1.4467997141887166
53:10.1;-0.8607735728278822;-1.0529432632613367;-1.8340532087297206;2.2569999999999997;1.6622863029496349
53:10.1;-0.8700912422953596;-1.0451380780547705;-1.937953060161507;2.799;1.7623076316408475
53:10.1;-0.8477106363340678;-1.0100228458488176;-2.0049452268042502;3.362;1.7166483570801232
53:10.1;-0.7900365845422886;-0.9533468152679664;-2.0270313207112776;2.84;1.5267171430039177
53:10.1;-0.6965415786106984;-0.8817334730708063;-1.9987041186682364;2.84;1.2275321667983086
53:10.1;-0.5701293353203433;-0.8017670620569805;-1.9179234663215377;2.84;0.8767037643461144
53:10.1;-0.4169301944788704;-0.7192935208774277;-1.786587394117367;2.219;0.5357889616276075
53:10.1;-0.24559869963826716;-0.639018004284673;-1.6104791980878674;1.7730000000000001;0.252751811647332
53:10.2;-0.06624120652402989;-0.5643716722401108;-1.3987608848840898;1.511;0.052292200798111775
53:10.2;0.11081169472832109;-0.4975706779680807;-1.1631561003479525;1.3519999999999999;0.06413253088488433
53:10.2;0.2761325019723017;-0.43978576743628434;-0.9169855049353057;1.183;0.11135793504933589
53:10.2;0.4220308725852213;-0.39135451492098833;-0.6741741016778786;1.024;0.1113490805977153
53:10.2;0.5430143106042932;-0.35199050071287713;-0.44829133794391307;0.9159999999999999;0.08568455896359091
53:10.2;0.6358910020319288;-0.3209693424984436;-0.251652964170395;0.76;0.05136275170014763
53:10.2;0.6995875274803225;-0.2972923363319724;-0.09451956308574298;0.76;0.01965836876341464
53:10.2;0.7347798255623741;-0.2798377614730549;0.015549935116355974;0.76;0.0031973643099533766
53:10.2;0.7434362320863528;-0.2675057298827263;0.07413847923156225;0.7759999999999999;0.014744175282323994
53:10.2;0.7283525930404737;-0.259349974848393;0.08019750855478862;0.7609999999999999;0.015149167150619541
53:10.3;0.6927379904743424;-0.25467876689607505;0.03607264402551768;0.7040000000000001;0.006364139929001862
53:10.3;0.6398975443064767;-0.25310348028428187;-0.0526851702349745;0.625;0.008532905739162372
53:10.3;0.5730469549525415;-0.2545174831541391;-0.1777547881868622;0.5920000000000001;0.0259256191713744
53:10.3;0.4952683073009845;-0.25899884949283947;-0.32873582458381345;0.581;0.042168233449349286
53:10.3;0.4095813258890805;-0.2666483837350739;-0.4940742955740538;0.623;0.05395992821843417
53:10.3;0.31907527668747093;-0.2773986083347155;-0.6621793564988507;1.463;0.0586101819919454
53:10.3;0.22703861784707277;-0.2908502034818666;-0.8226269721213776;1.463;0.05432153719976717
53:10.3;0.13703393934863717;-0.30619527727490975;-0.9672409829436432;1.463;0.040584604706404556
53:10.3;0.052875053092500304;-0.3222695673997898;-1.0908081000300853;1.675;0.018587392371201165
53:10.3;-0.021534615615556363;-0.3377453627744416;-1.191286026208392;1.6680000000000001;0.008664481257427938
53:10.4;-0.08252832230178621;-0.35142666615107077;-1.2694963298731738;1.5490000000000002;0.036818761755338186
53:10.4;-0.12715453921260017;-0.3625412800383099;-1.328375376603286;1.305;0.06123647017438603
53:10.4;-0.15373484656839256;-0.37089759806239353;-1.3719304164072765;1.209;0.07822731502525257
53:10.4;-0.162349545195444;-0.3768364747644619;-1.4041286218143842;1.158;0.08590350831225765
53:10.4;-0.15504586798727119;-0.3810139072118231;-1.4279804558853222;1.06;0.08435741987589726
53:10.4;-0.13561267089400622;-0.3841117654024955;-1.4450236654336275;1.515;0.07527189315095867
53:10.4;-0.10893536763119513;-0.38657192271742774;-1.4552718025595768;1.515;0.06128346679635597
53:10.4;-0.0801347945723914;-0.3884181141708518;-1.4575243744620163;1.515;0.04536662060972693
53:10.4;-0.05375804936606539;-0.38919672159248564;-1.4498543653339233;1.556;0.030334514995119057
53:10.4;-0.033204720907738024;-0.38804009890375574;-1.4301307706623667;1.6059999999999999;0.01842689630372384
53:10.5;-0.02045682042818109;-0.3838310965816151;-1.3965115293956987;1.631;0.010965357999567243
53:10.5;-0.016112900355525584;-0.3754240650550592;-1.3478725935779243;1.625;0.008153511199973944
53:10.5;-0.01967649394572545;-0.3618653641481931;-1.2841313871617364;1.5930000000000002;0.009143325782870132
53:10.5;-0.02999488030516307;-0.34256419267998467;-1.2064165260643338;1.5130000000000001;0.012396137256198076
53:10.5;-0.04571466048292586;-0.3173873785584257;-1.1170443048577172;1.3419999999999999;0.01620748206442476
53:10.5;-0.06563653952395068;-0.2866770562466981;-1.019291506694665;0.7909999999999999;0.01917948837445776
53:10.5;-0.08890426949463336;-0.25121228341818924;-0.9170125854825534;0.7909999999999999;0.020480416530317836
53:10.5;-0.11502549235493646;-0.21215115241268373;-0.8142138381232653;0.7909999999999999;0.019869089925566536
53:10.5;-0.14376450346939992;-0.17098615696662628;-0.714703181166769;0.6729999999999999;0.017568647745487588
53:10.5;-0.1749597602994582;-0.1295190546810681;-0.6218676307837697;0.574;0.014091907788599731
53:10.6;-0.208322750174432;-0.08983317840515907;-0.5385660778211369;0.517;0.010078884340077409
53:10.6;-0.2432820592098398;-0.054231049076095564;-0.4671124724524782;0.41;0.006162820982222682
53:10.6;-0.27893180611623325;-0.02511296887050006;-0.409337555761383;0.369;0.002867330070014637
53:10.6;-0.31411413795316034;-0.004788988295535542;-0.36672638371151534;0.495;0.0005516624394001432
53:10.6;-0.34762074190472214;0.004765121902254283;-0.34062655232607064;0.675;0.0005642326275809843
53:10.6;-0.37845596480268046;0.002180151113284105;-0.3324971171580698;0.9079999999999999;0.0002743404430628759
53:10.6;-0.4060783119981798;-0.013051306927321442;-0.3441219993032699;0.9079999999999999;0.0018237959024625695
53:10.6;-0.4305388131859783;-0.04039600590196767;-0.37767666632226843;0.9079999999999999;0.0065685708747631605
53:10.6;-0.4524654408358013;-0.0782360143875553;-0.4355496781989901;0.789;0.01541806345105178
53:10.6;-0.472887410227797;-0.12399728667975687;-0.5198830308248168;0.708;0.03048425430913903
53:10.7;-0.4929293158063206;-0.17445585612460066;-0.6318758087546275;0.6940000000000001;0.05433778471192504
53:10.7;-0.5134197324560258;-0.22619031315335256;-0.7709649089762987;0.674;0.0895325943782478
53:10.7;-0.5344624978116738;-0.2761112564502441;-0.9340454045424965;0.6920000000000001;0.13783811881657695
53:10.7;-0.5550414507206541;-0.321960709019472;-1.1149282904009987;0.693;0.19923940137957494
53:10.7;-0.5727843898939936;-0.362652756777973;-1.3042594486986283;0.847;0.2709231699574724
53:10.7;-0.5840508433446727;-0.3983466676395488;-1.4900974015165749;2.32;0.34667817461716105
53:10.7;-0.5844341555999853;-0.4302172735970732;-1.6591742479070022;2.32;0.41717226869348456
53:10.7;-0.5695729896646152;-0.45998811625070696;-1.798572003366012;2.32;0.4712201212916812
53:10.7;-0.5360150882533331;-0.4893590645220667;-1.897385677180891;2.7089999999999996;0.49769155317889985
53:10.7;-0.48189642872365057;-0.5194617295049726;-1.9480513113504836;2.852;0.48764935809787063
53:10.8;-0.4073098648791015;-0.550453818609592;-1.9471870682198598;2.698;0.4365696033055054
53:10.8;-0.31432868738605846;-0.5813451610693268;-1.8958555707088296;2.381;0.34643625074470924
53:10.8;-0.20672307129144554;-0.6101020227588426;-1.7991984219855048;2.05;0.2269187983487369
53:10.8;-0.08946465881877196;-0.6339921737945357;-1.6655058496646986;1.6680000000000001;0.09446731445374902
53:10.8;0.031870672257503486;-0.6500585558039551;-1.5049091335466154;1.35;0.031178411232925002
53:10.8;0.15171039303897524;-0.6555908058720091;-1.3279589941481793;1.04;0.13207872032882578
53:10.8;0.2650266367073941;-0.6485026925090296;-1.1443725954602693;1.04;0.19668387585350652
53:10.8;0.3677383939720375;-0.6275845804773338;-0.9621909490827424;1.04;0.2220611103250999
53:10.8;0.4569263670818671;-0.5926414374718311;-0.7874748497702168;1.069;0.2132430699486424
53:10.8;0.5308662590948611;-0.5445347730405907;-0.6245112551471949;1.102;0.18053067720872676
53:10.9;0.5889271601257002;-0.4851432128834865;-0.4763738999408708;1.115;0.13610669941121087
53:10.9;0.631382185127556;-0.41725991837990084;-0.3456230030536559;1.09;0.09105454571925693
53:10.9;0.6591602774546153;-0.3444482594864613;-0.23493133471222646;1.0090000000000001;0.05334036319775226
53:10.9;0.6735567804493444;-0.27086940062401726;-0.14746874966205598;0.857;0.02690507191076665
53:10.9;0.6759210298371446;-0.201078175668195;-0.08695201295530751;0.6990000000000001;0.011817906117412265
53:10.9;0.6673500173865271;-0.13976848743499848;-0.057358110544117956;0.452;0.005350049226480295
53:10.9;0.6484349082052203;-0.09145818411598969;-0.062385333710913114;0.452;0.0036997422038748846
53:10.9;0.6191198145647997;-0.06013915843592938;-0.10479686375184905;0.452;0.003901937743056247
53:10.9;0.5787225712207169;-0.048941494177859486;-0.18577792522077965;0.452;0.005261889861574507
53:10.9;0.5261339773942506;-0.059842833730971476;-0.3044005574991011;0.512;0.009584157523648378
53:11.0;0.4601715493181609;-0.09342837094386325;-0.45726287263988363;0.578;0.019659138444796925
53:11.0;0.3800272991762341;-0.14871083684848307;-0.6383659278195337;0.6559999999999999;0.0360767254733324
53:11.0;0.28572031506037593;-0.22304412868968507;-0.8392877124473564;0.78;0.05348632769493715
53:11.0;0.1784553043823531;-0.3121831042466002;-1.0496875800926415;1.005;0.0584788622945387
53:11.0;0.060808042451054194;-0.4105476949530825;-1.2581240032225807;1.3159999999999998;0.03140856458297162
53:11.0;-0.06329669744777222;-0.511731352022563;-1.4531030321567848;2.28;0.047067321635539734
53:11.0;-0.18879552975910693;-0.6092168721211139;-1.6242008256761937;2.28;0.18681139195868324
53:11.0;-0.30983138287728135;-0.6971389670743474;-1.7630511423267423;2.28;0.3808111663029214
53:11.0;-0.42019286536896705;-0.7708794684866136;-1.8640205141988164;2.3819999999999997;0.6037898951847471
53:11.0;-0.5138501095598579;-0.8273694712702854;-1.9245073859896757;2.452;0.8181925630697102
53:11.1;-0.5855925794746665;-0.865105140563912;-1.944895617614258;2.54;0.9852824682383782
53:11.1;-0.6317153014078098;-0.8839495036749279;-1.9282104294089424;2.455;1.0767212402458195
53:11.1;-0.6506257769590856;-0.8848037021118774;-1.8795175732955358;2.273;1.0819933392265924
53:11.1;-0.6432067210046917;-0.8692330852194792;-1.8051320459864115;2.0380000000000003;1.0092431218288263
53:11.1;-0.6127960009197717;-0.8391245799166278;-1.7117539495749083;1.778;0.8802047417538638
53:11.1;-0.5647399288654088;-0.7964245693551582;-1.6056795819780658;1.4680000000000002;0.7221909286623761
53:11.1;-0.5056130156712464;-0.7429775329370423;-1.492216328658158;1.4680000000000002;0.5605646594497953
53:11.1;-0.44230920333103074;-0.6804655510232895;-1.3753707682829035;1.4680000000000002;0.41395383409995196
53:11.1;-0.3812192560961508;-0.6104301570693402;-1.2578068232484516;1.4269999999999998;0.2927013710903867
53:11.1;-0.32761843696396387;-0.5343408504163317;-1.1410098492767475;1.338;0.1997450863378709
53:11.2;-0.28529267922678636;-0.45367086776141446;-1.0255628571525781;1.225;0.13273755181021768
53:11.2;-0.25639003942742894;-0.3699540739403692;-0.9114456660895487;1.072;0.08645293613957034
53:11.2;-0.24147197605846255;-0.28481580000273643;-0.7982942627061645;0.902;0.05490271509102041
53:11.2;-0.23973062184449753;-0.19998151386541324;-0.685591942845244;0.75;0.03286843822527493
53:11.2;-0.24933718998794618;-0.11726588480444662;-0.572794703973238;0.6679999999999999;0.01674779897337052
53:11.2;-0.267885152826697;-0.03853987133240461;-0.4594135417895682;0.5660000000000001;0.004743104541383228
53:11.2;-0.29287137921817913;0.0343197266015325;-0.3450906057566409;0.5660000000000001;0.003468597356673373
53:11.2;-0.3221289279054589;0.09947750149416212;-0.22971670551933301;0.5660000000000001;0.007361175555710222
53:11.2;-0.3541258892285252;0.15516340871517031;-0.11362326966260491;0.521;0.006243300984877575
53:11.2;-0.38808780500678786;0.19967949127509396;0.0021614033800601384;0.486;0.00016749401140071503
53:11.3;-0.42395309768640704;0.2314169726862987;0.1156324722957505;0.45399999999999996;0.011344695199693316
53:11.3;-0.46220470175361966;0.24890743851777675;0.22354369648849806;0.431;0.025717850218353377
53:11.3;-0.5036394261084995;0.2509154381786384;0.3211926915745123;0.475;0.040589411847920226
53:11.3;-0.5491409205856213;0.2365661896425501;0.40231577585627126;0.602;0.05226410827946425
53:11.3;-0.5995038365718313;0.20549087405364314;0.45919357215599416;0.6940000000000001;0.0565692350762964
53:11.3;-0.6553184345392082;0.1579628138953096;0.48309234791085676;0.929;0.05000776039320862
53:11.3;-0.7168864156433473;0.09499762812100014;0.46511686241745803;0.929;0.03167562536385232
53:11.3;-0.7841229791492811;0.01839822330624745;0.39741948782166925;0.929;0.005733360187305772
53:11.3;-0.8564161762469064;-0.06927410979021;0.2745944491027356;1.138;0.016290993452377188
53:11.3;-0.9324445167923985;-0.16483061890312553;0.0950582056993347;1.3159999999999998;0.014610009594230177
53:11.4;-1.0099678351369086;-0.26471076438877833;-0.13778879866647276;1.374;0.036837746814456826
53:11.4;-1.08561135042578;-0.3653479956531305;-0.41487042947185;1.1840000000000002;0.1645483703072346
53:11.4;-1.1547000789481707;-0.4635786341562465;-0.7214921557188543;0.9159999999999999;0.3862106279597277
53:11.4;-1.2112750754680004;-0.5569901788498123;-1.0383476620072585;1.2919999999999998;0.7005402736589338
53:11.4;-1.2484728095500663;-0.6440985785740202;-1.3434738937853594;2.28;1.080340508533206
53:11.4;-1.2593910188799478;-0.7242691791131893;-1.614878883048148;3.952;1.4729925551878544
53:11.4;-1.238356641613285;-0.7973694602417374;-1.8333101973040957;3.4960000000000004;1.8102613941772334
53:11.4;-1.1822497522978996;-0.8632627934168462;-1.984540098417266;3.4960000000000004;2.025406192035844
53:11.4;-1.0914403995486817;-0.9213461771513585;-2.0607268807676844;3.4960000000000004;2.0722554930665398
53:11.4;-0.9700380145250803;-0.9703227173499818;-2.0607493513106476;2.8760000000000003;1.9396801665675572
53:11.5;-0.8253814030670892;-1.0082982428442424;-1.9896562023810045;2.406;1.655852811688777
53:11.5;-0.666898980119293;-1.033162152081814;-1.8574708065450463;2.02;1.2798248493835545
53:11.5;-0.5046359641853173;-1.043106343214349;-1.67763819952293;1.8780000000000001;0.8830902526968496
53:11.5;-0.34781987220922284;-1.0371015898471392;-1.4654062755023833;1.8090000000000002;0.5286080082319244
53:11.5;-0.20377252901766907;-1.0151933773356203;-1.2363632942279117;1.632;0.2557646472598599
53:11.5;-0.07733423807881815;-0.9785552788306022;-1.0052426789419928;0.9620000000000001;0.07607257097051
53:11.5;0.02918343217888362;-0.929321396080389;-0.7850322986408271;0.9620000000000001;0.021290694493482976
53:11.5;0.11562175085257691;-0.8702937544085008;-0.5864125261379263;0.9620000000000001;0.05900769455377094
53:11.5;0.18334483383016065;-0.8046398620845937;-0.4175283754418472;0.8490000000000001;0.06159652568580766
53:11.5;0.23451901102437195;-0.7356477139578739;-0.2840330538568135;0.77;0.04900234087539875
53:11.6;0.27142814052184994;-0.6665499738480221;-0.1892810394623682;0.691;0.034244805151219054
53:11.6;0.29591726790838585;-0.6004080985405265;-0.13455538176032705;0.63;0.023906605937814136
53:11.6;0.30902416264802607;-0.5400416159873186;-0.11926756463812885;0.596;0.019904075840522388
53:11.6;0.31082547873530725;-0.4879793651203983;-0.14112363061559555;0.541;0.021405127037634673
53:11.6;0.300498570012218;-0.44640688140869056;-0.19628238184742808;0.516;0.02633022739166008
53:11.6;0.27657654766478007;-0.41709449380474034;-0.2795390676263803;0.5760000000000001;0.03224722294838013
53:11.6;0.23734533513868677;-0.4013088492631877;-0.38455897380448467;0.5760000000000001;0.03662877437062324
53:11.6;0.18130610031043418;-0.39972512366332985;-0.5041708932434721;0.5760000000000001;0.036538577175474554
53:11.6;0.10762056957701974;-0.412359016725963;-0.6307298841206687;0.7559999999999999;0.027990727743082353
53:11.6;0.016468857788131386;-0.4385301230227415;-0.7565675715789997;0.977;0.005463999268452791
53:11.7;-0.09073558747886222;-0.4768637664517903;-0.8745259294587311;1.1640000000000001;0.03783943741898771
53:11.7;-0.21131277198856674;-0.5253415898067859;-0.9785099458946285;1.446;0.1086257468574825
53:11.7;-0.34147091422179604;-0.581414279536846;-1.063943169234068;1.6159999999999999;0.21123109081518535
53:11.7;-0.47660648072225015;-0.6421830058415582;-1.1280031307789185;1.6;0.3452463191732506
53:11.7;-0.6116694216638522;-0.7046400335259779;-1.1695580303802362;1.489;0.5040874193973748
53:11.7;-0.7415150779437714;-0.7659422097892707;-1.1888200842887273;1.551;0.6751995176863641
53:11.7;-0.8611993235863606;-0.8236730183621516;-1.1868423684052962;1.551;0.8418826536792282
53:11.7;-0.966217584799194;-0.8760292956026138;-1.1650500718081536;1.551;0.986139052921667
53:11.7;-1.0527245916516157;-0.9218720297768153;-1.1249701917717863;1.804;1.0917580974040673
53:11.7;-1.1177788148983814;-0.9606233548899394;-1.0682222883119836;2.043;1.1470191020694465
53:11.8;-1.1596093546366106;-0.9920462827978471;-0.9967115174054657;2.153;1.1466031249343651
53:11.8;-1.1778281874500063;-1.015976168731933;-0.9128786127738088;2.063;1.092391964717855
53:11.8;-1.173477899212055;-1.0320790767739865;-0.8198472569060643;1.851;0.9929350386840304
53:11.8;-1.1488483656636974;-1.0397014578014239;-0.7213685227155836;1.629;0.8616453555258424
53:11.8;-1.1070819850474005;-1.0378516584303004;-0.6215544920864186;1.476;0.7141579530071895
53:11.8;-1.051665144965327;-1.0253152341539609;-0.5244723716765802;1.339;0.5655324190949665
53:11.8;-0.98594043021655;-1.0008634739018214;-0.4337153546699274;1.339;0.4279867399289179
53:11.8;-0.9127561135273261;-0.9634932822553134;-0.3520692099127818;1.339;0.3096217686468032
53:11.8;-0.8343093111015142;-0.9126447862644219;-0.28134889245492395;1.252;0.21422693655647138
53:11.8;-0.7521745854533229;-0.8483628769560059;-0.22241010568726344;1.189;0.14192366836292583
53:11.9;-0.6674717889880104;-0.7713867314039285;-0.17529158017549;1.12;0.09025393275672043
53:11.9;-0.5811134285037926;-0.6831666037955098;-0.1394300808584064;1.02;0.05535336387869269
53:11.9;-0.4940676016400054;-0.5858177620679779;-0.11389281705947087;0.89;0.03296440540230779
53:11.9;-0.40757801644635316;-0.4820236085723383;-0.09757879384531515;0.755;0.019170547074833507
53:11.9;-0.3233025623183454;-0.3748943511208433;-0.08935400386426713;0.633;0.010830089876221437
53:11.9;-0.2433576836771019;-0.26778311533159777;-0.08810627388057114;0.228;0.005741628481730627
53:11.9;-0.17027742481765393;-0.16407614115638766;-0.09273151308020405;0.228;0.0025907759276635094
53:11.9;-0.10690855962764678;-0.06700475670302627;-0.1020863783018565;0.228;0.0007312837275618573
53:11.9;-0.05625795409628483;0.020469120376202105;-0.11494998852948014;0.094;0.00013237075521869377
53:11.9;-0.021291967077122373;0.09568524801543993;-0.13002726656479824;0.08199999999999999;0.00026490808047919927
53:12.0;-0.004690751608233399;0.15627106508092753;-0.1460128854369378;0.163;0.00010703164287364098
53:12.0;-0.008589484122240568;0.2001257724212605;-0.1617261102765253;0.23399999999999999;0.00027800348726068333
53:12.0;-0.03436069588901834;0.2254327956121589;-0.1763153502282578;0.37;0.001365743592699381
53:12.0;-0.08248407751722422;0.23071257656635188;-0.18950719157564813;0.469;0.0036063434689224566
53:12.0;-0.1525247498136938;0.214908718635845;-0.20184042526822393;0.54;0.006616106821685313
53:12.0;-0.24321482500053226;0.17749062007913738;-0.21480140740359435;0.612;0.00927262235715416
53:12.0;-0.35259942386485726;0.11856178903501843;-0.23079128896670384;0.612;0.009648187948049839
53:12.0;-0.4781693615098207;0.038972646301532354;-0.2529095065197494;0.612;0.004713101532233411
53:12.0;-0.616902563240409;-0.05956998942796651;-0.2845893240415634;0.75;0.010458338682365493
53:12.0;-0.7651910310082822;-0.17442796419954712;-0.32913243377300044;0.9279999999999999;0.04392954085808009
53:12.1;-0.9186797953035587;-0.3020396562833522;-0.3891708859274724;1.032;0.10798625385666846
53:12.1;-1.072051774352197;-0.4380508278150898;-0.46607138428872474;0.922;0.21887325892439435
53:12.1;-1.2188059287662518;-0.5775806085560139;-0.5593218074438564;0.85;0.39373943569729447
53:12.1;-1.3511447792457876;-0.7155972799821101;-0.6660172119967137;1.085;0.6439557440993751
53:12.1;-1.4601816469747322;-0.8473328201865449;-0.7806577213445902;1.374;0.9658764418751851
53:12.1;-1.5366850496954658;-0.9686269736512647;-0.8954863839118615;2.9960000000000004;1.332908727375161
53:12.1;-1.5723770037128393;-1.076103575572496;-1.0014294606088348;2.9960000000000004;1.6944592211093044
53:12.1;-1.5614595407649885;-1.1671606054208674;-1.089410806727018;2.9960000000000004;1.9854229391459361
53:12.1;-1.5018550916944244;-1.2398458868657605;-1.151652118596722;3.0239999999999996;2.1444555454104446
53:12.1;-1.3957754529745303;-1.2927245991186642;-1.1826762372208177;2.758;2.1339657275909762
53:12.2;-1.249505254187517;-1.3248182632702918;-1.1799169987845455;2.479;1.9531961118391463
53:12.2;-1.0725036725518033;-1.3356422338828415;-1.1439185489690074;2.206;1.638641816935807
53:12.2;-0.8760720632865711;-1.3253149493349525;-1.0781199181005652;1.893;1.2517742050147136
53:12.2;-0.6719015873890511;-1.294675938236796;-0.9882647799294012;1.6669999999999998;0.8596864109275552
53:12.2;-0.47078064899591493;-1.2453433561354081;-0.8815586607955033;1.5390000000000001;0.5168433442030475
53:12.2;-0.2816428810018564;-1.1796620049533695;-0.7657620799347942;1.103;0.25441940138081137
53:12.2;-0.1110342872423996;-1.1005381277503221;-0.6484058723859973;1.103;0.07923355493273247
53:12.2;0.037000890041921336;-1.0112179878092853;-0.5362394026021564;1.103;0.020063915027905485
53:12.2;0.1606783752528018;-0.9150921985452063;-0.434920649270092;0.9840000000000001;0.06394878715946682
53:12.2;0.25998875568269125;-0.8155675993197831;-0.3488867122017485;0.87;0.07397738209338856
53:12.3;0.3361072909173231;-0.7159958275618956;-0.28132867275902795;0.768;0.06770214399818034
53:12.3;0.3908281754809652;-0.6196328178690531;-0.23422065895627336;0.708;0.05672120847158403
53:12.3;0.4261145233618716;-0.5296098553594466;-0.208387081805816;0.679;0.047027640299574215
53:12.3;0.4438031189335762;-0.44889861849060836;-0.20361021906321486;0.6679999999999999;0.040563758647731554
53:12.3;0.44545505954625875;-0.3802510885335243;-0.21877940848912708;0.674;0.03705790006884887
53:12.3;0.4323129612291093;-0.3260991779006751;-0.25207392572960446;0.5710000000000001;0.03553660093594246
53:12.3;0.40531886007155554;-0.288414335774067;-0.3011621054710259;0.5710000000000001;0.03520578080332308
53:12.3;0.3651612615826036;-0.26854897311912745;-0.3633940970080982;0.5710000000000001;0.035635763104592974
53:12.3;0.3123369359451543;-0.2670895117971219;-0.43597390824970567;0.588;0.03636978038178202
53:12.3;0.24721800577856562;-0.2837392645364538;-0.5161146770987922;0.642;0.036203098929414854
53:12.4;0.17011675785678465;-0.31723929720022603;-0.6011858764314487;0.742;0.03244463147072287
53:12.4;0.08135300755714506;-0.36534008246129274;-0.6888424773546276;0.879;0.02047344167161082
53:12.4;-0.01865418005420517;-0.4248454114137727;-0.7771026083030064;0.971;0.0061586491408326186
53:12.4;-0.12924049779545121;-0.49175236187183247;-0.8643328853057662;1.025;0.054932088814168896
53:12.4;-0.24927215332836772;-0.5615081410128047;-0.9491170663855191;1.051;0.13284634349521685
53:12.4;-0.376842363319456;-0.6293914632141266;-1.0300217590080487;1.239;0.2443019682754846
53:12.4;-0.5089347040194687;-0.6909823452757511;-1.1053229724117448;1.239;0.3887032874494154
53:12.4;-0.641163088077612;-0.742617682218448;-1.1728014951359247;1.239;0.5584165855013877
53:12.4;-0.7677410624751569;-0.7817058840435244;-1.229726311480416;1.5090000000000001;0.7380174247919727
53:12.4;-0.8818160167505438;-0.80682809454484;-1.273097183223437;1.8780000000000001;0.9057754645382773
53:12.5;-0.9762138590081016;-0.8176373343534126;-1.3001083585427526;2.231;1.037732057255483
53:12.5;-1.0444958265062052;-0.8146295956484508;-1.3086756351967272;2.405;1.1135222769397066
53:12.5;-1.0820908268264158;-0.7988865702218324;-1.2978269918903538;2.434;1.1219296825017977
53:12.5;-1.0872070310930786;-0.7718641517102293;-1.2678332652768436;2.343;1.063935416575075
53:12.5;-1.0612694361719563;-0.7352400654847973;-1.220087747950456;2.1180000000000003;0.9520195965487324
53:12.5;-1.0087528004086013;-0.690792929046728;-1.1568356807978728;1.355;0.8061285679637848
53:12.5;-0.936458903752254;-0.6402919466874742;-1.080872274714947;1.355;0.6480986841418713
53:12.5;-0.8524640209866448;-0.5854044387049513;-0.9952973564278406;1.355;0.4966894322414976
53:12.5;-0.7650173651325868;-0.5276373892774878;-0.9033634063230556;1.1840000000000002;0.3646442336611413
53:12.5;-0.6815779266567654;-0.4683140748976864;-0.8083988546573572;1.0590000000000002;0.25803488067355473
53:12.6;-0.6080701673184475;-0.4085751531614109;-0.7137533793516129;0.915;0.17732657526960352
53:12.6;-0.5484086984526049;-0.3493987094059873;-0.6227113476108198;0.75;0.11931977094916021
53:12.6;-0.5043342439651305;-0.29164158652818184;-0.5383468647322996;0.644;0.07918266195248178
53:12.6;-0.47556286822249744;-0.23610361060675775;-0.4633325319206572;0.632;0.05202395443515819
53:12.6;-0.46019230115598986;-0.18360836000604794;-0.3997456503522177;0.688;0.033776570168480666
53:12.6;-0.4552615413128319;-0.13508461117152884;-0.3489265654156534;0.696;0.021458574932175345
53:12.6;-0.4573390410174841;-0.09163037119299754;-0.3114334649077829;0.696;0.01305097627757899
53:12.6;-0.4630288462237905;-0.05454804655790424;-0.2871158304934436;0.696;0.00725177613837127
53:12.6;-0.46932590659395024;-0.025342690839487265;-0.2753045099831655;0.627;0.0032744667083492622
53:12.6;-0.47380305217349555;-0.005670014313339721;-0.27509306539261424;0.614;0.0007390292914635779
53:12.7;-0.47465893849192947;0.0027809307318297787;-0.2856614263695716;0.613;0.00037707126291313623
53:12.7;-0.4706881966818968;-0.0015255053508809514;-0.3065743694175855;0.609;0.00022013185166801135
53:12.7;-0.46124169702241763;-0.019730625344165635;-0.337987583860285;0.622;0.0030758854514039563
53:12.7;-0.4462252707141647;-0.05232131802222705;-0.3807181797543351;0.6859999999999999;0.008888663243912064
53:12.7;-0.4261464674536203;-0.09890172026278636;-0.4361725141182053;0.799;0.018383196646534598
53:12.7;-0.4021715951790993;-0.15805466682355002;-0.5061507969131868;0.9470000000000001;0.032173524746342344
53:12.7;-0.37612318728562555;-0.22733758960412728;-0.5925438514032806;0.9470000000000001;0.050666610833359736
53:12.7;-0.35035306130033034;-0.303421992054336;-0.6969082450135796;0.9470000000000001;0.074084708178448
53:12.7;-0.3274564689829263;-0.3823596423560529;-0.8198986886078179;0.8690000000000001;0.1026563486531521
53:12.7;-0.30982611218166106;-0.45995836560308784;-0.9605865310139368;0.772;0.1368904125340266
53:12.8;-0.29908874125879853;-0.5322382680434278;-1.1157807032409068;0.856;0.1776171955032205
53:12.8;-0.2955319470606647;-0.5958961433273566;-1.2795494311028246;1.044;0.22533677673607633
53:12.8;-0.29768663265326906;-0.6486707270457542;-1.443174335446481;1.3359999999999999;0.2786778364797926
53:12.8;-0.3022344198732038;-0.6895084100508139;-1.595707146663197;1.8090000000000002;0.3325344775613435
53:12.8;-0.304336962144176;-0.7184787608493088;-1.725128487228925;2.332;0.3772159799090973
53:12.8;-0.2983587255324491;-0.7364700561559683;-1.8198913975204867;2.58;0.39988886310339766
53:12.8;-0.2788278764608164;-0.7447732923656779;-1.8704937597565068;2.58;0.38843338479457484
53:12.8;-0.24140646210305494;-0.7446893631689644;-1.8707466002281825;2.58;0.3363094002999158
53:12.8;-0.18365480044345878;-0.7372569424300335;-1.818544475611298;2.46;0.246232334347682
53:12.9;-0.10545396965526613;-0.7231368850156759;-1.7160838865304353;2.217;0.13086453319155214
53:12.9;-0.00903584879535841;-0.7026399655084069;-1.569559518937699;1.8659999999999999;0.009965052531304839
53:12.9;0.10136070102396522;-0.6758568373243683;-1.388420794672462;1.518;0.09511421475325595
53:12.9;0.22012228205356402;-0.6428362669838866;-1.184321209461567;1.266;0.16758451388262371
53:12.9;0.3410395266294033;-0.6037562600555906;-0.9699318098774068;1.146;0.19971356598494497
53:12.9;0.45806945848349884;-0.5590445443263556;-0.7577934576950911;1.091;0.19405668201146123
53:12.9;0.565946293884364;-0.5094288773192486;-0.5593450029620565;0.904;0.16126441387197796
53:12.9;0.6605623028733502;-0.45592814990199215;-0.3842130916680886;0.904;0.11571305287295669
53:12.9;0.739103823986833;-0.3998219092304062;-0.2398069366418245;0.904;0.07086532435215909
53:12.9;0.7999793343164522;-0.34263712186464573;-0.13121398692585454;0.904;0.03596609715894941
53:12.9;0.8426055540792251;-0.2861593474250549;-0.06133200753678733;0.8809999999999999;0.014788340261503722
53:13.0;0.8671225248141693;-0.23244130647391634;-0.031132729070798726;0.858;0.006274960088911447
53:13.0;0.8740981326828435;-0.183774017653944;-0.03995684442706434;0.8320000000000001;0.006418528665377904
53:13.0;0.8642675613856725;-0.14259703934657308;-0.08577442465685017;0.8059999999999999;0.010571011253875983
53:13.0;0.8383384141756408;-0.11133682755323034;-0.1653860439380357;0.794;0.015436792555016654
53:13.0;0.7968768396665888;-0.09217350129912645;-0.2745778698000568;0.7659999999999999;0.02016799945937096
53:13.0;0.7402761365434206;-0.08675303869105515;-0.40826815774290465;0.8220000000000001;0.0262194727739673
53:13.0;0.6688065953083204;-0.09588630396045174;-0.5606740177777717;0.8220000000000001;0.03595568414416848
53:13.0;0.5827535378312133;-0.11929866568142229;-0.7254909915354961;0.8220000000000001;0.05043738120198417
53:13.0;0.48264701484391354;-0.15549766138573476;-0.896066760808107;0.955;0.06725024237723165
53:13.0;0.3695588567201477;-0.20180918953685217;-1.065587306732008;1.153;0.07947189918466502
53:13.1;0.24541264004467866;-0.25460846874573334;-1.2273185407364395;1.304;0.07668793921930314
53:13.1;0.11323826792637562;-0.3097391521181541;-1.3749185412579703;1.55;0.04822433989501066
53:13.1;-0.022706808798991396;-0.3630578140360686;-1.5027973611707321;1.796;0.012388887671467461
53:13.1;-0.15704058735116955;-0.41097575332847275;-1.6064865613668087;1.982;0.1036824397549633
53:13.1;-0.2836604165010458;-0.45084725809591564;-1.6829669361897406;2.188;0.21523046941083473
53:13.1;-0.3964433085983431;-0.48110923194709765;-1.730876299175867;2.157;0.33013442554269906
53:13.1;-0.4901021432082551;-0.501184328136277;-1.750514350961169;2.157;0.4299814891884539
53:13.1;-0.5609552845344447;-0.5112468496724711;-1.7436127317145873;1.911;0.5000448054488359
53:13.1;-0.6073930484060887;-0.5119652546859813;-1.7129190194021673;1.911;0.5326563841426062
53:13.2;-0.6299586463165311;-0.504288881329209;-1.6616964795038645;1.695;0.5278896336620091
53:13.2;-0.631086613406988;-0.48929350292897783;-1.5932487474293628;1.5430000000000001;0.49197383137063533
53:13.2;-0.6145958215270871;-0.468074421295195;-1.5105627020994974;1.45;0.4345535172900288
53:13.2;-0.5850501388264435;-0.4416718496115674;-1.416136907601267;1.475;0.3659300274826577
53:13.2;-0.547109329948057;-0.4110183707380752;-1.3120149557842584;1.508;0.2950354079959353
53:13.2;-0.5049874715569107;-0.3769070703359846;-1.1999718109519988;1.499;0.2283946528371739
53:13.2;-0.46210298101509734;-0.3399861165759718;-1.0817461579417025;1.103;0.16995162223744437
53:13.2;-0.4209456878829695;-0.3007868615658267;-0.959222554394013;1.103;0.12145189883126069
53:13.2;-0.3831231508112708;-0.25978963724354986;-0.8345351751195849;1.103;0.0830624746655732
53:13.2;-0.3495122680033159;-0.21752452027502112;-0.7101117174538152;0.919;0.0539880103810628
53:13.3;-0.32044416254714814;-0.17469291368840817;-0.5886621791428421;0.7490000000000001;0.032952911105792085
53:13.3;-0.29587013188137373;-0.13228707208056906;-0.47310053326977924;0.5920000000000001;0.01851705715926234
53:13.3;-0.2754769906269022;-0.0916836877540411;-0.3664105565052272;0.479;0.009254338501026022
53:13.3;-0.2587434192976091;-0.05468862433513469;-0.2714935951746472;0.358;0.003841721699578732
53:13.3;-0.24495499811605187;-0.023509333728214402;-0.19103269049281554;0.26;0.0011001054563113731
53:13.3;-0.23321505538508877;-0.0006344299396697104;-0.12738816223161079;0.20600000000000002;1.884817586239901e-05
53:13.3;-0.22249147337833058;0.011388470654928283;-0.08252479049025796;0.275;0.0002091044183588455
53:13.3;-0.21171983292356178;0.010263108751412904;-0.05796391673309063;0.275;0.00012595000740418062
53:13.3;-0.19994814179800285;-0.005697359700035535;-0.054751836611112624;0.275;6.237200478762896e-05
53:13.3;-0.18648409678054673;-0.03721820848617852;-0.07343655017522104;0.249;0.0005096940134028911
53:13.4;-0.17100954454366935;-0.08376325013215531;-0.11404976031487983;0.278;0.0016336847214616023
53:13.4;-0.15364500931511516;-0.14332712763022448;-0.17610075782021503;0.287;0.003878002461456628
53:13.4;-0.1349605428498733;-0.21236819152358566;-0.2585934845761021;0.342;0.0074116322694699885
53:13.4;-0.11593565212678562;-0.28593593306187004;-0.36006569977674263;0.48700000000000004;0.011936238750456652
53:13.4;-0.09787132866812115;-0.35803063365049737;-0.4786260316730485;0.6920000000000001;0.01677150310003201
53:13.4;-0.08224540471143661;-0.4222024342162015;-0.6119478196732316;0.851;0.02124940464359795
53:13.4;-0.07048956344085805;-0.472357297295198;-0.7571802076855382;1.297;0.02521126881544568
53:13.4;-0.06368966310862331;-0.5036617117034075;-0.9107691972157816;1.297;0.029215695055284385
53:13.4;-0.06227826774705789;-0.5133347973647702;-1.0682459584782593;1.297;0.034151398081695275
53:13.4;-0.06583342603089355;-0.501084817332379;-1.224101756076919;1.194;0.04038082817735514
53:13.5;-0.07306146433210557;-0.4690571638473135;-1.3718762646120133;1.3259999999999998;0.047014204041568586
53:13.5;-0.08195767218426245;-0.42133962176206224;-1.5045232271662607;1.5130000000000001;0.05195421804446252
53:13.5;-0.09007896204126324;-0.36319955448777413;-1.6150225479816918;1.801;0.05283810948877883
53:13.5;-0.09485378082015723;-0.3002653751296438;-1.6971312936030243;2.063;0.048336515831783035
53:13.5;-0.09387933794799141;-0.2378305163990888;-1.7461249337214533;2.185;0.03898637994681559
53:13.5;-0.08518371583658639;-0.18037916150774638;-1.7593738342672245;1.986;0.027033425070187817
53:13.5;-0.06744170814135472;-0.13133819736369848;-1.7366432211329978;1.8119999999999998;0.015382616684043442
53:13.5;-0.04013239722841855;-0.09299201468321582;-1.6800964864497576;1.8119999999999998;0.006270107440231594
53:13.5;-0.0036237699812994213;-0.06649079894102965;-1.5940622786457517;1.8119999999999998;0.00038408509968413415
53:13.5;0.04083342681049665;-0.05191965221405297;-1.4846339409972689;1.5430000000000001;0.0031475090522150046
53:13.6;0.09122070168952999;-0.0484245659042281;-1.359132318507022;1.324;0.0060037262885684495
53:13.6;0.14497971249580094;-0.05439889917855747;-1.2254562100793265;1.047;0.009664850543473545
53:13.6;0.19932519362500706;-0.06773319980754375;-1.0913847826506353;0.871;0.014734713009479471
53:13.6;0.25158328740652924;-0.08611627810767868;-0.9639359741239442;0.8270000000000001;0.02088407420984348
53:13.6;0.29948643440951567;-0.10734501685117777;-0.8488869288590275;0.809;0.0272903364661878
53:13.6;0.341372369414042;-0.12958045330128956;-0.7505227295061094;0.868;0.03319951281703065
53:13.6;0.37626163435750587;-0.1515022350436501;-0.6716152968761504;0.821;0.03828507979560177
53:13.6;0.40381284960862385;-0.17235281798904006;-0.6135757262853996;0.821;0.0427038167762458
53:13.6;0.42417611032445884;-0.191894963288354;-0.5766960859723063;0.821;0.04694148074251765
53:13.6;0.4377802287476754;-0.21031409201301493;-0.560402307136543;0.7909999999999999;0.051596997695481005
53:13.7;0.44509597090245345;-0.2280875176455918;-0.5634624953478246;0.723;0.05720318308492984
53:13.7;0.44641887367316263;-0.24582942876045855;-0.5841250996458535;0.6629999999999999;0.06410358047204164
53:13.7;0.44171354958606773;-0.2641176345247447;-0.6201965015269273;0.6609999999999999;0.07235481419013075
53:13.7;0.43055285994109455;-0.28332188333951125;-0.6690956854678086;0.687;0.08161966874348192
53:13.7;0.4121715193363697;-0.30347117076717656;-0.7279299997062497;0.754;0.09105106654087287
53:13.7;0.3856375572228856;-0.32419971734655967;-0.7936232735821966;0.877;0.0992216284295123
53:13.7;0.3501240668998246;-0.3447937300693511;-0.8631048040420285;1.263;0.1041945151456559
53:13.7;0.305235558134979;-0.3643275427919944;-0.9335332270833758;1.263;0.10381423547209302
53:13.7;0.2513141658133655;-0.3818387612931991;-1.0024944597582968;1.263;0.09620086184418562
53:13.7;0.18963778187945354;-0.3964761368993266;-1.0681132321636848;1.3019999999999998;0.08030807489155553
53:13.8;0.12243820269500715;-0.4075786780813648;-1.129057669496384;1.295;0.05634359159688787
53:13.8;0.052711722319544234;-0.41468809656841793;-1.1844507776636803;1.2429999999999999;0.025890819288512307
53:13.8;-0.016140389916562307;-0.4175275374815218;-1.233709711632334;1.248;0.008314040383793235
53:13.8;-0.08074117785676602;-0.41598251233858274;-1.2763401277510356;1.286;0.042868331228795555
53:13.8;-0.13811918232932868;-0.4100977609308752;-1.3117313486192033;1.202;0.07429956899808003
53:13.8;-0.18597138178152894;-0.4000780632425272;-1.339012413675312;1.17;0.09962663466918006
53:13.8;-0.22280953113431307;-0.3862708101453554;-1.3570304134922457;1.489;0.11679257569250658
53:13.8;-0.24802482464773878;-0.36911640924145095;-1.3644877159019986;1.489;0.12491889497780262
53:13.8;-0.26188838798872244;-0.3490747634746343;-1.3602136986874642;1.489;0.12434886888834625
53:13.8;-0.2654804076277902;-0.32655323212350895;-1.3434914433803844;1.587;0.1164719555312122
53:13.9;-0.2605430186705035;-0.3018557965341043;-1.314353338694631;1.65;0.10336918527142379
53:13.9;-0.24927122754240452;-0.2751582024592688;-1.2737724964129784;1.589;0.08736681091997946
53:13.9;-0.23406914839816764;-0.24651043528668326;-1.2236798508426379;1.383;0.07060692413188689
53:13.9;-0.21729999146688403;-0.21587138766403274;-1.1667604522134036;1.172;0.05473139185243797
53:13.9;-0.20105534570312186;-0.18317794807024668;-1.10604736196078;0.945;0.04073451396512998
53:13.9;-0.18697003580532887;-0.14844067080875736;-1.0444050909021998;0.758;0.028986374543365844
53:13.9;-0.17610943695605932;-0.1118482712375652;-0.984036031019047;0.75;0.019383085217299107
53:13.9;-0.1689441095405319;-0.07386377668420825;-0.9261362969861389;0.75;0.011557115910395056
53:13.9;-0.16540219321151103;-0.03530699767351758;-0.8707768226820807;0.75;0.005085210252003016
53:13.9;-0.16497282037789862;0.002575775951535615;-0.8170192850042237;0.75;0.00034717847494183625
53:14.0;-0.1668371412747877;0.038064591363313305;-0.7632291920999912;0.7879999999999999;0.004846953848534941
53:14.0;-0.1700187101594141;0.06896459237160622;-0.7075272641271891;0.8320000000000001;0.008295948941276868
53:14.0;-0.17355763734230886;0.09267416388998281;-0.6483079018378568;0.8420000000000001;0.010427584573247136
53:14.0;-0.1767138513193225;0.10633349194531315;-0.5847440028732906;0.805;0.010987691178408811
53:14.0;-0.17918856239211234;0.10704685379098838;-0.5172020207755783;0.7879999999999999;0.00992074771699263
53:14.0;-0.18132563994700446;0.09215178251384984;-0.4475133601021243;0.7979999999999999;0.007477715959491753
53:14.0;-0.1842352843279118;0.059493421188017516;-0.37907258331766347;0.644;0.004154933982864729
53:14.0;-0.18978716222528977;0.007665755437370391;-0.31674655468732843;0.644;0.00046082251678752467
53:14.0;-0.2004463105376119;-0.06380027411293061;-0.2665836092367978;0.644;0.003409212366196575
53:14.0;-0.21895302413001158;-0.1543123621407508;-0.23531035306470147;0.5529999999999999;0.00795046816071218
53:14.1;-0.24786446820859778;-0.2621748384033616;-0.22960206750000653;0.397;0.014920421009963712
53:14.1;-0.2889902387238094;-0.3846498343293512;-0.2551381258015011;0.37200000000000005;0.02836116616986644
53:14.1;-0.3427818179230022;-0.5181227548665388;-0.3155284989377166;0.58;0.05603882687188458
53:14.1;-0.4077785974157433;-0.6583479934897433;-0.4112974620976519;0.882;0.11041700773464322
53:14.1;-0.48026061394900743;-0.8007342380937336;-0.5391779422898029;1.0659999999999998;0.20734687163921417
53:14.1;-0.5542876527168524;-0.9406154400177544;-0.6919628323247122;1.103;0.3607697166872943
53:14.1;-0.6222652121302028;-1.0734479992602413;-0.8590606938182735;2.108;0.5738262106577445
53:14.1;-0.6760117799896476;-1.1949005901246874;-1.027700913922387;2.108;0.8301427555101928
53:14.1;-0.7080624470728999;-1.300864448889965;-1.1845010720441138;2.108;1.0910359598346515
53:14.1;-0.7128304511619716;-1.3874702776097205;-1.3170308900169458;2.52;1.302584462424758
53:14.2;-0.6873601999424522;-1.451205281603535;-1.41512896729698;2.687;1.4115922097923643
53:14.2;-0.6316019515200619;-1.4891669391809534;-1.4718598290298;2.7260000000000004;1.3843735772186994
53:14.2;-0.5482734856590463;-1.4994021853716801;-1.4840286398119447;2.616;1.2199939187536588
53:14.2;-0.4424362383141;-1.4812207598742981;-1.4521955454032085;2.396;0.9516901659411389
53:14.2;-0.32091187205164684;-1.4353752860992104;-1.380217798860993;2.1109999999999998;0.6357683032841377
53:14.2;-0.19160732039365844;-1.364049073229763;-1.2744500537261323;1.824;0.33309254451259945
53:14.2;-0.06276123126714517;-1.2706485845625146;-1.1427999048388873;1.307;0.09113540075573051
53:14.2;0.05785961822724042;-1.1594558590795276;-0.9938432697829769;1.307;0.06667264496538798
53:14.2;0.16371449239595842;-1.0352504192911651;-0.8361451898040906;1.307;0.14171448297194608
53:14.2;0.25006675780201254;-0.9030107336688084;-0.677827219194774;1.226;0.15306217509267533
53:14.3;0.31431537538151755;-0.7677365544621454;-0.5263249307028236;1.122;0.12700820762487483
53:14.3;0.35606928377274416;-0.634365257569377;-0.3882375549483457;0.982;0.08769431580282303
53:14.3;0.3769653145897675;-0.5077380559752164;-0.26919206528429085;0.7909999999999999;0.051523263309473086
53:14.3;0.3802383687950777;-0.39257936833783963;-0.17369223474353834;0.5760000000000001;0.02592768925279715
53:14.3;0.3700943809377738;-0.29345671812701485;-0.1049647367638746;0.42;0.011399871831773848
53:14.3;0.3509897260105347;-0.21469243450992218;-0.06483648961908334;0.335;0.004885743221345789
53:14.3;0.3269496698034224;-0.16020732772228258;-0.05368314330155728;0.152;0.002811908707308351
53:14.3;0.3010443790279138;-0.13329339865710502;-0.07048051069598038;0.152;0.0028281875523667246
53:14.3;0.2750904708507362;-0.13633586115147836;-0.11297101077621313;0.152;0.004236943442861785
53:14.3;0.24958937681731433;-0.17051736995495956;-0.17793999360912274;0.249;0.0075730058590006396
53:14.4;0.22387507688777647;-0.23553076154822836;-0.26159099117295703;0.41700000000000004;0.013793553628382244
53:14.4;0.19642006827959374;-0.3293206254530614;-0.35999535554655326;0.6629999999999999;0.023286364278146798
53:14.4;0.16523225028805957;-0.44788622232459674;-0.4695540732763719;0.893;0.03474946582427947
53:14.4;0.128272613564552;-0.5852009037138337;-0.5873665813729622;1.028;0.04409081890806983
53:14.4;0.08383772813145492;-0.7333234693820447;-0.7113865541936589;1.047;0.043736168890124716
53:14.4;0.030875863081080396;-0.8827919220284666;-0.8402750799511857;1.11;0.022903346355370897
53:14.4;-0.030767230541575222;-1.0233775201666868;-0.9729333885007441;1.8090000000000002;0.030634259445050386
53:14.4;-0.10016383387266646;-1.1451720037189794;-1.1078008093348148;1.8090000000000002;0.12707009058737484
53:14.4;-0.17519128119865818;-1.2397883574917599;-1.2421167052971294;1.8090000000000002;0.2697878859725518
53:14.4;-0.2525401717185253;-1.301350518036482;-1.3714091043089125;1.8090000000000002;0.4507043907751476
53:14.5;-0.3279170617363184;-1.3270501805258288;-1.4894412498050404;2.158;0.6481488229286844
53:14.5;-0.39650003635255865;-1.3172188644661669;-1.5887309301767951;2.504;0.8297581445598683
53:14.5;-0.4536431305639608;-1.2749438911870619;-1.6615778723289125;2.7310000000000003;0.9610060265219247
53:14.5;-0.49571764484954683;-1.205295934748646;-1.701338223070749;2.804;1.0165265557726337
53:14.5;-0.5208673792514318;-1.1143183963654666;-1.7035835565385622;2.637;0.9887805142890456
53:14.5;-0.5294180852612355;-1.0080156134588323;-1.6668456383160182;2.3080000000000003;0.8895316702986016
53:14.5;-0.5237740303594642;-0.8915784268774105;-1.5928220135726683;1.649;0.7438249851580298
53:14.5;-0.5078335790872497;-0.7689851161912923;-1.4860988190327002;1.649;0.5803460556960975
53:14.5;-0.4861442098337516;-0.6429843490131975;-1.3535574900209606;1.649;0.42309922101078645
53:14.5;-0.46306451077681404;-0.5153793777548173;-1.2036253494776328;1.3869999999999998;0.28724988309900557
53:14.6;-0.44210645814993194;-0.3875015328812009;-1.0454440069525728;1.101;0.17910225799823254
53:14.6;-0.425520162455177;-0.2607585645518165;-0.8879773351865029;0.84;0.09852821291072264
53:14.6;-0.41413237762017263;-0.13714639305151366;-0.7391135256687296;0.648;0.04197925488750871
53:14.6;-0.40743218627362837;-0.019614561206374732;-0.6048744253219221;0.5429999999999999;0.00483391660779849
53:14.6;-0.403872244056097;0.08781369208596443;-0.48886774773338004;0.555;0.01733794540464165
53:14.6;-0.4013141066423276;0.1802289537739889;-0.39209765494753246;0.6859999999999999;0.028359804485570766
53:14.6;-0.3975074705752207;0.2523243948315756;-0.3131991220898978;0.828;0.03141413251285503
53:14.6;-0.3904912805944406;0.29909126158572075;-0.24907831861530483;0.828;0.029090486937260577
53:14.6;-0.37885657445305865;0.31655514128927054;-0.1958362495274743;0.828;0.023486444875215045
53:14.6;-0.36187336053934227;0.30238408038398007;-0.14978961550727532;0.828;0.016390690232202854
53:14.7;-0.33950602646066197;0.2562678006841355;-0.10842492484709354;0.753;0.009433452331786833
53:14.7;-0.3123407611773772;0.1800423181070619;-0.07117511839441593;0.703;0.004002501087327197
53:14.7;-0.2814661850923225;0.07757445036763304;-0.039922216349747706;0.6920000000000001;0.0008716850105320885
53:14.7;-0.24837104699543866;-0.04555927263409699;-0.019115142576993708;0.655;0.00021629938847809532
53:14.7;-0.2149037177058376;-0.18255268930037577;-0.015399164181761814;0.679;0.0006041284845652806
53:14.7;-0.183266754123291;-0.32596533419133245;-0.0367035397813904;0.769;0.0021926184028858617
53:14.7;-0.15594178438123793;-0.4683980781406858;-0.09082732182251879;1.181;0.006634284818519966
53:14.7;-0.13543744441533231;-0.6031909164910153;-0.18370889439144333;1.181;0.015008031298437856
53:14.7;-0.12385833468087917;-0.7250233336474263;-0.31772842605460505;1.181;0.02853207071197535
53:14.7;-0.12240435612779288;-0.8302782327521897;-0.490459533359954;1.181;0.04984524174347619
53:14.8;-0.13092006605688694;-0.9171094063919843;-0.6942029422934114;1.117;0.08335157558213366
53:14.8;-0.14758105444056008;-0.985255178823867;-0.9164834727568554;1.295;0.13326127769173807
53:14.8;-0.16882686204812464;-1.0356784374544652;-1.1415187631883001;1.979;0.19959494464332636
53:14.8;-0.18967310306629334;-1.0701017449887085;-1.3524267980520668;2.736;0.2745014160999873
53:14.8;-0.20444341282903616;-1.0905041817672558;-1.5336703408038563;3.07;0.34192627609259996
53:14.8;-0.2077700073116786;-1.0986717749042152;-1.6731113053708857;2.89;0.38192286223850846
53:14.8;-0.19556551361440278;-1.095912597973585;-1.7631927136586174;2.115;0.3778922408184753
53:14.8;-0.1656925776511391;-1.0830075651171394;-1.8011292753349368;2.115;0.32320601144146194
53:14.8;-0.1182251922420728;-1.060365124633957;-1.7883567211591451;2.115;0.22419174405530168
53:14.8;-0.05534841727161885;-1.0282645603795137;-1.7296348946510929;1.985;0.09843839242603426
53:14.9;0.019017433281771527;-0.9870761272945168;-1.6320939832793806;1.864;0.030637104194039345
53:14.9;0.09979107696273427;-0.9374009680781257;-1.5043449481761682;1.7309999999999999;0.14072282315341078
53:14.9;0.18140747938130827;-0.8801190661941339;-1.3556868834538243;1.588;0.21644921367108166
53:14.9;0.25848125587323323;-0.8163605853998057;-1.1954193119028145;1.429;0.2522501023285157
53:14.9;0.3263545365511933;-0.747432147755314;-1.0322589618841282;1.268;0.2517967321154135
53:14.9;0.38146915702226913;-0.6747333850574497;-0.873858977330093;1.125;0.22492254086388572
53:14.9;0.4215464666520007;-0.5996938394513627;-0.726435446871842;0.7809999999999999;0.18364202311700167
53:14.9;0.4455920129018273;-0.5237531193063784;-0.5945258094598592;0.7809999999999999;0.1387505562974563
53:14.9;0.45376557822477936;-0.4483977233781415;-0.4809260041865384;0.7809999999999999;0.09785278877979452
53:14.9;0.4471651071160221;-0.3752478873926218;-0.38684142481557354;0.7809999999999999;0.06491112524048272
53:15.0;0.4275634049855505;-0.30615854205600457;-0.31223050635095245;0.6940000000000001;0.04087165666239619
53:15.0;0.3971244085618021;-0.24327968650953904;-0.25626423133014187;0.606;0.02475827721173671
53:15.0;0.3581292154428436;-0.18902929445647423;-0.21780609740730833;0.5429999999999999;0.014744800409499386
53:15.0;0.3127526027408632;-0.14595989073773233;-0.1958261296200978;0.483;0.008939332734558953
53:15.0;0.2629250286782424;-0.11653042050816785;-0.18968403290495398;0.389;0.00581168434795402
53:15.0;0.21028851612417565;-0.1028183424112847;-0.19924941706092128;0.322;0.004308074589684278
53:15.0;0.15622556475706648;-0.1062222905414219;-0.2248672713468452;0.33299999999999996;0.0037315908153027853
53:15.0;0.1019265070890648;-0.12720922608524846;-0.26720623234547436;0.33299999999999996;0.0034645938934864257
53:15.0;0.04846345829380344;-0.16514831547313671;-0.32703024639564343;0.33299999999999996;0.0026174384110678934
53:15.0;-0.0031561349217674424;-0.2182573184779655;-0.4049231454584408;0.40299999999999997;0.000278931124419781
53:15.1;-0.05198323113037756;-0.2836776868613896;-0.5009910639893703;0.513;0.007387856089359172
53:15.1;-0.09718624789995656;-0.35768488473567667;-0.6145676422586296;0.628;0.02136363226272778
53:15.1;-0.1381667942528029;-0.43601761212079954;-0.7439471117309024;0.821;0.04481772168791255
53:15.1;-0.1746953534387178;-0.5142748482512141;-0.8861806264489368;1.0070000000000001;0.0796157315103959
53:15.1;-0.20702119712762573;-0.588299630891041;-1.0369884655090247;1.1520000000000001;0.12629533733815312
53:15.1;-0.23591603991587234;-0.6544693240901144;-1.1908416963856825;1.345;0.18386573307407644
53:15.1;-0.2626143727773687;-0.7098565774275893;-1.3412339713141945;1.758;0.2500308785202687
53:15.1;-0.28862776173697396;-0.7522820141340492;-1.481100953138682;1.758;0.32159067079887854
53:15.1;-0.3154561329657306;-0.7803009867848495;-1.6032903845349247;1.758;0.39465110150609606
53:15.1;-0.3442673478645507;-0.7931523268715328;-1.7009985592076722;1.766;0.464468624672311
