Time;AccX;AccY;AccZ;Acc-old;Acc-trns
01:02.0;-0.23152701630040906;-0.11045767440727773;-1.0616445537537045;1.0859999999999999;0.02715042964206794
01:02.0;-0.19095770363926454;-0.201823787701164;-1.0151821697634342;1.186;0.03912492493231174
01:02.0;-0.15212721946525218;-0.2907196187332823;-0.9742895733416069;1.183;0.043089288470552635
01:02.0;-0.1167018689037799;-0.3745637211655518;-0.9430177057435997;0.96;0.041221459923943556
01:02.0;-0.08597441810882431;-0.45076591109045805;-0.9244601228254288;0.716;0.03582683905918598
01:02.0;-0.06075026603054102;-0.516872410111743;-0.9202845384036912;0.716;0.028897060049376564
01:02.0;-0.04128202616027152;-0.5708049315125009;-0.9303486242807107;0.85;0.02192272020406609
01:02.1;-0.027261442553787686;-0.6111338954402896;-0.9525644937629697;1.1159999999999999;0.015870097474360842
01:02.1;-0.017872534354244823;-0.6373167604691748;-0.983101587353384;1.3330000000000002;0.011197984906452853
01:02.1;-0.01190904516706631;-0.6498253011233879;-1.0169026758854112;1.419;0.007869605270683963
01:02.1;-0.007953465062262759;-0.6500924114704136;-1.048400568668344;1.439;0.005420741806607129
01:02.1;-0.0045907308993821125;-0.6402638436137427;-1.0722847547317496;1.436;0.003151744073006678
01:02.1;-0.0005994245868647473;-0.6228232414825763;-1.084175272349789;1.4269999999999998;0.00040476118701115424
01:02.1;0.004941220428656356;-0.6002049777102444;-1.0811035484297842;1.3880000000000001;0.0032062775483677427
01:02.1;0.012657291797569949;-0.574491130490801;-1.0617558657774875;1.189;0.0077205597674532105
01:02.1;0.022975907962986767;-0.5472388546800553;-1.0264893629665917;1.189;0.012906368519496239
01:02.1;0.03624458009759374;-0.5194414196423551;-0.9771720389146877;1.189;0.018397155574670192
01:02.2;0.0528005160294024;-0.4916015326369827;-0.9169066077905089;1.1179999999999999;0.02379997482767211
01:02.2;0.07294833072752745;-0.4638829504201772;-0.8496725442222678;0.985;0.028752482917699104
01:02.2;0.09685093262008639;-0.4362974388032135;-0.7799023944669826;0.8420000000000001;0.032955410400086406
01:02.2;0.12437336566177434;-0.408879426694498;-0.7120254092729859;0.732;0.036209133994681356
01:02.2;0.15493612871889254;-0.38180856781579803;-0.6500394228169437;0.654;0.03845369400975422
01:02.2;0.18743208046248888;-0.3554604242702989;-0.5971768569806053;0.596;0.03978672108625631
01:02.2;0.22024242732922766;-0.3303856583936872;-0.5557100908963892;0.58;0.040436211065477255
01:02.2;0.2513600202828337;-0.3072316602811009;-0.5269103990249869;0.665;0.04069105409854137
01:02.2;0.27859725199061247;-0.2866313199571591;-0.5111426093495978;0.665;0.04081713874262757
01:02.2;0.2998299800101664;-0.2690918422479172;-0.5080505739828892;0.725;0.04099043565456041
01:02.3;0.3132236200038521;-0.25491282788064323;-0.5167771510431985;0.747;0.04126192627330225
01:02.3;0.3174035996612786;-0.24414680148915632;-0.5361700190841007;0.752;0.041549462771611125
01:02.3;0.3115529011599389;-0.23660189259217732;-0.5649407321423989;0.746;0.04164404455100498
01:02.3;0.2954373770392924;-0.23188193515970804;-0.6017602518422035;0.715;0.041224543276321635
01:02.3;0.26937692442870786;-0.22945385480480365;-0.6452920686177107;0.6729999999999999;0.03988522767688439
01:02.3;0.2341890698143475;-0.2287237301984344;-0.6941865273290232;0.727;0.03718382200935375
01:02.3;0.19112465442493767;-0.22910146815997823;-0.7470760951440496;0.809;0.032712175354375705
01:02.3;0.1418034439636962;-0.2300401194560715;-0.8026025160425312;0.9520000000000001;0.026181280276561473
01:02.3;0.08815018750388724;-0.2310429275029898;-0.8594729619279239;0.9520000000000001;0.01750443663854482
01:02.3;0.03232454040896538;-0.23164109369285846;-0.916510535762056;1.008;0.0068625485088886565
01:02.4;-0.023371787708593862;-0.23135826611930485;-0.9726620957352753;0.9740000000000001;0.005259433225841204
01:02.4;-0.07662974978786;-0.2296863034551827;-1.0269534915547756;0.9;0.018075207084455758
01:02.4;-0.12531135793096132;-0.22609771623551536;-1.0784211226726066;0.922;0.030554487075816143
01:02.4;-0.1676420636579972;-0.22011350275991065;-1.1260798716420706;1.158;0.041552664639814614
01:02.4;-0.20236618230263656;-0.21142523492868964;-1.1689814179173044;1.501;0.05001524127495425
01:02.4;-0.2288230116392819;-0.20003673985325307;-1.2063514292483584;1.569;0.055218335131816704
01:02.4;-0.24692943395291098;-0.18636522973308797;-1.237709764649147;1.3530000000000002;0.05695824077165732
01:02.4;-0.2570769487373774;-0.17125203217704205;-1.2628654572501339;1.145;0.05559758848227749
01:02.4;-0.25996386369653557;-0.15587790550509684;-1.281767179377627;1.145;0.051940567645387195
01:02.4;-0.2563994513510302;-0.14162395815844897;-1.29429531979582;1.1320000000000001;0.04699884663251248
01:02.5;-0.24713047092810317;-0.1299328366302213;-1.3001111819787394;1.16;0.04174704213079425
01:02.5;-0.23273669673738745;-0.1222030283286647;-1.2986369966443343;1.226;0.036934702533411544
01:02.5;-0.21362360750285186;-0.11971608561166183;-1.2891861705651657;1.2570000000000001;0.032969881866831495
01:02.5;-0.19011567060508042;-0.12357414949395396;-1.2712250023904574;1.405;0.029865374971107344
01:02.5;-0.16262372195125865;-0.13462128441959115;-1.2447158674994319;1.6440000000000001;0.02725008443283279
01:02.5;-0.13182996333543778;-0.1533361969911733;-1.2104515052121632;1.671;0.02446843618925403
01:02.5;-0.09881829837852556;-0.1797053707227181;-1.1702507659050905;1.465;0.020781522510648024
01:02.6;-0.06508883214901505;-0.21310245075133138;-1.1269010640888828;0.8079999999999999;0.015630782233304785
01:02.6;-0.032436034313136575;-0.25221065532602105;-1.0838404603466143;1.004;0.008866588253606634
01:02.6;-0.002725213656369977;-0.29502726369802657;-1.0447055545985455;1.004;0.0008399561450600366
01:02.6;0.02236372911420275;-0.33897402194030735;-1.0129020474287267;1.004;0.00767853005373949
01:02.6;0.041566218561318195;-0.381114194753014;-0.9912677692473506;1.15;0.015703144492764175
01:02.6;0.05420768082429981;-0.41845964197829977;-0.981806988776443;1.097;0.022271041415579486
01:02.6;0.06030741509472758;-0.44832869568467243;-0.9854555183719579;0.973;0.026644297676656388
01:02.6;0.06059710249604285;-0.46868936918813486;-1.0018745922505832;0.9620000000000001;0.028454458446188165
01:02.6;0.05645016683089322;-0.47842169803033585;-1.0293281850770764;0.934;0.0277990505140876
01:02.6;0.049733916252454755;-0.47746143982462863;-1.0647317604863062;0.925;0.02528314941124057
01:02.6;0.042604935872585625;-0.46681799831313997;-1.103943773512058;1.4240000000000002;0.02195606269944766
01:02.6;0.03727394884181155;-0.4484781588293594;-1.1422997133367268;1.4240000000000002;0.019095312499178844
01:02.6;0.0357709270000432;-0.42521602860964314;-1.1752866819140753;1.4240000000000002;0.017876547072827258
01:02.7;0.03973662553113298;-0.40032700324750026;-1.1992005307085134;1.5630000000000002;0.01907645538860367
01:02.7;0.050253971926635575;-0.3772921088008406;-1.2116596442981307;1.6119999999999999;0.02297358428765387
01:02.7;0.06772309071531613;-0.35937673520315444;-1.21190405647948;1.5290000000000001;0.029495446042526956
01:02.7;0.09178337831904632;-0.3491906984474465;-1.2008319834607002;1.3559999999999999;0.03848654736567813
01:02.7;0.12129261102852315;-0.34827705864820757;-1.1807542834104077;1.172;0.049879115410952315
01:02.7;0.15438284215611325;-0.35682884419663663;-1.1549087679335375;0.981;0.06362190424057469
01:02.7;0.18862086765805505;-0.3736339531843706;-1.1268404100209048;0.866;0.0794142586821548
01:02.7;0.22129306981665126;-0.3963095483810609;-1.0997837637453887;1.203;0.09645164817490758
01:02.7;0.24979341263191207;-0.4218012392653397;-1.0761665717174183;1.203;0.11338832252944925
01:02.7;0.2720348936411336;-0.44701454264733526;-1.0572988411959345;1.203;0.12857129626969627
01:02.8;0.2867820755623266;-0.4693969714978911;-1.043254463908843;1.296;0.14043732173894447
01:02.8;0.2938352825605183;-0.4873370086682264;-1.0329242094377555;1.244;0.14791144932992253
01:02.8;0.2940438923938946;-0.5003277903202774;-1.0242159966277693;1.161;0.15068094794450318
01:02.8;0.28915742895393737;-0.5089047196713095;-1.0143782949472948;1.175;0.14926939790311
01:02.8;0.28154844936072915;-0.5144120909855929;-1.0004151355662285;1.22;0.14489205143324005
01:02.8;0.2738613886515384;-0.5186768395873864;-0.9795477817781131;1.263;0.13914041276941003
01:02.8;0.26864559691389467;-0.5236563920644071;-0.9496618727478591;1.262;0.1335965177625484
01:02.8;0.2680212785325753;-0.5311043439077188;-0.9096702545303191;1.114;0.1294890730465494
01:02.8;0.27341452201065813;-0.5422852356029314;-0.8597356833870962;1.114;0.1274718564281881
01:02.8;0.28538837998280747;-0.5577674810368541;-0.801329229186448;1.114;0.12755587343368313
01:02.9;0.3035904343689192;-0.5773211884469421;-0.7371214434063563;0.996;0.12919467859092598
01:02.9;0.3268280323270111;-0.5999368439422273;-0.6707072782747194;0.91;0.1315097198325466
01:02.9;0.3532650570639443;-0.6239605645447553;-0.6061822463172639;0.877;0.13361679081500233
01:02.9;0.38070877200950926;-0.6473198038587276;-0.5476289113866536;0.8909999999999999;0.1349578483387711
01:02.9;0.40693114692845417;-0.6678000401164222;-0.49861093802318157;0.945;0.13549684242386367
01:02.9;0.4299588459220735;-0.6833304289387415;-0.46177991979362937;1.011;0.13567277028906707
01:02.9;0.4482743191879305;-0.6922386884754117;-0.4386764430210747;1.0390000000000001;0.1361269270808685
01:02.9;0.4608941198294916;-0.6934394670318308;-0.4297582489817043;1.028;0.13735167015872
01:02.9;0.46732602230154346;-0.686533223017979;-0.43462087667921034;1.028;0.13944151955644393
01:02.9;0.4674426003784;-0.6718166941377015;-0.4523114899554627;1.028;0.14204197458281748
01:03.0;0.4613242519234392;-0.6502242909093101;-0.4816169795768056;1.025;0.14446786864246736
01:03.0;0.44911335657300566;-0.6232188457298099;-0.5212446921368004;0.975;0.1458942562317584
01:03.0;0.4309039178964027;-0.5926428260719164;-0.5698668673583545;0.894;0.14552810756616208
01:03.0;0.40668321733236845;-0.5605414966528953;-0.6260395506788141;0.8190000000000001;0.14271374097049289
01:03.0;0.37633795609291065;-0.5289732639036409;-0.6880441526846228;0.743;0.1369708188670101
01:03.0;0.33973020597062825;-0.4998242525029703;-0.7537355852733686;0.696;0.12798836972653935
01:03.0;0.2968401909252068;-0.474645222403084;-0.8204950668198884;0.848;0.11560265015552662
01:03.0;0.24796251255620805;-0.454527484270261;-0.885358441793996;1.26;0.09978501112848376
01:03.0;0.1939223130668942;-0.44002904392516207;-0.9453116494810284;1.26;0.08066481376589188
01:03.0;0.1362509103989764;-0.4311556649422328;-0.997650081233698;1.26;0.0586073050672581
01:03.1;0.07724682873367734;-0.427396470879607;-1.0402710661704022;1.147;0.0343445721224876
01:03.1;0.019863935803935914;-0.4278123949003053;-1.071833667162248;1.182;0.009108483177947255
01:03.1;-0.03258941479822725;-0.43117504005102464;-1.0918004786665898;1.3090000000000002;0.01534169889375804
01:03.1;-0.07690323445206446;-0.43614081112394737;-1.1003987118839427;1.381;0.03690807600856139
01:03.1;-0.11048633600567334;-0.4414228214868116;-1.098509845575645;1.359;0.05357563258807978
01:03.1;-0.13183853427874886;-0.44591857969023496;-1.0874715582493515;1.232;0.06393163943075408
01:03.1;-0.14085100929123906;-0.44877782058620225;-1.068791392680079;1.062;0.0675591685590576
01:03.1;-0.1388402390039245;-0.44942831864293875;-1.0438225410070001;0.941;0.06513320630653162
01:03.1;-0.12829789543321313;-0.4475877709474096;-1.0134957742858384;0.941;0.058199558056342755
01:03.1;-0.11243809841299493;-0.44327162690153116;-0.9782006592563506;0.941;0.04875412617694571
01:03.2;-0.09467438737319496;-0.43678324375254524;-0.9378654301350167;1.0390000000000001;0.03878278572599677
01:03.2;-0.07813316308693119;-0.4286683056550732;-0.8922250134730892;1.1340000000000001;0.029883480310914205
01:03.2;-0.06526603418166133;-0.41962846695883477;-0.8412100175128568;1.137;0.023038627466765656
01:03.2;-0.057605531289155416;-0.41040515808993205;-0.7853491255304585;1.115;0.018566915521476646
01:03.2;-0.05569440561902503;-0.40165690092868744;-0.7260701186285295;1.018;0.01624221931005251
01:03.2;-0.05918772606045336;-0.39385900009328295;-0.6658146925549235;0.868;0.015521218173756797
01:03.2;-0.0670934869225427;-0.387249149381648;-0.6079345141447687;0.747;0.01579529116313741
01:03.2;-0.07809570082242806;-0.3818280190575986;-0.5563924352591539;0.65;0.016591136545250792
01:03.2;-0.09089311886511976;-0.37740717313391714;-0.5153369973088262;0.65;0.01767797350948212
01:03.2;-0.10448487376970436;-0.37368525583670087;-0.48863441152849824;0.614;0.019078465164929115
01:03.3;-0.11834681666343623;-0.3703323972658371;-0.47942619345059756;0.584;0.02101212835686166
01:03.3;-0.13246961287323833;-0.36707015570726764;-0.4897524656024928;0.539;0.023814527778838662
01:03.3;-0.14726077792067982;-0.36374213318085413;-0.5202672649166307;0.507;0.027868089769025887
01:03.3;-0.16333945657292434;-0.3603746153924759;-0.5700766885089318;0.493;0.03355664863520799
01:03.3;-0.18127520257538277;-0.3572275113589212;-0.6367386070170076;0.573;0.04123295691132009
01:03.3;-0.20133930688672938;-0.35483085489673316;-0.7164619754083856;0.7070000000000001;0.05118504541424012
01:03.3;-0.2233420555632125;-0.3539909299499802;-0.8045264683144497;0.865;0.06360671694841363
01:03.3;-0.2466111057171953;-0.3557439993738758;-0.8958992564909629;1.4909999999999999;0.07859761897944782
01:03.3;-0.27011863178034934;-0.36124727754051217;-0.985948651375018;1.4909999999999999;0.09620849507947768
01:03.3;-0.29270562745722306;-0.37162078108229274;-1.071075176032386;1.4909999999999999;0.11650673127998962
01:03.4;-0.3133240460017025;-0.3877699073278396;-1.149076058449222;1.518;0.13961002500943157
01:03.4;-0.33123593432656395;-0.4102193003175853;-1.2191531611447224;1.479;0.16565776739489832
01:03.4;-0.3461349517418084;-0.4389857468657526;-1.28158751294824;1.381;0.1947350571026754
01:03.4;-0.3581645512713515;-0.4735187107338774;-1.3371712593354486;1.214;0.22678105850056604
01:03.4;-0.3678172246481552;-0.5127346605953225;-1.3865280518948613;1.1059999999999999;0.2614889855205692
01:03.4;-0.3757257385225099;-0.5551580109254255;-1.429488449302162;1.09;0.2981729268178391
01:03.4;-0.3823937371979583;-0.599153912280892;-1.4647002437625358;1.263;0.33558143292020803
01:03.4;-0.38794317414956936;-0.6432008083984802;-1.4896125069805655;1.8730000000000002;0.3716961018698345
01:03.4;-0.3919558511080827;-0.6861246317286076;-1.5008558254543867;1.8730000000000002;0.4036260036152391
01:03.4;-0.3934488574475322;-0.7272247908743156;-1.4948896506724325;1.8730000000000002;0.42772644201458965
01:03.5;-0.3909791233851123;-0.7662618320585184;-1.4687091486843393;1.983;0.4400140684740264
01:03.5;-0.38284634915903054;-0.8033230716382733;-1.4204430629581837;1.9180000000000001;0.43685627704907926
01:03.5;-0.36734640995789153;-0.8386170207507567;-1.3497501630905249;1.766;0.4158080195723766
01:03.5;-0.3430168328159847;-0.8722623853422417;-1.2579727357524109;1.6059999999999999;0.37638629897076126
01:03.5;-0.3088324745312572;-0.9041270579452313;-1.1480514659606873;1.5030000000000001;0.32056328901302156
01:03.5;-0.26434587780116847;-0.9337429526043293;-1.0242512472558496;1.439;0.25281706249421615
01:03.5;-0.20978536696358852;-0.9602953243799667;-0.891761636219614;1.3559999999999999;0.17965064926889687
01:03.5;-0.14611160794079295;-0.9826744928053124;-0.7562221828766763;1.085;0.10857849462180852
01:03.5;-0.0750187640096218;-0.9995771496716772;-0.6232250664535006;1.085;0.04673380442096157
01:03.5;0.0011266788171109675;-1.009643253423555;-0.4978756952304964;1.085;0.0005663553437994563
01:03.6;0.07940664684209206;-1.0116145921322852;-0.3844904963256537;1.065;0.03088570734198541
01:03.6;0.15653497563339092;-1.004504775871451;-0.2864542586422958;1.094;0.04504210504404087
01:03.6;0.22910433888945225;-0.9877689746376748;-0.20620735247308183;1.147;0.046665168841540955
01:03.6;0.293869758916893;-0.9614507461172462;-0.1453257382980064;1.178;0.041060522872775236
01:03.6;0.34801624165669803;-0.9262731268597068;-0.10466008898120518;1.16;0.03373802662992794
01:03.6;0.389358455358585;-0.883642889195113;-0.08448886870440382;1.111;0.029068718906076284
01:03.6;0.41644064754931515;-0.8355512049430356;-0.08462952038560927;1.031;0.029447475057191985
01:03.6;0.42853188565407574;-0.7843760353697182;-0.10446152490350967;0.743;0.0351126671470027
01:03.6;0.4255396688551773;-0.7326192230381176;-0.1428506851112864;0.743;0.044534921252366806
01:03.6;0.40788695185923085;-0.6826357971379395;-0.19801246361842337;0.743;0.055134240783778495
01:03.7;0.3764000963018511;-0.6364113701495231;-0.2673847525579569;0.65;0.06405076103748111
01:03.7;0.33223704067218185;-0.5954126935385529;-0.34758273555065866;0.615;0.06875817416344221
01:03.7;0.27686418228358634;-0.5605097713788318;-0.43449207020455083;0.659;0.06742668646322598
01:03.7;0.21207723767022232;-0.5319635821212646;-0.5235289561457697;0.7859999999999999;0.05906315840022213
01:03.7;0.14004906690205268;-0.5094734996367114;-0.6100516700971115;0.958;0.04352797255161343
01:03.7;0.06337456096243671;-0.4922714262382355;-0.6898540782477746;1.122;0.02152171261166753
01:03.7;-0.014923945787080048;-0.4792452370661492;-0.7596279295221176;1.242;0.005433033618275097
01:03.7;-0.09146277146698803;-0.4690796368270713;-0.8172702453199694;0.965;0.03506360982235581
01:03.7;-0.16264735500195535;-0.46041171956265736;-0.8619576829390267;0.965;0.06454748421727427
01:03.7;-0.2248941125201799;-0.45200143756157185;-0.894004613730848;0.965;0.09087777016658061
01:03.8;-0.274903579611213;-0.4429126228176431;-0.914601716116226;0.927;0.1113603185479664
01:03.8;-0.30997975748260226;-0.43269227772070507;-0.9255432349912381;1.082;0.12413927061751412
01:03.8;-0.32839069426466055;-0.4215212659262901;-0.9290146073179586;1.2919999999999998;0.12859760322058006
01:03.8;-0.3297301492558372;-0.41028780321148517;-0.9274621726100927;1.3780000000000001;0.12547103239254354
01:03.8;-0.3151974156604186;-0.4005285822780872;-0.9235092058150555;1.3330000000000002;0.11658894981212842
01:03.8;-0.28769532931323655;-0.39421560398529926;-0.9198429651069276;1.1840000000000002;0.10432305901476985
01:03.8;-0.25166524995749356;-0.3934266064005438;-0.9190120750821428;0.976;0.09099304459098524
01:03.8;-0.2126332558591684;-0.39997925654632044;-0.9231339385834434;0.8170000000000001;0.07851151827077828
01:03.8;-0.17652991743901406;-0.41510562623072583;-0.9335733837583213;0.8170000000000001;0.06841091501511465
01:03.8;-0.14892978682455835;-0.4392079624862022;-0.9506806437339986;0.8170000000000001;0.062185112501655586
01:03.9;-0.1343716951096466;-0.471706449110011;-0.9736625832688252;0.9329999999999999;0.06171462446642071
01:03.9;-0.13585720876550877;-0.5109832463863968;-1.0006219558893157;1.018;0.06946393422901176
01:03.9;-0.154551042143337;-0.5544327551349555;-1.0287564078620426;1.081;0.08815224378542222
01:03.9;-0.18967437673248394;-0.5986292636723046;-1.0546795495587846;1.137;0.11975320183974189
01:03.9;-0.23857758508658253;-0.6396140087287309;-1.074821056494801;1.2790000000000001;0.1640150766660311
01:03.9;-0.29698301223202206;-0.6732822453993574;-1.085872030801937;1.439;0.21712379292776873
01:03.9;-0.3593954406800684;-0.6958211074353402;-1.0852412728086605;1.6030000000000002;0.27139163917381187
01:04.0;-0.4196722101559311;-0.7041268285566586;-1.0714685318656163;1.694;0.3166215895187505
01:04.0;-0.47170550696998553;-0.6961344025674792;-1.044520980086981;1.694;0.3429898047146152
01:04.0;-0.5101112554763844;-0.6710250385169374;-1.005899930209082;1.694;0.344316955771351
01:04.0;-0.5308017117435453;-0.6293106521390476;-0.9585058959598627;1.505;0.3201785152433853
01:04.0;-0.5313645257306543;-0.5728077573945618;-0.9062470263213986;1.2570000000000001;0.2758341557754332
01:04.0;-0.5112266336875743;-0.504515301444568;-0.8534367853473305;1.018;0.220119831700274
01:04.0;-0.4716087643172632;-0.4284156709337259;-0.8041024347810585;0.831;0.1624645428801447
01:04.0;-0.41529482181339544;-0.3492174876389915;-0.7613736941554199;0.701;0.11042066728075825
01:04.0;-0.3462622419771355;-0.2720488499477431;-0.7271068232643397;0.649;0.06849364068196193
01:04.0;-0.2692292784951801;-0.20210370315769413;-0.7018303413120516;0.674;0.038188156887750006
01:04.0;-0.18916917360389612;-0.14425294506722566;-0.6850057336791135;0.831;0.018692580591524344
01:04.0;-0.11083670249431285;-0.10265167933748742;-0.6755116393825409;0.831;0.007685683423961375
01:04.0;-0.03835703830210116;-0.0803888485653722;-0.6722108038469894;0.935;0.002072747321475862
01:04.1;0.025076390757717854;-0.07922013045134016;-0.6744588595927138;1.044;0.001339849584122596
01:04.1;0.07736701389109407;-0.09940499161676795;-0.6824432289168125;1.0859999999999999;0.005248443870637104
01:04.1;0.11753542342631909;-0.13965624209786373;-0.6972681001632339;0.9990000000000001;0.011445345962745483
01:04.1;0.1456051087656863;-0.19721348907303513;-0.720731849612156;0.779;0.020696025174075275
01:04.1;0.16238519473054794;-0.26805758530375473;-0.7548048389457401;0.541;0.032855585223170246
01:04.1;0.16919817954064945;-0.34727586227063845;-0.8009086659300415;0.5;0.04706014675156862
01:04.1;0.16760138961266052;-0.42956094288808544;-0.8591830464338536;0.6559999999999999;0.061856892837234854
01:04.1;0.1591410971151175;-0.5097846169236228;-0.9279528139062106;1.068;0.0752826619386317
01:04.1;0.14516919699100328;-0.5835497419928996;-1.0035489683814218;1.068;0.0850140927958956
01:04.1;0.1267451099209156;-0.6476133709030989;-1.0805233672750483;1.3019999999999998;0.08869133305446662
01:04.2;0.10463478659455455;-0.700111319063828;-1.1521942239951841;1.52;0.08440513830169506
01:04.2;0.07940382396428554;-0.7405790729932008;-1.2114018569386327;1.65;0.07123625644714407
01:04.2;0.051586077283470734;-0.7698118816045197;-1.2513268449705317;1.699;0.04969216012658111
01:04.2;0.021894065812794735;-0.7896188072480038;-1.2662271559294207;1.666;0.02189049218827659
01:04.2;-0.008575139164859294;-0.802516819361438;-1.2519972378608493;1.624;0.008615861138827266
01:04.2;-0.038188502542434895;-0.8113998038023392;-1.206514647523624;1.5930000000000002;0.03738523596735051
01:04.2;-0.06471817931899446;-0.8192096954264826;-1.129778016149444;1.635;0.05989829967786537
01:04.2;-0.08538756241760036;-0.828631052329518;-1.023846393582815;1.128;0.07244203216966498
01:04.2;-0.09700716217327558;-0.8418229962469808;-0.892604223708655;1.128;0.07289261368304538
01:04.2;-0.09617119565057544;-0.8601957251925402;-0.7414230666523063;1.128;0.06133500271011087
01:04.3;-0.07949029228847679;-0.8842379748049016;-0.576813535147596;0.94;0.04054326303125724
01:04.3;-0.04385073306831134;-0.9134056722254228;-0.40611701675038253;0.8759999999999999;0.016266411307614966
01:04.3;0.013297489048510969;-0.946084095515213;-0.23724158970168038;0.888;0.002984627996688863
01:04.3;0.09362376499009008;-0.979632838897999;-0.07844477203899496;0.9179999999999999;0.007194712464628783
01:04.3;0.19759048418096287;-1.010517100485665;0.061843693593480596;0.9470000000000001;0.01234824144020039
01:04.3;0.32416215427576967;-1.0345242703997726;0.17521120586763164;0.98;0.05875771147654881
01:04.3;0.47060779755029214;-1.0470627259229437;0.253555124054478;1.0270000000000001;0.12494077912976082
01:04.3;0.6324416749811941;-1.04353669236084;0.2895582908794277;1.3940000000000001;0.19110154969018506
01:04.3;0.8035087755119059;-1.0197809342821114;0.2773512418526105;1.3940000000000001;0.22726242015642348
01:04.3;0.9761825542632167;-0.9725215745294943;0.2132621795529002;1.3940000000000001;0.2024622830830616
01:04.4;1.1416511028182081;-0.8998147810388176;0.09649881418526336;1.4869999999999999;0.09913077467335657
01:04.4;1.2903243607397454;-0.8014104805738278;-0.07037789641459183;1.5490000000000002;0.0727763375451772
01:04.4;1.4124264615136797;-0.6789886801696208;-0.2812903878510414;1.643;0.26976355189750034
01:04.4;1.4987969046471643;-0.5362203362584888;-0.5268682956713375;1.824;0.42343634651830137
01:04.4;1.5418426252661859;-0.3786203225492978;-0.7950962106516662;2.141;0.4641556620944853
01:04.4;1.5365056919420566;-0.21318615758997664;-1.0723439972723006;2.5669999999999997;0.35125887053667937
01:04.4;1.4810587727783777;-0.04784357003157594;-1.3446371815641769;2.898;0.09527983310940855
01:04.4;1.3775316984352224;0.10925039535914224;-1.598942604036029;2.719;0.24063427853914449
01:04.4;1.2316367794189171;0.2504526713088723;-1.824230892821268;2.719;0.5627145227452003
01:04.4;1.0521855043483277;0.369293477229773;-2.012155650569682;2.568;0.7818537505077352
01:04.5;0.850097927494026;0.46093036319467284;-2.157319807559667;2.491;0.8453154486354758
01:04.5;0.6371611061378533;0.5223569520408167;-2.2571984750245533;2.496;0.7512532863519634
01:04.5;0.4247351861681799;0.5524056541484123;-2.3118099100749068;2.35;0.5424109855756843
01:04.5;0.22263712178266798;0.551613696268109;-2.323213640240154;2.141;0.2853131369091906
01:04.5;0.0383973213057695;0.5220119418640747;-2.29493004094255;2.075;0.04599925704071089
01:04.5;-0.12302442895456707;0.4668715703089553;-2.2314096935863144;2.17;0.12816460459959597
01:04.5;-0.25910451095923087;0.3904200404064965;-2.137665940545126;2.278;0.21624541787978357
01:04.5;-0.3693314131798455;0.29752668705546054;-2.019094522884131;2.154;0.22187012339889967
01:04.5;-0.45464744231292287;0.19337018803008776;-1.8814011665494181;2.154;0.16540387536947043
01:04.5;-0.5168865859941038;0.08312558038358435;-1.7305150810030032;1.8840000000000001;0.07435417182072514
01:04.6;-0.5582917838710678;-0.028283777546909774;-1.5723951718476659;1.569;0.02482906417747025
01:04.6;-0.5811503856629823;-0.1363446179939499;-1.4127085857035153;1.298;0.11193840500250099
01:04.6;-0.5875525414561208;-0.23702738380147217;-1.2564460187325526;1.107;0.17498026369797415
01:04.6;-0.5792571297920992;-0.3268049788352932;-1.1075930663086904;1.046;0.20967192413651767
01:04.6;-0.5576458484601627;-0.40265890410710703;-0.9689696128022264;1.08;0.2175734699942132
01:04.6;-0.5237495176664712;-0.4621043281749159;-0.8422883710271776;1.078;0.20385645934350985
01:04.6;-0.4783308996908226;-0.5032438032553066;-0.7284071627029438;1.024;0.17534003154463054
01:04.6;-0.42200861730343325;-0.5248467700941312;-0.6276974184401972;0.973;0.13902861317173734
01:04.6;-0.3554161205745087;-0.5264459383607473;-0.5404412355741279;0.973;0.1011205399055625
01:04.6;-0.2794015084559847;-0.5084325305861482;-0.46718332200785206;0.973;0.06636657520987128
01:04.7;-0.19526792378133268;-0.4721260992215428;-0.4089744492125905;0.893;0.03770379745684296
01:04.7;-0.10502655889268177;-0.41979711527721436;-0.3674498466821856;0.773;0.016200807318528875
01:04.7;-0.011606761563639476;-0.3546249911976394;-0.34471162612163525;0.63;0.0014188495018380848
01:04.7;0.08104261143029828;-0.2805757495198421;-0.34303426917456764;0.45799999999999996;0.007800116098429387
01:04.7;0.1680203700700325;-0.20218887236237104;-0.36446329841769576;0.28300000000000003;0.012381492197607277
01:04.7;0.2437476115726502;-0.12427820649853168;-0.4104051982615628;0.24600000000000002;0.012432206036688789
01:04.7;0.3024513420991236;-0.0515714268807118;-0.48130664924332783;0.425;0.0075073476068764555
01:04.8;0.33880956053651506;0.011673170435675942;-0.576492884879068;1.035;0.00228001883603771
01:04.8;0.3486611946985181;0.062024554694299995;-0.6941687037868102;1.035;0.015011783719286393
01:04.8;0.3296544112549049;0.09715861235206022;-0.8315035575831325;1.035;0.02663203216993197
01:04.8;0.2817165115082092;0.1160180198722921;-0.984699536162811;1.138;0.03218410853536172
01:04.8;0.2072706528579781;0.11884060575917212;-1.1490058344215293;1.163;0.028302506977523255
01:04.8;0.11116669730629779;0.10706880200691601;-1.3187201972372524;1.187;0.01569604750349979
01:04.8;0.00032657307818166614;0.0831502461031793;-1.4872457216556572;1.308;4.038560999962824e-05
01:04.8;-0.11685600583251872;0.05021787519498953;-1.6472659340157478;1.5390000000000001;0.00966658531160737
01:04.8;-0.2312832029641842;0.011634945591699777;-1.7910776737203635;1.8980000000000001;0.004819731779083114
01:04.8;-0.33399911912539765;-0.029554338841337516;-1.9110722082378604;2.1109999999999998;0.018864429095686825
01:04.8;-0.4170392498195736;-0.07113716525286383;-2.000299339295074;2.281;0.05934286055857369
01:04.8;-0.47420868115994486;-0.11203967677075108;-2.0530297512227187;2.281;0.10907785533615531
01:04.8;-0.5016878315235357;-0.15233057170305614;-2.065256999160177;2.4419999999999997;0.1578318844985286
01:04.9;-0.4983548000210957;-0.192938840753644;-2.035110067379964;2.504;0.19567989790760365
01:04.9;-0.46575466245653796;-0.23518992173984113;-1.9631390270390079;2.403;0.21504382466299102
01:04.9;-0.4077166847833479;-0.2802986178110969;-1.8524054252144382;2.158;0.2116973807484362
01:04.9;-0.3296905440713001;-0.3289469243794785;-1.708308230737197;1.855;0.1852672071577537
01:04.9;-0.23792905440680126;-0.3810265381794171;-1.5381267992039163;1.541;0.13944239796027158
01:04.9;-0.13866917324281203;-0.4355632650969819;-1.35033449472066;1.261;0.08155912033183489
01:04.9;-0.03744371417835066;-0.49079749059384487;-1.1537908200185198;1.058;0.02120353806537352
01:04.9;0.06139017641036;-0.5443793414119366;-0.9569420621554261;0.856;0.03198056716355209
01:04.9;0.15486671894864115;-0.5936326354764423;-0.7671590172136076;0.856;0.07052794992133267
01:04.9;0.24137165862918591;-0.6358412612091923;-0.5903169892182333;0.8270000000000001;0.09059834492958106
01:05.0;0.3203860403538896;-0.6685235596517117;-0.430665208251211;0.831;0.09224229298800309
01:05.0;0.3920914895905337;-0.6896791145294469;-0.290954637033396;0.8640000000000001;0.0786791706729372
01:05.0;0.4569394789643042;-0.6979983709989269;-0.17274099723724975;0.893;0.05509453394819953
01:05.0;0.5152830001526962;-0.6930162209462856;-0.0767719908943699;0.912;0.027415237833761777
01:05.0;0.5671364449297175;-0.6751833643208581;-0.0033821506116123276;0.9259999999999999;0.0012950968086071996
01:05.0;0.612083544075771;-0.6458358234858789;0.04716575953360689;0.927;0.018644883199277897
01:05.0;0.6493124246772003;-0.6070611331436813;0.0744428014222622;0.907;0.029343292956497218
01:05.0;0.6777336165372267;-0.5614819525908749;0.07775814176102794;0.826;0.029589709587311858
01:05.0;0.6961356544477806;-0.5119978190412043;0.056223254081888024;0.826;0.02003908866847325
01:05.0;0.7033491539811471;-0.46153374622139226;0.008961857323227409;0.826;0.0029091924777454015
01:05.1;0.6984104537414711;-0.41282904207499826;-0.06457755230610635;0.8320000000000001;0.018619265849568026
01:05.1;0.6807255907197609;-0.36826891688662666;-0.16426957233386635;0.82;0.0411807515714477
01:05.1;0.6502295946251377;-0.32974306019278765;-0.2890022250119299;0.7829999999999999;0.06196459030983419
01:05.1;0.6075230309352131;-0.2985233042239073;-0.4364998376636291;0.779;0.07916351565789417
01:05.1;0.5539601980654705;-0.2751747456047095;-0.6033376994730354;0.9209999999999999;0.09197029902485163
01:05.1;0.4916665642674481;-0.25953532882368147;-0.7851381362349185;1.117;0.10018742894420667
01:05.1;0.4234721520712756;-0.25080644857581363;-0.9768671581906821;1.249;0.10375261789319508
01:05.1;0.35275801612726876;-0.24777671925140865;-1.173121571966129;1.419;0.10253695368971022
01:05.1;0.28322724702559393;-0.2491454986318442;-1.3683233158061043;1.419;0.09655545247603373
01:05.1;0.21862833402597637;-0.25385110172603004;-1.5568024002462595;1.4680000000000002;0.08640104407148834
01:05.2;0.1624653439594814;-0.2612928151358284;-1.7328196261870115;1.591;0.07355997288500246
01:05.2;0.11772403393003641;-0.2713766884848592;-1.8906229938025572;1.7519999999999998;0.06040078866383534
01:05.2;0.08663610256128537;-0.2843737505280213;-2.024624751282319;2.011;0.04988074765318113
01:05.2;0.07049971919778099;-0.3006312060205011;-2.129731905311515;2.295;0.045138423131671115
01:05.2;0.06957349910415295;-0.3202249208368088;-2.201786578261131;2.52;0.04905397361218674
01:05.2;0.08306165924955422;-0.342671392656817;-2.238005075072109;2.622;0.06370001271334075
01:05.2;0.10920247081539126;-0.3668027919685341;-2.237275706644969;2.552;0.08961580378301347
01:05.2;0.14545626052017935;-0.39084648558417256;-2.200207666607714;2.074;0.1250841561756458
01:05.2;0.18876587034989406;-0.41266773723279027;-2.1289207194189603;2.074;0.16583778181371556
01:05.2;0.23584097317860958;-0.4300748088401737;-2.026683726452079;1.936;0.20556503357988298
01:05.3;0.2834145741213508;-0.44108236709903237;-1.8975615163105115;1.9040000000000001;0.23721259250017246
01:05.3;0.32843871924434404;-0.44407203136340906;-1.7461793773288112;1.8869999999999998;0.25468104662521285
01:05.3;0.36821008725201476;-0.4378418963185611;-1.5776197922916249;1.8230000000000002;0.2543403966396896
01:05.3;0.40043223516856685;-0.4215773345614782;-1.3973904950772176;1.649;0.23589789736743158
01:05.3;0.4232290298744993;-0.3947949419610091;-1.2113715640558298;1.4180000000000001;0.2024064759734914
01:05.3;0.43512494607885566;-0.35730683484667264;-1.0256686180528256;1.173;0.15946389731034158
01:05.3;0.435005758477943;-0.3092309903165298;-0.8463525051749383;0.955;0.11384902124924114
01:05.3;0.42207242606846646;-0.25104901937730817;-0.6791210153978879;0.541;0.07196025272408119
01:05.3;0.39580493850138837;-0.18369700918329368;-0.5289595178322621;0.541;0.03845968564572183
01:05.3;0.3559575873588459;-0.10866869667852132;-0.39989502281019174;0.541;0.01546851816683333
01:05.4;0.3026011842822843;-0.028102866413099344;-0.2949073751308963;0.444;0.0025078807159647134
01:05.4;0.23620936220245733;0.05518384265511504;-0.21598933632830217;0.376;0.002815408099604505
01:05.4;0.1577691194415572;0.13775628906357884;-0.16429260984586164;0.33299999999999996;0.0035706843926074693
01:05.4;0.0688892947931978;0.2157279952052198;-0.14029126783777293;0.34;0.002084917557079994
01:05.4;-0.028120769349023585;0.28502213304360147;-0.14391399689743922;0.369;0.0011534766809766146
01:05.4;-0.13023304882308165;0.34169176049265454;-0.17462128982386754;0.424;0.007770570516067896
01:05.4;-0.23377625230600635;0.3822583798702156;-0.2314309051498816;0.52;0.020681344114316352
01:05.4;-0.33462862195764664;0.4040311274590356;-0.3129107948081116;0.897;0.04230565817941974
01:05.4;-0.42851822643526155;0.40537381725330174;-0.41714180528429445;0.897;0.0724617318674357
01:05.4;-0.5113752970786466;0.3858894076346382;-0.5416151480536223;1.048;0.10687925178054604
01:05.5;-0.5796606547885989;0.34649257780313863;-0.6830238215127341;1.1159999999999999;0.13718404672905882
01:05.5;-0.6306063169540759;0.28934194713586464;-0.8369593641594021;1.075;0.15271232505460355
01:05.5;-0.6623227227768695;0.21760658598747376;-0.9976034937473518;0.922;0.14378038817682665
01:05.5;-0.6737524917965912;0.13506054150997834;-1.1575643478437354;0.818;0.10533531865145566
01:05.5;-0.6645036659842978;0.04555056866663603;-1.3080194300890928;1.145;0.03959181210561478
01:05.5;-0.6346559868546537;-0.04754482470504466;-1.4392691226638974;1.6;0.04342938106908469
01:05.5;-0.5846498496380794;-0.14170517865764515;-1.5416794006046655;2.051;0.12772491838099156
01:05.5;-0.5153163530379385;-0.2353887586021745;-1.6068470575473421;2.335;0.19491002847275316
01:05.5;-0.4280204592770626;-0.327880519208437;-1.628722319383069;2.335;0.22857419063502954
01:05.5;-0.32482267601721576;-0.41897597174544404;-1.60442210966255;2.074;0.21835045183869167
01:05.6;-0.20855365122680566;-0.5086479200647986;-1.5345691271807491;1.712;0.16278767755700288
01:05.6;-0.0827415485863301;-0.5967989395226424;-1.4231512688949488;1.46;0.07027530707385124
01:05.6;0.04859655129099253;-0.6831280590115822;-1.2770328352205471;1.3840000000000001;0.0423945117798011
01:05.6;0.18123488445288766;-0.7670900776517671;-1.1052980656888296;1.3559999999999999;0.15366238528473602
01:05.6;0.3110179629988389;-0.8479132239165036;-0.9185630023223942;1.339;0.24223998457635906
01:05.6;0.434091377141298;-0.9246482431243886;-0.7283062634721992;1.305;0.29232890027151676
01:05.6;0.5470688613205162;-0.9962320236822899;-0.5462075594899453;1.28;0.2976872267511894
01:05.6;0.6471363996434053;-1.0615537941358864;-0.3834775638671719;1.3559999999999999;0.2634376205375162
01:05.6;0.7320937559444318;-1.1195118114052567;-0.25020578963249707;1.3559999999999999;0.2050655643413671
01:05.6;0.8003294658494012;-1.1690502273755452;-0.15479899305777123;1.4;0.1448338611346471
01:05.7;0.8507326598248701;-1.2091759625929335;-0.10357935686342812;1.464;0.1065505807286571
01:05.7;0.8825620162969424;-1.2389670137823134;-0.10056124356597336;1.517;0.109960222903513
01:05.7;0.895301447277611;-1.2575829755404038;-0.14737866789898396;1.5219999999999998;0.1659359793291414
01:05.7;0.8885294083887431;-1.2642786747189128;-0.24331974055861058;1.4769999999999999;0.2733329344087741
01:05.7;0.8618263611526027;-1.258419251270251;-0.38542566038561826;1.4909999999999999;0.4180091156283853
01:05.7;0.814749244679434;-1.2395027764727;-0.5686170991447508;1.482;0.5742372826388256
01:05.7;0.7469022743126645;-1.2072010536373503;-0.7858275943377232;1.51;0.7085502615378113
01:05.8;0.6581162004311729;-1.1614230434820518;-1.028160487393519;1.7180000000000002;0.7858758261939212
01:05.8;0.5487183185564135;-1.1023965311418589;-1.2851126136312048;1.7180000000000002;0.7773712652393354
01:05.8;0.41985090611896503;-1.0307598780026457;-1.5448934612169891;1.7180000000000002;0.6685765429440268
01:05.8;0.2737786853357273;-0.9476497807479657;-1.7948577479384635;2.035;0.46566922170908703
01:05.8;0.11411103824364048;-0.8547576166788193;-2.0220918001791968;2.342;0.19722933225134728
01:05.8;-0.0541352873653451;-0.7543200477416142;-2.2141737359969906;2.602;0.09041652083276493
01:05.8;-0.224682481116542;-0.64902132498739;-2.3600332087527622;2.766;0.34414882558979837
01:05.8;-0.39035884863974435;-0.5418107520784909;-2.450762367611037;2.7880000000000003;0.5183377635603251
01:05.8;-0.5436569320493885;-0.4356726844000845;-2.480241587087866;2.7760000000000002;0.5874612794131374
01:05.8;-0.6774106571940204;-0.33341376713663534;-2.4455096048734553;2.779;0.5523380039901009
01:05.8;-0.785494043575225;-0.23752251016316647;-2.346875879400377;2.616;0.43786253978475587
01:05.8;-0.8634430093761462;-0.15010756477187048;-2.1878165570575514;2.616;0.28356143255896854
01:05.8;-0.9089158564667248;-0.07287820633901451;-1.974706203367669;2.3930000000000002;0.1308048495963092
01:05.9;-0.9219332300181999;-0.007126893073050162;-1.7164213396042827;2.06;0.011277779969334281
01:05.9;-0.9048710981350271;0.046302149470950564;-1.423837150499147;1.768;0.05965518403382464
01:05.9;-0.862209169483866;0.08704872028807088;-1.1092482722686114;1.511;0.08325374702775047
01:05.9;-0.8000596146335817;0.11525467861149992;-0.7857557446585697;1.17;0.07245501947619613
01:05.9;-0.7255227618033654;0.13154162341299008;-0.46664780677393075;0.7609999999999999;0.044535206303931506
01:05.9;-0.6459423098968886;0.13693305110808024;-0.16478095749766597;0.408;0.014575015974297268
01:05.9;-0.5681609227056738;0.13272380276344295;0.1080327540501031;0.35600000000000004;0.008146585583327601
01:06.0;-0.49789029554293474;0.12032240510515928;0.3416066364590944;0.8009999999999999;0.02046475101027406
01:06.0;-0.43928865606034473;0.10110298195981639;0.5278716547139084;0.8009999999999999;0.023444571290697783
01:06.0;-0.39479010757621763;0.07629694238202395;0.6611985518842844;0.8009999999999999;0.01991614545449828
01:06.0;-0.3651809405126095;0.04693882634698801;0.7384916097299438;0.8029999999999999;0.012658606350314568
01:06.0;-0.3498840814125591;0.013865462091450509;0.759071269272993;0.843;0.0036824858395683637
01:06.0;-0.34738871167482327;-0.022241430403332103;0.7244247154884476;0.85;0.005597210953051511
01:06.0;-0.35573880675421454;-0.06078415904925437;0.6379082697305527;0.7979999999999999;0.013793671816127315
01:06.0;-0.37297982115300227;-0.10117034229298377;0.5044601716762783;0.722;0.01903555041826836
01:06.0;-0.39747508035479817;-0.14275020599787916;0.33035884823795436;0.642;0.018744445291172425
01:06.0;-0.42804580539404075;-0.18478671568630217;0.12303660036178127;0.57;0.009731847946024245
01:06.0;-0.46394074590535705;-0.22646222501825664;-0.10907114441479414;0.5539999999999999;0.011459565633538176
01:06.0;-0.5046788144163261;-0.26691516515398994;-0.35667328953768535;0.5539999999999999;0.048046185188848414
01:06.1;-0.5498244981586933;-0.30529757991865264;-0.60979078238226;0.639;0.10235953479951572
01:06.1;-0.5987596277793668;-0.3408474379834181;-0.8579749387200941;0.848;0.1751004031643199
01:06.1;-0.6505115636174792;-0.372972440932033;-1.090634964447879;1.141;0.2646130023599327
01:06.1;-0.7036829262699099;-0.4013375272166376;-1.297534266705089;1.476;0.3664423167416968
01:06.1;-0.7564992627103775;-0.4259369201615458;-1.469467447563819;1.883;0.47349322055264165
01:06.1;-0.8069578610914105;-0.44712020154096205;-1.599060044501575;2.262;0.5769523157026981
01:06.1;-0.8530346581892729;-0.4655395498660167;-1.6815642578314238;2.544;0.667785103147446
01:06.1;-0.8928883925267982;-0.48200255447803586;-1.715470784248451;2.688;0.7382948571247951
01:06.1;-0.9249947476873599;-0.4972531526031748;-1.7027462999870882;2.28;0.7831893212086497
01:06.1;-0.9481623397048489;-0.511745097295;-1.6485721761397336;1.857;0.7999159524708914
01:06.2;-0.9614314904015112;-0.5254917758718004;-1.5606034373747808;1.857;0.788454843631624
01:06.2;-0.9639082669295727;-0.5380586975941962;-1.447908913017549;1.4869999999999999;0.7509423589858368
01:06.2;-0.9546068573543705;-0.5487214782389815;-1.3198044899161403;1.2930000000000001;0.6913311266145635
01:06.2;-0.9323651551382707;-0.5567605403187779;-1.1847724758946743;1.296;0.6150202824435924
01:06.2;-0.8958817827174073;-0.5618093198283366;-1.0496385254061873;1.341;0.5282985362554251
01:06.2;-0.8438953349057183;-0.5641349779804848;-0.919140005025906;1.375;0.43757578752005866
01:06.2;-0.7754748884862305;-0.5647510631492455;-0.7959300069470631;1.456;0.3485777596273683
01:06.2;-0.6903281807189583;-0.5653420948296465;-0.6809465538952684;1.4340000000000002;0.2657540873532438
01:06.3;-0.5890078890155925;-0.5680570044941207;-0.5739933922044325;0.917;0.19205248184836812
01:06.3;-0.4729508699781872;-0.5752467943815014;-0.4743684246994243;0.917;0.12905832056206246
01:06.3;-0.3443898649000851;-0.5891937705553136;-0.3814340807756187;0.917;0.07739769067474936
01:06.3;-0.20622800775518677;-0.6118495471495153;-0.29508608713318973;0.772;0.03723411389923642
01:06.3;-0.06192150592768368;-0.6445905919647728;-0.21609274504985393;0.6659999999999999;0.008625130182625304
01:06.3;0.08464301883579643;-0.6880091891054142;-0.1462733193602861;0.64;0.008518252314596532
01:06.3;0.22929572440203988;-0.7417684319311111;-0.08849963829442746;0.7090000000000001;0.015052401679081584
01:06.3;0.36775399569119865;-0.8045489690054226;-0.0465291094501385;0.82;0.013766851351289765
01:06.3;0.4958054427859566;-0.8741005422514793;-0.024690611886066444;0.98;0.010700511361292504
01:06.3;0.6094939842667635;-0.9473917640997928;-0.027447387005233893;1.121;0.015848933176953274
01:06.4;0.7053001812165748;-1.0208356813120858;-0.05886025142119974;1.401;0.042379121509696076
01:06.4;0.7803007074791126;-1.0905562455370308;-0.12198191726140607;1.401;0.10380195309251129
01:06.4;0.8322849665198337;-1.152654419724258;-0.21823794186435042;1.401;0.20936372045941734
01:06.4;0.8598157944624855;-1.2034455768382866;-0.34687962463435185;1.473;0.35893074822713833
01:06.4;0.8622430368323036;-1.239669498158288;-0.5046117251928497;1.555;0.5393776528032292
01:06.4;0.8396868615454413;-1.25869035101269;-0.6855035337292084;1.617;0.7245126267860429
01:06.4;0.79299430585419;-1.2586895592150116;-0.8812810241926848;1.702;0.8796362482575542
01:06.4;0.7236631308935483;-1.238828220158027;-1.082046907709053;1.915;0.9700488942250126
01:06.4;0.6337410845800755;-1.1993417179163433;-1.2773693962700556;2.378;0.9708928664440981
01:06.4;0.5257335720358738;-1.1415300156285633;-1.4575408120740307;2.661;0.8747294942987448
01:06.5;0.40255956234076595;-1.0676166965205378;-1.6147054922721094;2.226;0.6939670124817766
01:06.5;0.26757285538063036;-0.9804814353389857;-1.7435836042213149;2.226;0.4574295374505352
01:06.5;0.12462845307808011;-0.8833262920549609;-1.8416796497959376;2.226;0.20274607298626493
01:06.5;-0.021862059571642185;-0.779361844030264;-1.9090404398068321;2.079;0.03252709974529354
01:06.5;-0.166962157776977;-0.6715630301041232;-1.9477037555650656;2.013;0.21838747673546519
01:06.5;-0.30538603432240774;-0.5625077184845958;-1.9609685945605722;1.94;0.3368591099027451
01:06.5;-0.43181766401207144;-0.45432030670264417;-1.9525900243475238;1.805;0.3830660105579752
01:06.5;-0.5413174943468829;-0.34875200427827446;-1.9259924178486345;1.6769999999999998;0.36359955928631466
01:06.5;-0.6297423272193953;-0.24738621714031053;-1.8836106550553908;1.681;0.29344689796150486
01:06.5;-0.6941158076269619;-0.15187623414254509;-1.8264897059487588;1.7530000000000001;0.19254798757781993
01:06.6;-0.7329044897884176;-0.06406937316305569;-1.75425470655002;1.901;0.08237406679799608
01:06.6;-0.7461651553928975;0.014081213124268025;-1.6654817647650193;1.901;0.01749906797332445
01:06.6;-0.7355392003094213;0.08078098460228011;-1.5583885548735301;1.901;0.09259567789969705
01:06.6;-0.7040857093137848;0.13470318321933678;-1.4316903400841965;2.003;0.13578521463976856
01:06.6;-0.655964102997567;0.17523102369585003;-1.2854515975018272;1.935;0.147756569732491
01:06.6;-0.5960031543336801;0.20257844260913516;-1.1217675927302715;1.7109999999999999;0.13543929222469608
01:06.6;-0.5292248949050555;0.2177611461292765;-0.9451226594326222;1.4240000000000002;0.10892030143222595
01:06.6;-0.46040640418121026;0.22241713083189504;-0.7623235764183168;1.062;0.07806366579339465
01:06.6;-0.3937418110918852;0.21852438135561844;-0.5819972076414804;0.664;0.05007631180669826
01:06.6;-0.3326286994685853;0.20810095854644245;-0.41373342734998036;0.34700000000000003;0.02863877314412569
01:06.7;-0.2795752449996182;0.19297340840195804;-0.26702271137303274;0.395;0.014406032269875678
01:06.7;-0.23620947846106713;0.17466037653814528;-0.1501794201711952;0.395;0.006195867704374079
01:06.7;-0.20335902775099984;0.154359164996939;-0.06944410507283805;0.395;0.0021798733552240504
01:06.7;-0.181159894506537;0.1329830822739489;-0.02839957159536542;0.368;0.0006841797920454092
01:06.7;-0.1691560721433593;0.11119589534267983;-0.027735217805227228;0.278;0.0005216844947115166
01:06.7;-0.16636885624966083;0.0894082744160311;-0.06531355291842648;0.184;0.00097152292501173
01:06.7;-0.17133562946514677;0.06772375525779745;-0.13646342218356586;0.138;0.0015834522599193896
01:06.7;-0.18213370581591165;0.04584944788707159;-0.2344333890854057;0.138;0.001957689900842479
01:06.7;-0.19641462999815998;0.023013206975747956;-0.3509712116755382;0.215;0.0015864356901732258
01:06.7;-0.21147930450238478;-0.0020596601458960605;-0.4770362876163772;0.316;0.00020778531719035776
01:06.8;-0.22441920673742757;-0.031067497843520225;-0.6036642723522636;1.222;0.00420883376445778
01:06.8;-0.23232843390990776;-0.06593883856685465;-0.7229400608519037;1.222;0.011075056476101486
01:06.8;-0.23256493374050943;-0.10854898003221501;-0.8289174104022768;1.222;0.020925760034658347
01:06.8;-0.22302670890425985;-0.1603948411008274;-0.9182717302965104;1.4480000000000002;0.03284872261279082
01:06.8;-0.20241211212967106;-0.22228042620889513;-0.9905474825683103;1.449;0.04456696052137307
01:06.8;-0.17043487507210422;-0.29406051200514005;-1.0479661732062011;1.263;0.052522143288454254
01:06.8;-0.12795976698046985;-0.374483184780185;-1.094823972956057;1.052;0.052462630262141687
01:06.8;-0.07702632462831505;-0.4611604937089802;-1.136571997537405;0.96;0.0403727398171111
01:06.8;-0.020737309440791;-0.5506827454966673;-1.1787458561109396;0.9940000000000001;0.013460898706538986
01:06.8;0.03700269237231635;-0.6388796734890115;-1.2259362360513195;1.08;0.028981461196957915
01:06.8;0.09189743654361796;-0.7212138759700092;-1.280951413661173;1.3430000000000002;0.0848985217090047
01:06.8;0.13977700450471411;-0.7932582169588859;-1.34426005386012;1.3430000000000002;0.14905055647779947
01:06.9;0.1771314963976903;-0.8511746353312423;-1.4137608259049506;1.514;0.21315248906941173
01:06.9;0.20155233644365306;-0.8921128041328552;-1.484903536097173;1.685;0.2669966738402551
01:06.9;0.2120096328894765;-0.9144851864756128;-1.5511555472764214;1.895;0.3007375235577989
01:06.9;0.20894771296964798;-0.9181098234482002;-1.6047536585473972;2.041;0.3078510439300725
01:06.9;0.1942156081833586;-0.9042183369776282;-1.6376294819094233;2.161;0.2875895408261466
01:06.9;0.17085611828366476;-0.8753164111209459;-1.6423768722526768;2.167;0.24562265817600892
01:06.9;0.14276695540969073;-0.8348840977646842;-1.6131426910852915;2.095;0.19227670530373228
01:06.9;0.11424440525045022;-0.7869356263429874;-1.5463438375748495;2.005;0.13902093858955514
01:07.0;0.08944056658463752;-0.7355166396198266;-1.4411361061242602;1.57;0.09480517474100177
01:07.0;0.07180362920481527;-0.6842546008230899;-1.2996029607254405;1.57;0.06385204541174605
01:07.0;0.06360388270718274;-0.6360551816050806;-1.1266912304996182;1.57;0.04558094627123397
01:07.0;0.0656469368463612;-0.59297289882476;-0.9299401057931967;1.261;0.03619964313682998
01:07.0;0.07723339600226672;-0.5562296866517454;-0.7190143601639839;0.929;0.03088850291123875
01:07.0;0.09636772513854788;-0.5263328779413152;-0.5050402816476545;0.6779999999999999;0.025616401712655532
01:07.0;0.12016932217171843;-0.5032447748851684;-0.2997949696479165;0.5920000000000001;0.018129975920179002
01:07.0;0.14539937718585302;-0.4865667555343286;-0.11485418330471729;0.632;0.00812553184831227
01:07.0;0.16899741286442382;-0.475712294999057;0.039194736517476104;0.713;0.0031510274140190146
01:07.0;0.18852725136671464;-0.47005002563783727;0.15340538810115242;0.768;0.013594361993153094
01:07.1;0.20245551501862616;-0.46900222075636405;0.22096201263041138;0.644;0.020980804058742388
01:07.1;0.2102246422128196;-0.47209093793869855;0.2375111732517894;0.644;0.023571831664551655
01:07.1;0.21213347673646413;-0.47893369170891303;0.20136387706592795;0.644;0.020458140833367024
01:07.1;0.2090755082158075;-0.4891978265655307;0.11360130852119144;0.59;0.0116190605205552
01:07.1;0.20219232748717222;-0.5025250792433114;-0.021905543450473196;0.545;0.0022257503188986135
01:07.1;0.19250177822310824;-0.518438881359644;-0.1985909898724002;0.493;0.019819461528762048
01:07.1;0.18057347927236045;-0.5362500403425196;-0.4074622106284503;0.501;0.03945559899375761
01:07.1;0.16633103530851587;-0.5549802464392891;-0.6375953530256341;0.6940000000000001;0.0588567069204922
01:07.1;0.1490435409000759;-0.573325151264261;-0.8768786484657481;1.034;0.07492964058539037
01:07.1;0.12752877600116977;-0.5896780376139035;-1.112960576519619;1.401;0.08369565746574184
01:07.2;0.10053277623058815;-0.6022291787565159;-1.3342950587905145;2.23;0.08078325484271458
01:07.2;0.06718999277099441;-0.6091405105937704;-1.5311088455009416;2.23;0.06266544714118445
01:07.2;0.027430069173946803;-0.6087712238336446;-1.6960734426091948;2.23;0.02832211437180243
01:07.2;-0.017796498806868937;-0.5999127541555164;-1.8245127183747716;1.9809999999999999;0.019479130182206886
01:07.2;-0.06654872042312293;-0.5819909005991144;-1.9141386088570134;1.659;0.07413602341347733
01:07.2;-0.11617631218405006;-0.5551962974092877;-1.9644925521553822;1.7409999999999999;0.12671106297943954
01:07.2;-0.16376946203468748;-0.5205045795244414;-1.9763645806202177;1.935;0.16847076168768851
01:07.2;-0.20665184849435425;-0.4795562222728224;-1.9514119021196001;2.088;0.1933872217556138
01:07.2;-0.24279501899067213;-0.43440187308543304;-1.8920402262490208;2.146;0.199554638747047
01:07.2;-0.2710680518107323;-0.38718147358994137;-1.8014530689000694;2.075;0.1890670531918684
01:07.3;-0.29128881520714445;-0.3398472327673588;-1.683713304257065;1.6540000000000001;0.16667700599691215
01:07.3;-0.30410306838058343;-0.29401179060933846;-1.5437100072294967;1.6540000000000001;0.13802293833275223
01:07.3;-0.3107636471478592;-0.250927709671448;-1.3870172632973254;1.456;0.10815851076446956
01:07.3;-0.3128874896144608;-0.21154958996523374;-1.2196855741138053;1.306;0.08073247632944373
01:07.3;-0.3122359086675986;-0.17662108279449956;-1.0479987393542287;1.13;0.05779445208006071
01:07.3;-0.31052665570862525;-0.14674502468396047;-0.8782068890887217;0.9079999999999999;0.04001834383464889
01:07.3;-0.3092722064141002;-0.12241377493205566;-0.7162443995448499;0.6759999999999999;0.027116424406337863
01:07.3;-0.30964687028011045;-0.10399276146988472;-0.5674544247674629;0.493;0.01827261872655868
01:07.3;-0.3123984883955033;-0.0916649130067567;-0.4363562086064464;0.41;0.012495487776949652
01:07.3;-0.31782276360576983;-0.0853579627083316;-0.3264935391416729;0.406;0.008857346451904061
01:07.4;-0.32580481005938794;-0.08468714272599732;-0.24038389768763577;0.44;0.006632547132851329
01:07.4;-0.3359104592027651;-0.08894460330693608;-0.17955709731227718;0.44;0.00536470326653393
01:07.4;-0.3474943403352565;-0.09715091281207737;-0.1446470879118127;0.44;0.004883197794633208
01:07.4;-0.3597947149315616;-0.10816490846345735;-0.13549065038051564;0.433;0.005272911645381287
01:07.4;-0.37200210289668173;-0.12083659741413397;-0.15119532465572055;0.436;0.0067964518501641815
01:07.4;-0.38330426806446943;-0.13417738052624012;-0.19016742723271443;0.45899999999999996;0.009780455810613575
01:07.4;-0.3929155336100368;-0.1475100547741719;-0.2501282655405263;0.486;0.014497182112532295
01:07.4;-0.400096309961429;-0.1605608385992421;-0.3281700568581541;0.495;0.021081578506095676
01:07.4;-0.4041657692696228;-0.17347129419371926;-0.4209013341823092;0.525;0.02950988039110637
01:07.4;-0.4045125408345742;-0.18672824118569628;-0.5247120172735764;0.655;0.039633553063126555
01:07.5;-0.40061458873108097;-0.2010267567050565;-0.6361534455737552;1.094;0.05123214155383421
01:07.5;-0.3920829898578173;-0.2170931143067536;-0.7523703866627536;1.094;0.06404065179944672
01:07.5;-0.37873955246325314;-0.2354974613997418;-0.8714618003462524;1.291;0.07772759792241862
01:07.5;-0.3607231413330083;-0.2564820887878559;-0.9926387085078566;1.4;0.09183796525335612
01:07.5;-0.33859493183779077;-0.27983005406461453;-1.1160996474020486;1.43;0.10574936799519709
01:07.5;-0.3133882238137208;-0.304804704385323;-1.2426085393537627;1.411;0.1186967075282396
01:07.5;-0.28654182442712295;-0.3301953634010623;-1.3728126783137953;1.295;0.12988837207451825
01:07.5;-0.2596805902668128;-0.35449435304983695;-1.5063944894811934;1.0959999999999999;0.13867160093508868
01:07.5;-0.23426108090893885;-0.37619533201516464;-1.641217143927222;1.0170000000000001;0.1446370615505294
01:07.5;-0.21116535343029097;-0.3941504876077489;-1.7726888980786193;1.095;0.1475425403058758
01:07.6;-0.1903691401326254;-0.40788495034984684;-1.893591510267506;1.801;0.1470349328718755
01:07.6;-0.1708022626626894;-0.41776938040162215;-1.9945315796351013;1.801;0.14232170652766815
01:07.6;-0.1504578140049985;-0.42499467490212833;-2.0649905774253954;2.312;0.13204328201785756
01:07.6;-0.12672731259369335;-0.43135275060953493;-2.0947809847493195;2.7089999999999996;0.11450947405346792
01:07.6;-0.09687999853954456;-0.4388830606332733;-2.075630992896201;2.821;0.08825373399766943
01:07.6;-0.0585783327463879;-0.44947841398518096;-2.002594058633083;2.758;0.05272769296895145
01:07.6;-0.01032625655682785;-0.46454194424894274;-1.8750114647900735;2.475;0.008994391179589766
01:07.6;0.04822474250247262;-0.4847557945441663;-1.696863653029571;2.16;0.03966796064271695
01:07.6;0.11614804294532002;-0.5099836777363177;-1.4764841271359082;1.818;0.08745747920429221
01:07.6;0.1912971891303119;-0.5393010863770273;-1.2257126065646573;1.501;0.1264528251766398
01:07.7;0.2705294675768608;-0.5711324171067728;-0.958623214809607;0.794;0.14811509823620267
01:07.7;0.3500605473106194;-0.603464855266379;-0.6900311375147397;0.794;0.14576855166316488
01:07.7;0.4258795710831158;-0.6340977423668356;-0.434062777133578;0.794;0.11721833807145933
01:07.7;0.494145516236863;-0.6608860437824288;-0.2030565921832423;0.937;0.06631297821014899
01:07.7;0.5515188115236372;-0.6819550511705751;-0.006901810217003768;1.067;0.0025958470140042514
01:07.7;0.5954099139266722;-0.6958794544398408;0.14723041332605938;1.102;0.061002496298330704
01:07.7;0.6241229135629075;-0.7018182683281927;0.2548505616991732;1.082;0.111629862823863
01:07.7;0.6368734915265366;-0.6995914314545377;0.31389470963111643;1.043;0.1398561763498821
01:07.7;0.6336870375651725;-0.6896871649507652;0.324348646192045;0.982;0.1417552188746554
01:07.7;0.6152114801699611;-0.6731978731558742;0.28785935885657676;0.922;0.1192195614737943
01:07.8;0.5824923145963481;-0.6516909032495122;0.2074228266995542;0.775;0.07873873023051386
01:07.8;0.5367595158691134;-0.6270283243688959;0.08720009711094502;0.775;0.02934836289268554
01:07.8;0.4792729253295712;-0.6011559130984214;-0.06753539741378647;0.6990000000000001;0.019458146954188803
01:07.8;0.4112578911391461;-0.5758829316145044;-0.25037110649435457;0.627;0.05929699152584166
01:07.8;0.3339361796588576;-0.5526736682871589;-0.45374579102135204;0.578;0.0837422947242751
01:07.8;0.24863343580823802;-0.5324743335881662;-0.6690684578655776;0.6629999999999999;0.08857859071359094
01:07.8;0.15693409770617966;-0.5156018756064589;-0.8870494042675113;1.004;0.07177605948666628
01:07.8;0.060853438428028886;-0.501718342470911;-1.0982558207867212;1.4240000000000002;0.03353116285309048
01:07.8;-0.03700561544225529;-0.4899055858410561;-1.2938080232536704;1.749;0.023455779084256053
01:07.8;-0.13335693952339375;-0.4788417236717254;-1.4660562615332855;1.8869999999999998;0.09361775939199908
01:07.9;-0.22426518722317118;-0.467059968715987;-1.6090733761541425;1.82;0.16854285955426196
01:07.9;-0.3053710201702696;-0.4532433893920905;-1.7188772050313306;1.82;0.23790531834295614
01:07.9;-0.372311118441116;-0.436490516558436;-1.7934107934691899;1.82;0.2914476765875813
01:07.9;-0.42127875896198214;-0.4164905600030113;-1.832383566778373;2.05;0.3215075033670113
01:07.9;-0.44965398758299985;-0.39356767272183;-1.8370708326883771;2.278;0.32510509048769
01:07.9;-0.45660281002775505;-0.36858198797835195;-1.8101010518940426;2.274;0.3046319908863751
01:07.9;-0.4434788297776128;-0.3427149664649499;-1.755192056811564;2.009;0.2667660807492944
01:07.9;-0.41384534464133776;-0.3172080659307798;-1.6767906746769432;1.624;0.220120832255547
01:07.9;-0.37303680690220264;-0.2931354724502358;-1.579632710568557;1.3430000000000002;0.17273334338242194
01:07.9;-0.3273463116380873;-0.2712625364024764;-1.4683141880728328;1.254;0.1303815877531203
01:08.0;-0.2830559034855805;-0.2519962659164757;-1.3469866329906484;1.2329999999999999;0.09607925092938117
01:08.0;-0.24554922329521153;-0.2354033694099344;-1.2192460785866506;1.2329999999999999;0.0704762207082212
01:08.0;-0.2186713468479674;-0.22126632491745202;-1.088210196999509;1.2329999999999999;0.0526526208454502
01:08.0;-0.20439867922572852;-0.20915767748725805;-0.9567124956545875;1.136;0.04090094499083006
01:08.0;-0.20281164587109096;-0.1985206539206594;-0.8275131235036819;0.99;0.03331758209672199
01:08.0;-0.21232969394317008;-0.18874620752194063;-0.70343905549282;0.813;0.02819132218097441
01:08.0;-0.23014929824945124;-0.17923702492729696;-0.5874111002335464;0.6779999999999999;0.02423145713180185
01:08.0;-0.2528090680944238;-0.16945176630404687;-0.4823665437551403;0.631;0.02066407293394679
01:08.0;-0.2767917575925451;-0.15893183260326393;-0.3911193031283226;0.662;0.017205737588368925
01:08.0;-0.2990640021586148;-0.1473268527098432;-0.3162034575771957;0.698;0.013931974363238543
01:08.1;-0.3174597714306656;-0.13444165499476043;-0.2597286883760145;0.504;0.011085172906523815
01:08.1;-0.3308480381389296;-0.12031513390028885;-0.22325670591282318;0.504;0.00888696224232389
01:08.1;-0.3390856490349986;-0.10531651746291283;-0.20769915594458963;0.504;0.007417210954791661
01:08.1;-0.3428052586877405;-0.09022780040477181;-0.21323558982440555;0.389;0.006595497155927872
01:08.1;-0.3431007522388821;-0.07628276886447619;-0.2392495027961987;0.321;0.006261799571575083
01:08.1;-0.34117162603174145;-0.06514400611314398;-0.28428735256202003;0.29;0.006318367856698484
01:08.1;-0.33799285446716043;-0.05880995873339509;-0.34606054756213933;0.28;0.006878765179726463
01:08.1;-0.3340739335546471;-0.05945422925650617;-0.42152243776523174;0.297;0.00837232428202877
01:08.1;-0.3293529201658071;-0.06920821068690364;-0.5070556298475897;0.37200000000000005;0.011557788651260777
01:08.1;-0.32325076846291806;-0.08990386505292401;-0.5987997233429379;0.564;0.017402014247459723
01:08.2;-0.31488960806479027;-0.1227978857945016;-0.6931223702256608;1.3130000000000002;0.026801502028143184
01:08.2;-0.3034389660069548;-0.1683046787664861;-0.7871646790864018;1.3130000000000002;0.04020065578264016
01:08.2;-0.2884981108173678;-0.22577340709465665;-0.879301645042995;1.3130000000000002;0.05727348975846897
01:08.2;-0.2703934469913962;-0.2933517772505032;-0.9693393765827979;1.409;0.0768883853723276
01:08.2;-0.25029353424108686;-0.3679828292136658;-1.0583551916797915;1.3719999999999999;0.09747845326606928
01:08.2;-0.23008968125941964;-0.4455760759824861;-1.1481913737963272;1.2329999999999999;0.1177154010918411
01:08.2;-0.21203205745038745;-0.5213761247397324;-1.2406784893852918;1.087;0.1371550869697903
01:08.2;-0.19816767171459884;-0.5905129375488777;-1.3367185851955872;1.157;0.15642357605110355
01:08.2;-0.1897046182199359;-0.6486552309500361;-1.435423596003807;1.252;0.17663302608797612
01:08.2;-0.18649350841254683;-0.6926284462601323;-1.5335497699976377;1.287;0.19808971103042944
01:08.3;-0.18681922659456446;-0.7208510973810415;-1.6254457922997305;1.999;0.21889690665056788
01:08.3;-0.18759608061911995;-0.7335039334902966;-1.7035960768371239;1.999;0.2344190162006031
01:08.3;-0.18489713249944403;-0.7324284026405731;-1.7596305571874342;1.999;0.23829605268980697
01:08.3;-0.17464570211481525;-0.7207975241887526;-1.7855466694616975;2.326;0.22477209564701553
01:08.3;-0.1533103362391221;-0.7026108738727955;-1.774920900410192;2.498;0.19119005862989324
01:08.3;-0.1184951841095646;-0.6820768176658699;-1.7239463323349349;2.3930000000000002;0.13933420080864914
01:08.3;-0.06934194581736149;-0.6629764787619997;-1.6321339287256729;2.141;0.07503259002175766
01:08.3;-0.006687105037910451;-0.6481259161273154;-1.5025426130576762;1.825;0.0065121490222603395
01:08.3;0.0670287187697481;-0.6390360927589925;-1.3415051774918527;1.541;0.057461724957965886
01:08.3;0.14805376679395998;-0.6358193293365775;-1.15792724116301;1.258;0.10900199810304059
01:08.4;0.23175713963572722;-0.6373320605543811;-0.9623007309322912;0.93;0.1421378374887201
01:08.4;0.31313871960524714;-0.6414978266084352;-0.7656040227685619;0.93;0.15379285793085465
01:08.4;0.3873572563288678;-0.645730796284092;-0.5782680677259768;0.96;0.14464132991549597
01:08.4;0.45021911144669036;-0.6473809565843248;-0.40934765071969764;1.018;0.11930980854645339
01:08.4;0.4985783601221005;-0.6441386259103166;-0.26596104042600255;1.052;0.08541434021952322
01:08.4;0.5306051446016323;-0.6343536874443123;-0.15300649817780979;1.028;0.05150066072872204
01:08.4;0.5458883292827833;-0.6172413258253671;-0.0731428015747224;0.972;0.02464508928988667
01:08.4;0.545362328614292;-0.5929648545664039;-0.02699829728172125;0.92;0.008730728108346313
01:08.4;0.5310778423805255;-0.5626027078700195;-0.013538771080194474;0.848;0.004045192984337894
01:08.4;0.5058565519042983;-0.5280148346534167;-0.030499579600342018;0.747;0.008146430501519647
01:08.5;0.4728798613757344;-0.4916272247814935;-0.07479145048495095;0.5589999999999999;0.017387562323452906
01:08.5;0.435269498661313;-0.456159849588585;-0.1428237319290535;0.5589999999999999;0.02835800461199828
01:08.5;0.395721250530617;-0.4243310347862084;-0.2307366472464146;0.501;0.03874456123068332
01:08.5;0.3562409269194812;-0.39856996798472966;-0.33457198205716726;0.504;0.04750485021468647
01:08.5;0.31800667840670854;-0.38075941201538616;-0.45042422493379375;0.5870000000000001;0.05453918301630464
01:08.5;0.2813620955903262;-0.3720253492159609;-0.5745997599419616;0.715;0.060145558663630264
01:08.5;0.24593580796193867;-0.3725927866751217;-0.7037817890164856;0.88;0.06449027572914749
01:08.5;0.21087387870445576;-0.38172948300192333;-0.8351709937084466;1.069;0.06722857298391124
01:08.5;0.17515215520547114;-0.3977961320942077;-0.9665577300163476;1.224;0.06734476472832124
01:08.5;0.13791397780211972;-0.418415092634827;-1.096279883496371;1.3519999999999999;0.06326114837655937
01:08.6;0.09877136312521088;-0.44076225851331513;-1.223030554994012;1.355;0.0532442549561851
01:08.6;0.058016482605967395;-0.4619605792759708;-1.3455149244184081;1.355;0.036061586700106146
01:08.6;0.016695771940438076;-0.47949875799254377;-1.4620245270233467;1.2409999999999999;0.011704386344786821
01:08.6;-0.023500454141493127;-0.4915635192721705;-1.5700701950976519;1.242;0.018137397420767375
01:08.6;-0.06055404196376094;-0.4972100855269782;-1.6662380734873798;1.672;0.05016722985511575
01:08.6;-0.09259209053944288;-0.4963655486151773;-1.7463708688914323;2.032;0.08026237354394128
01:08.6;-0.11838550542449565;-0.48969541250666976;-1.8060434111291799;2.22;0.10470146374446714
01:08.6;-0.13770260915628005;-0.47836973050553344;-1.8411735561923128;2.2030000000000003;0.12128318384431751
01:08.6;-0.15138481897723113;-0.4637809807500715;-1.8485718817952075;2.04;0.12978712233745004
01:08.6;-0.16110922877623646;-0.4472817332163651;-1.82630078563848;1.875;0.13160545372231408
01:08.7;-0.1689177190103463;-0.42999860518938454;-1.7738257089463603;1.713;0.12884073692323436
01:08.7;-0.1766758809762708;-0.4127462006958269;-1.6920281394655654;1.713;0.12338658127231544
01:08.7;-0.18563882910599647;-0.39603001649003217;-1.583174498726013;1.6980000000000002;0.11639269125093687
01:08.7;-0.19623884304424793;-0.3801028428944214;-1.4508966636092293;1.702;0.10822374906815846
01:08.7;-0.20810954007300395;-0.36503238026211987;-1.3001699856996383;1.629;0.09876965025471374
01:08.7;-0.22027888074251822;-0.35074684250791754;-1.13721973415751;1.419;0.08786400971802913
01:08.7;-0.23143430254255623;-0.3370452943932172;-0.9692786707283693;1.109;0.07560746089915944
01:08.7;-0.2401846530345515;-0.32358500701459664;-0.8041598649694898;0.8170000000000001;0.06249942744996504
01:08.7;-0.24528584967781322;-0.30987659798582395;-0.6496767049164185;0.613;0.04938085088681417
01:08.7;-0.24582961720837512;-0.2953189172409443;-0.5129973518538502;0.522;0.03724265171232777
01:08.8;-0.24140089996017558;-0.2792906246380853;-0.40003795058905;0.508;0.026970961922202535
01:08.8;-0.23219286344802273;-0.2612901226760503;-0.3149863750285466;0.508;0.019110129436118964
01:08.8;-0.21904899004938;-0.2410902535322068;-0.260022887240152;0.514;0.013731958590562502
01:08.8;-0.2034005119876593;-0.2188643000886347;-0.23526303548856559;0.381;0.0104732305930154
01:08.8;-0.1870891165828033;-0.1952530533828643;-0.23889850656184622;0.271;0.00872689585592507
01:08.8;-0.17209905106554918;-0.17136906826072554;-0.26748706687576884;0.332;0.007888850023361718
01:08.8;-0.16025221664610376;-0.1487513574794171;-0.31635102220187156;0.43;0.007541091759946077
01:08.8;-0.15292950233749025;-0.12927680311368261;-0.38005207432439386;0.455;0.007513719644047153
01:08.8;-0.1508729437028256;-0.11501603875337243;-0.4529060582044744;0.479;0.007859192023938236
01:08.8;-0.1541107252514643;-0.10801783976050823;-0.5295037994468342;0.628;0.008814494936029635
01:08.9;-0.16202940163107832;-0.11002608549344695;-0.6052140380436029;0.893;0.01078942953660066
01:08.9;-0.17357835004376984;-0.1221659692461488;-0.6766337681242416;0.9940000000000001;0.014348267630217234
01:08.9;-0.18754040733406802;-0.144661718181594;-0.7419220014849609;0.9940000000000001;0.02012828273135704
01:08.9;-0.20278154494511014;-0.17664889212105273;-0.8009457128985275;1.075;0.028690784715371915
01:08.9;-0.21841665266335447;-0.21612356015158965;-0.8551969739267511;1.17;0.040369559958520713
01:08.9;-0.23386522781382485;-0.2600513814267114;-0.9074725148699746;1.2;0.05518973375881585
01:08.9;-0.248792149001441;-0.30465362836692916;-0.9613167455718415;1.085;0.07286341696440156
01:08.9;-0.2629446333453746;-0.345875064385503;-1.0202445840630792;0.941;0.09278715576815821
01:08.9;-0.2759250430583228;-0.37999017866438967;-1.0868199850159208;0.8540000000000001;0.11395177821113983
01:08.9;-0.2869750074709095;-0.4042302985462376;-1.1617649338694065;0.7829999999999999;0.13476937119265395
01:09.0;-0.2948608598190593;-0.41727685544068105;-1.2433480904853351;1.286;0.1529798237559434
01:09.0;-0.2979169508355187;-0.41950574364311705;-1.3272602647785585;1.286;0.16587816348768125
01:09.0;-0.2942351493709569;-0.4129464162210962;-1.4070189035453886;1.286;0.1709575109399352
01:09.0;-0.2819403685096832;-0.40097328079208017;-1.4747967407860312;1.6280000000000001;0.16672658939300086
01:09.0;-0.2594917865486631;-0.38776720919216484;-1.5225376989721473;1.99;0.1532014063109336
01:09.0;-0.22596489761927427;-0.37761284353552926;-1.5432135159952103;2.176;0.13167816166977497
01:09.0;-0.18127051470473113;-0.37415099567873106;-1.5320113471336894;2.198;0.10390490633147287
01:09.0;-0.12626788944238093;-0.3797480529163874;-1.4872067270861784;2.104;0.07131154049602262
01:09.0;-0.06274881152349651;-0.39512946054962106;-1.4105360189361402;1.859;0.03497269470891698
01:09.0;0.006700214561461512;-0.41934637237622724;-1.3069973707356537;1.5659999999999998;0.0036722844588599865
01:09.1;0.07892864984258607;-0.4500433854274711;-1.1841270724718491;1.032;0.04206175285186108
01:09.1;0.1505098100851799;-0.4839229492169751;-1.0509091028306912;0.903;0.07654312338374628
01:09.1;0.21805123338286597;-0.5172826117750622;-0.9165619415247248;0.903;0.10338278983363641
01:09.1;0.27849520929874877;-0.5465242556372445;-0.7894533814893546;0.879;0.12015826796351038
01:09.1;0.3293832636076623;-0.5685754253761753;-0.676305143454122;0.892;0.12665790598193188
01:09.1;0.36906306691268304;-0.5811975100481783;-0.5817415488817594;0.92;0.12478271029813887
01:09.1;0.3968129650407807;-0.5831728666248588;-0.5081790194733528;0.925;0.11759798859863053
01:09.1;0.41285825766181083;-0.574371201194944;-0.4560262695166915;0.9179999999999999;0.10813928477243866
01:09.1;0.4182664549675368;-0.555704777044369;-0.4241320664924928;0.9159999999999999;0.09858214741870346
01:09.1;0.41473260313125504;-0.5289910874813087;-0.41038186346433314;0.9279999999999999;0.09003361577363099
01:09.2;0.4042901593836304;-0.49674673346969395;-0.4123232815383217;0.848;0.08280680878355004
01:09.2;0.388999843472768;-0.461939360482266;-0.4277032409762902;0.848;0.07685585114182264
01:09.2;0.3706719025503177;-0.42772589863980104;-0.4548287433586297;0.848;0.07211126549080753
01:09.2;0.3506627750569732;-0.3971977178661976;-0.49270881474628786;0.753;0.0686256928219723
01:09.2;0.32976299562434197;-0.37313836224622277;-0.5409815683784559;0.679;0.06656628028725436
01:09.2;0.30817587964769216;-0.3577945710832824;-0.5996701717925056;0.631;0.06612182594182209
01:09.2;0.2855826795227959;-0.3526725220719307;-0.6688409990433151;0.601;0.06736376848848044
01:09.2;0.26129103878062193;-0.3583849746690938;-0.7482501846799078;0.6459999999999999;0.07006822916088057
01:09.2;0.23445809171413465;-0.37458071998530174;-0.8370580956038679;0.836;0.0735133555883037
01:09.2;0.20436027420995131;-0.39998463826330327;-0.9336639705133514;1.081;0.07631859893550326
01:09.3;0.17065480057333904;-0.4325614069427428;-1.0356663137431108;1.228;0.0764515208612576
01:09.3;0.13356701035485757;-0.46978191533609487;-1.1399100889969553;1.228;0.07152635550464095
01:09.3;0.09395789210478953;-0.5089300669362535;-1.2425772700293756;1.228;0.05941755532319436
01:09.3;0.05325681032039601;-0.5473768184917501;-1.33931881910184;1.34;0.03904321067639057
01:09.3;0.013268448042914818;-0.5827843267839963;-1.4254643690025968;1.645;0.011022607873203392
01:09.3;-0.024106264178670365;-0.6132442560548116;-1.4963285753383369;1.825;0.022120267290034867
01:09.3;-0.057161898904858205;-0.6373572242118621;-1.5475726045232703;1.778;0.05638201508067894
01:09.3;-0.08461765336598885;-0.6542428809453505;-1.5755429742371125;1.703;0.08722284259807121
01:09.3;-0.10574334791404752;-0.6634786031968046;-1.5775363635140565;1.716;0.11067750414456794
01:09.3;-0.12038212130783581;-0.6649992053352948;-1.5519913464076724;1.72;0.12424313853494873
01:09.4;-0.12889508719231746;-0.6590049945829137;-1.4986320018601769;1.653;0.127297558164882
01:09.4;-0.13206285305687315;-0.645903159188758;-1.4185786865238401;1.653;0.12100449810614598
01:09.4;-0.13097414885777434;-0.6262776781422257;-1.314421916660501;1.653;0.10781701641250235
01:09.4;-0.12691817196159058;-0.6008707592712654;-1.1902341272412842;1.52;0.09076894271423468
01:09.4;-0.12128429038845767;-0.5705611290032427;-1.0514744919403476;1.34;0.07276214172927596
01:09.4;-0.11546496834278563;-0.5363317752697773;-0.90474396460637;1.112;0.056028560324851095
01:09.4;-0.11075566172205982;-0.49922747110630433;-0.7573809769783549;0.872;0.04187731264807896
01:09.4;-0.10825092694161953;-0.4603082649469531;-0.6169333021237386;0.664;0.030741043878853666
01:09.4;-0.10874764353302019;-0.420608250182169;-0.49057426729869774;0.529;0.022438943544211727
01:09.4;-0.11267633029746478;-0.38110802356277923;-0.3845416806019162;0.45299999999999996;0.016512932529191914
01:09.5;-0.12008131601628896;-0.3427242971896257;-0.3036661046219892;0.34700000000000003;0.012497313137362126
01:09.5;-0.13065541965727318;-0.3063168715695436;-0.25103150715118455;0.34700000000000003;0.010046772788084078
01:09.5;-0.14381179055221682;-0.2727145968589559;-0.22778942230898255;0.35200000000000004;0.0089338042149173
01:09.5;-0.15876327812806879;-0.2427595333477213;-0.2331314963268691;0.368;0.008985190778784177
01:09.5;-0.17458727017080175;-0.21735635436422393;-0.264412877324052;0.374;0.010033848001804157
01:09.5;-0.19027033236013852;-0.1975017565743671;-0.31741267052422056;0.37799999999999995;0.0119279634143314
01:09.5;-0.20474002360102203;-0.18426834565888037;-0.3867179310357219;0.41200000000000003;0.014589748159383192
01:09.5;-0.21689922316314963;-0.1787292449983129;-0.4662189915512981;0.496;0.018073554706656877
01:09.5;-0.22568181302612114;-0.18182535150358722;-0.5497004034811446;0.649;0.022556777394015928
01:09.5;-0.23014573963524163;-0.19418984063671832;-0.631498671375184;0.831;0.02822291620478333
01:09.6;-0.2296074353115422;-0.21595299324664202;-0.707171238215679;1.252;0.03506467068593421
01:09.6;-0.22379918421768025;-0.24655745198004894;-0.7740801720644817;1.252;0.04271324586366248
01:09.6;-0.2130064429720653;-0.28462101095208714;-0.8317590987058887;1.252;0.05042631789468213
01:09.6;-0.19813288431553128;-0.32788822698154496;-0.881944395771246;1.307;0.05729590585465901
01:09.6;-0.18065367827214765;-0.37330995139126627;-0.9282159985025595;1.232;0.06259871601214746
01:09.6;-0.16244054689946852;-0.41727778905719015;-0.975262837670916;1.0490000000000002;0.06610607733862496
01:09.6;-0.1454678087206959;-0.4560131777592;-1.0278456197376165;0.8190000000000001;0.06818238352104705
01:09.6;-0.13144095694416877;-0.48606899282163835;-1.0896047096397672;0.818;0.0696141623240387
01:09.6;-0.12142568771988382;-0.5048579980054618;-1.1619511619447358;0.883;0.07123077789920937
01:09.6;-0.1155765192347846;-0.5110941169104745;-1.2433298495716603;0.9470000000000001;0.07344408981133074
01:09.7;-0.11304564117759729;-0.5050366152143635;-1.3290957709680915;1.605;0.07588098560627342
01:09.7;-0.11209258544326392;-0.48847661667651465;-1.4120703442793885;1.605;0.07731735660465536
01:09.7;-0.11035059953826296;-0.46448152448396685;-1.4836112679608415;1.605;0.07604370423929058
01:09.7;-0.10517938937675735;-0.4369628649060655;-1.5349078039487147;1.913;0.07054357573934839
01:09.7;-0.09404436380882232;-0.41013700075408366;-1.5582670415422462;2.128;0.06010403229646913
01:09.7;-0.07487289585416643;-0.3879489575590525;-1.548237448209184;2.173;0.044971439340427154
01:09.7;-0.04633780505904068;-0.37355031204967976;-1.5024210345734108;2.031;0.026006159210928456
01:09.7;-0.008028773058158824;-0.3689288958556905;-1.421834299031748;1.774;0.004211539137585647
01:09.7;0.03950137278944385;-0.3747559666997341;-1.3107583637699176;1.493;0.019403647784216705
01:09.7;0.09480548944203837;-0.39045842561348604;-1.1761290670485167;1.2009999999999998;0.04353747787758811
01:09.8;0.15570598272534325;-0.4144658214086154;-1.0266042366299792;0.831;0.06625170733215544
01:09.8;0.21952818668364607;-0.44454881234238475;-0.8714954947516127;0.831;0.0850501121796537
01:09.8;0.28337160197215466;-0.4781683478177027;-0.7197597374287145;0.772;0.09752696271049671
01:09.8;0.3443880283886872;-0.512782364647285;-0.5791965686856673;0.778;0.10228385953815541
01:09.8;0.4000420711425418;-0.5460869674383814;-0.4559171926925113;0.835;0.09959864933493993
01:09.8;0.44832883200667517;-0.5761860710035754;-0.3540939501921668;0.8740000000000001;0.0914698424854211
01:09.8;0.48791808032899775;-0.6016885378170561;-0.275978269360186;0.9059999999999999;0.08102024214001502
01:09.8;0.5181978200960363;-0.6217358359424514;-0.22215412613445348;0.929;0.07157409506925289
01:09.8;0.5392049242891709;-0.6359703349077032;-0.1919616493778556;0.919;0.06582716943499958
01:09.8;0.5514498536278346;-0.6444585351457541;-0.18400228905074612;0.9109999999999999;0.06539194143494309
01:09.9;0.5556628264539465;-0.6475816696970234;-0.196638685217508;0.8740000000000001;0.07075788655648454
01:09.9;0.5525088763549276;-0.6459040638160014;-0.22841664510255968;0.8740000000000001;0.08151452929666425
01:09.9;0.5423335270251377;-0.640030444446324;-0.27834925694950374;0.8740000000000001;0.09661780176721627
01:09.9;0.5249975333549934;-0.6304628751825054;-0.34602325388467065;0.845;0.11453074003968476
01:09.9;0.4998371512754243;-0.6174665508431284;-0.43152111897557166;0.825;0.1331815374555391
01:09.9;0.4657628751267028;-0.6009579423129436;-0.5351828622704419;0.826;0.14979976984990287
01:09.9;0.4214935140355484;-0.5804386880252422;-0.6572484075751822;0.846;0.16079657368677217
01:09.9;0.36590469429447625;-0.5550058328741677;-0.797432066583251;0.914;0.16194189772193768
01:09.9;0.29844695340106037;-0.523467645375299;-0.9544882796504385;1.02;0.14911714968697076
01:09.9;0.21956508358453647;-0.4845829276809556;-1.125828363066554;1.156;0.11978531314933186
01:10.0;0.131032152014638;-0.43741478811492773;-1.3072416107408116;1.4409999999999998;0.0749250771362096
01:10.0;0.036099028785244736;-0.3817363342096426;-1.4927690564616334;1.4409999999999998;0.020570821725329518
01:10.0;-0.06063978729427298;-0.31836190501577094;-1.6747841092398328;1.412;0.03233237413252279
01:10.0;-0.1537216128312463;-0.24926917436523527;-1.8443424239277262;1.7519999999999998;0.07067162276155958
01:10.0;-0.23758040239941416;-0.17746236857898814;-1.9918386083020556;2.126;0.08397906469886075
01:10.0;-0.3074174844545533;-0.10663537633630714;-2.107930766655273;2.559;0.06910129926386908
01:10.0;-0.3599413128823207;-0.040734224104598815;-2.1845989131979646;2.758;0.032030436569385694
01:10.0;-0.3937976036991058;0.016505491146429394;-2.2161423102625744;2.7739999999999996;0.014404532452229082
01:10.0;-0.409619871888072;0.06199640707730348;-2.199923167846011;2.707;0.05586696156445458
01:10.0;-0.40972971719591605;0.0936596433590258;-2.1367245734715237;2.582;0.08199710290946663
01:10.1;-0.39759192680627126;0.11064479532882489;-2.0306759319912198;2.024;0.08933243429961482
01:10.1;-0.37717577853376166;0.11336756021726134;-1.8887834500527092;2.024;0.08076343174966423
01:10.1;-0.3523752882143642;0.10337541619331422;-1.7201705161219956;1.71;0.06266055175058505
01:10.1;-0.326591592761917;0.08309381847224098;-1.5351554519977217;1.3880000000000001;0.04166065338989028
01:10.1;-0.3025028891554646;0.05550957746370826;-1.344276599430478;1.11;0.02257283396312657
01:10.1;-0.28198279911975677;0.02383511757454115;-1.1573638383830904;0.907;0.007778750190539331
01:10.1;-0.266104873119063;-0.008808412158865568;-0.9827579916624268;0.735;0.002303546797915044
01:10.1;-0.2551870476887573;-0.03965321424952375;-0.8267618818185015;0.588;0.008365992466102808
01:10.1;-0.24886307621633527;-0.06646488210032805;-0.6933677371013686;0.513;0.011468756541283404
01:10.1;-0.2461947925025188;-0.08762931246490441;-0.5842671740386713;0.521;0.012604910134026476
01:10.2;-0.24584490889527147;-0.10215471349167889;-0.4991160515083131;0.606;0.01253490844223437
01:10.2;-0.24631101687688642;-0.10961492150171319;-0.4359919688609613;0.606;0.011771505336429195
01:10.2;-0.24618975172587135;-0.11007085981969619;-0.39195519204650653;0.6609999999999999;0.010621326299138494
01:10.2;-0.24441985761119878;-0.10400398919766901;-0.3636177968114355;0.6709999999999999;0.009243397194219974
01:10.2;-0.2404551899335199;-0.09227909239322607;-0.3476404519428218;0.6409999999999999;0.007713789360475957
01:10.2;-0.23433520407811548;-0.0761309441395062;-0.3411015743201214;0.555;0.0060853067752289994
01:10.2;-0.22664414322509058;-0.057149767301432584;-0.34171477445424636;0.47100000000000003;0.0044261153060464456
01:10.2;-0.2183764743642563;-0.037233250546025345;-0.34790466142050147;0.41600000000000004;0.0028287661769970415
01:10.2;-0.21074421416099917;-0.01848317301942918;-0.3587780368469681;0.384;0.0013975200208655833
01:10.2;-0.20496506111445018;-0.0030464947938148466;-0.37403653119005964;0.386;0.00023355775784611484
01:10.3;-0.2020639092137467;0.007078480645005541;-0.39386857320068547;0.413;0.0005633523748769032
01:10.3;-0.20271200045773752;0.010239445602581814;-0.4188436819053527;0.413;0.0008693764492207699
01:10.3;-0.20712085073424888;0.00530029401873575;-0.44981985244546124;0.46799999999999997;0.0004938128665972751
01:10.3;-0.21500123028758356;-0.00823710610856201;-0.4878675478641893;0.544;0.000864007547170777
01:10.3;-0.22558792713103626;-0.03016953128026921;-0.5342071029233607;0.623;0.00363575051889572
01:10.3;-0.2377176892693274;-0.05959117322024252;-0.5901465968100478;0.74;0.008359943511503874
01:10.3;-0.2499343858457758;-0.09496045993027853;-0.6569969395816365;0.852;0.015593089305010273
01:10.3;-0.26058981409506976;-0.13424689310806195;-0.735933633645928;0.885;0.025745440748639038
01:10.3;-0.2679192291815778;-0.17516596483673963;-0.8277766273773497;0.838;0.038847830519150674
01:10.3;-0.2701004161488832;-0.21548355704980215;-0.9326852804727486;0.79;0.0542843337690472
01:10.4;-0.26533862639308214;-0.2533325086862282;-1.0498149420609648;1.138;0.07056740547821803
01:10.4;-0.2520202012941666;-0.287467460621196;-1.1770151386154237;1.138;0.08527193053829785
01:10.4;-0.22892839941442522;-0.3174090210930244;-1.3106336061829584;1.138;0.09523580061879751
01:10.4;-0.195460324268018;-0.3434719992786015;-1.4454613661496862;1.3119999999999998;0.09704126325929656
01:10.4;-0.15177515833772845;-0.36669835501953923;-1.5748556243078415;1.443;0.08764969357971902
01:10.4;-0.09883070073917571;-0.3887144171467698;-1.6910819801781718;1.615;0.0649661581595557
01:10.4;-0.03829472891521149;-0.4115223052525929;-1.7858883267079169;1.824;0.028144055453769294
01:10.4;0.02765609088670095;-0.4372378058754482;-1.8512734508257793;2.049;0.02238613265680108
01:10.4;0.09661229603579434;-0.46780266048811836;-1.880364924483317;2.285;0.08498401248876722
01:10.4;0.16622688862679497;-0.5047106808261199;-1.8682771866533885;2.506;0.1567418910778784
01:10.5;0.2344676576622267;-0.5487808856731096;-1.812794100731913;2.073;0.2332546983546071
01:10.5;0.29977564450195093;-0.5999937790473587;-1.714745190076523;2.073;0.30842010889577853
01:10.5;0.36110690381671645;-0.6573958760689189;-1.5780285008381443;2.073;0.3746084846754043
01:10.5;0.41786929057775324;-0.7190823179062602;-1.4093062212540926;1.6880000000000002;0.42347174113603614
01:10.5;0.4697928998250263;-0.7822797343121436;-1.2174131598562277;1.3730000000000002;0.4474108588884527
01:10.5;0.5167822006198702;-0.8435508278575978;-1.0125341686607277;1.22;0.4413960990338244
01:10.5;0.5587893942152187;-0.8991186634017443;-0.805267030035793;1.214;0.4045806291555155
01:10.5;0.5957297240228421;-0.9452740153337541;-0.6057289782109719;1.27;0.34110284402665697
01:10.5;0.6274405844545565;-0.9788018054011446;-0.4228385091746631;1.329;0.25968203223415404
01:10.5;0.6536753499248227;-0.9973531521944429;-0.2638399958242799;1.354;0.1720092111308004
01:10.6;0.6741211309132903;-0.9997003459774081;-0.13408089508799947;1.27;0.09035967987297781
01:10.6;0.6884302254769867;-0.9858430513080025;-0.037013495707987946;1.27;0.025120473024744624
01:10.6;0.6962524063879542;-0.9569744930465519;0.025630512674192515;1.27;0.017077502783537236
01:10.6;0.6972546133009748;-0.9153393689361805;0.053559611351351795;1.198;0.03418306140911784
01:10.6;0.6911216123923023;-0.864009310546505;0.04760862195987082;1.129;0.028428798650944557
01:10.6;0.6775404593401451;-0.8065905812070623;0.009456409978883182;1.035;0.005167906803870653
01:10.6;0.6561772874949927;-0.7468823749281309;-0.05858132081152026;0.9279999999999999;0.028709958468157826
01:10.6;0.6266583271225387;-0.6885149191210835;-0.15367436743587257;0.836;0.06630489694115022
01:10.6;0.588569214304903;-0.6346034722030794;-0.27254356941858754;0.774;0.10179722179491962
01:10.6;0.5414854997060831;-0.587454805290767;-0.4115227112849165;0.762;0.1309046579154038
01:10.7;0.48504230189414427;-0.5483567381545502;-0.5666657282828403;0.9640000000000001;0.1507196053146224
01:10.7;0.4190446642658758;-0.5174718179053497;-0.7339092702421003;0.9640000000000001;0.15914367809782334
01:10.7;0.34361314484697675;-0.4938472173692405;-0.9092504978809307;1.16;0.1542928950351298
01:10.7;0.25934923186935066;-0.47554446261771804;-1.0888805219406847;1.39;0.13429391172859936
01:10.7;0.1674945048463212;-0.4598852985841868;-1.2692266794131803;1.528;0.09776632313351247
01:10.7;0.07005291820259706;-0.4438064772835586;-1.446867251715971;1.598;0.04498301438125961
01:10.7;-0.030153010361562003;-0.4243115234912813;-1.6182955263799523;1.58;0.02070490952296655
01:10.7;-0.1295211826928454;-0.3989859665823293;-1.7795622819884136;1.449;0.0919626789874157
01:10.7;-0.2238356981914534;-0.3664979009119536;-1.9259165682481094;1.4409999999999998;0.1579931695210449
01:10.7;-0.30859023041734435;-0.32695882208030264;-2.051650564832529;1.626;0.20700394727923724
01:10.8;-0.3794813642822717;-0.2820084011951781;-2.150361005978765;2.786;0.23012503932548684
01:10.8;-0.4330232678259261;-0.2345527447157576;-2.215689413858407;2.786;0.2250404746842145
01:10.8;-0.46714479602735465;-0.18822189104074613;-2.242343456085868;2.786;0.19716225702654985
01:10.8;-0.48159398558864663;-0.14671231884886268;-2.2270497203508612;2.8560000000000003;0.15735391364229373
01:10.8;-0.4780383014756424;-0.11316619287465202;-2.1691662611517075;2.69;0.11734706752267993
01:10.8;-0.4598469624384656;-0.08968641925892826;-2.0708514877625412;2.342;0.08540611394086735
01:10.8;-0.4316116582025669;-0.0770707265532378;-1.936799629532726;1.939;0.0644269116073165
01:10.8;-0.39850953899467845;-0.07482074758902972;-1.773629064979555;1.6130000000000002;0.05288391052123896
01:10.8;-0.3656397332536307;-0.08140279672378149;-1.589074366543369;1.382;0.04729736339561225
01:10.8;-0.33745170409957376;-0.09465660720297112;-1.3911537797605709;1.216;0.044436280504502046
01:10.9;-0.3173351786314605;-0.1122235480385882;-1.1874508571545181;0.91;0.042288069501799155
01:10.9;-0.30738892010426505;-0.1318958876792019;-0.9845944158315196;0.91;0.03991874072810231
01:10.9;-0.3083537074268108;-0.1518407434235548;-0.7879715622262784;0.74;0.036893345589174106
01:10.9;-0.3196860236513397;-0.17069772204490863;-0.601664260915457;0.573;0.03283262378307448
01:10.9;-0.33975196088547444;-0.1875748976518737;-0.4285674874817601;0.495;0.027312151391442753
01:10.9;-0.3661219399471214;-0.20197676946579218;-0.2706421034597317;0.523;0.020013476546458204
01:10.9;-0.3959383877969373;-0.21369811128987165;-0.12926209279343814;0.585;0.010937031858272588
01:10.9;-0.4263135761267456;-0.22271179788550807;-0.005604508338184596;0.631;0.0005321203972652239
01:10.9;-0.4547033679578667;-0.22906938648918784;0.09899250308394475;0.649;0.010310922663292858
01:10.9;-0.47920315327334967;-0.2328262406830552;0.18278645218157583;0.6559999999999999;0.020393679813798124
01:11.0;-0.4987267042462092;-0.23399895485902972;0.2435651954418941;0.674;0.028424430367033574
01:11.0;-0.5130527741905266;-0.23255657948904007;0.2787755641095415;0.674;0.03326177141685101
01:11.0;-0.5227487290311374;-0.22843887690456904;0.28580599714873156;0.674;0.03412984684286018
01:11.0;-0.5289946062163267;-0.22159096422101185;0.26235636525600636;0.6809999999999999;0.030753524599821978
01:11.0;-0.5333330169635159;-0.21200564847488568;0.2068394107859461;0.665;0.02338725194754156
01:11.0;-0.5373701844520414;-0.19976793412672625;0.1187688812795022;0.611;0.012749760021336745
01:11.0;-0.5424585097633194;-0.18509826027890505;-0.0009216266794249911;0.531;9.253880814959033e-05
01:11.0;-0.5493982994211881;-0.1683927333009931;-0.1496937678715682;0.445;0.013848871228798805
01:11.0;-0.5582001839359501;-0.15025983154728048;-0.3234042065114962;0.467;0.027125549039015092
01:11.0;-0.5679470178518252;-0.13155444401375327;-0.5165076811769888;0.6509999999999999;0.03859136423153649
01:11.1;-0.5767819718089301;-0.11341251799912462;-0.722437091897648;1.237;0.0472577135969181
01:11.1;-0.5820292914691275;-0.09728653590644092;-0.9340752660882974;1.237;0.052890716905844425
01:11.1;-0.5804352381700786;-0.08496685266167904;-1.1441883563026305;1.237;0.05642880144331661
01:11.1;-0.5685098555300185;-0.07855739825966303;-1.3457223322896341;1.403;0.06010084099041391
01:11.1;-0.5429526824433748;-0.08037246120606108;-1.5319678743533307;1.578;0.06685269338540135
01:11.1;-0.5011400522160163;-0.09273420882326384;-1.6966756879801148;1.7790000000000001;0.07884931445332516
01:11.1;-0.4416251064489636;-0.1176751664974823;-1.8341966489030919;2.001;0.09532009625592928
01:11.1;-0.3645618107346455;-0.15658758534597841;-1.9396730538955864;2.113;0.11072789208798497
01:11.1;-0.2719386888909878;-0.20989759617341705;-2.009267992021843;2.194;0.11468756449435767
01:11.1;-0.167524672450223;-0.27684976133296807;-2.040397536852288;2.2030000000000003;0.0946319352213634
01:11.2;-0.056494857260865;-0.3554600435200107;-2.0319228697589273;2.095;0.04080439319904916
01:11.2;0.05519973169154952;-0.4426462846822386;-1.9842700094035197;2.095;0.04848356639698744
01:11.2;0.16157170653911898;-0.5344976174583571;-1.899469381546014;2.07;0.1640375911219373
01:11.2;0.2572860160144979;-0.6266239157288115;-1.7811248516693285;2.057;0.28715574640780683
01:11.2;0.3381917305168527;-0.7145346320321455;-1.6343173716000334;2.022;0.3949323086335157
01:11.2;0.4016522390314049;-0.7940057926999079;-1.4654330040787864;1.8940000000000001;0.46734740065857777
01:11.2;0.4466678817171141;-0.8613965047709423;-1.2818964096257113;1.74;0.49322009375706233
01:11.2;0.4738133066051848;-0.913886438210038;-1.0917975242406812;1.6;0.472760943880304
01:11.2;0.4850291226579776;-0.9496217055115681;-0.9034203836074163;1.4569999999999999;0.41611017320523763
01:11.2;0.48330747427359866;-0.9677663505061178;-0.7247074554392468;1.3019999999999998;0.3389664836586357
01:11.3;0.4723069726101334;-0.9684626981546747;-0.5627116992969615;1.01;0.25739090657348995
01:11.3;0.45593804111515124;-0.952717021904437;-0.4231080953948008;1.01;0.18378966600418295
01:11.3;0.4379676990366182;-0.9222444490197947;-0.30985034736773953;1.01;0.1251526698933627
01:11.3;0.4216849367758018;-0.8793095073280326;-0.22503395562255898;0.963;0.08344069460963108
01:11.3;0.4096440826449002;-0.8265796261108449;-0.16896398008882785;0.9079999999999999;0.057211787035135145
01:11.3;0.40348355138733544;-0.7669878607413608;-0.1403798160111358;0.861;0.043442918545377365
01:11.3;0.4038136020756958;-0.7035942887236946;-0.13678855167524906;0.787;0.03886449244806529
01:11.3;0.4101743948539396;-0.639438237803588;-0.15487288866969479;0.732;0.04062024588556186
01:11.3;0.4210742842747143;-0.5773783189183005;-0.19094179699825778;0.74;0.04642160975227148
01:11.3;0.4341189499360304;-0.5199226916042363;-0.24138120825957482;0.815;0.054481740460960465
01:11.4;0.44622958121121337;-0.4690575211742203;-0.3030448477131811;0.78;0.06342951135058178
01:11.4;0.4539272145465271;-0.42609036907057596;-0.37351749162095527;0.78;0.07224351749455156
01:11.4;0.45364479124488577;-0.39153693651822635;-0.4512046367389547;0.78;0.08014237732586806
01:11.4;0.4420310349508376;-0.3650796563740328;-0.5352503440047897;0.7340000000000001;0.08637684766427153
01:11.4;0.41622700118846623;-0.3456099628220737;-0.625330532255258;0.763;0.0899551717954937
01:11.4;0.37411191091943174;-0.3313516317083683;-0.7213893098717681;0.843;0.0894252887827452
01:11.4;0.3145223163789277;-0.32005876651471465;-0.823374878542501;1.021;0.08288554644620702
01:11.4;0.23744842539910965;-0.3092769383980211;-0.9309922049066353;1.247;0.06836957436367996
01:11.4;0.1441974674477063;-0.29664910177723797;-1.0434481855167856;0.748;0.04463459091809728
01:11.4;0.037485878762751626;-0.28024203943823195;-1.1591831303927351;0.905;0.012177356860419652
01:11.5;-0.07859688542995527;-0.2588516728879486;-1.275673988585527;1.341;0.025953504732741307
01:11.5;-0.19880267189959983;-0.23222187750739107;-1.389442693999757;1.341;0.06414546954103192
01:11.5;-0.31714698010831777;-0.2011135430635708;-1.4963191379684644;1.453;0.09543905448521471
01:11.5;-0.42754113364605;-0.16719627794344152;-1.5918974799949008;1.881;0.11379406318476867
01:11.5;-0.5245695246615844;-0.13277904730903142;-1.672093580773067;2.306;0.11646439744895942
01:11.5;-0.6042432557331741;-0.10043000854951335;-1.7337053237383917;2.4219999999999997;0.10520844317825727
01:11.5;-0.6645024028793863;-0.0725558969343269;-1.7748493400992291;2.2430000000000003;0.08557181909292558
01:11.5;-0.7053075265950549;-0.051015070862167146;-1.795154336093662;2.033;0.064592010856078
01:11.5;-0.7283270981316808;-0.036828538873501425;-1.7956673742938098;1.847;0.0481655861382746
01:11.5;-0.7363703369060415;-0.03004241772501337;-1.7785314753897998;1.635;0.03934528735726737
01:11.6;-0.7327522559870056;-0.029785545712132194;-1.7465625348210763;1.81;0.0381194710373867
01:11.6;-0.7207328583123174;-0.03452668668392442;-1.702854412333346;1.81;0.04237471056288448
01:11.6;-0.7031125120488245;-0.042455770593668944;-1.6504713258402857;1.81;0.049268522430740085
01:11.6;-0.6820209829745912;-0.051859416760148366;-1.5922043089424425;1.5590000000000002;0.05631500919520153
01:11.6;-0.6589000866998583;-0.061388697705982403;-1.5303525636255932;1.462;0.06190125876104338
01:11.6;-0.6346396631821565;-0.07018467299145963;-1.4665459022312877;1.544;0.06532285418078236
01:11.6;-0.6097912565815498;-0.0778734316412586;-1.4016719473208985;1.526;0.06656054781832121
01:11.6;-0.5847737732575129;-0.08446173574306666;-1.3359504260087822;1.4909999999999999;0.06598393805349413
01:11.6;-0.5600100448289921;-0.09017496870904057;-1.269134855354946;1.486;0.06408989925912023
01:11.6;-0.5359749650854276;-0.09528756451498446;-1.2007797526179664;1.44;0.06132592220682985
01:11.7;-0.5131690099382719;-0.09999293655807777;-1.130505728950387;1.214;0.058009952776733015
01:11.7;-0.4920482489863282;-0.1043366055430766;-1.0582142960670247;1.214;0.05432728708779066
01:11.7;-0.472947140550803;-0.10820742247033242;-0.9842358518934392;1.214;0.05036963883574401
01:11.7;-0.45602180550967353;-0.11136973048265349;-0.9094112321320165;1.104;0.04618629150341276
01:11.7;-0.4412218411494878;-0.11352416871823158;-0.8350987480669685;0.9840000000000001;0.04182954741101838
01:11.7;-0.4282830452452151;-0.11439060077814225;-0.7630950575000197;0.89;0.03738521336427832
01:11.7;-0.41673181964140654;-0.11380475389335437;-0.6954775958241797;0.815;0.03298376370005641
01:11.7;-0.40589877761411647;-0.11181419684644126;-0.6343960725924196;0.745;0.02879222170177004
01:11.7;-0.39494334435996864;-0.10875568732571764;-0.5818436272057919;0.667;0.02499154231805956
01:11.7;-0.382889254097804;-0.10529770323177827;-0.5394348108174012;0.606;0.021748586951053618
01:11.8;-0.3686681616533854;-0.10243772755981358;-0.5082183487607501;0.514;0.019193134637732284
01:11.8;-0.3511727658543006;-0.1014503135853395;-0.4885542023355311;0.514;0.017405518900495822
01:11.8;-0.32933043038465915;-0.10378711346167346;-0.4800792993404695;0.514;0.016409232749121233
01:11.8;-0.30221066656294254;-0.11093316317851394;-0.48177345760494883;0.536;0.016151544384924076
01:11.8;-0.2691682318745077;-0.12422628716214337;-0.4921211106741655;0.599;0.01645543254421784
01:11.8;-0.23000716522327053;-0.14465275155388144;-0.5093480067827664;0.662;0.016946603779863286
01:11.8;-0.18514007973790272;-0.17264273694483928;-0.5316952388519222;0.703;0.016994622816730892
01:11.8;-0.1357109002995318;-0.2078977186500284;-0.5576813264060458;0.7559999999999999;0.015734413452564013
01:11.8;-0.08364258975001375;-0.24928497184886533;-0.586303889060436;0.813;0.01222492895225096
01:11.8;-0.031562630803117685;-0.2948355222748459;-0.6171423223313626;0.852;0.005742993603834653
01:11.9;0.017438160091242723;-0.3418770666023855;-0.6503348793464026;0.836;0.0038771060148588966
01:11.9;0.06021202111808103;-0.38730410211748195;-0.6864245918691494;0.836;0.01600767050063085
01:11.9;0.09403873660329871;-0.42793565240519027;-0.7261046790141904;0.836;0.02922028794854675
01:11.9;0.11705218122300122;-0.46088372350052664;-0.7699260734075789;0.848;0.04153554459616675
01:11.9;0.1285122898086003;-0.48388034918722495;-0.8180359644529239;0.9390000000000001;0.05086921605806246
01:11.9;0.12889968249596398;-0.4955466295629457;-0.870000824458436;1.032;0.05557200145791445
01:11.9;0.11985281192096618;-0.4955936602749954;-0.9247390102086983;1.1540000000000001;0.05492791937430949
01:11.9;0.10397594943777089;-0.48493239918861336;-0.9805530642712084;1.235;0.049440766709595234
01:11.9;0.08453690875643831;-0.4656540479600748;-1.0352308729641229;1.196;0.0407518154497815
01:11.9;0.06506324282282522;-0.4408336604880931;-1.0861941007156473;1.125;0.031154292511364867
01:12.0;0.04886076539439933;-0.4141329782480591;-1.1306945906665231;1.3019999999999998;0.022879440291186257
01:12.0;0.038525790265710895;-0.38925299341707675;-1.1660573419444549;1.3019999999999998;0.01748652144515243
01:12.0;0.035567252235876784;-0.3693721870022004;-1.1899359437782908;1.274;0.015632847413334063
01:12.0;0.04024422788510808;-0.35672290760708025;-1.2005271984900017;1.226;0.017234814064241634
01:12.0;0.051649813850590816;-0.3523853777469865;-1.1967172782520585;1.242;0.021781019363151286
01:12.0;0.0679888113286772;-0.35628364095368387;-1.1781711358901876;1.2890000000000001;0.028539194342000272
01:12.0;0.08695849461468462;-0.3673178928438744;-1.1453864094786235;1.3159999999999998;0.03658525806669246
01:12.0;0.10614829645916896;-0.38357041917603213;-1.099711627024445;1.287;0.0447751400187912
01:12.0;0.12339521683839075;-0.4025499557797712;-1.0433047815216812;1.2209999999999999;0.051823806195247235
01:12.0;0.13705142611080826;-0.4214644787639288;-0.9790051239937786;1.1420000000000001;0.05654959537808852
01:12.1;0.14614102291589898;-0.4375186655530973;-0.9101121261251484;0.934;0.05819204632914947
01:12.1;0.1504057982368925;-0.4482172921777063;-0.840103384002689;0.934;0.05663513245413742
01:12.1;0.15025884985475318;-0.4516365216125805;-0.7723567839385701;0.934;0.05241397288055647
01:12.1;0.14667155453042416;-0.44662344287230393;-0.7099386461729558;0.889;0.0465059187032596
01:12.1;0.14101411105168857;-0.43290125104813093;-0.6554765065120668;0.8390000000000001;0.04001368466198958
01:12.1;0.1348637404364879;-0.4110757704997437;-0.6110959327210626;0.764;0.03387867941842614
01:12.1;0.1297956805319275;-0.38255028226899224;-0.5783943905143356;0.687;0.02871923312172463
01:12.1;0.12717742027078976;-0.34936453422187175;-0.5584378115020857;0.633;0.024812106875137976
01:12.1;0.12798978237580846;-0.3139811966143813;-0.5517777995075385;0.607;0.022173955099130616
01:12.1;0.1326957893789803;-0.27904388012392284;-0.5584939028939153;0.604;0.020679883163630456
01:12.2;0.1411696884694508;-0.2471259664916194;-0.5782637749209057;0.6940000000000001;0.02017371235134851
01:12.2;0.15268751433808925;-0.22048770115783178;-0.6104518358697872;0.6940000000000001;0.02055129998890515
01:12.2;0.16597270237928752;-0.2008631060438506;-0.6541911854252905;0.6940000000000001;0.02180929000707139
01:12.2;0.17929009240500254;-0.18929756923037472;-0.7084322718108145;0.755;0.024043609455209506
01:12.2;0.1905871861553917;-0.18604729514347706;-0.7719496511041471;0.8170000000000001;0.027371968642570275
01:12.2;0.1976846423108535;-0.19054711919499157;-0.8433142724396929;0.868;0.03176616365190302
01:12.2;0.19851436847115356;-0.20145969037226352;-0.9208408757677818;0.9209999999999999;0.03682686059467452
01:12.2;0.19139452688481154;-0.21682112055628128;-1.0025210298816318;0.9840000000000001;0.04160299443290362
01:12.2;0.17531458979159947;-0.23428097799265418;-1.0859633218304297;1.053;0.0446036342004731
01:12.2;0.15017799886020852;-0.25140150055109944;-1.1683792887360211;1.153;0.044112129975905114
01:12.3;0.11693091236405599;-0.2659523292626987;-1.2466610077907725;1.409;0.03876872449085766
01:12.3;0.07752743611010401;-0.27613856317636615;-1.3175698467695662;1.409;0.028206950069329124
01:12.3;0.034746307637842845;-0.2807364415460581;-1.378000677469149;1.409;0.013441783071979104
01:12.3;-0.008079339784499038;-0.27915052523141315;-1.4252557821022387;1.568;0.00321445339938311
01:12.3;-0.04737107473507759;-0.27141460236661386;-1.4572829154200233;1.619;0.018736579959133692
01:12.3;-0.07964063521356073;-0.25814060735624184;-1.47285690462402;1.5830000000000002;0.030279702080199644
01:12.3;-0.10184859477388448;-0.24040558427442774;-1.471686948453365;1.5530000000000002;0.036034212157041376
01:12.3;-0.11176471890920522;-0.21957464113602307;-1.4544384105406323;1.571;0.03569293385981052
01:12.3;-0.10827833794642938;-0.19708270692488417;-1.4226742855672354;1.568;0.030359567567115775
01:12.3;-0.09158233020441674;-0.17422102754598856;-1.3787254841687755;1.484;0.021998347765516166
01:12.4;-0.06316072703427515;-0.15198063987755078;-1.3254940341089982;1.188;0.012723692551513607
01:12.4;-0.02556611059298549;-0.1309884319112246;-1.2662055937197092;1.188;0.0042403512621494634
01:12.4;0.017946166493747907;-0.11153698329747366;-1.2041556625965795;1.188;0.002410311755841222
