Time;AccX;AccY;AccZ;Acc-old;Acc-trns
09:19.0;-0.07141596044461793;-0.4009844834830767;-0.9311901383945577;1.016;0.02666620519719546
09:19.0;-0.05845931896854771;-0.3769642719931565;-0.9296049842850959;1.022;0.0204857744022768
09:19.0;-0.044946801869677505;-0.3537529610687439;-0.9264864093485798;1.0390000000000001;0.014731193437218076
09:19.0;-0.030687617458338055;-0.3320935179259708;-0.921266194796149;1.042;0.009388770123713494
09:19.0;-0.01565230254019436;-0.31267173701675105;-0.9137296079157639;1.038;0.004471822510247206
09:19.0;-1.7623595574186435e-05;-0.2960751296741368;-0.9041005928513071;1.014;4.717514028114697e-06
09:19.0;0.01582212759750313;-0.2827490703023918;-0.8930704322454127;0.9790000000000001;0.003995321930644621
09:19.0;0.03128236355423783;-0.272957645226077;-0.8817618721428455;0.9470000000000001;0.007529153261620758
09:19.0;0.04564887299961198;-0.26675663523595833;-0.8716320330896287;0.925;0.010613985089441743
09:19.1;0.05815817590964431;-0.263982933363775;-0.8643265280784181;0.903;0.013269802825756988
09:19.1;0.06808054614985337;-0.2642624169497627;-0.8615013542284049;0.858;0.01549938257723337
09:19.1;0.07479095418759593;-0.26703836412761167;-0.864631652469216;0.821;0.017268470103199058
09:19.1;0.0778195855228232;-0.2716214229413897;-0.8748311985290801;0.892;0.018491715197920536
09:19.1;0.07688202381704437;-0.2772570564874254;-0.8927077859904718;0.892;0.01902903381467457
09:19.1;0.07189541763984345;-0.2832002721096829;-0.9182705255912279;0.892;0.018696724206196818
09:19.1;0.06298723544126734;-0.2887862683880313;-0.9508938729681179;0.943;0.01729661565923231
09:19.1;0.05049836299712622;-0.2934896713974314;-0.9893410228576454;0.992;0.014662773948373788
09:19.1;0.03497669165891161;-0.29696753223572453;-1.031850541673032;1.038;0.010717771530618873
09:19.1;0.01715515378935568;-0.29907964185693214;-1.076285931683783;1.1059999999999999;0.005522161848481443
09:19.2;-0.002088955875975784;-0.29987987708276315;-1.120339742087819;1.206;0.0007018209576944229
09:19.2;-0.021790652862509752;-0.29957810024255915;-1.1617732913449164;1.284;0.007584058819744593
09:19.2;-0.04096347530744974;-0.2984801473317995;-1.1986598121351897;1.341;0.014655754786251385
09:19.2;-0.05867010701322419;-0.2969190163375838;-1.2295898308337287;1.3730000000000002;0.021419787411416442
09:19.2;-0.07409418140816211;-0.295191187833871;-1.253801331949059;1.3730000000000002;0.02742307931694109
09:19.2;-0.0866070770745654;-0.2935078646110506;-1.2712132482542442;1.358;0.03231406057914548
09:19.2;-0.09581893602834853;-0.2919653884503232;-1.2823613033238108;1.344;0.03587509986430532
09:19.2;-0.10160226356090689;-0.2905369368127594;-1.2882522118692863;1.324;0.038028188126800304
09:19.2;-0.10407989119174549;-0.28908900073215754;-1.29016145386118;1.2890000000000001;0.03881883162636919
09:19.2;-0.10357899652569239;-0.28742518854279014;-1.289403391039933;1.238;0.03838710248886399
09:19.3;-0.10056823681299083;-0.2853482577057863;-1.2871075635988138;1.198;0.03693608862614463
09:19.3;-0.09560271004421794;-0.28271424278161833;-1.2840426630021935;1.214;0.03470542325317409
09:19.3;-0.08929150031718945;-0.2794545058660752;-1.2805271194048666;1.273;0.03195288065112667
09:19.3;-0.08228401190858972;-0.27556805266971096;-1.276441614723232;1.33;0.028943115672858743
09:19.3;-0.07526041513143712;-0.27110580526812705;-1.2713249294674442;1.33;0.025939523265614134
09:19.3;-0.0689133245099901;-0.2661611835384786;-1.2645130801030249;1.33;0.02319376468655846
09:19.3;-0.06391482015640236;-0.2608658523219958;-1.2552826924212088;1.328;0.020929571900905608
09:19.3;-0.06086837569152362;-0.25538427003111097;-1.2429738323574424;1.295;0.01932181156614888
09:19.3;-0.060250625460130144;-0.2499040045427815;-1.2270815089181235;1.266;0.018476009923451494
09:19.3;-0.062354421890876484;-0.2446243402471644;-1.2073144864801648;1.2409999999999999;0.018415662036081124
09:19.4;-0.06724772575197402;-0.23974900213241182;-1.1836261060484528;1.234;0.019083100838006507
09:19.4;-0.07475947490665934;-0.2354868289073647;-1.1562228503683862;1.2229999999999999;0.020355154910229056
09:19.4;-0.08449631083719016;-0.2320592725683838;-1.1255515491436507;1.176;0.022069986340719203
09:19.4;-0.0958864083287049;-0.22971036883759768;-1.092262551749166;1.055;0.024058286619945777
09:19.4;-0.10823990086100009;-0.2287144894547343;-1.0571538748329832;1.055;0.026170936913451192
09:19.4;-0.1208116850668275;-0.22937853661019567;-1.0211165247663394;1.011;0.02829678037267944
09:19.4;-0.1328557686001786;-0.23203644625103684;-0.9851062397406851;0.9890000000000001;0.030368244796687247
09:19.4;-0.14367033280023653;-0.2370330628774847;-0.9501551721149234;1.02;0.03235717240411177
09:19.4;-0.152642829269101;-0.24469221318424564;-0.9174176009985922;1.0959999999999999;0.03426601685874712
09:19.4;-0.15930874464915412;-0.255263047227374;-0.888220208786317;1.137;0.036120039351152586
09:19.5;-0.16343138112292147;-0.2688427003941972;-0.8640635186113442;1.026;0.03796464726775794
09:19.5;-0.1650893115923354;-0.28528530393543944;-0.8465197534191642;0.8759999999999999;0.03986901016621004
09:19.5;-0.16472971210130272;-0.3041262820952103;-0.8370155952455937;0.7090000000000001;0.04193333870510529
09:19.5;-0.16313301795702628;-0.3245634569224438;-0.8365572096657508;0.8370000000000001;0.04429320817115161
09:19.5;-0.1612629057531873;-0.3455230099682221;-0.8454921174831844;0.8370000000000001;0.047110858488400804
09:19.5;-0.16003578896250784;-0.3658016201024008;-0.8633749610404371;0.8370000000000001;0.05054313653255603
09:19.5;-0.16008386988417894;-0.3842499234062096;-0.8889494427306064;0.951;0.05468124901563994
09:19.5;-0.16157704754089752;-0.39996341530430213;-0.9202302742713327;1.0290000000000001;0.05946979660125004
09:19.5;-0.16414284231910878;-0.4124501686508095;-0.9546664643703342;1.094;0.0646316289525149
09:19.5;-0.1669070424198101;-0.4217367115226256;-0.9893647347443117;1.183;0.06964220208125772
09:19.6;-0.16865689026798922;-0.42837655049040113;-1.0213438787775908;1.225;0.07379072344350439
09:19.6;-0.16809135598787336;-0.4333532019393184;-1.0477831241816085;1.265;0.07632358997829879
09:19.6;-0.1640854812989601;-0.43790330128903604;-1.0662266687812916;1.2409999999999999;0.0766121967974461
09:19.6;-0.15588509003243625;-0.44330353467525013;-1.0747203266395675;1.107;0.07426791560767872
09:19.6;-0.14318060924276493;-0.4506638632476235;-1.0718838186585742;1.107;0.06916472525657386
09:19.6;-0.12606710966001547;-0.46075911805758446;-1.0569490404086783;1.107;0.06139454470012763
09:19.6;-0.10493555401277231;-0.47392089076963495;-1.0298009441631994;1.124;0.051213186492148975
09:19.6;-0.08033732657413936;-0.49000275902690615;-0.9910382278252754;1.157;0.03901272692700846
09:19.6;-0.05285066264935141;-0.5084215869102502;-0.9420412234484671;1.175;0.025313041233864294
09:19.6;-0.022978016126702777;-0.5282651259062571;-0.8850115461460881;1.178;0.01074269900800633
09:19.7;0.008896189607208489;-0.5484440134482611;-0.8229391582138483;1.13;0.004015171119665789
09:19.7;0.04247253352281814;-0.5678588038954231;-0.7594590476218781;1.056;0.01831693867738938
09:19.7;0.07743708458612496;-0.5855519226527942;-0.6985804384423387;0.993;0.03167603583935898
09:19.7;0.11332559473966743;-0.6008191826305979;-0.6443031923790006;0.7440000000000001;0.043869438955155576
09:19.7;0.14939244471830035;-0.6132654385272922;-0.6001773973857657;0.7440000000000001;0.05498658652957274
09:19.7;0.18452287522127866;-0.6228042088616398;-0.568900000808195;0.7440000000000001;0.06537891159909433
09:19.7;0.21721821370855834;-0.6296152229956827;-0.5520439758858885;0.725;0.07549968383608545
09:19.7;0.24567563876949883;-0.6340781405969179;-0.5499720874325646;0.8170000000000001;0.08567330557007687
09:19.7;0.26797041263194493;-0.6366952827888049;-0.5619349680327509;0.9179999999999999;0.09587481421769231
09:19.8;0.2823213880163336;-0.6380089349660134;-0.5863160722071223;1.012;0.10560934295236642
09:19.8;0.2873879796747488;-0.6385174006459222;-0.6209567696501788;1.078;0.11394694933080457
09:19.8;0.28252967633675224;-0.6385983549760875;-0.6634775456731379;1.09;0.11970660029295924
09:19.8;0.26796861367264657;-0.638450659997941;-0.7115235382414915;1.005;0.12173081830447616
09:19.8;0.2448204225327861;-0.6380640025347707;-0.7629046974886275;1.06;0.11917418100077755
09:19.8;0.21498381910163397;-0.6372209700368522;-0.8156487532455773;1.06;0.11173751529929803
09:19.8;0.18090176049892412;-0.6355272243571886;-0.8680076950275503;1.151;0.09979310324056956
09:19.8;0.14522731383275297;-0.6324570998573382;-0.9184463031019644;1.1079999999999999;0.08435933493746564
09:19.8;0.11044967581117836;-0.627404517283808;-0.965617665097246;1.084;0.06691404574963995
09:19.8;0.07855761094080886;-0.6197407917238903;-1.0083250149347691;1.169;0.04909066231620206
09:19.9;0.05081795001039347;-0.6088859193505779;-1.0454827593528682;1.23;0.032349676952351906
09:19.9;0.02771057279653502;-0.59438858042206;-1.0760968047064827;1.218;0.01772422693289171
09:19.9;0.009004624351977228;-0.575994125387295;-1.099275880562758;1.1840000000000002;0.0057015160752224925
09:19.9;-0.006082498154816341;-0.5536788605983752;-1.1142807037159828;1.167;0.0037526195619381635
09:19.9;-0.018707970754213914;-0.5276455087237384;-1.1206223820753816;1.281;0.01106186159876105
09:19.9;-0.030247687391568356;-0.49829347637841664;-1.1182139916932219;1.281;0.016853973219490115
09:19.9;-0.04217393084654971;-0.46618339665964853;-1.1075523840004082;1.281;0.02177535077392031
09:19.9;-0.05596779495921787;-0.43200489131984804;-1.0898837304802464;1.4469999999999998;0.026351602478414934
09:19.9;-0.0730626666889009;-0.396540401253682;-1.0672965847994427;1.4140000000000001;0.03092203595310539
09:19.9;-0.09480059307538843;-0.36061421832902874;-1.0426779370809829;1.273;0.03564544857985001
09:20.0;-0.12236723070902387;-0.3250307838836711;-1.0194732182262738;1.115;0.0405476275043314
09:20.0;-0.15667561583841458;-0.2905242300484186;-1.0012379743669904;0.9159999999999999;0.04557441285362389
09:20.0;-0.19820020342010058;-0.2577427129113073;-0.9910430846129431;0.6990000000000001;0.05062709716863089
09:20.0;-0.24680348411217629;-0.2272768311180305;-0.990858872514759;0.551;0.05557996313026765
09:20.0;-0.30162264110509623;-0.19972526336501525;-1.0010743323423132;0.852;0.060306380996797436
09:20.0;-0.3610699932292295;-0.17577936185230852;-1.0202873328356625;0.852;0.06475626268176875
09:20.0;-0.42295205812309655;-0.1563005426794722;-1.0454288075380558;0.852;0.0691108272943122
09:20.0;-0.48467441003780265;-0.1423609497473845;-1.0722073235140321;1.217;0.073980921457966
09:20.0;-0.5435005985677012;-0.13522179140178167;-1.0958146031029659;1.5390000000000001;0.0805348391273787
09:20.0;-0.5968365869945643;-0.13623665061751422;-1.1117832075263283;1.766;0.09040022393024091
09:20.1;-0.6424933558156585;-0.1466905546542099;-1.1168186172236272;1.8530000000000002;0.10525759350250131
09:20.1;-0.678873106123865;-0.1676128672181513;-1.1093930258508673;1.8230000000000002;0.12623546695789545
09:20.1;-0.7050484004408616;-0.19961432036202817;-1.0899275923375826;1.649;0.15339396493918983
09:20.1;-0.7207319249638752;-0.24278693379615307;-1.060486194379545;1.439;0.18556842818036187
09:20.1;-0.7261470305501269;-0.29668212083625256;-1.0240282366572746;0.833;0.22061136040783222
09:20.1;-0.7218183413832994;-0.36035718156232976;-0.9834092604007404;0.833;0.25579696562268217
09:20.1;-0.7083190865141364;-0.43246045862955146;-0.9404358749985058;0.833;0.2880743144176093
09:20.1;-0.6860233613395361;-0.5113271043875496;-0.8952864988418385;0.84;0.31405069204571406
09:20.1;-0.6549091705914563;-0.5950764369869426;-0.846477576335947;0.973;0.3298901008894098
09:20.1;-0.6144579013116359;-0.6817055791307277;-0.7913848670056937;1.206;0.3314948020094159
09:20.2;-0.5636983080820978;-0.7691584359664279;-0.7271996328060082;1.524;0.31529435110026616
09:20.2;-0.5014254359722886;-0.8553440064137194;-0.6520971476687838;1.785;0.27967875512638496
09:20.2;-0.4265787915532657;-0.9380962577603721;-0.5663101889375873;1.945;0.2266214628033751
09:20.2;-0.3387014630058504;-1.0151038863563908;-0.4727644800823277;1.819;0.1625445462858923
09:20.2;-0.23835284301520585;-1.0838755577343564;-0.3769977592017398;1.193;0.09739541849045008
09:20.2;-0.12735865375974983;-1.1418022211203989;-0.2863091169744164;1.193;0.04163461190404881
09:20.2;-0.008854683158133942;-1.1863193028130443;-0.2084081983953559;1.193;0.002189220075076953
09:20.2;0.1128600152430041;-1.215119668631362;-0.15000491411281242;1.401;0.020571437562259483
09:20.2;0.2326398081621924;-1.2263669932013028;-0.11567586447539051;1.452;0.03300253027324444
09:20.2;0.34495271787299325;-1.21887309976493;-0.10715689122976287;1.339;0.04505449945072156
09:20.3;0.44442130256642554;-1.1922097848777293;-0.12311292640989858;1.359;0.06523057465577242
09:20.3;0.5263581913225502;-1.146747110705677;-0.15937703211382226;1.403;0.09619993436419425
09:20.3;0.5872188942606241;-1.0836362923424412;-0.2095761406749598;1.367;0.13335994300056245
09:20.3;0.6249120169904098;-1.0047587144038743;-0.2660042229613979;1.409;0.16702027295608687
09:20.3;0.6389287797469099;-0.912653848621713;-0.3205863705409974;1.204;0.18694058401070904
09:20.3;0.6302870777111648;-0.8104392911289322;-0.3657929051393908;1.204;0.18685045895920135
09:20.3;0.6013207596276194;-0.7017391126106032;-0.3954047365347081;1.204;0.16684905381634685
09:20.3;0.5553606850511129;-0.5906210592152322;-0.4050858936493362;1.062;0.13287129878055315
09:20.3;0.49634777010526687;-0.48151111786434364;-0.39276063312352527;0.9179999999999999;0.09386860110760654
09:20.3;0.4284162309492728;-0.3790385038863208;-0.3588059004424982;0.731;0.05826514365311705
09:20.4;0.35549848402965306;-0.28778437674559415;-0.3060666937253723;0.5539999999999999;0.031312737585042626
09:20.4;0.28100867410299724;-0.2119464417413309;-0.23970129923837352;0.408;0.014276319002390313
09:20.4;0.20764589571079772;-0.1549661909250986;-0.1668678689974555;0.32;0.005369489894005238
09:20.4;0.13733068092955064;-0.11918394541704302;-0.09626560932725617;0.223;0.0015756381789923594
09:20.4;0.07126096316890213;-0.10558226228698928;-0.0375432205180032;0.127;0.0002824712004878872
09:20.4;0.010058259202530308;-0.11365457535866402;-0.0005880552954522645;0.127;6.722455129105923e-07
09:20.4;-0.04602243458044905;-0.1414110600343896;0.005292747230129412;0.127;3.4445629059065234e-05
09:20.4;-0.09684031345629618;-0.18552328889649666;-0.027704960741551148;0.05;0.0004977510219146983
09:20.4;-0.14210669207414625;-0.2416090333809452;-0.10486894698134303;0.38;0.0036005977449617413
09:20.4;-0.18117033932417487;-0.3046497772240535;-0.22793871262734014;0.7140000000000001;0.012580736136536949
09:20.5;-0.2129308398965082;-0.3695042359668109;-0.39423632377459983;1.0490000000000002;0.031018059522211257
09:20.5;-0.2359634726223782;-0.4314359949075674;-0.596243714111355;0.895;0.0606994796620367
09:20.5;-0.24888902140240698;-0.48653685452137047;-0.8219185354540828;0.9940000000000001;0.09952914143179513
09:20.5;-0.250912660902417;-0.5319394898868163;-1.0558977052183907;1.425;0.14093103928538786
09:20.5;-0.24235162659309606;-0.5657842456571908;-1.2814715773468015;2.741;0.17571375808196338
09:20.5;-0.22496350230863527;-0.5869961622136743;-1.4829206980314749;2.741;0.19582370058753776
09:20.5;-0.20198447500124828;-0.5949957901317785;-1.64762250496873;2.741;0.19801112814689203
09:20.5;-0.17789130529712913;-0.5894799502350795;-1.7673922202241599;2.439;0.18533468275135348
09:20.5;-0.15793951360728195;-0.5703498416145613;-1.8388232243742606;2.0540000000000003;0.16564262402767718
09:20.5;-0.1475391068204627;-0.5377686836699177;-1.8627413335105765;1.712;0.14779345759243967
09:20.6;-0.15155315206956185;-0.49227018037477294;-1.8430997913694607;1.5759999999999998;0.13750463964775922
09:20.6;-0.1736276079926645;-0.43484105048143556;-1.7856892863383156;1.531;0.13482027584416595
09:20.6;-0.21566038837412846;-0.3669304921370854;-1.696965460504307;1.431;0.1342849028394508
09:20.6;-0.2774968230718068;-0.29036352707032287;-1.5831667843784734;1.324;0.12756359446364438
09:20.6;-0.3569040249805837;-0.20716423985540128;-1.4497776235209705;1.23;0.10719329698608902
09:20.6;-0.44983086222859353;-0.11933947918140024;-1.301320895071131;1.23;0.06985826411991292
09:20.6;-0.5509173133804589;-0.028704467282852763;-1.1414295396697305;1.263;0.018050324754405753
09:20.6;-0.6541950758399102;0.0631837983933289;-0.9731190775589857;1.38;0.04022341949257764
09:20.6;-0.7539077643942886;0.15496759878642838;-0.7991585652521304;1.445;0.09336671486847567
09:20.6;-0.8453472344817543;0.24532768474092045;-0.6224311871307117;1.445;0.12908418629885718
09:20.7;-0.9255673550188599;0.332767582680922;-0.4462054929114947;1.446;0.13743076142922708
09:20.7;-0.993835855978187;0.4154046167695221;-0.2742966194018565;1.469;0.1132417143315291
09:20.7;-1.0517242778269777;0.49083317209932925;-0.11114710027179514;1.449;0.05737648541747711
09:20.7;-1.1027954521737093;0.556111396348722;0.0381364172441304;1.3119999999999998;0.02338819208865728
09:20.7;-1.1519180320242717;0.6078909487874095;0.16779074581846853;1.163;0.11749388336710463
09:20.7;-1.2043189494882427;0.6426675343246435;0.2714976467397134;1.163;0.21013284991427975
09:20.7;-1.2645531162789498;0.6570936724577858;0.34266201325614515;1.163;0.28472809568465296
09:20.7;-1.335578877813838;0.6482871369714758;0.3749497364867678;1.3969999999999998;0.3246459574962913
09:20.7;-1.4180736764805897;0.6140875135157559;0.36311062464315397;1.4369999999999998;0.3162044799836406
09:20.7;-1.5100703204406614;0.5532356643235391;0.30397912868723415;1.32;0.253951689687498
09:20.8;-1.6069929444844075;0.4654793810316648;0.1974010727641549;1.5030000000000001;0.14766036126453236
09:20.8;-1.7021787407915698;0.35164786539965975;0.04679494911207837;1.8969999999999998;0.028009936672611372
09:20.8;-1.7878858290681936;0.2137389756130738;-0.14084409121670907;2.432;0.05382228575163909
09:20.8;-1.8565952144028013;0.05499529731538128;-0.3555254756812127;2.977;0.03630057523469838
09:20.8;-1.9022416613011717;-0.1201216912541055;-0.5853076154975265;2.614;0.13374307432530813
09:20.8;-1.921013635648032;-0.3061202138185299;-0.817565918993746;2.614;0.4807787176462308
09:20.8;-1.9115682060975645;-0.4967836705461724;-1.0401777572093793;2.614;0.987790109343655
09:20.8;-1.87473959985127;-0.6854946205219821;-1.2423744094385654;2.12;1.5966050594591992
09:20.8;-1.8129290881219737;-0.8655341501368498;-1.4152048291083403;1.972;2.2206715411403284
09:20.8;-1.7293985555123423;-1.0303746619900376;-1.5517479528621931;2.39;2.7651038276652784
09:20.9;-1.6277035186630673;-1.1739764955089482;-1.6472485838259432;2.736;3.147703717990349
09:20.9;-1.511425524087083;-1.2910662904566461;-1.6992416609963203;2.8339999999999996;3.3158161407359383
09:20.9;-1.384203790997655;-1.3773630615613353;-1.7076032374792536;2.824;3.2556329526911254
09:20.9;-1.2499461671958827;-1.4297247860932363;-1.6744316865558064;2.8339999999999996;2.992341731643749
09:20.9;-1.113083594648768;-1.4462054645594837;-1.6037092851303636;2.359;2.581567136099447
09:20.9;-0.9787642016731899;-1.4260342237228059;-1.5007767386885436;2.241;2.0947110068053734
09:20.9;-0.8528930696341199;-1.369549605270046;-1.371749178148252;2.241;1.6023119114952313
09:20.9;-0.7419201362940052;-1.2781343623370365;-1.2230356141913439;2.037;1.159772409633799
09:20.9;-0.6523295627770938;-1.154180039818942;-1.0610284213585068;1.7169999999999999;0.7988544107508964
09:20.9;-0.5899082285609476;-1.001070792098223;-0.8918907420737111;1.58;0.5266970675220385
09:21.0;-0.5589754847665611;-0.8231465464495922;-0.7213240856462322;1.14;0.3318947293005973
09:21.0;-0.5617470694703052;-0.6256038033133006;-0.5542628998344346;0.8109999999999999;0.19478522232987708
09:21.0;-0.5979235103217168;-0.41430891210188864;-0.3945430666908493;0.589;0.09773819661533846
09:21.0;-0.6645346143456077;-0.19551902411291952;-0.24466282471080664;0.5489999999999999;0.03178883512323965
09:21.0;-0.756050450358245;0.024477240344291613;-0.10576673893706154;0.772;0.00195732229419914
09:21.0;-0.8647461484164545;0.23975541153091445;0.022076816144160998;0.772;0.004577132615438456
09:21.0;-0.981287065821342;0.4450981274921395;0.13934357533854852;0.772;0.060860959007827085
09:21.0;-1.0955144168956514;0.6362049579726139;0.24639935086346013;1.205;0.17173337532725844
09:21.0;-1.1974334485877547;0.8097660622766284;0.3428982992654171;1.784;0.3324882389971435
09:21.0;-1.278360873421907;0.9634470622009699;0.42742154071399524;2.265;0.526426486392512
09:21.1;-1.3320641387062422;1.095803186212411;0.4975277857264836;2.5789999999999997;0.726231421670986
09:21.1;-1.355612856013192;1.2060939983780292;0.5502848046943369;2.813;0.8997137460557864
09:21.1;-1.3496532544725328;1.2939777163773363;0.5831634006721893;2.424;1.0184489470639717
09:21.1;-1.3179486569253254;1.3591557401753378;0.5950033656192936;1.551;1.0658280308036445
09:21.1;-1.26631589470589;1.401166124879727;0.5867048880584023;2.161;1.0410015921734923
09:21.1;-1.2013983445224068;1.4195154932243943;0.5613961903492625;2.161;0.9574070636039426
09:21.1;-1.129754630621564;1.4141016150525323;0.5240319620988597;2.174;0.8371870944948436
09:21.1;-1.057434423396019;1.385647551837662;0.48056381814831034;2.283;0.7041372056697052
09:21.1;-0.9898396321464966;1.33589923093918;0.43690164499954653;2.903;0.5777264060838845
09:21.1;-0.9314727419857969;1.267536937096287;0.3978709147255242;0.851;0.4697566824341549
09:21.2;-0.8852643311191241;1.1839041957213199;0.3663341416082151;1.67;0.38394314825111825
09:21.2;-0.8515924038928746;1.0887014216576383;0.34264403318674524;1.158;0.3176755147893002
09:21.2;-0.8275555721329028;0.9857335835680562;0.3246064195934654;1.001;0.264797465960205
09:21.2;-0.8070731466738283;0.8787093596589591;0.30802313361635375;1.165;0.2184446861579561
09:21.2;-0.7819686755159133;0.7710691194899272;0.2876537894992075;1.675;0.17344139837384828
09:21.2;-0.7437470243380729;0.6658600284264214;0.25829490350667506;1.675;0.1279157504909271
09:21.2;-0.6855446017674228;0.5656968422072657;0.21574082506873607;1.675;0.08366653920698977
09:21.2;-0.6037503119946525;0.4728240488223349;0.157526947506761;1.5030000000000001;0.044968850193608266
09:21.2;-0.4989877718172801;0.38925375020982983;0.08342334271190506;1.249;0.016203554569887733
09:21.3;-0.3763636398228162;0.3169281509091508;-0.004342141958197133;0.9109999999999999;0.0005179317020546426
09:21.3;-0.24502708165154505;0.2578605049673168;-0.10114763262267994;0.597;0.00639079135104535
09:21.3;-0.11716928322007371;0.21422140792008237;-0.20033629239468337;0.39;0.005028474759156435
09:21.3;-0.006643974234777774;0.18833947416921895;-0.2938603033640484;0.446;0.0003677140428893
09:21.3;0.07259725914509775;0.1825900028720549;-0.37315454243537005;0.642;0.004946362633384656
09:21.3;0.10808270168266207;0.19916693645863132;-0.4301321501370754;0.927;0.0092592399786746
09:21.3;0.09026984454579369;0.23976142560799862;-0.4581668510379976;0.927;0.009916208985738839
09:21.3;0.013747681609396569;0.30518677418877893;-0.45293357928025607;0.927;0.0019003329276585884
09:21.3;-0.1219085537589422;0.3949945752927159;-0.41301374234545135;0.87;0.01988794053118869
09:21.3;-0.31171428158846437;0.5071305100495564;-0.3402188671450936;0.804;0.05378173816744618
09:21.3;-0.5453624728730959;0.6376827024942447;-0.23961837117439494;0.807;0.08333165335407886
09:21.4;-0.8078983593336964;0.7807770787745864;-0.11925553687704132;0.897;0.0752250237214504
09:21.4;-1.0810201098286452;0.9286694841541789;0.010481666536606163;1.489;0.010522653917081452
09:21.4;-1.344914895451189;1.0720726264573261;0.13784324750440108;2.175;0.19874879628883638
09:21.4;-1.5803466126047596;1.2007481122553092;0.2509535317901256;3.014;0.47620897316839067
09:21.4;-1.7705793697595984;1.3043834102215497;0.339068802513629;2.897;0.7830842672108693
09:21.4;-1.9027753252545971;1.3737040916942007;0.39360197283362997;2.897;1.0288166150432654
09:21.4;-1.9687305937987551;1.4016407931862043;0.4088097012300539;2.897;1.1280912018916127
09:21.4;-1.965040174945295;1.3843058885195831;0.38222421908245874;2.775;1.0397326982946309
09:21.4;-1.89287903082133;1.3216099922338398;0.31493667511260265;2.5980000000000003;0.7878606534175101
09:21.5;-1.7575851670099294;1.2174627379848433;0.21169873865333;2.4819999999999998;0.4529917859724204
09:21.5;-1.5681882810113423;1.079561994559006;0.08069904463320057;2.431;0.13661996961295508
09:21.5;-1.3369202593563443;0.9188006705223055;-0.06707146073934032;1.995;0.0823881162036546
09:21.5;-1.078609564982871;0.748349437387141;-0.2188031193755857;1.472;0.17661281509982601
09:21.5;-0.8098276587304835;0.5825119870383224;-0.36106887724214215;0.987;0.1703285807899849
09:21.5;-0.5477574193530543;0.43548449317540117;-0.4811447762488249;1.06;0.11477220860060197
09:21.5;-0.3088965444870159;0.32016679731431796;-0.5683576850794378;1.06;0.05620967554299088
09:21.5;-0.10778971291107986;0.24715550239634834;-0.6152996022242834;1.239;0.016392086347455884
09:21.5;0.0440433431029623;0.22399207036469662;-0.618704715425505;1.236;0.006103744508476097
09:21.5;0.13890812526233512;0.25466892756179227;-0.579837330148419;1.136;0.02051208376741983
09:21.6;0.17345021127611324;0.3393662571382103;-0.5043343283912854;0.9470000000000001;0.029686706718216965
09:21.6;0.14887338245996304;0.47441354309194533;-0.40152719063066894;0.879;0.0283588812688284
09:21.6;0.0708291161388544;0.6524992377383113;-0.2833264422621654;0.89;0.013094199071551701
09:21.6;-0.05108156420681771;0.8631516789984517;-0.16278249149930238;0.897;0.007177265282188983
09:21.6;-0.2042777953929473;1.0934893764517357;-0.052450472149624096;1.014;0.011716155639876174
09:21.6;-0.37468554894004413;1.329206391571495;0.03727911514334376;2.6660000000000004;0.018566282730118747
09:21.6;-0.5485991684688468;1.555709401280229;0.0996400039562192;2.6660000000000004;0.08503884585041671
09:21.6;-0.7145009209480188;1.7592647397257335;0.1324143332011497;2.6660000000000004;0.16644432381892343
09:21.6;-0.8643187179686285;1.9280150171581913;0.13804833171480071;3.176;0.2300464274743702
09:21.6;-0.9937939777881186;2.0527903966339327;0.12296117432685268;2.892;0.25084703391884267
09:21.7;-1.1019440101673659;2.1276664610166387;0.09636251053990545;2.573;0.2259285850729893
09:21.7;-1.1898848684937733;2.1502070965344013;0.06888661830019592;2.5980000000000003;0.17624633633939912
09:21.7;-1.2594794372716196;2.1213700578305814;0.05107515173254292;2.536;0.13646371235058985
09:21.7;-1.3122699004016665;2.0451163064205256;0.05170166193053776;2.445;0.13875405455582537
09:21.7;-1.348924326320874;1.9277880500276228;0.07621930530737005;2.447;0.19820374528377238
09:21.7;-1.3691730658980394;1.77734125153525;0.12577397173193028;2.105;0.3060694220583211
09:21.7;-1.3720857013943777;1.6025493946504628;0.19705629961612228;2.105;0.433294310277708
09:21.7;-1.3565176317527723;1.4122892368919175;0.28298085431061043;2.015;0.5421333768061215
09:21.7;-1.321578559453939;1.214966122135583;0.37399442678435757;1.949;0.6005128196136342
09:21.7;-1.2670252575183845;1.018077582062792;0.45975818193678575;1.921;0.5930558764930874
09:21.8;-1.193534361533394;0.8278981704501993;0.5309238244583724;2.044;0.5246190585337018
09:21.8;-1.1028425812664986;0.649296666317118;0.5806854490489688;2.032;0.41581259754283184
09:21.8;-0.9977497340843575;0.48571740995207335;0.6057958593321767;1.922;0.2935834649195611
09:21.8;-0.8819761541776937;0.3393372010639736;0.6068307368558596;1.4380000000000002;0.18161674466253178
09:21.8;-0.7598712951605465;0.21136491893217266;0.587649386855521;0.853;0.09438244717952793
09:21.8;-0.6360034907144846;0.10241607808379391;0.5542081598844214;0.36;0.036099447581172915
09:21.8;-0.5147147042332164;0.012889989366940184;0.5130760630585959;0.36;0.0034040888571961188
09:21.8;-0.39976068937308756;-0.05670132389226189;0.4700802683767545;0.285;0.010655290794053996
09:21.8;-0.29413855016880913;-0.10548637340498221;0.4294154283121391;0.151;0.013323733980714098
09:21.8;-0.20014138326973888;-0.1321075380151361;0.39335515918550545;0.335;0.010400383336403437
09:21.9;-0.11961773500364356;-0.1347519176055742;0.3625171674274372;0.698;0.005843312416565696
09:21.9;-0.0543615095018107;-0.11134890354122357;0.33649586229442846;0.885;0.002036841245881326
09:21.9;-0.006502999577035791;-0.05990335241409038;0.31460006026211224;0.7609999999999999;0.00012255291763976452
09:21.9;0.021260118052867774;0.021091396706734572;0.29644990466791254;0.6679999999999999;0.00013292979259528083
09:21.9;0.025721150918427648;0.1322191437175954;0.282286434101182;0.61;0.0009600077643310388
09:21.9;0.003553248262459785;0.2727363873180565;0.2729596718090925;0.325;0.0002645252437032386
09:21.9;-0.04803080488495537;0.44023752329836807;0.26964491289681874;0.325;0.005701631594325541
09:21.9;-0.1304851867334811;0.6304142206981896;0.2734006964133016;0.517;0.02248986399856217
09:21.9;-0.24317832821588686;0.8369314042586544;0.2847100059171251;0.628;0.05794519958606931
09:21.9;-0.3828492567609569;1.0514622892835845;0.3031095540321936;0.711;0.12201722260333325
09:22.0;-0.543400330926305;1.2639450088621993;0.32694267195218;1.0290000000000001;0.22455342598466743
09:22.0;-0.7160884275443834;1.463114341212152;0.3532415279116527;1.499;0.3700979479563825
09:22.0;-0.890112821942909;1.6373091273594207;0.3777847334949072;1.9040000000000001;0.5505796352291991
09:22.0;-1.05355114957248;1.7754770449179498;0.39542108652689056;2.375;0.7396572391561632
09:22.0;-1.194541087691765;1.8682421617777318;0.40069058732234925;2.8819999999999997;0.894217987819798
09:22.0;-1.302536703524062;1.9088881213582172;0.3886225461143391;3.0380000000000003;0.9662698709962502
09:22.0;-1.369428748439987;1.8941185209656577;0.3555008897834739;3.0380000000000003;0.9221196643767243
09:22.0;-1.390344254528899;1.8244760020122568;0.2994397331575721;3.0380000000000003;0.7595737173442302
09:22.0;-1.3640182768775089;1.7043404595412235;0.22071540204072995;2.625;0.5131084700975717
09:22.0;-1.292719558562855;1.5414847559169078;0.1218529295588893;2.103;0.24281724580040404
09:22.1;-1.1817870121249703;1.3462460921856252;0.007479661026461952;1.632;0.01189996227976642
09:22.1;-1.0388905447146564;1.1304582791625766;-0.1160166965460347;1.249;0.13625260921825924
09:22.1;-0.8731600134790524;0.906336706301719;-0.2409602909122364;0.882;0.19069042507894024
09:22.1;-0.694319700173129;0.6854898061719175;-0.3589278183588212;0.634;0.17083136374732172
09:22.1;-0.5119307817112668;0.4781744185699878;-0.4613413687575809;0.466;0.11293277040511888
09:22.1;-0.33480078903356403;0.292848893461847;-0.5401456605732567;0.8909999999999999;0.0529591433657407
09:22.1;-0.17058359285054467;0.1360221293804101;-0.5885839415708365;0.8909999999999999;0.013656997679777766
09:22.1;-0.025568875480101068;0.012354582344082942;-0.6019931833810733;0.8909999999999999;0.0001901652987731498
09:22.1;0.09536992289293737;-0.07506543211233067;-0.5784682315910668;0.977;0.004141245087782255
09:22.1;0.18873653793157333;-0.12436967512872416;-0.5192678658216557;0.92;0.01218882753170613
09:22.2;0.25235741485843005;-0.1345834482945895;-0.4288972345708705;0.792;0.014566693003737141
09:22.2;0.28535133345631786;-0.10540557355426552;-0.3148413405649508;0.601;0.009469678506392545
09:22.2;0.2881118492393629;-0.037144253906168184;-0.18696416677202987;0.45799999999999996;0.0020008343640003597
09:22.2;0.26226029429598396;0.06917870669437741;-0.05664147200747098;0.40399999999999997;0.0010276364829776502
09:22.2;0.21052532445100217;0.21157850396299524;0.0642726190919855;0.32299999999999995;0.0028628716966106037
09:22.2;0.1365278124816281;0.3867623344231056;0.16456043536154483;0.319;0.008689418862341574
09:22.2;0.04449025036309121;0.5897603922712089;0.23479194970049708;0.319;0.006160609118010291
09:22.2;-0.06107270942340031;0.8136327596911178;0.2684880752458981;0.555;0.013341375733968595
09:22.2;-0.1756305554927215;1.0493830863150992;0.263244725764042;1.614;0.048516986012621804
09:22.2;-0.2948807727109492;1.2862156686120516;0.22163689134849246;3.2969999999999997;0.08406250004431412
09:22.3;-0.4149872533286954;1.5122131575118396;0.15148327018769628;1.597;0.09506320269945674
09:22.3;-0.5327756300843267;1.7153878344958566;0.0649957692518578;2.9530000000000003;0.059400727681614605
09:22.3;-0.6457815974450117;1.8849177755189546;-0.023196699959363853;2.569;0.028236071962685207
09:22.3;-0.7521191647468215;2.0122763486688777;-0.09851801918443018;2.544;0.14910422477417024
09:22.3;-0.8502720301584179;2.091976105056167;-0.14867252595090977;2.983;0.2644510726514722
09:22.3;-0.9389219006465847;2.1218005284032238;-0.16528643613897911;2.4419999999999997;0.3292844620159474
09:22.3;-1.016824962495092;2.102578174655459;-0.14489077349818594;2.4419999999999997;0.3097698049365458
09:22.3;-1.0826960580908063;2.0376586861562065;-0.0891872820154731;2.282;0.19676186245675462
09:22.3;-1.1351006715690193;1.9322671126026996;-0.004565558514375175;2.136;0.01001372028702623
09:22.3;-1.172404415807965;1.7928579485674292;0.09904494944186136;1.963;0.20818798469087038
09:22.4;-1.1928332095457665;1.6265210331383326;0.20979362554819414;1.929;0.4070349427437178
09:22.4;-1.1946631540278552;1.440471967745247;0.3157352606463024;1.992;0.5433421114938374
09:22.4;-1.1765165332422054;1.2416728012078737;0.40656589452823;2.185;0.5939312094939903
09:22.4;-1.1377047743830786;1.0366210624021643;0.4749674836188508;2.204;0.5601617988592732
09:22.4;-1.0785300296890379;0.8313037386884323;0.5173159926148921;1.9240000000000002;0.463818300334723
09:22.4;-1.0004468125380537;0.6312678809405118;0.5336426485529254;1.1420000000000001;0.3370219823252846
09:22.4;-0.906025680676042;0.4417483034216005;0.5269384703050093;1.1420000000000001;0.2108993805881049
09:22.4;-0.7987468641858056;0.2678106469877525;0.5020703698800377;0.78;0.10739933609360387
09:22.4;-0.6827176026009946;0.11447464455298088;0.46462765420231933;0.573;0.036312442263392614
09:22.4;-0.5624124353655746;-0.01322981166524352;0.419943248128711;0.48;0.0031246341826175745
09:22.5;-0.4425035721798783;-0.11032080326430876;0.37243021595175446;0.488;0.018181056027728466
09:22.5;-0.3277983115092568;-0.1720594320280752;0.3252893496157799;0.556;0.018346576719156328
09:22.5;-0.2232411364245176;-0.194270323292028;0.2805609634132404;0.5820000000000001;0.012167684262605059
09:22.5;-0.13390123407346455;-0.17374251944545616;0.23941603310342907;0.588;0.005569855460421802
09:22.5;-0.06486991761727623;-0.10864118780311963;0.20254273018155797;0.565;0.0014274289856560868
09:22.5;-0.021017883106223146;0.0011410171359519917;0.17050133787109575;0.377;4.088922980460952e-06
09:22.5;-0.006598215385994019;0.15372774020050653;0.14396812792091845;0.377;0.00014603100988705406
09:22.5;-0.02473047330162239;0.3450745532711313;0.12382761035629224;0.377;0.0010567271227435893
09:22.5;-0.07683993052874029;0.5688188966277061;0.11109249056159123;0.39399999999999996;0.004855631077416414
09:22.5;-0.16213554739372574;0.8161842818306747;0.10665474939734235;0.578;0.014113888057734496
09:22.6;-0.27721851260785335;1.0760206817068727;0.11091650984690493;0.688;0.033085602157948216
09:22.6;-0.4159298440997377;1.3350770230009796;0.12339370874573458;0.789;0.06852032632659232
09:22.6;-0.569533281758275;1.5785953764283804;0.1424021235050571;1.226;0.12802842415951998
09:22.6;-0.7272767562797539;1.791300781246696;0.16493791195478427;1.9880000000000002;0.21487639805063352
09:22.6;-0.8773109792331898;1.9587817016986409;0.18685738039274746;2.702;0.3211070633684919
09:22.6;-1.0078803901866131;2.0690927939490114;0.2033902600951581;3.435;0.4241496522994309
09:22.6;-1.1086234368806176;2.1142540524592457;0.20987885383619753;3.435;0.4919374788580754
09:22.6;-1.1717396393768922;2.0912893177225973;0.2025326477804961;3.435;0.49629543631607687
09:22.6;-1.1927779459929833;2.002559856709961;0.17901526052853198;2.952;0.42759750407734337
09:22.6;-1.1709105014044738;1.855328915013072;0.1387864451280228;2.351;0.3015030195578734
09:22.7;-1.1086982688803826;1.6606772228833904;0.08320566066816147;1.751;0.1531974272187655
09:22.7;-1.0114551419521305;1.4320383589805414;0.015426958083963823;1.286;0.02234506268581292
09:22.7;-0.8863763461450952;1.183682715140375;-0.05989773348890997;1.0;0.06284400476941619
09:22.7;-0.7416175996229147;0.9294221702077635;-0.13708692380287654;0.774;0.09449070440724344
09:22.7;-0.5854846606157131;0.6816786954166761;-0.21001521112429156;0.568;0.08381967907197026
09:22.7;-0.4258351895050316;0.450938708573001;-0.2727393389987137;0.552;0.05237292714729396
09:22.7;-0.2697306382106645;0.24555292233281767;-0.32009910890839893;0.552;0.0212011711605489
09:22.7;-0.1233138161426905;0.07182688208569937;-0.34824186439234506;0.552;0.0030844641848502535
09:22.7;0.008166547840901718;-0.06567043072503553;-0.35502456015509093;0.628;0.00019039992518697912
09:22.7;0.120291255955361;-0.16368985532026537;-0.3402577535600556;0.627;0.0066998311021545884
09:22.8;0.20945624400850366;-0.2199068872828887;-0.30576168541807486;0.5710000000000001;0.014083649439283698
09:22.8;0.2729415890763012;-0.2326546531449107;-0.25520560322150254;0.515;0.016205844374566986
09:22.8;0.3090318730973646;-0.20084434051367644;-0.1937283909083381;0.47100000000000003;0.012024198689767772
09:22.8;0.31711742336000515;-0.12408697455255929;-0.12739618084731255;0.457;0.005013057761073911
09:22.8;0.29770981045593575;-0.002991914971540389;-0.06260362543825158;0.43799999999999994;5.576245394545778e-05
09:22.8;0.25234193639624886;0.16041597210222863;-0.005531534208652658;0.15;0.00022391471824202637
09:22.8;0.18337779475476493;0.3622387079744037;0.038280506107860095;0.15;0.0025428413957559264
09:22.8;0.09380799638568017;0.5962919084207875;0.06427751986649688;0.15;0.003595488362828081
09:22.8;-0.012886479654067438;0.8538371056374063;0.06924199180254396;0.297;0.0007618664845784823
09:22.8;-0.13277450689808398;1.1235936417028438;0.05174233240748497;0.607;0.0077191587354160695
09:22.9;-0.26146839732630783;1.3921665450664138;0.012684343454632594;1.6440000000000001;0.00461719685213828
09:22.9;-0.39417098002692186;1.6449524076458324;-0.04418506613677324;2.202;0.028649265610826213
09:22.9;-0.5258566166232211;1.8674507452193432;-0.11214503645500638;2.423;0.11012769646841947
09:22.9;-0.6515720770380714;2.046773178498717;-0.18202635325220948;3.076;0.2427540309383508
09:22.9;-0.766772161003576;2.173049884449709;-0.24337212678933398;2.971;0.40551495024264395
09:22.9;-0.8676310741146798;2.240420229059453;-0.28594758684959737;3.096;0.5558415642721215
09:22.9;-0.9513056003613117;2.247407564795441;-0.3013131912441234;3.096;0.6441989861314754
09:22.9;-1.0160923771368513;2.196672950048525;-0.2842235694909626;2.7030000000000003;0.6343934418137493
09:22.9;-1.0613981842549802;2.0942931492524712;-0.23358577299164288;2.381;0.5192328968482207
09:22.9;-1.087503404340016;1.9487683771725834;-0.15275566672541385;2.084;0.32373389978624867
09:23.0;-1.0951960557449842;1.7699674847201115;-0.04909771973028222;1.796;0.09517403492101284
09:23.0;-1.0854109078440646;1.5681732496380212;0.06713099689423091;1.575;0.1142644989181612
09:23.0;-1.0590010466388677;1.3533180647034033;0.1844056798991336;1.604;0.2642838117727661
09:23.0;-1.016714262563441;1.1344453082368806;0.29179043799949966;1.943;0.33655305347424586
09:23.0;-0.9593694995642772;0.9194036816956896;0.38065149572848195;2.149;0.3357528334088557
09:23.0;-0.8881488733987992;0.7147609804276681;0.44583113329661556;1.5430000000000001;0.28301991616987027
09:23.0;-0.8048698668129992;0.525901333839977;0.48601163100743805;1.5430000000000001;0.20572004154861492
09:23.0;-0.7121168719169404;0.3572477226310337;0.5032458529119507;0.9570000000000001;0.12802681726659837
09:23.0;-0.613182537393676;0.21253499272262938;0.5018688265491669;0.601;0.06540492366921843
09:23.0;-0.5118514481828873;0.09506172048393467;0.48713769802241036;0.44;0.023702892456050034
09:23.1;-0.41211719744941494;0.007875124559901274;0.46397545806854323;0.326;0.0015058204079139764
09:23.1;-0.31793824794189973;-0.04613358277230306;0.43611909248334224;0.253;0.00639683369290653
09:23.1;-0.23310203597658896;-0.06424130453386334;0.40580959749832024;0.435;0.006076908990177087
09:23.1;-0.16120318083773824;-0.04402567267546557;0.3739813833163719;0.586;0.002654175225138868
09:23.1;-0.10568419529633226;0.016388741070039476;0.34078134719877134;0.667;0.0005902438275496089
09:23.1;-0.06985731087980952;0.11799856567505192;0.30620065270997254;0.684;0.0025240311134607546
09:23.1;-0.05682949604851436;0.26053239346488855;0.2706290309750661;0.684;0.0040069130339327455
09:23.1;-0.06928068565351646;0.44201669439720476;0.23520478306305959;0.684;0.00720272773638505
09:23.1;-0.10908083324161828;0.6583159170399089;0.2018922981544704;0.529;0.0144978150192215
09:23.1;-0.17677103271944036;0.9027115147866199;0.17326929602928548;0.537;0.027649144123686045
09:23.2;-0.2709911837404835;1.1656308349461568;0.15206794177811858;0.6970000000000001;0.04803456447985076
09:23.2;-0.38799981913534837;1.434650620925322;0.14057094790842584;0.833;0.07824800023293303
09:23.2;-0.5214538106374372;1.6948935547555;0.13997542619434106;1.045;0.12371149984199112
09:23.2;-0.6625803665954567;1.9299192401385568;0.14982605948152497;1.74;0.19158656727721485
09:23.2;-0.800813941230954;2.123150652338045;0.16764964399069784;2.662;0.2850460794810148
09:23.2;-0.9248874881219358;2.2597260796668523;0.18896433073834432;3.8280000000000003;0.3949340108940298
09:23.2;-1.0242195162857632;2.3284478241399857;0.20776546445114075;3.8280000000000003;0.49548774430253495
09:23.2;-1.0902754719228673;2.3233515736720842;0.21739831258663167;3.8280000000000003;0.5506901945718767
09:23.2;-1.1175572057199294;2.2444801464670125;0.21159336646076385;3.3110000000000004;0.5307470385625693
09:23.2;-1.1040247506411678;2.0976889078383993;0.18547009388722044;2.542;0.42953027823477674
09:23.3;-1.0509454174773003;1.8935998136438599;0.1363977960045257;1.933;0.2714411682624418
09:23.3;-0.962302076361414;1.6460356528040274;0.06461562259468273;1.545;0.10235008174181971
09:23.3;-0.8439755342515141;1.3703318698220475;-0.02650877857249579;1.202;0.030658106808630913
09:23.3;-0.7029268999352023;1.0818356093505601;-0.13067404510389669;0.863;0.09937125415561324
09:23.3;-0.5465356104605039;0.7947467204259527;-0.23928881298851354;0.675;0.10393686283242477
09:23.3;-0.3821519751260489;0.5213350195928349;-0.34245171128076357;0.6759999999999999;0.06822638302486264
09:23.3;-0.2168528666050479;0.27151727574979095;-0.43009454028326083;0.723;0.025323665284688643
09:23.3;-0.05735097173711285;0.05276694076911964;-0.4931135593240709;0.723;0.0014922776742893253
09:23.3;0.09001300962899046;-0.1296890034270433;-0.52435486943316;0.8059999999999999;0.006121160135888139
09:23.3;0.2192741183934476;-0.2724707316957748;-0.5193806262120463;0.87;0.03103080036016533
09:23.4;0.3249082424882717;-0.37355313800293455;-0.4769851578104448;0.836;0.05789192401686077
09:23.4;0.4019912969850755;-0.43178206431294014;-0.3994382338810634;0.8;0.0693315455953616
09:23.4;0.4464553742520265;-0.44648316399575727;-0.29243295357165827;0.787;0.05829206667616838
09:23.4;0.455425845769059;-0.4172298947439529;-0.16472611306024368;0.75;0.03130080756880512
09:23.4;0.42760279284795566;-0.343810414705537;-0.02746904697729897;0.74;0.004038342535538024
09:23.4;0.36362229944397845;-0.22639972793425675;0.10676243759080072;0.809;0.008789109808829474
09:23.4;0.2663047682717959;-0.0659147365373762;0.2251894119093112;0.873;0.003952841768483837
09:23.4;0.14068223159728102;0.13549268402897;0.31617139449971526;0.873;0.006026673578130493
09:23.4;-0.006286636504691221;0.3738757570337381;0.3704740847370282;0.8740000000000001;0.0008707700621966651
09:23.4;-0.16633878366961047;0.6429724560166724;0.3822863402084208;0.9640000000000001;0.04088600433895672
09:23.5;-0.33077068941220505;0.933859336377126;0.349883578193659;1.0590000000000002;0.10807669186207416
09:23.5;-0.49132721863277107;1.234916142971907;0.27591053394920345;1.196;0.1674081408611485
09:23.5;-0.6408860306006237;1.5322127628378863;0.16729484612374085;1.901;0.16427914834245863
09:23.5;-0.7738303005041226;1.8103682758223028;0.034765187127670995;2.08;0.04870317040276267
09:23.5;-0.8861437766124743;2.053828497366794;-0.10811632052736377;2.0269999999999997;0.1967703347337813
09:23.5;-0.9753208436590423;2.2484126591879754;-0.24643335530281765;3.597;0.5404095531143966
09:23.5;-1.0401754902120592;2.3829100960351175;-0.36571311642283283;3.597;0.9064728694309584
09:23.5;-1.0806041402460114;2.450423728964885;-0.4536718803607916;3.597;1.2012950237319173
09:23.5;-1.0973320360707224;2.449129153601655;-0.5015692326892961;3.3339999999999996;1.3479712655801042
09:23.5;-1.0916722934333345;2.382261852786477;-0.5050018487297832;2.864;1.313332684394773
09:23.6;-1.0653463510800223;2.257386477930088;-0.46410661338084225;2.4459999999999997;1.1161292738734965
09:23.6;-1.020411997140174;2.0851803955823645;-0.38321138585505643;2.1630000000000003;0.8153753789727937
09:23.6;-0.9592936608842616;1.8780257095458277;-0.2700256500718528;1.982;0.48647231330834945
09:23.6;-0.8848403363289244;1.6486697060755746;-0.1345062723846254;1.661;0.196219022209996
09:23.6;-0.8003124456274673;1.4091210272019057;0.012450634481466006;1.484;0.014041042366825423
09:23.6;-0.709247142011664;1.1698552743217658;0.16032059593211243;1.204;0.13302064531867142
09:23.6;-0.6152328652208392;0.9393546861080201;0.30005790642775865;1.204;0.17341002788916218
09:23.6;-0.521671943755598;0.7239911918936703;0.4248000569314772;1.204;0.1604409885670172
09:23.6;-0.4315914407625626;0.5282263626400231;0.530064873262705;0.946;0.12084311743249142
09:23.6;-0.3475099966756674;0.3550317608678274;0.6134793916501597;0.72;0.0756892996867353
09:23.7;-0.271344894919548;0.20638432775814758;0.6742055983615451;0.486;0.03775641271551924
09:23.7;-0.20436482265819692;0.08370536437612754;0.7122965792318464;0.36;0.012184852958188401
09:23.7;-0.14722001376048105;-0.011831519729897086;0.7282077596637117;0.46399999999999997;0.0012684188535033458
09:23.7;-0.1000795895531389;-0.0791389693600855;0.7226033415547378;0.777;0.005723159785527567
09:23.7;-0.06287722031892543;-0.11717887570233518;0.6964648730527377;1.145;0.00513147099083499
09:23.7;-0.03562435976148364;-0.12501255319514554;0.6513753524438933;0.7340000000000001;0.002900895031661051
09:23.7;-0.0187115142598629;-0.10190119980833268;0.5897945105743286;0.7340000000000001;0.0011245763824733852
09:23.7;-0.01310417397482037;-0.047433730041932735;0.5152021922877152;0.7340000000000001;0.00032023930178525694
09:23.7;-0.020361055546333242;0.03832533748818604;0.4320876895398925;0.6970000000000001;0.00033717717662014963
09:23.7;-0.042445974785486694;0.15467291190786073;0.34579207844069604;0.62;0.00227020885605652
09:23.8;-0.08135833428859782;0.3000944414019016;0.2621829382778824;0.46799999999999997;0.0064012446487057015
09:23.8;-0.13866160403387118;0.4720760485251823;0.1871447685547253;0.45799999999999996;0.012250276114478056
09:23.8;-0.21501920622704604;0.6668927116779992;0.12592928389531755;0.625;0.01805759711190323
09:23.8;-0.30982865280423694;0.8793838079325516;0.08248322161806804;0.784;0.022473238382615706
09:23.8;-0.4209861376019621;1.1027616607540924;0.05890046836611875;0.963;0.027344387663641286
09:23.8;-0.5447538645952076;1.3285258402439093;0.05510299692652822;1.137;0.039879118105804655
09:23.8;-0.6756955594944095;1.5465639882764601;0.06877970954493254;1.137;0.07187523799564584
09:23.8;-0.8067191710700593;1.7455166696311673;0.09557880267392022;1.137;0.13458850349373122
09:23.8;-0.9293558583942314;1.9134853055018115;0.1295630355797426;1.976;0.2304030835560319
09:23.8;-1.034399758340069;2.039130764474033;0.16391782931555962;2.846;0.3457480039963049
09:23.9;-1.1129043923247812;2.113070261139627;0.19181548333332252;3.45;0.45108195585444416
09:23.9;-1.1573612702553362;2.1292730868868097;0.20726909408202163;3.63;0.5107811471708293
09:23.9;-1.1627818812640387;2.0860519843070513;0.20583722761027756;3.385;0.499283606324148
09:23.9;-1.1274129646463928;1.9863454182680438;0.1851136044318064;2.95;0.4145492510638047
09:23.9;-1.0529123010201844;1.8372161117479817;0.14495861652097766;2.379;0.2804119259977927
09:23.9;-0.9439567167469505;1.6487213401322516;0.08741811306077694;1.047;0.1360506961070301
09:23.9;-0.8074194891514642;1.4324680311416274;0.01632470344460343;1.047;0.018881194545065656
09:23.9;-0.651383114371163;1.2002214891970018;-0.06330696293359532;1.047;0.04949363758169291
09:23.9;-0.4842487638310336;0.9628505058595506;-0.14591640429180974;0.8170000000000001;0.06803486114833594
09:23.9;-0.31406721877724125;0.7296995152547258;-0.22594761269045724;0.612;0.051781475743801764
09:24.0;-0.14808799771987394;0.5083277335323554;-0.2982888183843492;0.503;0.022454357850548206
09:24.0;0.00750850424076343;0.30452297415483415;-0.35861842362458757;0.49700000000000005;0.0008199853444060276
09:24.0;0.14771872058224816;0.1225180165871675;-0.4036741201878471;0.5820000000000001;0.007305776842512115
09:24.0;0.2686904467014401;-0.034654570262976775;-0.43144891037067856;0.64;0.0040173726590344155
09:24.0;0.3676083826981899;-0.16473700077820097;-0.4412973587848128;0.672;0.026724395432305006
09:24.0;0.44254242025115453;-0.2658225059398647;-0.43392445677910924;0.647;0.05104589031555045
09:24.0;0.49230095316986494;-0.33600515911925716;-0.4112438306131386;0.647;0.06802616970473538
09:24.0;0.5163147435693295;-0.3731632753842951;-0.3761193343812323;0.647;0.07246679963519646
09:24.0;0.5145671329880662;-0.3749179243643599;-0.33201659435035863;0.609;0.06405278794947046
09:24.0;0.4875815602631185;-0.33879062062483667;-0.28258756421490105;0.61;0.046680091345144975
09:24.1;0.4364600389915981;-0.2625585469770287;-0.2312213593908325;0.643;0.026497115423602037
09:24.1;0.36293377181602304;-0.14476810677064458;-0.18062770980937887;0.598;0.009490402953832803
09:24.1;0.2693634100895752;0.014665159785249933;-0.1325422434075314;0.366;0.0005235759843626869
09:24.1;0.15863964744613795;0.21385786893009304;-0.08762284075400847;0.08199999999999999;0.0029727220182413864
09:24.1;0.03398974254896514;0.44845065429999476;-0.0455462811932301;0.256;0.0006942493153689676
09:24.1;-0.10123865998849091;0.711273288072921;-0.005246396344347088;0.583;0.0003777843681790761
09:24.1;-0.24371790374026686;0.992250944679502;0.03480445227356992;0.583;0.008416737034002107
09:24.1;-0.3901434900693171;1.278607753510384;0.07636498493120578;0.7120000000000001;0.03809394660763203
09:24.1;-0.5371198065805827;1.5554343458681206;0.12130014796786207;1.2790000000000001;0.10134076599410981
09:24.1;-0.6810253218941031;1.8066916051552309;0.17153730877512233;1.9140000000000001;0.2110599733506996
09:24.2;-0.8179741546703825;2.016660111547204;0.22896661585925815;2.528;0.3776977999777287
09:24.2;-0.9439280881561959;2.171711080680549;0.29508635016441437;3.248;0.604909043659577
09:24.2;-1.0549245966502063;2.262120880427076;0.3703053952581454;3.833;0.883684559375633
09:24.2;-1.147370235367624;2.283519321014312;0.45309106326920773;3.9360000000000004;1.1871176612700374
09:24.2;-1.2183840552238419;2.2375255314099647;0.5393791163545902;3.53;1.470436701007566
09:24.2;-1.2661451107425634;2.1312940097035304;0.6226203945864041;2.083;1.6801582505893478
09:24.2;-1.2901204445206351;1.9760794697978072;0.6945451725447591;2.083;1.7706599359124713
09:24.2;-1.2910624472559704;1.7853247573753341;0.7464323221377865;2.083;1.7205009375218776
09:24.2;-1.2707674017015016;1.5728709978860962;0.7705805581096552;2.1319999999999997;1.5402003495947767
09:24.2;-1.231670142681071;1.3516390768274607;0.761737791653937;2.22;1.2681208853877637
09:24.3;-1.1763935251978512;1.132836240386923;0.7182585733456919;2.0340000000000003;0.9571953454097585
09:24.3;-1.1073993650990301;0.925621097633987;0.6427148366217179;1.694;0.6588034131369815
09:24.3;-1.0268626832564773;0.7371453943452431;0.5417472744739108;1.5590000000000002;0.41007402703897117
09:24.3;-0.9367926637148516;0.5728699744946028;0.4251509400842686;1.338;0.22816166904624466
09:24.3;-0.8393107260120536;0.4370248230815577;0.30439481589177064;1.248;0.11165190326962669
09:24.3;-0.7369460881265251;0.33307618359256047;0.1908870286262852;1.291;0.046854975532463115
09:24.3;-0.6328398451445785;0.2640767485363936;0.09433769128328401;1.084;0.015765553522459647
09:24.3;-0.530810283622903;0.23280631226373932;0.021547089758537485;1.084;0.0026627028330790475
09:24.3;-0.4352692844834821;0.24166017614541613;-0.024170731865685142;0.784;0.002542452862788469
09:24.3;-0.35098573327338317;0.2922940379723348;-0.04289560966849957;0.48700000000000004;0.004400705089326383
09:24.4;-0.28270233188425414;0.385076740782321;-0.03745890499616405;0.24600000000000002;0.004077854783396249
09:24.4;-0.23465081365386284;0.5184451028390762;-0.012456537858088213;0.36700000000000005;0.0015153822406851283
09:24.4;-0.21005225555386683;0.6882959052006967;0.0268469886174441;0.687;0.003881486803052314
09:24.4;-0.21069003843452916;0.8875727546545372;0.07548766917725527;0.87;0.014116400805653717
09:24.4;-0.23660052837807757;1.10620163896899;0.1294257168125983;0.695;0.03387432006725226
09:24.4;-0.28588767661228154;1.331486546760788;0.18567999256656936;1.5719999999999998;0.07068012810460397
09:24.4;-0.3546702416169955;1.548969002479134;0.24200078206570158;1.5719999999999998;0.13294874655464087
09:24.4;-0.43720068299527093;1.7436148248730714;0.29630285939612394;1.5719999999999998;0.22587451194808328
09:24.4;-0.5262152970030943;1.9011407480554139;0.3461522827854369;2.115;0.34629397793178934
09:24.4;-0.6135568182932226;2.009360394569264;0.38851751654284433;2.676;0.47898645072626633
09:24.5;-0.6910383060544244;2.0594588113382564;0.4198554366553207;3.15;0.5975235324358634
09:24.5;-0.7514111272007666;2.0470205136957746;0.43647778680669924;3.218;0.671370050021124
09:24.5;-0.7892232498606168;1.9725683897470943;0.435054092753531;2.9160000000000004;0.6772908347084091
09:24.5;-0.8013605277755925;1.8414397491774899;0.413080820636934;2.479;0.6095656579366967
09:24.5;-0.7871526514657854;1.6629974099773446;0.3691902767921813;1.8519999999999999;0.483282189383756
09:24.5;-0.7480578912928918;1.4493491065865753;0.303254343510278;0.815;0.32878746051545443
09:24.5;-0.6870713590318139;1.2138703898584373;0.21632919910782816;0.815;0.18042192212921915
09:24.5;-0.6080776010831612;0.9698623292859999;0.1105543240289415;0.815;0.06519958490307017
09:24.5;-0.5153417102377018;0.7295821772327943;-0.010886219100064515;0.6409999999999999;0.004093045584386467
09:24.5;-0.4132234005910248;0.5036995192442024;-0.14370613259598464;0.5429999999999999;0.029911055976103013
09:24.6;-0.3060897139821877;0.30109309517045546;-0.2824061136731196;0.43700000000000006;0.026026970870966174
09:24.6;-0.19834502856284797;0.12888303985817404;-0.4202006617976094;0.355;0.010741719872995185
09:24.6;-0.09448395770483953;-0.0073804503195863845;-0.5491011236462285;0.312;0.0003829069685277978
09:24.6;0.00090971681042732;-0.10344882226300361;-0.6602692703413737;0.521;6.213736833510125e-05
09:24.6;0.08325429013983097;-0.15611949482255144;-0.7446937646065891;0.833;0.00967924486966279
09:24.6;0.14814249976668217;-0.16308377021219644;-0.7941364837658824;1.209;0.019186049486437734
09:24.6;0.19156330153088028;-0.12293959227984014;-0.8021939066091224;1.209;0.01889223941629139
09:24.6;0.2101544310100283;-0.03538498943499937;-0.7652693592880003;1.148;0.005690781965363373
09:24.6;0.20149077577588398;0.09843773286437728;-0.6832813120927282;1.072;0.013552403221675339
09:24.6;0.1644081797023044;0.2755169929719746;-0.5600146907509749;1.0659999999999998;0.02536712393386177
09:24.7;0.0993233288686116;0.49056623745720496;-0.4030890621129931;0.893;0.019640382231343744
09:24.7;0.008470368697343947;0.7357486728560554;-0.2235368123124803;0.7559999999999999;0.001393095391567921
09:24.7;-0.10403379522873317;1.0006333787613848;-0.034983860142145114;0.685;0.0036418089267109426
09:24.7;-0.23236070098034364;1.2724680874020902;0.14756356637559795;0.71;0.04363035234317257
09:24.7;-0.36941048020333245;1.5368449925077976;0.30928976358081184;1.368;0.17559204033030562
09:24.7;-0.507499939066428;1.7787991875696603;0.4373845700031535;3.2569999999999997;0.3948447563643896
09:24.7;-0.639177258157354;1.9842455841000228;0.5228432879436293;3.2569999999999997;0.6631141174770592
09:24.7;-0.7579545867719488;2.1414684513044846;0.5618407349616826;3.2569999999999997;0.9119438305316642
09:24.7;-0.8587827320191184;2.2423162119191518;0.5562724739713383;3.162;1.0711930109357866
09:24.7;-0.938235243319866;2.282886666381637;0.5132883603122909;3.093;1.099404499450623
09:24.8;-0.9944952938141622;2.263643181448754;0.4439602813641653;2.688;0.9994356120288842
09:24.8;-1.0272592473687139;2.188984360059159;0.3614281655887473;2.447;0.8127270443103589
09:24.8;-1.0376062845325462;2.0663742647817633;0.2789123404976905;2.245;0.598011186368182
09:24.8;-1.0278117103446764;1.905235877674905;0.20794086338430198;1.9669999999999999;0.4071947364518412
09:24.8;-1.0010607438899446;1.715837390691113;0.15705134067453305;1.7690000000000001;0.2697604060832921
09:24.8;-0.9610554014375111;1.5083471060248177;0.13108648218851354;1.3780000000000001;0.19002363751132492
09:24.8;-0.9115668889272849;1.2921530170497804;0.13106306028152415;1.3780000000000001;0.15437706934658021
09:24.8;-0.8560254319275677;1.0754730922411777;0.1545163029090921;1.204;0.1422527021642324
09:24.8;-0.7972329591613266;0.8652223619661973;0.1962072299802344;1.069;0.13534056553663798
09:24.8;-0.7372439454728078;0.6670593988826428;0.24908998510769362;1.05;0.12249884364260114
09:24.9;-0.6774152415887614;0.4855257452825317;0.3054296708581142;1.1159999999999999;0.10045659454824366
09:24.9;-0.6185886372166766;0.32421181478326566;0.3579287749692719;1.158;0.07178395614749744
09:24.9;-0.561339192108886;0.18591019010927926;0.4006932062303345;1.182;0.04181581245263862
09:24.9;-0.5062039995490906;0.07274335676849694;0.4298817190451001;1.185;0.015829525141824726
09:24.9;-0.45381272587089655;-0.013726715914693557;0.44393290787061784;0.9059999999999999;0.002765417173809617
09:24.9;-0.40488482318637325;-0.0723924826153671;0.4433378873151813;0.217;0.012994507248880665
09:24.9;-0.3601324319111476;-0.10249044278189441;0.43003693280663885;0.217;0.015872720129661594
09:24.9;-0.32016911111588797;-0.10349505579902682;0.40664411433730635;0.217;0.0134745268493106
09:24.9;-0.28552138337787536;-0.07504120924719442;0.375747907194092;0.301;0.008050725765196736
09:24.9;-0.2567734897594967;-0.016903815351372736;0.33945601207250226;0.45399999999999996;0.0014733924104256726
09:25.0;-0.23479530201851226;0.07094206071049036;0.29923625293059253;0.557;0.004984337141126949
09:25.0;-0.22095250655133544;0.18816567192456687;0.2560255144825276;0.618;0.010644434057695003
09:25.0;-0.21719320323997662;0.33382800436950427;0.21052381066742268;0.7290000000000001;0.015264065439421654
09:25.0;-0.22593980147323323;0.5060465998778617;0.16355136769198372;0.6890000000000001;0.018699820349051245
09:25.0;-0.24976790547103184;0.7016082890888025;0.11634190033783147;0.61;0.02038766536081645
09:25.0;-0.29090765812466557;0.9155822674495012;0.07068108551204443;0.767;0.0188258995805176
09:25.0;-0.3506498443834165;1.141010632336844;0.02885754965469762;0.767;0.011545767119904316
09:25.0;-0.4287671784777391;1.368768724482339;-0.006555353839251861;0.773;0.003847226408899242
09:25.0;-0.5230651622533737;1.587701779194918;-0.03304107135116783;1.0070000000000001;0.027439667714719573
09:25.0;-0.6291662972977179;1.78515642827135;-0.04854180733779557;1.56;0.05452022895391758
09:25.1;-0.7406063550715211;1.9479840973959006;-0.05184473641432826;2.099;0.07479585178012041
09:25.1;-0.8492715483993492;2.0639643365686378;-0.042886639261450664;2.7230000000000003;0.07517453987657818
09:25.1;-0.9461421180056516;2.123428938068765;-0.022942887299673895;3.346;0.04609376455781586
09:25.1;-1.022250783086965;2.1207401716200946;0.0053213781159982395;3.545;0.01153636621886004
09:25.1;-1.0697123862565883;2.05523989766766;0.037983407512882136;3.3739999999999997;0.08350711301866412
09:25.1;-1.0826436261249588;1.9313843705209215;0.07023934555125529;2.24;0.14687054026576546
09:25.1;-1.0578096387430185;1.758025375119349;0.0970354633271686;2.24;0.18045259973051678
09:25.1;-0.9949158582683936;1.5470810481719752;0.11385301478276622;1.796;0.17524432152915875
09:25.1;-0.8965531104667732;1.3119694023889734;0.11746280961819705;1.421;0.1381656590086761
09:25.1;-0.7678543616239805;1.066114886717553;0.10647440210737613;1.1;0.0871621778816809
09:25.2;-0.6159428445860808;0.8217245970336863;0.08157030553932659;0.6779999999999999;0.04128561806097566
09:25.2;-0.44926352604998077;0.58895315920905;0.04539269811794568;0.41;0.012010688810752547
09:25.2;-0.2768903311718128;0.3755074675590873;0.0021286555973986307;0.252;0.00022132566097991333
09:25.2;-0.10788206964293397;0.18666945719555675;-0.043102688937530824;0.185;0.0008680143367342128
09:25.2;0.04927428634575598;0.025653981896749292;-0.08494576629160686;0.261;0.00010737838440500228
09:25.2;0.18712280176816656;-0.10581818982447953;-0.11849186890599399;0.513;0.002346257040960915
09:25.2;0.2995957832199657;-0.20686214182526003;-0.13987839094801266;0.513;0.008668966831732149
09:25.2;0.38225653917827696;-0.27680620877515016;-0.14674908258339217;0.623;0.015527664739648115
09:25.2;0.4324181290391924;-0.3147092949067017;-0.13853383296472616;0.645;0.01885251581551951
09:25.2;0.44914666873581177;-0.3190986200387772;-0.11651708795207764;0.575;0.016699471655845326
09:25.3;0.43317251498983683;-0.2879733591717927;-0.08367645115433821;0.517;0.010437979939596387
09:25.3;0.3867340567294113;-0.2190764512226667;-0.04429869750610125;0.506;0.0037531772319684452
09:25.3;0.3133684131006993;-0.11039342405765457;-0.003419583574080003;0.493;0.00011829643166881757
09:25.3;0.2176427643410554;0.03919883901230297;0.033829205401250395;0.435;0.00028860857775342576
09:25.3;0.10480324369442934;0.2292338447869344;0.06286368081181774;0.36;0.0015102653877991712
09:25.3;-0.019667250922825376;0.457015572462786;0.08018538313381744;0.629;0.0007207254632285875
09:25.3;-0.150529298078316;0.7171282298981693;0.08374837139160558;0.629;0.009040536954005886
09:25.3;-0.2831790556009321;1.0011577076428135;0.0731370998330008;0.629;0.020734872021369304
09:25.3;-0.41382409223815025;1.2976905082227637;0.04957258656437738;0.885;0.026621252147453957
09:25.3;-0.5394080334517098;1.5926942667613608;0.015772119042885162;1.298;0.013550018033588124
09:25.4;-0.6573564751065624;1.8703758693278898;-0.02431117502424379;1.672;0.029890679366161597
09:25.4;-0.7652712219852208;2.1145180979328058;-0.06582980157618157;2.373;0.10652445835547757
09:25.4;-0.8607081580792038;2.3101625316056693;-0.10342834039315536;3.287;0.20565440260163276
09:25.4;-0.9411358966616363;2.4453704363626256;-0.13167886587673278;3.804;0.30304915218695777
09:25.4;-1.0040810626179475;2.512678654853821;-0.14559940522487755;3.69;0.3673375520529975
09:25.4;-1.0473795892743112;2.5098704494702;-0.1412467355221512;2.9160000000000004;0.37130759350312487
09:25.4;-1.0694373646270536;2.4398848283381396;-0.11628338707495824;2.9160000000000004;0.30341870712259744
09:25.4;-1.069438024669015;2.309988880693912;-0.07037379915701827;2.496;0.17385072586953101
09:25.4;-1.0474678694524606;2.1305170155810096;-0.00530902146159692;2.1109999999999998;0.011847867759261818
09:25.4;-1.0045464411686942;1.9134775436971192;0.07515568720026969;1.807;0.14446253762267894
09:25.5;-0.9425649514692204;1.671261077004616;0.16570098626027494;1.574;0.26102414323944434
09:25.5;-0.8641487881284389;1.4156243597370095;0.26000475394638023;1.4;0.31806643502757936
09:25.5;-0.7724775390294231;1.1570408395549103;0.35138840998548704;1.3030000000000002;0.31406676537139405
09:25.5;-0.6711064991668877;0.9044112645458583;0.43348361836950283;1.2329999999999999;0.2631056033872624
09:25.5;-0.5638225411855555;0.6650557295154828;0.500861574272162;1.17;0.1878097731667627
09:25.5;-0.45453772717666274;0.4448833888203946;0.5495627467263002;1.056;0.11113053669483551
09:25.5;-0.3471976412239027;0.24865061295831883;0.5774589726242332;1.056;0.04985255646234
09:25.5;-0.24567316212020257;0.08024561140714694;0.5843855850279329;0.9229999999999999;0.01152069026848446
09:25.5;-0.15361150515060118;-0.0570512205118499;0.5720049514454888;0.691;0.005012893437305294
09:25.5;-0.07424287443990465;-0.16038138620655865;0.5434070233404472;0.415;0.00647044258760892
09:25.6;-0.01017259648769595;-0.22722961150685206;0.5025153670977898;0.313;0.0011615718831066676
09:25.6;0.036783508993023725;-0.2554513947085107;0.45343077399683634;0.34700000000000003;0.0042606163237799526
09:25.6;0.06566216685527317;-0.24337957878058725;0.39987295204446077;0.308;0.006390301872578559
09:25.6;0.07628293214339717;-0.1899764885905384;0.3448482176668823;0.24;0.00499752781381271
09:25.6;0.06905829135158967;-0.09500970583670555;0.29059217460663755;0.293;0.0019066356853360347
09:25.6;0.04474208819816458;0.040749170214655725;0.2387501386606097;0.5;0.0004352899613558279
09:25.6;0.00420211238506714;0.21528543595863292;0.19069174803251024;0.5;0.00017250997573127293
09:25.6;-0.05170517859618959;0.42504639951598544;0.14782236058353668;0.56;0.003248706800579609
09:25.6;-0.12211848215939554;0.6646058438595038;0.11176280947398061;0.6;0.009070743032376365
09:25.7;-0.20602178872284777;0.926345642940432;0.08431814145096593;0.652;0.016091896916474575
09:25.7;-0.3020030309752131;1.2002418834046065;0.06722142659211092;0.8009999999999999;0.024366199985790267
09:25.7;-0.4079753565762569;1.4738598171148383;0.06169682167958333;0.955;0.03709820537013343
09:25.7;-0.5209081416397509;1.7326769599617586;0.06793329787838365;1.185;0.06131425336264642
09:25.7;-0.636612458321832;1.9608560713879102;0.08460797247149204;1.6030000000000002;0.10561658925946982
09:25.7;-0.7496545638547394;2.142551788788902;0.10864318897748733;2.138;0.17449983572714173
09:25.7;-0.8535091088461165;2.2637163729131444;0.13537406952276182;3.889;0.26155658413354516
09:25.7;-0.9410353078100109;2.3141399463007915;0.15916444981127967;3.889;0.3466104163539451
09:25.7;-1.0052423395144237;2.2892078697814697;0.17427308944047612;3.681;0.40103874517916815
09:25.7;-1.0401977026166165;2.1908161760308524;0.1756566820945403;3.347;0.4003008427776703
09:25.8;-1.0418968732446539;2.027153574422699;0.15953430508421845;2.7489999999999997;0.3369500080918476
09:25.8;-1.0089209607189022;1.8114354114927111;0.12375112678372308;2.083;0.22616695981535268
09:25.8;-0.9427358453531199;1.5599427877815106;0.06803898580514406;1.564;0.10005908389660924
09:25.8;-0.8475571695230066;1.289836386789986;-0.005810863273196153;1.114;0.006352494287114624
09:25.8;-0.7298141168238834;1.0171923429595464;-0.09393182277994712;0.6920000000000001;0.06973135302135082
09:25.8;-0.5973426125143153;0.7555681660175481;-0.19060274458643311;0.474;0.08602532038203102
09:25.8;-0.4584854546926999;0.515223996475209;-0.28872942897828746;0.5489999999999999;0.06820444767700566
09:25.8;-0.32126858655478774;0.302974205579247;-0.38052453528418717;0.5489999999999999;0.037038772235963476
09:25.8;-0.19277870175817802;0.12254997525547981;-0.45825752291204924;0.5489999999999999;0.01082634549492247
09:25.8;-0.07879928086233307;-0.024695244345283907;-0.5149523782065886;0.5670000000000001;0.0010020805895288656
09:25.9;0.016314359730880724;-0.13891898108599574;-0.544982108675746;0.6809999999999999;0.001235133407395725
09:25.9;0.08958737605149981;-0.2209258971520226;-0.5445672851986857;0.726;0.010778169062555002
09:25.9;0.13927349678697656;-0.27143167641268307;-0.512183089613549;0.6890000000000001;0.0193621796012925
09:25.9;0.16465312040772007;-0.2905354707174877;-0.4488495522825894;0.679;0.021471872703909087
09:25.9;0.16583003479268343;-0.2774478768791542;-0.3582657149038205;0.6859999999999999;0.016483515732999037
09:25.9;0.14357350167887437;-0.2304973482155802;-0.24674465311508292;0.68;0.008165597644538017
09:25.9;0.09923793193315916;-0.1474136171699663;-0.12290058579968599;0.154;0.0017979154357543868
09:25.9;0.034759950894204875;-0.025858869955131276;0.002939193408884325;0.154;2.641902959586497e-06
09:25.9;-0.047304614213943906;0.1358494067497311;0.11956306800434785;0.154;0.0007683485955645359
09:25.9;-0.1437652033333762;0.3379060892449491;0.21587106818720492;0.249;0.010486830331345006
09:26.0;-0.25086420097473233;0.5781847155271255;0.2819834774445125;0.5770000000000001;0.04090053223472736
09:26.0;-0.36445986507872863;0.851526005610077;0.31041429765563394;0.88;0.09633616252239871
09:26.0;-0.4802973122935688;1.1492725108839867;0.297214089999723;1.2429999999999999;0.16405994800068566
09:26.0;-0.5942777476697715;1.4591764979895847;0.2429235479311478;1.8719999999999999;0.2106526419311368
09:26.0;-0.7026179303887581;1.765820795095984;0.1531135639928583;1.786;0.18996759347590628
09:26.0;-0.8018505237091522;2.0516661508322436;0.03824976251488895;1.864;0.06292581564640454
09:26.0;-0.8887259196426157;2.2987136986384233;-0.0872752100941015;3.386;0.17829683476551936
09:26.0;-0.9601541767016623;2.4905592174629865;-0.20683438655007574;3.386;0.4946073779454163
09:26.0;-1.0133084553087153;2.6144218891985136;-0.303649512425474;3.8560000000000003;0.8044330878227227
09:26.0;-1.045916455361925;2.6626906954330187;-0.3629116741415685;4.008;1.0106915977656534
09:26.1;-1.0566513137089035;2.633676186583847;-0.37370018233467395;3.762;1.0399617927060039
09:26.1;-1.0454515555975994;2.531477055553556;-0.33050604934936617;3.299;0.8746963646145749
09:26.1;-1.0135983612965058;2.365076874857875;-0.23412449472804264;2.698;0.5612521459573395
09:26.1;-0.9634720371018277;2.1469357497513384;-0.09170972071465207;2.0580000000000003;0.18970270920350027
09:26.1;-0.8980574946872305;1.8913902712888715;0.08405424252949663;1.5390000000000001;0.14277262063913163
09:26.1;-0.8203882021793348;1.6131288945919542;0.27652233417689276;1.337;0.36594742101207967
09:26.1;-0.7331322591584735;1.3259319864755363;0.467127864043783;1.4369999999999998;0.45408729497621464
09:26.1;-0.6384344485123619;1.0417939616143048;0.6375782495185498;1.4369999999999998;0.4240642303555737
09:26.1;-0.5380136706076349;0.7704729276800888;0.7719115217983451;1.643;0.31997659881437795
09:26.1;-0.43344001270542476;0.5194337681573606;0.8581863471526825;1.7790000000000001;0.1932149740694831
09:26.2;-0.32648218317028804;0.2940867222614671;0.8896572966432694;1.751;0.08541962251569413
09:26.2;-0.21940869038999092;0.09820441608084596;0.8653350932805758;1.618;0.01864529073141813
09:26.2;-0.11514837658476083;-0.06558483715691041;0.7898667894223955;1.21;0.005965064141862807
09:26.2;-0.017271164448426544;-0.19531053875048496;0.6727386878212113;0.755;0.0022693093427837902
09:26.2;0.07018571494735315;-0.28924549742182415;0.5269072045967045;0.38299999999999995;0.010696691540395497
09:26.2;0.14298585731806857;-0.34560764081409356;0.3670612382926668;0.20600000000000002;0.018139066981018255
09:26.2;0.19700253460191083;-0.36240676564884455;0.20777670711488327;0.6940000000000001;0.014834228682050378
09:26.2;0.22853448531734377;-0.33746120780451655;0.06183756925836886;0.6940000000000001;0.0047690075470427015
09:26.2;0.23460217078908904;-0.2686093092081108;-0.061024607305363805;0.6940000000000001;0.0038455466110994476
09:26.2;0.2132012591219218;-0.15412758384941674;-0.15480104950832305;0.625;0.005086792664087526
09:26.3;0.16350386619365817;0.006664217236666017;-0.21724966081744362;0.441;0.00023672072322574868
09:26.3;0.08601442923915417;0.21267032488655274;-0.24940145094354388;0.19699999999999998;0.004562230064537914
09:26.3;-0.01730778186479118;0.46025319943304427;-0.25469669350620855;0.134;0.0020289041764843052
09:26.3;-0.14295673642573023;0.7425628800125698;-0.23796476153299762;0.22899999999999998;0.02526099837124162
09:26.3;-0.2858360445156061;1.0491229259089154;-0.20447743657919554;0.311;0.06131811037930938
09:26.3;-0.4393076345071602;1.365858953280483;-0.15926494377375966;0.377;0.09556410508082407
09:26.3;-0.5953953861504301;1.675739459453885;-0.10678551583131439;2.15;0.10654285029021093
09:26.3;-0.745193794966642;1.960074272609951;-0.05091341342821537;2.15;0.0743659230734061
09:26.3;-0.8794880335234924;2.2002971059802494;0.004897507978187208;2.15;0.009477338978471242
09:26.3;-0.9895626234465702;2.3799332168566676;0.057452466997804236;3.313;0.13530590042903873
09:26.4;-1.0681612964559923;2.486499049714516;0.10376752989064392;4.09;0.2756046966150025
09:26.4;-1.110483719729937;2.5130970091897917;0.14111994918689522;4.234;0.3938309659787599
09:26.4;-1.114977482233793;2.459380616025226;0.16710266322955925;3.915;0.45822123757375577
09:26.4;-1.083647350615105;2.3315843070251887;0.17963539433491857;3.089;0.45386951006810955
09:26.4;-1.021728806394099;2.141540415298662;0.17700785407315942;2.238;0.38730620051870646
09:26.4;-0.9367811942453576;1.9048986347290757;0.15807352531993757;1.545;0.2820779724016114
09:26.4;-0.8374379285951681;1.6389572398124435;0.12260831288426155;0.9059999999999999;0.16828296924236336
09:26.4;-0.7321376798233981;1.3605579666808854;0.07170467943563341;0.9059999999999999;0.07142616074900307
09:26.4;-0.6281238128043423;1.0844098355569773;0.00801780045896517;0.6829999999999999;0.00546127379384367
09:26.4;-0.530867685185108;0.8220359453928501;-0.06426723140988967;0.535;0.028045726180854765
09:26.5;-0.44392149709662265;0.5813559619887907;-0.1397739859663773;0.515;0.036072368368716405
09:26.5;-0.3691069051016373;0.3668065128642115;-0.2125062386593385;0.623;0.028771393213250184
09:26.5;-0.30690961089437907;0.17986768320812385;-0.2765247821085198;0.6629999999999999;0.015265030913842442
09:26.5;-0.2569521123773551;0.019855047345400802;-0.32660436327988973;0.659;0.0016662689506810181
09:26.5;-0.2184380095175108;-0.11516936612837503;-0.3587853842010939;0.64;0.009026095618479411
09:26.5;-0.19049980343787537;-0.227508400394169;-0.3707782007771505;0.627;0.01606964051502049
09:26.5;-0.17243022952342188;-0.31908069870362243;-0.3622024318738264;0.591;0.019928072868526676
09:26.5;-0.16381042034001192;-0.39088164381346685;-0.3346539625463947;0.591;0.02142805598959465
09:26.5;-0.1645492093953767;-0.4426668954075654;-0.2916023738113804;0.591;0.021240459112640313
09:26.5;-0.17483089069228294;-0.47284044393729086;-0.23812758442349327;0.5379999999999999;0.01968532063692881
09:26.6;-0.19496144650840685;-0.4785390065273369;-0.18050093432372935;0.46399999999999997;0.016840133743929866
09:26.6;-0.22511640514746065;-0.4559163904481217;-0.12561927397491696;0.38799999999999996;0.012892841083636189
09:26.6;-0.2650239644811783;-0.4006166644925637;-0.08032238276062974;0.33899999999999997;0.008528069683099203
09:26.6;-0.31365426168785887;-0.3084007889525132;-0.050650732860519146;0.387;0.004899507272781939
09:26.6;-0.3690071731962935;-0.17587526572822662;-0.041122182717233904;0.517;0.0026687981851372163
09:26.6;-0.42807975678288357;-0.0012556232124012355;-0.05413116273723615;0.6759999999999999;2.909587235986802e-05
09:26.6;-0.4870532586114237;0.21491985591443918;-0.08959363934153278;0.684;0.009378430670949456
09:26.6;-0.5416762217813847;0.46920798030296385;-0.1449190757305606;0.684;0.03683245925432951
09:26.6;-0.587755670745445;0.7548690757485996;-0.2152644804058145;0.684;0.0955082389783208
09:26.6;-0.6216483002177933;1.0617339239793877;-0.29392892878921545;0.8740000000000001;0.19400046742062177
09:26.7;-0.6406738813123045;1.376454705525634;-0.37280280800118587;1.285;0.3287593543768122
09:26.7;-0.6433979874612261;1.6832836056678662;-0.4429307287282472;1.919;0.4797034066447465
09:26.7;-0.6297443669451929;1.9654134976950328;-0.4952955937779648;2.316;0.6130313578583474
09:26.7;-0.6009573285386283;2.206727249389632;-0.5218094179288536;2.767;0.6919969921742262
09:26.7;-0.5595135032584518;2.393665741002328;-0.5163379319958279;3.884;0.6915253534287099
09:26.7;-0.5090501663698139;2.5168632867983076;-0.47555053472565106;4.619;0.6092799459823673
09:26.7;-0.4542181743394783;2.572161261217477;-0.39945021025853655;2.612;0.466686625204832
09:26.7;-0.4002875625660163;2.5607058088711523;-0.29150030095562807;2.612;0.2987932556528502
09:26.7;-0.3524808433617415;2.4881716016940043;-0.15831847730555595;2.612;0.13885050133668714
09:26.7;-0.315206844499526;2.3634743154103868;-0.008957655969093281;2.089;0.006673303934069332
09:26.8;-0.29139596858285244;2.1973490053679696;0.14616892072545712;1.871;0.09359176140420085
09:26.8;-0.282058412673192;2.001019885181953;0.2965854752775521;1.7309999999999999;0.16739417466932932
09:26.8;-0.2861338739444243;1.7851095320311587;0.4330316217859542;1.7269999999999999;0.22118402420347905
09:26.8;-0.3006586908192882;1.5589051372780274;0.5484480448443297;1.719;0.25705670886330767
09:26.8;-0.3212126350601513;1.3300259570923727;0.6384919392049881;1.53;0.27277725566504857
09:26.8;-0.3425589392697222;1.1044403816598447;0.7015498622510398;1.4240000000000002;0.26542151650897355
09:26.8;-0.3593804278838402;0.8867172380843202;0.7383474272938687;1.148;0.23528830372674733
09:26.8;-0.36701674811070073;0.6803955850529055;0.751334455287611;1.148;0.18762066689523257
09:26.8;-0.3621009701456999;0.4884049326628269;0.7440215737767965;1.148;0.13158162891963457
09:26.8;-0.3429978946363292;0.3134948371379214;0.7203819355051735;1.02;0.07746127855211828
09:26.9;-0.30998048581341925;0.15860807582899925;0.684368975591243;0.792;0.03364728018082577
09:26.9;-0.2651295124622354;0.02711525116111517;0.6395698123482574;0.624;0.004597901483241759
09:26.9;-0.21199133669714817;-0.07713372837685245;0.5890017534682059;0.561;0.009631169477967562
09:26.9;-0.1550774654497755;-0.14993051358058543;0.5350426237756664;0.536;0.012440192599978679
09:26.9;-0.09931814920859161;-0.18696122673234528;0.4794627395588425;0.527;0.008902972448818944
09:26.9;-0.0495751517702883;-0.18414781824506526;0.42351581417492085;0.456;0.0038663419520222546
09:26.9;-0.010286155397318258;-0.1380426803422272;0.3680586537486995;0.284;0.0005226169579453424
09:26.9;0.014733348437219074;-0.04625697354628463;0.31369568851343027;0.284;0.00021378991979984277
09:26.9;0.02235963364091661;0.09208086075034905;0.26096166755028893;0.284;0.0005372924928957499
09:26.9;0.010168211376389897;0.275845492852645;0.21054557863880077;0.415;0.0005905498776204344
09:27.0;-0.02355646507377857;0.5014556526386982;0.16352305428891886;0.541;0.0019316197690833164
09:27.0;-0.0797674208299161;0.762506483448014;0.12152312937069261;0.652;0.007391422631188583
09:27.0;-0.15853580892648286;1.049570475545724;0.08673437964087814;0.7;0.014432124111835936
09:27.0;-0.258870425143254;1.3502447147926395;0.0616788630699391;0.7559999999999999;0.02155913255246172
09:27.0;-0.37852413789390593;1.6495363752135388;0.04875295378704892;0.922;0.030440824362806033
09:27.0;-0.5138814820881092;1.9307010546577923;0.04962626751825753;1.3630000000000002;0.049236776722207484
09:27.0;-0.6600396927680571;2.1766239761368062;0.06466300282054796;3.417;0.09289863456312142
09:27.0;-0.8111351356488479;2.371662305332543;0.09253746851510967;3.417;0.17801790251156432
09:27.0;-0.9608297691143342;2.503582974409232;0.1301392378493283;3.417;0.313052155684566
09:27.0;-1.1027895052002803;2.5650985124002497;0.17276467076329727;3.6460000000000004;0.4887104326285429
09:27.1;-1.2310567776262995;2.5546624652156713;0.214545660754234;3.532;0.6747320594175662
09:27.1;-1.3403340329109013;2.4764298397660798;0.24906725088541645;3.2230000000000003;0.82671477743802
09:27.1;-1.426209131008651;2.3394417598354553;0.2701321393832035;2.767;0.9013048512608729
09:27.1;-1.485294611441733;2.15621636223533;0.27261041708934697;2.511;0.8730666318181722
09:27.1;-1.5152331759015072;1.9410464609223474;0.2532386968668409;2.302;0.7448099527936131
09:27.1;-1.5145776510673925;1.7083312177326957;0.21114779181400514;1.963;0.5463238562941042
09:27.1;-1.4826260980367383;1.4711814978418634;0.1479251221111854;1.541;0.3226560638241901
09:27.1;-1.4193183519946777;1.2404238360869255;0.06720475039332384;1.541;0.11831774769018344
09:27.1;-1.3252720416420964;1.0240532557119961;-0.02600741965137967;1.541;0.0352959474461949
09:27.1;-1.201977610501001;0.8271246393397425;-0.12600735889378653;1.621;0.12527466359909983
09:27.2;-1.0521001707736823;0.6520015887041606;-0.22690881412728808;1.577;0.1556528622374981
09:27.2;-0.8797681376567944;0.49884378984318256;-0.32297253734626524;1.368;0.14174194719801345
09:27.2;-0.690699013834812;0.36623066502932744;-0.40878719442306155;1.072;0.10340482983268884
09:27.2;-0.49205182781306506;0.2518478144742933;-0.4793815224276705;0.7659999999999999;0.05940600208508221
09:27.2;-0.29199114095103645;0.15316983381793772;-0.5303659374724515;0.679;0.023720210577306902
09:27.2;-0.09904982668160164;0.0680677878096697;-0.5581627479858303;0.735;0.0037631905061284786
09:27.2;0.07856171513897547;-0.004726405901262448;-0.5603077204970573;0.7979999999999999;0.00020805041136498143
09:27.2;0.23355566241299244;-0.06534255326615343;-0.5357526364329073;0.7979999999999999;0.008176187049242075
09:27.2;0.35998912143040823;-0.11269193550351397;-0.48509397065153903;0.7390000000000001;0.0196792295535438
09:27.2;0.45350124739065045;-0.1445717188674265;-0.4106770444663988;0.718;0.0269254058602532
09:27.3;0.5114198850501704;-0.15793208623440363;-0.31655115834097386;0.732;0.025567713410434657
09:27.3;0.5328061428426177;-0.14927404151911053;-0.20826578856531308;0.75;0.016564237529291422
09:27.3;0.5184715680631781;-0.11513326975543642;-0.09250264216560711;0.74;0.005521790458491961
09:27.3;0.47095158316514224;-0.05259841437242747;0.023449659139975258;0.747;0.0005808786943615788
09:27.3;0.394381104726933;0.04019009427111876;0.13233578241172186;0.747;0.00209755044166808
09:27.3;0.2942113749383355;0.1636179441323116;0.22759839227674947;0.625;0.010956190653043825
09:27.3;0.176743423072849;0.3163081181657375;0.3039552135054766;0.624;0.01699273157732941
09:27.3;0.04853722240171459;0.4949950762304645;0.3578075404698733;0.624;0.00859657165252681
09:27.3;-0.08415748894704887;0.6945439580209598;0.3874666039542035;0.624;0.02264783970998228
09:27.3;-0.2158020663476616;0.9080874438277854;0.39322944404657667;1.272;0.07706005218850248
09:27.4;-0.3417594732804164;1.1272995977509126;0.3773032692885683;1.2990000000000002;0.1453618635557524
09:27.4;-0.458337880072989;1.3428522967309375;0.3435046355225669;1.297;0.2114202588118814
09:27.4;-0.5627717595661093;1.5450621325043463;0.2966856142657607;1.642;0.25797328463390395
09:27.4;-0.6531968028923809;1.7246798684266509;0.24199137789664088;2.117;0.2726166877318398
09:27.4;-0.7286456180209229;1.87373033843851;0.18415660089504624;2.594;0.25142631859962394
09:27.4;-0.7890413244774438;1.9862640346921447;0.12700446229845244;2.845;0.19904703290859765
09:27.4;-0.8351081500659076;2.0588522393343385;0.0732326719945763;2.23;0.12591364071157637
09:27.4;-0.8681337366013505;2.0907080225460892;0.02451402888154261;2.23;0.04449330972876384
09:27.4;-0.8896234293752554;2.083450298657401;-0.018150987927868442;2.23;0.033642605633855
09:27.4;-0.900976676276491;2.0406389525619595;-0.053983525566858974;2.2030000000000003;0.09925238808456469
09:27.5;-0.9033019295558975;1.967209299002684;-0.08204855245074633;2.1069999999999998;0.14579896128759587
09:27.5;-0.8973999384298038;1.8688803167768162;-0.10108348883152689;1.945;0.16953046308329206
09:27.5;-0.8838625894739688;1.7515905819712918;-0.10960281721469223;1.89;0.16968328798201368
09:27.5;-0.8632000505269278;1.6210210397821203;-0.10624142967166027;1.831;0.14865996120176128
09:27.5;-0.8359297924061532;1.4822477317240292;-0.09018626886724343;1.683;0.1117457508592165
09:27.5;-0.8026072529466248;1.33953055558454;-0.06150854550931023;1.4880000000000002;0.0661288791983458
09:27.5;-0.7638123953499489;1.196221335071865;-0.021275590266584803;1.239;0.019439266057317967
09:27.5;-0.7201230737403127;1.0547790417701417;0.02855650380971609;1.239;0.02169068432152625
09:27.5;-0.6721114020896736;0.9168874046202905;0.08537015896931674;1.147;0.0526094013637813
09:27.5;-0.6203873557699268;0.7836561472372163;0.14611772936207437;1.104;0.07103810981946533
09:27.6;-0.5656841257837744;0.6558617132556107;0.2074992372382155;1.0170000000000001;0.07698440818616836
09:27.6;-0.5089488153254023;0.5341731918511058;0.2661001616142563;0.925;0.07234380292241158
09:27.6;-0.4513859091927967;0.41932237017422797;0.3185386606952068;0.775;0.060291790213790074
09:27.6;-0.3944079878148668;0.312203962500122;0.36166109858345347;0.64;0.044533405787201504
09:27.6;-0.3394834431356468;0.21392038583402148;0.3927817635662045;0.642;0.028524765792007942
09:27.6;-0.28792328200336587;0.12580093446450294;0.40991649158125343;0.6;0.014847592591412377
09:27.6;-0.24068596996736072;0.04942215188065499;0.41194292485470674;0.39799999999999996;0.0049001511267393084
09:27.6;-0.19827740682864417;-0.013356567426842542;0.3986478041448907;0.39799999999999996;0.0010557411936179691
09:27.6;-0.16079186104209392;-0.06034341777047871;0.37067519159041096;0.39799999999999996;0.0035965614666341166
09:27.6;-0.12810144967964185;-0.08897125534521312;0.32942282275098844;0.317;0.0037545461512819797
09:27.7;-0.10016634287635702;-0.09630190892955331;0.2769284656302507;0.32299999999999995;0.002671310142612512
09:27.7;-0.07740391299254135;-0.07912917574713114;0.21577505700832084;0.37799999999999995;0.0013216023372036325
09:27.7;-0.06102585694711667;-0.034225973282270304;0.14903978779311852;0.424;0.000311294836604517
09:27.7;-0.05324152074405865;0.04124546883697263;0.08029450537504464;0.41;0.00017632444418025185
09:27.7;-0.05724375543041878;0.14918555664331576;0.013622496067810635;0.385;0.00011633531975156884
09:27.7;-0.07693543406542475;0.2899439014575834;-0.04642302826459416;0.28300000000000003;0.001035556630550527
09:27.7;-0.11640518239469831;0.461742665343505;-0.09500005805723734;0.292;0.0051061808425111955
09:27.7;-0.17920574725894003;0.6602372577033985;-0.12734370305272197;0.292;0.015067091878866207
09:27.7;-0.2675184630304474;0.8782946396928057;-0.13930166286708476;0.469;0.03273032317862466
09:27.7;-0.3813055997139162;1.1060594529136631;-0.12797508968493349;0.7879999999999999;0.05397306702334488
09:27.8;-0.5175773061490369;1.3313768018782615;-0.09237131480560702;1.1840000000000002;0.06365218798468601
09:27.8;-0.669942037181164;1.5406131718769285;-0.033942511224043424;1.53;0.03503279651054388
09:27.8;-0.8286462631642855;1.7198505297652193;0.043140752964131314;1.986;0.06148194549688356
09:27.8;-0.9812835852683109;1.8563376289440165;0.1321038669586797;2.6889999999999996;0.24063956439957554
09:27.8;-1.1142060714202504;1.9399814320821382;0.22411096895241867;3.263;0.4844246199037743
09:27.8;-1.2144244681366885;1.9645838102212652;0.3092012049978174;3.5460000000000003;0.737704185151046
09:27.8;-1.2715766369134462;1.9285383621619276;0.37753470451578336;3.398;0.9258224379205046
09:27.8;-1.279500730489036;1.83483779504579;0.4207780842262797;3.398;0.9878507355145245
09:27.8;-1.2370653745572178;1.6904443010506371;0.4333329667216165;2.648;0.9061816154057083
09:27.8;-1.148109646073755;1.5052206256895646;0.413090461795392;1.8130000000000002;0.7138857183913813
09:27.9;-1.0205775911534374;1.2906620095982786;0.3615676217047424;1.238;0.4762643647077168
09:27.9;-0.8651319425892924;1.0586575115205863;0.28351616712026445;0.8220000000000001;0.2596663418738862
09:27.9;-0.6936147093526775;0.8204694793208888;0.18620890536883072;0.569;0.10596956998789116
09:27.9;-0.5176640236406783;0.586048535495509;0.07857845478596621;0.361;0.023838836388473134
09:27.9;-0.3476643573087677;0.36371811390651015;-0.02969802542675771;0.299;0.0037553694937033344
09:27.9;-0.19208670067660302;0.16018835267576792;-0.12911803944092534;0.43;0.0039729688074010795
09:27.9;-0.0572028177831769;-0.019195047322592706;-0.21122048651760528;0.514;0.0002319223741807523
09:27.9;0.05288073960929583;-0.17007968256227166;-0.2693241768727533;0.514;0.0024222853274740333
09:27.9;0.13595201417366076;-0.28870911486607675;-0.2990653977886511;0.514;0.011738492018731532
09:27.9;0.1912898883887887;-0.37157762955577606;-0.29869434280290286;0.512;0.021230908121220037
09:28.0;0.21922892560125273;-0.41521723368935376;-0.26913120489778675;0.38799999999999996;0.02449837521146613
09:28.0;0.22077291821841166;-0.4161924392643057;-0.21381038260969082;0.40399999999999997;0.019645757334397884
09:28.0;0.19731233285909433;-0.37134037227209776;-0.1383528261931296;0.415;0.01013711643658069
09:28.0;0.15047793382325916;-0.27823568395813075;-0.05010153606220858;0.424;0.002097667687340571
09:28.0;0.08213323385367473;-0.13580905477625377;0.042467241088234776;0.37799999999999995;0.00047369815914110805
09:28.0;-0.005529609637814939;0.05498455994281023;0.13046554658518766;0.34;3.9667156088239296e-05
09:28.0;-0.10985436871914363;0.2905653458852765;0.20544282627468982;0.7390000000000001;0.006557708850288233
09:28.0;-0.22760270263061697;0.5642992382397497;0.260290737652867;0.7390000000000001;0.0334307094365036
09:28.0;-0.35487251379236867;0.8663123369821665;0.29004670159763823;0.7390000000000001;0.08916918415127792
09:28.0;-0.48705386028487496;1.1836232855049624;0.29241564993890146;1.054;0.16857419809850388
09:28.1;-0.6188545510452125;1.5007023744461025;0.26789675421603865;1.344;0.24880013438048715
09:28.1;-0.7444625362879023;1.8005382827862921;0.21952275631592558;1.859;0.2942556119462737
09:28.1;-0.8578983646833892;2.066158660656942;0.1523515541357252;2.67;0.2700513774327717
09:28.1;-0.953548117007684;2.282393518122542;0.07290219794264244;3.4619999999999997;0.15866230536453757
09:28.1;-1.0267818975128007;2.4375674922055257;-0.011385390720854637;3.7910000000000004;0.028495927157705277
09:28.1;-1.0744934341102867;2.524769980149772;-0.09274590189097788;3.782;0.2516056055252188
09:28.1;-1.095401137158732;2.5424105207065963;-0.1638039478034361;2.905;0.4561873401801288
09:28.1;-1.0900511413354883;2.493955692706723;-0.21830717806873634;2.905;0.5934766319783484
09:28.1;-1.06058296691703;2.386991667624552;-0.2516857874692552;2.528;0.637168420330847
09:28.1;-1.0103638294673476;2.231903755593755;-0.2613313267186947;2.186;0.5893112427458888
09:28.2;-0.9435680656142704;2.0404536923309324;-0.24662162460538267;1.89;0.4748223262572171
09:28.2;-0.8647392561742798;1.8244649053347746;-0.20877904626890056;1.626;0.3293878671553086
09:28.2;-0.7783605903551641;1.5947693157909424;-0.15063525342222178;1.3969999999999998;0.1869843815395062
09:28.2;-0.6884661962724452;1.3605099062482817;-0.07633996590272976;1.205;0.07150498028060309
09:28.2;-0.598336100178557;1.128822153938431;0.008971744107317941;1.072;0.006059650953405935
09:28.2;-0.5103186490640204;0.904853672331606;0.09954895256567407;0.9670000000000001;0.045968093032685405
09:28.2;-0.4258104233741235;0.6920381428037345;0.18943234456615998;0.784;0.05582136533861772
09:28.2;-0.34539531561757875;0.492525082528914;0.2728951492780609;0.784;0.046423792007644536
09:28.2;-0.269109790660703;0.30767751844377206;0.3448906991617623;0.7609999999999999;0.02855661623622959
09:28.2;-0.19677408196972915;0.13856272345141857;0.4014589232336552;0.787;0.010945999429267288
09:28.3;-0.12831841397270552;-0.013630343433019202;0.44003646304569216;0.743;0.0007696343572843512
09:28.3;-0.06403846898189385;-0.1472920104961432;0.4596149436937033;0.64;0.004335251241185039
09:28.3;-0.0047322065140878436;-0.2602232256551464;0.4607088057519336;0.531;0.0005673306647366088
09:28.3;0.04830009291048211;-0.3495867666341053;0.44513857341418517;0.478;0.007516197444629683
09:28.3;0.093374020211454;-0.4119640140244533;0.4156844024659536;0.526;0.015990022240436316
09:28.3;0.12860778054041477;-0.4435067591872954;0.37568456548189705;0.562;0.021428454016098636
09:28.3;0.15211728445868702;-0.4401764536739989;0.32863925918934794;0.38;0.022005174357929657
09:28.3;0.16217654988431096;-0.39806725826512696;0.2778601694246263;0.38;0.01793786746285773
09:28.3;0.15733325548490093;-0.31381388241036456;0.22620434104195997;0.38;0.011168468304104666
09:28.3;0.13649332405733214;-0.18507817222362358;0.17592902239650848;0.332;0.004444307517355964
09:28.4;0.09899150775327206;-0.01108281617032952;0.1286782749223315;0.22;0.00014117353799876958
09:28.4;0.04465746844218117;0.20686589445544418;0.08557809788202253;0.159;0.0007905796382189263
09:28.4;-0.02611592013502826;0.46492661924232076;0.04739798874182409;0.36200000000000004;0.0005755057373818931
09:28.4;-0.11228874798660489;0.7563824063846105;0.014732368451422478;0.583;0.0012512676883965936
09:28.4;-0.2120541134065526;1.071436513274424;-0.011841608710770507;0.711;0.002690443338683621
09:28.4;-0.3226715565229368;1.3971909117062349;-0.031667181272051294;0.733;0.014276634599082157
09:28.4;-0.4402832812798615;1.717905411029087;-0.04400350068842674;1.15;0.03328270917534933
09:28.4;-0.5598015573955942;2.0156782525023123;-0.04813129178862929;1.15;0.05431037860351486
09:28.4;-0.6750007600230702;2.271681473588826;-0.04355497535218113;2.048;0.06678662084734915
09:28.4;-0.7789371656087254;2.467998342343237;-0.03024611777830098;3.287;0.05814560967004722
09:28.5;-0.8647250516396132;2.5899110724158487;-0.008844781873615728;4.2989999999999995;0.019808428412386305
09:28.5;-0.9265406903100408;2.628201389047701;0.019247521305431534;4.716;0.04687032298146984
09:28.5;-0.9605955523748909;2.580828220472046;0.051883325785003334;4.272;0.1286256189287
09:28.5;-0.9657998482998676;2.4534282725890564;0.08624993558774034;3.342;0.20437100373656675
09:28.5;-0.943924118040799;2.258450739153591;0.11901337316762846;2.327;0.2537134375298253
09:28.5;-0.8992099655312115;2.013185537787558;0.1465801470549929;1.723;0.26535059529317684
09:28.5;-0.83754418990098;1.7372304952691406;0.16550123768498923;0.961;0.2408055102868125
09:28.5;-0.7654391966411755;1.4499736993151344;0.17294720313096815;0.961;0.19194834222795712
09:28.5;-0.6890867248319752;1.168526160089629;0.16712041679740872;0.735;0.1345680108932502
09:28.5;-0.6136653858163279;0.9063370887037351;0.14749088711805985;0.58;0.08203261716196665
09:28.6;-0.5429607886821107;0.6725318154944213;0.11482130949523742;0.51;0.04192796623008657
09:28.6;-0.4792749117385168;0.47188741707724796;0.07102334135062632;0.505;0.016062908780643995
09:28.6;-0.42356838883152803;0.30530908377839633;0.018918090009063516;0.486;0.002446473716737898
09:28.6;-0.37576674160902923;0.1706536810991507;-0.03803638794125682;0.526;0.0024391205645373686
09:28.6;-0.33515318704513264;0.06374720531902923;-0.09601478698376001;0.55;0.0020513635117543525
09:28.6;-0.3007672244015846;-0.020543286733126956;-0.15108327514573283;0.557;0.0009335053830365017
09:28.6;-0.2717341754275202;-0.08730240445977694;-0.19945761934721223;0.461;0.004731742456085853
09:28.6;-0.2474737025241007;-0.14071718800253769;-0.23777222016234445;0.44299999999999995;0.008280133078343582
09:28.6;-0.22777525697918394;-0.18344734248741654;-0.2633553038018026;0.44299999999999995;0.011004239632875789
09:28.6;-0.21276418312651166;-0.2162474146128339;-0.2744864609353032;0.462;0.012629040963285031
09:28.7;-0.20279262142681895;-0.2378555878117386;-0.2706050540375297;0.48100000000000004;0.013052731705021522
09:28.7;-0.19828318400500589;-0.24515051066128088;-0.25243722970866006;0.45399999999999996;0.012270777797988273
09:28.7;-0.199550571119675;-0.23355832815457114;-0.22200865310624956;0.4;0.010347090198314025
09:28.7;-0.2066290856494863;-0.19766801856613958;-0.18251935753443677;0.33799999999999997;0.007454813692170004
09:28.7;-0.21913760934196141;-0.13199215433414;-0.13808148255412506;0.28600000000000003;0.003993930268737344
09:28.7;-0.23621847793326753;-0.03179706775979607;-0.09334615373053745;0.228;0.0007011280899441344
09:28.7;-0.2565870846762663;0.10607757449187742;-0.05305991062703469;0.287;0.0014441918417550318
09:28.7;-0.2787094505513127;0.28248541479137385;-0.021597030326127687;0.287;0.001700363456050572
09:28.7;-0.3010832393468705;0.49539663165941283;-0.002515913192744395;0.486;0.00037526259872554794
09:28.7;-0.32255652003020563;0.7395513155084354;0.0018214085820229525;0.6759999999999999;0.0004344917328146503
09:28.8;-0.34259564460368097;1.0064202752968272;-0.009450640295465003;0.847;0.0032585354387534723
09:28.8;-0.361411009627489;1.2845385269835443;-0.03548176983326163;0.977;0.01647228270230101
09:28.8;-0.3798809687356083;1.560247859238252;-0.07357559490992038;1.531;0.04360887815854411
09:28.8;-0.39928808318619974;1.8188320302580654;-0.11919101824838384;2.084;0.08656104134700328
09:28.8;-0.4209603634114715;2.0459385049940013;-0.16615100991904228;2.324;0.14309905540661455
09:28.8;-0.44593723059641877;2.2290899412902467;-0.20713328767937242;2.951;0.20589757091113736
09:28.8;-0.4747409737856504;2.3590482760038767;-0.23446703198382055;3.3680000000000003;0.2625882752680798
09:28.8;-0.5072652766912242;2.430792851944103;-0.24115917492145278;3.3680000000000003;0.29736296259819356
09:28.8;-0.542748266705087;2.443899217257309;-0.22195100738771623;2.9760000000000004;0.29440071336345336
09:28.8;-0.5798057279708073;2.402207001718207;-0.1741526233510189;2.498;0.24256210385529947
09:28.9;-0.616529820366405;2.312854322434675;-0.09808033403095287;2.046;0.13985703047665776
09:28.9;-0.6506619498543866;2.184939786213046;0.002937570481905856;1.818;0.004176218172092318
09:28.9;-0.6798176604980716;2.0281504418819543;0.12292089638422507;1.758;0.169479950201039
09:28.9;-0.7017070271124375;1.8516418528867316;0.25386879029993104;1.735;0.3298542832774929
09:28.9;-0.7142913914960644;1.6633204659164542;0.38658517293586386;1.7069999999999999;0.45930010050592207
09:28.9;-0.7158566450449988;1.4695330641568671;0.5116323405017408;1.719;0.5382244360500731
09:28.9;-0.7050366975812863;1.2750763891643309;0.6203162428863804;1.665;0.5576491955330406
09:28.9;-0.6808471269292494;1.0834188452045583;0.7055672443464601;1.665;0.5204564622521693
09:28.9;-0.6427730690855552;0.8970435383415281;0.7625862598636446;1.642;0.43970375107842014
09:28.9;-0.5909139115159113;0.717837418378522;0.7891792325994034;1.53;0.33475413900217316
09:29.0;-0.5261463322794595;0.5474604068484208;0.7857597573032261;1.3419999999999999;0.22633360757752227
09:29.0;-0.4502462017852682;0.3876481778324714;0.7550386343940897;1.099;0.1317822685078938
09:29.0;-0.3659157612937091;0.2404286237265392;0.701455687121916;0.804;0.061711702458354
09:29.0;-0.2766868488190861;0.10824860843398001;0.6304520874774998;0.555;0.018882649261517778
09:29.0;-0.18670042403553724;-0.005987336385608601;0.5477129740906492;0.316;0.000612254508098089
09:29.0;-0.10039197162677693;-0.0989661847483036;0.4585100277713386;0.207;0.004555485303587414
09:29.0;-0.02213965091578748;-0.1671059015060149;0.3672393032605253;0.32299999999999995;0.0013586628836036892
09:29.0;0.04405155084488795;-0.20678043622042327;0.2771957436150256;0.32299999999999995;0.0025249757236440367
09:29.0;0.09476375946888564;-0.21460696310858965;0.1905723688003821;0.32299999999999995;0.0038756631430556824
09:29.0;0.12724658920515394;-0.18776278935877042;0.10863284579205311;0.259;0.0025954749108708175
09:29.1;0.13937847819429466;-0.12431086646088546;0.03198824144301948;0.171;0.0005542365686823364
09:29.1;0.12955953349041474;-0.02352625313452831;-0.03908624371965857;0.09;0.0001191368400571433
09:29.1;0.09660270583233796;0.11378570655230356;-0.10433953606254857;0.154;0.0011469009251748202
09:29.1;0.03969141766746894;0.2849984477441289;-0.16326423286542685;0.154;0.0018468437652826627
09:29.1;-0.04153802338980476;0.4854319553154008;-0.21486639473436206;0.302;0.004332541040454073
09:29.1;-0.1467542658875683;0.7082311790962754;-0.2575151715091667;0.446;0.02676508315766153
09:29.1;-0.2745325290188155;0.9444232200815048;-0.28892675091568937;0.8440000000000001;0.07491145302746807
09:29.1;-0.4218584471197372;1.1832066674281523;-0.306347812859358;0.8440000000000001;0.15291220186960913
09:29.1;-0.5836606165289081;1.412491539282213;-0.3069690059709944;1.178;0.25307006261283116
09:29.1;-0.7525554797698623;1.619693305203369;-0.2885243257992108;1.7619999999999998;0.3516849183182179
09:29.2;-0.9189947627228986;1.7927703557043304;-0.24995048726354993;2.343;0.4118050673752933
09:29.2;-1.0719292007159196;1.9214193035503588;-0.19193549719451927;2.6839999999999997;0.39531523637231647
09:29.2;-1.1999540748470845;1.9982321017089573;-0.11722085507201661;3.05;0.28107061345950246
09:29.2;-1.292752544794044;2.0195715878960216;-0.030611600341695272;3.327;0.07992095932046978
09:29.2;-1.342563211540544;1.9859693805186127;0.06130276660645067;3.38;0.16345091860373961
09:29.2;-1.345365559872131;1.9019476698166475;0.15072906274960268;3.185;0.38568777036818624
09:29.2;-1.3014995016040358;1.7752864069007999;0.22955183706918078;2.146;0.5303874101140221
09:29.2;-1.2155618558114232;1.61589575487164;0.2904062907958031;2.146;0.5704222053627607
09:29.2;-1.0956398240576597;1.434559589310487;0.32770097649519536;1.7690000000000001;0.5150674886904977
09:29.2;-0.9521084529953305;1.2418038341921709;0.33832690302572466;1.3419999999999999;0.4000146993782851
09:29.3;-0.7962465406298193;1.0470255071009904;0.32191477057852014;0.9490000000000001;0.26837726607594903
09:29.3;-0.6388863497858852;0.8579148559629958;0.2806652737484342;0.664;0.15383546866554895
09:29.3;-0.4892825106780836;0.6801713253724521;0.2188730219452717;0.501;0.07284005171522306
09:29.3;-0.3543478604709377;0.5175038792859159;0.14228600508814987;0.43700000000000006;0.026091894303549145
09:29.3;-0.2383312050301155;0.37187870047039845;0.05742469304384526;0.39899999999999997;0.005089567703441922
09:29.3;-0.1429202899047969;0.24394452915516468;-0.029048869627493347;0.366;0.0010127778831290923
09:29.3;-0.06768246666810544;0.13354750193058448;-0.11085951803692078;0.359;0.0010020397108424953
09:29.3;-0.010721613856524039;0.04025313829849984;-0.18252624288458089;0.359;7.877442134386159e-05
09:29.3;0.03058314278423506;-0.03618364359245285;-0.23965256583506955;0.359;0.00026520181526515325
09:29.3;0.058886838310480284;-0.0954434465665444;-0.2791184414114184;0.39899999999999997;0.0015687469065101768
09:29.4;0.07633539068392739;-0.13640642123871802;-0.29919946361835215;0.423;0.0031154555420028927
09:29.4;0.08422541690648197;-0.15709653598417858;-0.2996309120385469;0.43;0.003964572776148882
09:29.4;0.08288593460953539;-0.15482293735333819;-0.28161128287616444;0.40700000000000003;0.0036138173005369873
09:29.4;0.07177038599146288;-0.12650205379847781;-0.24772332277932857;0.361;0.002249105124503266
09:29.4;0.04971869508939867;-0.06911998025050405;-0.20175357749866854;0.316;0.0006933373104434022
09:29.4;0.015324179403603228;0.01971824549208997;-0.14840703842725764;0.26899999999999996;4.484355099937768e-05
09:29.4;-0.0326733424287919;0.1412143983292017;-0.0929315604495369;0.06;0.0004287812380842192
09:29.4;-0.09504050283337162;0.29484525354970326;-0.04068534877280151;0.06;0.0011400946548028692
09:29.4;-0.17179663920158736;0.47794135556223244;0.0033057650849220932;0.215;0.00027143213518513457
09:29.4;-0.2620694925448642;0.6854439425002373;0.034762274520348364;0.441;0.006244484550247474
09:29.5;-0.3640480800823699;0.9099044243688599;0.05052475461787419;0.6759999999999999;0.016736272358266913
09:29.5;-0.4750011368232352;1.1417758785026084;0.04888967402678328;1.078;0.026515062451694636
09:29.5;-0.5913331015179528;1.370013992543827;0.029884980981829404;1.379;0.02421085781105617
09:29.5;-0.7086800970329586;1.5829568046211744;-0.004573272261914234;1.722;0.005130342473352248
09:29.5;-0.8220854114631423;1.7693966084004646;-0.05070633977508006;2.3209999999999997;0.073757195346133
09:29.5;-0.9263034790279271;1.9196996303709306;-0.10312696472068009;2.905;0.18338288973915667
09:29.5;-1.0162373166145091;2.0267750891491194;-0.1553660785167013;2.7560000000000002;0.3200051003251661
09:29.5;-1.08743688400356;2.086691387588982;-0.2006711362796432;2.7560000000000002;0.4553519417337073
09:29.5;-1.1365437632630309;2.098832318265566;-0.23293839969530156;2.7560000000000002;0.5556547018027209
09:29.5;-1.1615992078903388;2.0656218396509325;-0.24753617372898762;2.5639999999999996;0.5939444075915895
09:29.6;-1.1621920284243585;1.9919223827253045;-0.2418288571747929;2.369;0.5598329130857057
09:29.6;-1.139448060420529;1.8842336758416154;-0.21534491414868084;2.105;0.46234260356201506
09:29.6;-1.0958585261351987;1.749834943519699;-0.1696264132684896;1.885;0.3252707828866298
09:29.6;-1.0349532085556412;1.5960106135332324;-0.10784506974307638;1.732;0.17813808775345255
09:29.6;-0.9608554890331988;1.4294562242679656;-0.034288071660495995;1.538;0.04709469589356452
09:29.6;-0.8777855411164843;1.255897004961078;0.04619225301289366;1.354;0.05092271998002864
09:29.6;-0.7895920966117741;1.0799037695114748;0.12869264022673466;0.9790000000000001;0.10973408851292728
09:29.6;-0.69939688877753;0.9048835354902716;0.20868190014365776;0.9790000000000001;0.13206908372611875
09:29.6;-0.609424531909454;0.7332400297769162;0.28229311744623375;0.9790000000000001;0.12614393910130542
09:29.6;-0.5210510742500652;0.5666917342448854;0.3464725078236946;0.897;0.10230478647316565
09:29.7;-0.43504452745249167;0.40668954977887134;0.3990071339450729;0.91;0.07059555933344618
09:29.7;-0.35191767842047805;0.2548428226575576;0.43847255495138043;0.821;0.03932383867005457
09:29.7;-0.27228576046994635;0.11327310707872437;0.46413701221778236;0.6920000000000001;0.014315217323640767
09:29.7;-0.1971261907354612;-0.015153662953578322;0.475849330649674;0.5660000000000001;0.0014214494373239693
09:29.7;-0.12787704731634397;-0.12673849705423984;0.4739340464091451;0.48;0.007681022921698551
09:29.7;-0.06637180225795832;-0.21700594841435694;0.45910987910720497;0.508;0.00661259443382447
09:29.7;-0.014661916478230577;-0.28089466264655305;0.432432119735039;0.455;0.0017809518291018254
09:29.7;0.025197450856723508;-0.31306348274640744;0.39524940298934763;0.455;0.0031178860709777634
09:29.7;0.051335811489605795;-0.3082922539466158;0.34916997635429864;0.455;0.005526115247664276
09:29.7;0.062201507326379114;-0.26195987367487433;0.2960385070992409;0.389;0.004823739950663809
09:29.8;0.05664727698444324;-0.1705862625136528;0.23791937362950216;0.335;0.0022990737358857503
09:29.8;0.033991294394516924;-0.03241718661661949;0.17707721027889736;0.242;0.0001951217558408315
09:29.8;-0.005920193041050369;0.1519897491116074;0.11594964511122353;0.147;0.00010433249421543472
09:29.8;-0.06263024267903622;0.37924106801830365;0.05711191106898649;0.131;0.0013565198343070486
09:29.8;-0.13496045557360437;0.6427261082230321;0.003230752289181401;0.233;0.00028024388057654826
09:29.8;-0.22087269293952244;0.932477891885405;-0.04300257407615344;0.332;0.00885676298665485
09:29.8;-0.31731596585486577;1.2353842838254714;-0.07897635653372792;1.2329999999999999;0.030959297012695845
09:29.8;-0.42009759257585266;1.5358165340674637;-0.10230700687956172;1.2329999999999999;0.06600774715421709
09:29.8;-0.5238575298305786;1.8166558861332165;-0.11101549197560899;1.2329999999999999;0.10564998725271936
09:29.8;-0.6222529224273231;2.0606580600454607;-0.10370198910549927;2.213;0.1329719273801424
09:29.9;-0.7084415266780919;2.252106440864388;-0.07971262818216812;3.069;0.12718036038342478
09:29.9;-0.7758688537337665;2.378624206234181;-0.03934009391691067;3.6060000000000003;0.07260216048987796
09:29.9;-0.8192367568047727;2.4328293577467934;0.015884055723266812;3.932;0.03165792745137665
09:29.9;-0.8354279711679552;2.4134155248129225;0.08282802022912501;3.841;0.1670007397397796
09:29.9;-0.8241413048355468;2.3253310810008436;0.15650759584324672;3.355;0.29993137441842854
09:29.9;-0.7880518566198016;2.1789441514533197;0.23020952339724568;2.434;0.3952976033474932
09:29.9;-0.732417625058501;1.98834469759497;0.2961513758362097;1.371;0.4312848639918775
09:29.9;-0.6642048939781886;1.769189670952987;0.3465800654164072;1.371;0.40726777293167926
09:29.9;-0.5909635095600879;1.5366277306695633;0.37498329089464993;1.371;0.34051892033964654
09:29.9;-0.5197334611658703;1.3037331388340085;0.3770585211907686;1.196;0.25549249232175997
09:30.0;-0.4561698762042291;1.080604367472476;0.35123764705427785;0.953;0.17313879088745918
09:30.0;-0.4039626135403828;0.8740592009284692;0.2987477663923536;0.741;0.1054840240514725
09:30.0;-0.36458914399334885;0.687786984517804;0.22330306254119192;0.619;0.055995401811723015
09:30.0;-0.3374197259326892;0.5228281425550726;0.13057330466099137;0.624;0.023034766839094774
09:30.0;-0.32013632436131156;0.37826439853004723;0.027568246192456975;0.634;0.0033384091428182083
09:30.0;-0.3093594559080653;0.2520088109179341;-0.0779816897450696;0.659;0.0060795545816739105
09:30.0;-0.3013461932571289;0.14159336118610463;-0.1782335620255518;0.6679999999999999;0.007604980197741121
09:30.0;-0.29263659044784646;0.04487323940227933;-0.2658300141634467;0.6679999999999999;0.0034907605959400316
09:30.0;-0.2805644094959908;-0.03940231588600945;-0.3344588321704643;0.6679999999999999;0.003697404759458104
09:30.0;-0.2635879655177991;-0.11118556472899614;-0.3793306348267319;0.6609999999999999;0.011117109981230212
09:30.1;-0.24142752318420813;-0.1689278023227804;-0.3975549305669051;0.664;0.016213809090820045
09:30.1;-0.21501999546173262;-0.20960854624385677;-0.3884117604785106;0.664;0.01750572917746104
09:30.1;-0.18632254161405712;-0.22899546097681575;-0.35350014656405715;0.633;0.015082796518075538
09:30.1;-0.15800909808917293;-0.2220996683835249;-0.29672504090547536;0.585;0.010413199830542293
09:30.1;-0.1331064628834156;-0.18377251600909272;-0.22408476902567043;0.5579999999999999;0.005481406907558806
09:30.1;-0.11461587712853029;-0.10938412222984067;-0.14323030800495573;0.501;0.0017957008748455629
09:30.1;-0.10516589515138745;0.004476547604957833;-0.06278091331741051;0.18899999999999997;2.955600691374186e-05
09:30.1;-0.1067374000793136;0.15933322309163797;0.008575536627727493;0.18899999999999997;0.00014584255619836574
09:30.1;-0.12048664630324186;0.35422755253325683;0.06309173738078462;0.18899999999999997;0.0026927357824330393
09:30.1;-0.14667280373203173;0.5852497891319419;0.09493098697876877;0.59;0.00814889751483853
09:30.2;-0.18467865671538677;0.8452846565555634;0.10096767577185341;1.02;0.015761663519308012
09:30.2;-0.23309621016294912;1.1240887633249745;0.08128835499108103;0.996;0.021299242294318278
09:30.2;-0.2898444353534661;1.408791487123545;0.03924383508353944;1.247;0.016024449822168108
09:30.2;-0.352308092414105;1.6848382657018504;-0.01900121570798913;1.578;0.011278782575466995
09:30.2;-0.4175152707233517;1.9373055713754834;-0.08526659317549581;2.33;0.06896828124142129
09:30.2;-0.48236574724999287;2.1524315862462893;-0.15027243735590518;3.19;0.156021751186027
09:30.2;-0.5438717192999467;2.3191177953978257;-0.20460437971618126;3.3810000000000002;0.2580680325559079
09:30.2;-0.5993390259254567;2.430089296941028;-0.23977962815641887;3.3810000000000002;0.34922640452565323
09:30.2;-0.6464713223624229;2.482440902674022;-0.24931215641529605;2.86;0.4001028434041375
09:30.2;-0.6834613681884087;2.4774735104511376;-0.22949602995446558;2.569;0.38859585904712857
09:30.3;-0.7091167216331075;2.419948929753418;-0.17972820284801397;2.455;0.30841831423761795
09:30.3;-0.722970258687005;2.3170316075343647;-0.10242259761640096;2.3209999999999997;0.1715726962089385
09:30.3;-0.725278169674514;2.177183837846032;-0.0026417555624780285;2.032;0.0041715008649978414
09:30.3;-0.716859802771139;2.0091874589319403;0.11248349881317725;1.848;0.16201062736941313
09:30.3;-0.6988261136821663;1.8213743911402638;0.2345032592093389;1.712;0.2984813734265474
09:30.3;-0.6723012394281516;1.6210967049277307;0.3544967609098334;1.6269999999999998;0.38635372717027944
09:30.3;-0.6382383585216512;1.4144341162862368;0.46393187925817564;1.504;0.4188126986630173
09:30.3;-0.59738244703746;1.2061196084490016;0.5554543884989694;1.504;0.40021304271424196
09:30.3;-0.550366286643421;0.9996661173794696;0.6235257524909447;1.504;0.3430529753431011
09:30.3;-0.4978768930971601;0.7976642600908027;0.6648345331027482;1.426;0.26403145806734674
09:30.4;-0.44082147802660027;0.6021783632879776;0.6784427322599127;1.2919999999999998;0.18009476453880524
09:30.4;-0.380442852839605;0.4151477329930573;0.6656647213856284;1.004;0.10513507803429548
09:30.4;-0.31835978396226805;0.2387296847999149;0.6296981010259561;0.7390000000000001;0.047858271548359685
09:30.4;-0.25653014603055435;0.07555666294114037;0.575065146211948;0.546;0.011146235722754142
09:30.4;-0.19715133375917615;-0.07110998508288396;0.5069732265250978;0.386;0.0071074748513471646
09:30.4;-0.14252125630276047;-0.1973466678732879;0.43071267007025393;0.312;0.012114265490082536
09:30.4;-0.09488797767621827;-0.29866242820540856;0.3511726799560693;0.361;0.009952048970012575
09:30.4;-0.05631811178634826;-0.37020929187299645;0.27251033706100736;0.361;0.005681701079835511
09:30.4;-0.028607414861076045;-0.40707556907926085;0.19798028286240915;0.361;0.0023055555639693525
09:30.4;-0.013238809949607274;-0.4046318305433209;0.12991327313385886;0.353;0.0006959251252520018
09:30.5;-0.011371223950306602;-0.35892337622455794;0.0698118968029393;0.318;0.0002849301424138801
09:30.5;-0.023828352132055586;-0.2671190621717383;0.01852508493487743;0.263;0.00011791229666829467
09:30.5;-0.051055996910471045;-0.12801745100718626;-0.02352713300173589;0.243;0.00015377471959194944
09:30.5;-0.09302951873251182;0.05741290667382066;-0.05610577879061004;0.254;0.0002996662988841763
09:30.5;-0.1491126863542887;0.2855141174641407;-0.07893179048200796;0.207;0.0033604244499135178
09:30.5;-0.21788782825921668;0.5495315059663946;-0.09156657561026844;0.22;0.010963836227489145
09:30.5;-0.2969918530479764;0.8394309333404447;-0.093462058257434;0.594;0.023300478841447213
09:30.5;-0.38300679719729325;1.1420405811738186;-0.0841929976442228;0.594;0.03682680060771367
09:30.5;-0.4714696853045435;1.4415821800959192;-0.0638006833956124;1.06;0.04336291901346294
09:30.5;-0.5570755942387363;1.7206350118071954;-0.03311448684060034;1.4609999999999999;0.03174102282338433
09:30.6;-0.6341274554267529;1.961551679119754;0.006079006667072566;2.2;0.0075615169710289195
09:30.6;-0.6972190566758557;2.1482591906589596;0.05107097318443627;3.055;0.07649447371667951
09:30.6;-0.7420373846621652;2.2682250603272363;0.09841090671541275;3.719;0.16563616387018762
09:30.6;-0.7660829443938624;2.3142126076496576;0.14412585994748706;3.9989999999999997;0.25551768284644616
09:30.6;-0.7690839285451057;2.285382632485065;0.18393270702996475;3.58;0.32328951623289115
09:30.6;-0.7529519988238965;2.187389533699429;0.21349545393709338;2.7110000000000003;0.35162686780024166
09:30.6;-0.7212808055481534;2.0313807383394735;0.22880654801198463;1.49;0.33524642412278954
09:30.6;-0.6785521308584854;1.8321576790603642;0.22669645036895442;1.49;0.2818323135613643
09:30.6;-0.6292930421403511;1.606010073270271;0.20536279420708844;1.175;0.2075501060822283
09:30.6;-0.5773883477802263;1.3687278294572056;0.16476193041095885;0.915;0.13020929408148135
09:30.7;-0.5256576507387817;1.1340822932283896;0.10675752026240053;0.7440000000000001;0.06364232500177092
09:30.7;-0.4757232812868566;0.9128645774872876;0.03501179916342356;0.6829999999999999;0.015204606659746543
09:30.7;-0.4281321507626084;0.7124702802429497;-0.04533136628929893;0.63;0.013827491638785199
09:30.7;-0.38264655737599124;0.5369739434806267;-0.1281012570038669;0.61;0.026321122953023496
09:30.7;-0.33860505739611757;0.3875993708093659;-0.20663021684037372;0.622;0.02711879169945867
09:30.7;-0.2952774233772102;0.2634638067052679;-0.2743145207962411;0.628;0.021340274553494572
09:30.7;-0.25217009432615695;0.1624600237716975;-0.32517683260846403;0.679;0.013321701244002166
09:30.7;-0.2092589743557931;0.08214458465149392;-0.3544038352624191;0.679;0.0060920217255253034
09:30.7;-0.16713398501903373;0.020521124259001947;-0.35882505166542933;0.6890000000000001;0.001230690007715398
09:30.7;-0.12704000660336331;-0.02336659601627846;-0.33729390887634003;0.645;0.001001254442912155
09:30.8;-0.09080043472302925;-0.04909154872687155;-0.29093633039647826;0.5770000000000001;0.0012968585745770963
09:30.8;-0.060623586440843855;-0.054780030834765486;-0.22323525074120015;0.531;0.0007413557701597987
09:30.8;-0.038818637788591834;-0.037324235851054204;-0.13991539194164548;0.46799999999999997;0.00020272005232882683
09:30.8;-0.02747282865132925;0.0071600703087171735;-0.0485896556018193;0.342;9.557944078018193e-06
09:30.8;-0.028153359054129624;0.08267812282404961;0.04186121114341165;0.161;9.743895464256312e-05
09:30.8;-0.04169395070142929;0.19256479623850917;0.12216976371045085;0.258;0.0009808750254784143
09:30.8;-0.06810693727003211;0.33863996092961907;0.18375392248659958;0.835;0.004238050960543465
09:30.8;-0.10662302278621652;0.5204146387143953;0.21982251039206266;0.835;0.012197551438376255
09:30.8;-0.15581513248231252;0.7344657171063874;0.22628476468288444;0.835;0.025896226020223578
09:30.8;-0.21374589424261156;0.9741071838540029;0.20224318218367493;0.83;0.04210933834802481
09:30.9;-0.27810086811047957;1.2294808784009537;0.1499631234144936;1.062;0.05127534611024209
09:30.9;-0.3462980978210652;1.4881304650019005;0.07439372099354326;1.409;0.038337818348099816
09:30.9;-0.41557999565078185;1.7360153689238764;-0.017517692435800473;1.651;0.012638196306149976
09:30.9;-0.4831057446845891;1.9588395085373327;-0.11745516633229956;2.372;0.11115095049682464
09:30.9;-0.546064225615005;2.143532580121362;-0.21623500497243334;3.0989999999999998;0.2531044698620129
09:30.9;-0.6018114941840321;2.2796636630210276;-0.3043310454058885;3.2239999999999998;0.4175202201588756
09:30.9;-0.6480285369103379;2.360498370580384;-0.3725976193589135;2.897;0.5699515142208186
09:30.9;-0.6829033831366184;2.383461746812146;-0.4131757913408108;2.897;0.6725155303768304
09:30.9;-0.705332943225034;2.3499689377751056;-0.42038764353040065;2.656;0.6967969363194477
09:30.9;-0.7151061700311826;2.2647755622744516;-0.3914052794949312;2.438;0.6339023689460819
09:31.0;-0.7130033497844058;2.1350623782787848;-0.3265848550921974;2.211;0.49716228941703033
09:31.0;-0.7007431446035022;1.969448886834388;-0.22945802481430078;1.959;0.3166699274768867
09:31.0;-0.6807339947614085;1.7770892452611844;-0.10641804550973401;1.736;0.1287365765930163
09:31.0;-0.6556443872899713;1.5669460956529175;0.033853504553159136;1.496;0.03477971655898176
09:31.0;-0.6278763815608952;1.347272625150997;0.18117032917854856;1.2590000000000001;0.1532557245861908
09:31.0;-0.5990744002728805;1.125286739717887;0.32478200207431696;1.094;0.21894544654174017
09:31.0;-0.5698079953528792;0.9070084636617657;0.45440867338898244;1.232;0.2348477970555538
09:31.0;-0.5395248061977544;0.6972465688250151;0.5612711145482432;1.232;0.21113998933780626
09:31.0;-0.5067872777971709;0.49973564431410583;0.6389647429736477;1.301;0.1618239979025565
09:31.0;-0.4697243303831475;0.31740944098087026;0.6840230654898242;1.253;0.1019843759392225
09:31.1;-0.4265832657741895;0.15275727135650338;0.696089927977648;1.139;0.04535979223683295
09:31.1;-0.3762603019311128;0.008185297272301235;0.6777131224940438;0.991;0.0020872225168048317
09:31.1;-0.3187113110715274;-0.11369177573022038;0.6338316085521849;0.8029999999999999;0.022966796367573976
09:31.1;-0.2551865448471111;-0.2098813669329568;0.5710555250899928;0.603;0.030585106251229
09:31.1;-0.18827644958531325;-0.2769869541376388;0.49684644004521583;0.46399999999999997;0.025910601622206604
09:31.1;-0.12178821655662331;-0.311315471975294;0.41870014943926226;0.39799999999999996;0.015874830312678324
09:31.1;-0.06049029584014018;-0.30909459615980334;0.3434166042154273;0.24;0.006420937024706912
09:31.1;-0.00976186806319071;-0.2667819029960798;0.27651712120877747;0.24;0.0007201307013374105
09:31.1;0.024830697190641713;-0.1814594264239085;0.22184782384872406;0.147;0.0009995939536874337
09:31.1;0.038026827779243766;-0.051309501234654456;0.1813895367751244;0.055;0.0003539159394425572
09:31.2;0.0254360958716758;0.12384315769407372;0.15527395701998228;0.11;0.0004891263852760567
09:31.2;-0.01584473120339236;0.3419586181139334;0.14198907519868295;0.276;0.0007693312256896634
09:31.2;-0.08662370473186957;0.5982413142042018;0.1387449017313517;0.428;0.007190021503843419
09:31.2;-0.1851216445406878;0.8847258440207535;0.1419557448644077;0.537;0.023249782065879087
09:31.2;-0.30672430272761725;1.190107602948579;0.14777476847404508;0.644;0.05394295148030166
09:31.2;-0.4440902004519322;1.4999542640099168;0.15259898803262836;0.708;0.10164847335270828
09:31.2;-0.5876713266815671;1.7974273941403724;0.1534657083162061;2.363;0.1621052969069008
09:31.2;-0.7266098287140231;2.0645463686154897;0.14829666251034856;2.363;0.2224627423952979
09:31.2;-0.8498649686007403;2.2838385687664706;0.13599604839168075;2.363;0.2639621276290784
09:31.2;-0.9473866797050012;2.440112894037701;0.1164329117284483;3.17;0.2691615077494006
09:31.3;-1.011206372998951;2.5221532002803313;0.0903196593823317;3.8310000000000004;0.2303528299297979
09:31.3;-1.0363499278967063;2.524165889358861;0.05896854806921656;4.151;0.15425695340110077
09:31.3;-1.021439612658874;2.446721483837431;0.02392095873987245;3.8560000000000003;0.059782739675894016
09:31.3;-0.9688349312226946;2.296881702146608;-0.013485814751357086;3.159;0.030009973127174665
09:31.3;-0.8842367915893367;2.0873546240698944;-0.05248229952672903;2.334;0.09686740713167877
09:31.3;-0.7758104097681714;1.834792861486861;-0.09303075563748289;1.5830000000000002;0.13242475951430038
09:31.3;-0.6530054680235375;1.5575823944865854;-0.13572482721386825;0.43799999999999994;0.13804705464447506
09:31.3;-0.5253223755381538;1.2735860032561295;-0.1814488137727218;0.43799999999999994;0.12139709948134393
