Time;AccX;AccY;AccZ;Acc-old;Acc-trns
54:19.4;0.17667765130744292;-0.25814268987603406;-0.9006420817909601;0.96;0.041076523829204674
54:19.4;0.18025605297181627;-0.2793091421685998;-0.8576363788175149;0.96;0.043179559010391194
54:19.4;0.18285213211100948;-0.2999347000373714;-0.8159850264744298;0.972;0.04475163750352683
54:19.4;0.1837110449876776;-0.3196169613767348;-0.7768385512867549;0.924;0.045613758148036566
54:19.4;0.1822978120194653;-0.33790079500965975;-0.7414432955272006;0.8809999999999999;0.04567185089998483
54:19.4;0.17836834358929585;-0.35429425906565426;-0.7110777363469736;0.816;0.04493647231350539
54:19.4;0.1720161696179358;-0.3682992625424593;-0.686930239278344;0.763;0.04351938574067575
54:19.5;0.1636801347164206;-0.37945739502152237;-0.6699432612279572;0.746;0.04160993312473159
54:19.5;0.1541000524718324;-0.387409832488923;-0.6606610026504683;0.731;0.039441379615614724
54:19.5;0.14421544077545115;-0.39196378972780177;-0.6591166749737359;0.747;0.03725804034683748
54:19.5;0.1350179433049331;-0.3931516856078416;-0.6647836090555324;0.747;0.03528839719919586
54:19.5;0.12738606099476685;-0.3912671782771557;-0.6765990914898219;0.747;0.03372304152362252
54:19.5;0.12193753915839405;-0.3868649587675348;-0.6930598421709541;0.7929999999999999;0.03269396217003461
54:19.5;0.11892540655485578;-0.3807170747310907;-0.7123835261056655;0.8320000000000001;0.03225454110682611
54:19.5;0.11819184197741374;-0.3737275917292114;-0.732721444061442;0.903;0.03236544370804713
54:19.5;0.11918619690000469;-0.36682072001695487;-0.7523892110485288;0.932;0.0328944311493602
54:19.6;0.1210412521562097;-0.36082838466524475;-0.7700678227626497;0.938;0.03363280417716856
54:19.6;0.12268740006687731;-0.3564007557373966;-0.7849321740799291;0.937;0.03432185170289918
54:19.6;0.12298172575678294;-0.3539504388128471;-0.796685196551863;0.917;0.03467925711418238
54:19.6;0.12083864710415852;-0.3536308788382038;-0.8054991183260212;0.8640000000000001;0.034420811425865706
54:19.6;0.11535647855998644;-0.3553457439069148;-0.811884279632847;0.8640000000000001;0.03328030061120838
54:19.6;0.1059319190634368;-0.3587842003563589;-0.8165197268653623;0.8640000000000001;0.03103321938315423
54:19.6;0.09234894991950936;-0.3634761332117218;-0.8200828655953187;0.85;0.027527425682325146
54:19.6;0.07482811250608308;-0.3688613367454221;-0.8231074593828708;0.8340000000000001;0.022718751636683663
54:19.6;0.05402658429041618;-0.3743642819557905;-0.8258917513458152;0.838;0.01670417556030224
54:19.6;0.030986294913302192;-0.37946242056843205;-0.8284755820103432;0.888;0.009741327300252322
54:19.7;0.007034085576784858;-0.38373651489458394;-0.8306965217041187;0.94;0.00224224552840534
54:19.7;-0.01635727131964337;-0.3868955693823891;-0.8323147055368261;0.997;0.005267350057779308
54:19.7;-0.03773313545688555;-0.3887725981302684;-0.8331726523586612;1.048;0.012222317128889555
54:19.7;-0.05582483663204119;-0.3892921206619626;-0.8333417226777885;0.9740000000000001;0.018110323183730927
54:19.7;-0.06969552797597045;-0.3884176070897239;-0.8332104890306029;0.9740000000000001;0.022555816319942513
54:19.7;-0.07884116270316735;-0.38609290478210023;-0.8334929399155255;0.9740000000000001;0.02537153636357391
54:19.7;-0.08323316197069094;-0.3821916141971923;-0.8351599835076926;0.9179999999999999;0.026567288039150264
54:19.7;-0.08330157474622024;-0.3764845602205253;-0.8393109223461904;0.866;0.026322264970817053
54:19.7;-0.07986777127045334;-0.36863315370371613;-0.8470083123432488;0.86;0.024937541148347533
54:19.7;-0.07404119234154932;-0.35821481941649574;-0.8591072969621852;0.89;0.022785804163530297
54:19.8;-0.0670960759924073;-0.3447807556450261;-0.8761103043850658;0.915;0.02026744146398331
54:19.8;-0.060343790220055954;-0.3279370890869975;-0.8980649610337624;0.9079999999999999;0.01777177779624645
54:19.8;-0.05501653808205992;-0.30743383850915096;-0.9245097872779023;0.919;0.01563710814149147
54:19.8;-0.05217762262560407;-0.28324465971067764;-0.9544696616780415;0.99;0.014106138594128936
54:19.8;-0.0526668108475313;-0.25562395280713046;-0.9865039567580327;0.99;0.013281202512019695
54:19.8;-0.05707559411395346;-0.22513391560490065;-1.018805660965765;0.99;0.013091298187171346
54:19.8;-0.06573657954097659;-0.19263594567216524;-1.0493470425095837;1.056;0.01328812102370274
54:19.8;-0.07871208747705205;-0.15923802681636337;-1.0760710058637464;1.103;0.013487428250650598
54:19.8;-0.0957733355846896;-0.12619348014332132;-1.097124009246128;1.167;0.013259808435128901
54:19.8;-0.11636738446839698;-0.09476254214336662;-1.1111098898211682;1.236;0.012252507837840185
54:19.9;-0.1395786811990191;-0.06606640129595555;-1.1173260054485912;1.28;0.010303378367279417
54:19.9;-0.16410756869809318;-0.04096955804232689;-1.1159340372804691;1.286;0.007502887155324255
54:19.9;-0.18830104056667546;-0.020016237132048715;-1.1080202634813705;1.244;0.004176215109102578
54:19.9;-0.21026782726517054;-0.0034271381546941183;-1.0955174777015155;1.104;0.0007894484015837171
54:19.9;-0.22808017979071965;0.008853533455655479;-1.080994916074403;1.104;0.002182869791989555
54:19.9;-0.24001955439399209;0.01707668108252963;-1.0673601541412632;1.104;0.004374828965924982
54:19.9;-0.24480007387032499;0.021586933430356264;-1.057531123821685;1.0270000000000001;0.005588505138345565
54:19.9;-0.2417193624578631;0.022714441158486972;-1.0541237022573788;0.977;0.005787687517875891
54:19.9;-0.23071404105562737;0.02067566408087385;-1.0591895028574778;0.951;0.005052509766381751
54:19.9;-0.21231681871080552;0.015502192217311086;-1.0740404669687984;0.987;0.0035350711606003363
54:20.0;-0.18753297597916418;0.007015860719753758;-1.0991898918620788;1.075;0.001446209900291925
54:20.0;-0.15767563891785685;-0.005138337239575852;-1.1344125862413037;1.156;0.0009190904220911364
54:20.0;-0.1242056218516878;-0.021402680327205312;-1.1788951509243313;1.2229999999999999;0.0031338961418132367
54:20.0;-0.08860837368424365;-0.04217732134380806;-1.2314280240935456;1.4;0.0046021714391007015
54:20.0;-0.052317701205683596;-0.0676794702215146;-1.2905852151661312;1.4;0.004569748397976119
54:20.0;-0.01667460809575024;-0.09782160069572568;-1.354841447449928;1.4;0.0022099318174819034
54:20.0;0.017103691167139685;-0.13213459461416452;-1.4225965586209792;1.409;0.003215052998958791
54:20.0;0.047970813208517864;-0.16975443621999756;-1.492114312449046;1.4580000000000002;0.012150672335835671
54:20.0;0.07512782126986449;-0.20947746729909125;-1.5614147065326063;1.505;0.024572897793693833
54:20.0;0.09812175011858733;-0.2498698884681394;-1.6281675091818562;1.541;0.0399188749296939
54:20.1;0.11694091367038276;-0.28940456257895997;-1.6896288564337696;1.601;0.057182504707982376
54:20.1;0.1320744825288404;-0.3265996583160757;-1.742655696226639;1.705;0.07517029144094431
54:20.1;0.14450445508314233;-0.3601408924737778;-1.7838227640287174;1.7990000000000002;0.09283363903348818
54:20.1;0.1556083129273735;-0.3889729509927673;-1.8096463532389322;1.8969999999999998;0.10953323334015001
54:20.1;0.1669761574761471;-0.41234879357926263;-1.8168920847058059;1.8969999999999998;0.1250974116269364
54:20.1;0.18017925906075927;-0.4298339778755575;-1.8029248915222036;1.8969999999999998;0.13963142633904838
54:20.1;0.19654364783150563;-0.44127470850116884;-1.7660589536381284;1.916;0.15316983547129098
54:20.1;0.21697148402199856;-0.44674574173776577;-1.7058749430941398;1.919;0.1653523117787222
54:20.1;0.2418302010669556;-0.44649416971310085;-1.6234734016169565;1.8940000000000001;0.17529579846675775
54:20.1;0.2709119204637567;-0.4408894891955365;-1.521623718989398;1.801;0.18174611230785245
54:20.2;0.3034562323403406;-0.43038349757427685;-1.4047635132802214;1.669;0.18346570349292377
54:20.2;0.33822630560124917;-0.41547938700188763;-1.2788145863150087;1.531;0.17970677288008144
54:20.2;0.37362837662156406;-0.39670849935808883;-1.150804442100298;1.3940000000000001;0.17057402115529918
54:20.2;0.4078617016999252;-0.3746127291292707;-1.0283102067438596;0.976;0.15711570691202753
54:20.2;0.4390769447259317;-0.34972912378216503;-0.9187823003814205;0.976;0.14108636802766783
54:20.2;0.46551370369966777;-0.3225715903628535;-0.828850029421117;0.976;0.12446136016044641
54:20.2;0.48559541958168667;-0.29360251652161773;-0.7637119102267709;0.8590000000000001;0.10888396287535738
54:20.2;0.49798170560009203;-0.263188240470016;-0.7266568378421049;0.746;0.09523777346055134
54:20.2;0.5015989335182216;-0.2315446146077295;-0.7187153754378389;0.647;0.08347342331037332
54:20.2;0.49567877507933883;-0.19869771435250996;-0.738451359987297;0.605;0.072730251423374
54:20.3;0.47982952505412546;-0.164490939307077;-0.7819428951428548;0.6459999999999999;0.06171688330978285
54:20.3;0.4541450914325724;-0.12865435855171642;-0.8430274257674092;0.726;0.049256191821280645
54:20.3;0.41932471517020115;-0.09092585128876048;-0.9138854182463368;0.8390000000000001;0.034844126706795917
54:20.3;0.37675127071146036;-0.051192711076875785;-0.9859939771291116;1.78;0.019016785921463653
54:20.3;0.3284823305349353;-0.009618834901873381;-1.0513565879179971;1.78;0.0033218844695403205
54:20.3;0.27714323952723924;0.03326424875176465;-1.1037380695209855;1.78;0.010175318945048901
54:20.3;0.22573629292892722;0.07651144730066041;-1.1395594087583725;1.8159999999999998;0.01968179831532882
54:20.3;0.17737508734417767;0.11876836061533824;-1.1582202541758915;1.579;0.024399702970496973
54:20.3;0.134949147289634;0.15832121504795263;-1.1618023808867801;1.138;0.02482227147528742
54:20.3;0.10074724878165167;0.1931697490317601;-1.1542547516933581;0.856;0.02246332196468122
54:20.4;0.07610170230271197;0.22109989254861445;-1.14027527055971;0.607;0.019186360874126097
54:20.4;0.06113414239310467;0.23976429533170943;-1.1241776355210142;0.515;0.016477953601667712
54:20.4;0.054677603511219745;0.24681558437381193;-1.1090233860608092;0.6709999999999999;0.014966586292572213
54:20.4;0.054417925062373494;0.24013951178179374;-1.0962054232721663;1.183;0.014325096226032542
54:20.4;0.05723705364760787;0.21818806631532356;-1.0855144130371785;1.183;0.013556383849207577
54:20.4;0.059670941154919645;0.18034670048999005;-1.075564209053673;1.183;0.011574638365522725
54:20.4;0.05836604383196956;0.12723766890790117;-1.064387249455853;1.287;0.007904522213253131
54:20.4;0.0504537955370804;0.06088083411633339;-1.0500492838955289;1.324;0.0032254039982858277
54:20.4;0.03381873300677612;-0.015324148401240672;-1.031188620124479;1.2770000000000001;0.000534406576233858
54:20.4;0.00726557755971931;-0.09679128624357763;-1.0074077038238;1.209;0.000708454025000249
54:20.5;-0.029406958630120498;-0.17808631075234718;-0.9794649478752439;1.148;0.0051294351818777255
54:20.5;-0.07542164982166337;-0.2533677460196315;-0.9492523687177268;1.075;0.018139655950320962
54:20.5;-0.12912316446009603;-0.31689667214282324;-0.9195800123339923;1.021;0.03762801967506159
54:20.5;-0.18815405693033516;-0.3635879292832949;-0.8938103596614111;1.0170000000000001;0.06114605288860637
54:20.5;-0.2496834151448935;-0.3895603944411548;-0.8754055078217979;1.0170000000000001;0.08514786591401191
54:20.5;-0.3106452800618732;-0.392612867029283;-0.8674679680737072;1.0170000000000001;0.10579928555414803
54:20.5;-0.36794355021972996;-0.3725424268746499;-0.8723523296472085;1.0170000000000001;0.11957733194783413
54:20.5;-0.4186142810579683;-0.3312498766388914;-0.891394127946299;1.004;0.12360599482092215
54:20.5;-0.4599734928548412;-0.27261296010166114;-0.9247707052131086;1.021;0.11596137793715558
54:20.5;-0.4897799697835629;-0.202132742753755;-0.9714964479491016;1.068;0.09617870077695527
54:20.6;-0.5064086464720411;-0.12638578770715123;-1.0295521189968655;1.147;0.06589427569345546
54:20.6;-0.5089937978818695;-0.05234965645509897;-1.096138612667494;1.3730000000000002;0.029207326325440514
54:20.6;-0.4974938735331636;0.01330680177400221;-1.168016623186362;1.669;0.007732331201543324
54:20.6;-0.47265389333156427;0.06487519149290982;-1.2418454059395527;1.515;0.03807934130817234
54:20.6;-0.4358765660157816;0.098117912811579;-1.3144062138001549;1.515;0.05621360342285317
54:20.6;-0.3890390421908533;0.11056505685839253;-1.3826380678366685;1.515;0.05947296504812538
54:20.6;-0.3342938896831759;0.10155061464171947;-1.4435042214874383;1.178;0.04900372038923775
54:20.6;-0.27387721247184854;0.07199787234589486;-1.4937861100798717;1.044;0.02945533580873436
54:20.6;-0.20994186890211283;0.024046265483684028;-1.529952066133082;1.101;0.007723684425715186
54:20.6;-0.14444522508426816;-0.03932924976811501;-1.5482623796144568;1.47;0.008795558333025455
54:20.7;-0.07912302129105181;-0.11457612190614318;-1.5452027183812407;1.966;0.014008203567092899
54:20.7;-0.015555251946435904;-0.19766861429863114;-1.5181729808250202;2.2640000000000002;0.0046680556565917245
54:20.7;0.04471990073493967;-0.2841410065791051;-1.4661812791499829;2.278;0.018630410124929442
54:20.7;0.1001340208752594;-0.3691860439263115;-1.3902324362458547;1.2790000000000001;0.05139422813326246
54:20.7;0.14913831619156664;-0.4479104436826871;-1.2932394797168012;1.2790000000000001;0.08638918531347675
54:20.7;0.19037629279485366;-0.5157246725082842;-1.179547542269109;1.2790000000000001;0.1158100433884735
54:20.7;0.2229075969423736;-0.5687642040768676;-1.0543176730715027;1.139;0.13366835768682653
54:20.7;0.24640922014142166;-0.60425434496744;-0.9229687834296305;1.137;0.13742436812829098
54:20.7;0.26130952652212447;-0.6207743952392016;-0.790762148265037;1.114;0.1282728993239771
54:20.7;0.268825031162888;-0.6183869743499848;-0.6625578956440256;1.044;0.11014223164350855
54:20.8;0.27088684416234643;-0.5986051819283797;-0.5427362272119785;0.9490000000000001;0.08800699598354407
54:20.8;0.2699736423348058;-0.5642030064608202;-0.43522436196117736;0.8370000000000001;0.06629334899227213
54:20.8;0.26888786677901555;-0.5189090722766757;-0.3435414548755576;0.7390000000000001;0.047933773556665726
54:20.8;0.2705087751598504;-0.4670358425711855;-0.2707909800342347;0.495;0.03421099958393305
54:20.8;0.2775384682930741;-0.4130916025755682;-0.21958062530145478;0.495;0.02517465753117978
54:20.8;0.2922401280319646;-0.3614141761895898;-0.1919032019812428;0.495;0.020268763443331336
54:20.8;0.3161637668228329;-0.3158499942925794;-0.18903069140491774;0.39899999999999997;0.01887666607952826
54:20.8;0.3498681910342055;-0.2794791135569155;-0.21145112134017643;0.34;0.020675870778161392
54:20.8;0.39267414437458975;-0.2543761452239752;-0.25885019725012814;0.32299999999999995;0.025855752872793385
54:20.8;0.4425093453095319;-0.2414103752931315;-0.3301296115369735;0.408;0.035266540477264095
54:20.9;0.49591394104720904;-0.24011245671546963;-0.42344978120532967;0.573;0.05042233126853365
54:20.9;0.5482577023350904;-0.24865553050513137;-0.5362750130500128;0.71;0.07310892985689953
54:20.9;0.5941887865162003;-0.26400964997174753;-0.6653912779040191;0.795;0.10438097678810782
54:20.9;0.6282967832296384;-0.28231607936182673;-0.8068756610922393;1.436;0.14312222058309318
54:20.9;0.6459119960889169;-0.2994643515115054;-0.9560279424199052;1.436;0.18492220672810633
54:20.9;0.6438772949749076;-0.3117494934815747;-1.1073190578363108;1.436;0.22227040554954833
54:20.9;0.6210883270703806;-0.3164278012188339;-1.2544500522682316;1.55;0.24653658417516514
54:20.9;0.578654836446168;-0.312038689181034;-1.3906215784800724;1.703;0.25109438223411307
54:20.9;0.519640985341992;-0.2984565969843915;-1.5090575520192893;1.9040000000000001;0.23404015848822368
54:20.9;0.44844458096490963;-0.27670261447917005;-1.6037116284137611;2.09;0.19899782113970232
54:21.0;0.3699778055084656;-0.2485853769373754;-1.6699749942894178;2.126;0.15358939084009637
54:21.0;0.28888356703058393;-0.21627757434914366;-1.7051761322211316;1.903;0.10653776290671532
54:21.0;0.20898879162865439;-0.18194425417631988;-1.7087435158666906;1.702;0.06497379285721279
54:21.0;0.13305867730917156;-0.14749557152101844;-1.6820433841689026;1.557;0.03301105287148531
54:21.0;0.06278304491651249;-0.11446796891128776;-1.6280185775413538;1.557;0.011699995857841004
54:21.0;-0.001105452513783793;-0.08399649720770555;-1.5507768839697946;1.557;0.00014399605232241004
54:21.0;-0.05864150267757102;-0.05683773355033292;-1.4552165804808004;1.557;0.004850309775174417
54:21.0;-0.11040010654200182;-0.03341199185471147;-1.3466935442621604;1.454;0.0049675315899108665
54:21.0;-0.15726650909505094;-0.01384276675890046;-1.2306842896163666;1.238;0.0026792041343601
54:21.0;-0.20022735424810936;0.0020145060338715806;-1.1124047572943665;0.9309999999999999;0.00044869870775002675
54:21.1;-0.24019008150018759;0.01454715825048569;-0.9963977666693331;0.69;0.003481496623084478
54:21.1;-0.2778346000108256;0.02435134350016981;-0.8861692752834721;0.604;0.005995507418658432
54:21.1;-0.3135094314323607;0.03218116642208436;-0.7839862519292871;0.65;0.007909715057600126
54:21.1;-0.34718804477544346;0.03887525229293897;-0.6909147069156881;0.841;0.009325291575406134
54:21.1;-0.37849031582226367;0.04525784899043824;-0.6070891440970756;0.841;0.01039922914545737
54:21.1;-0.4067513383833891;0.0520218047458095;-0.5321181590774999;0.841;0.011259587630151347
54:21.1;-0.4311073409107628;0.05961227977048983;-0.4654939056642941;0.841;0.011962863534729654
54:21.1;-0.45058228214353124;0.06813127748894354;-0.40689017895362584;0.708;0.012491018455540607
54:21.1;-0.46417820860281084;0.07727736278231223;-0.356282150223394;0.604;0.012780007405085364
54:21.1;-0.4709715211716441;0.08633104880329259;-0.3138872141625534;0.562;0.012762486317225341
54:21.2;-0.4702020267664013;0.09419209699720951;-0.27999532641226055;0.545;0.012400801185771138
54:21.2;-0.461332909023257;0.09946546668435974;-0.25479520755648255;0.523;0.011691709490673722
54:21.2;-0.44406532651614455;0.10058141689429596;-0.2382910299879989;0.493;0.010643202069688378
54:21.2;-0.41830779890113123;0.09592987889762813;-0.23035601498098068;0.44;0.009243776039050008
54:21.2;-0.3841248287624151;0.08399397232475395;-0.23090729625525044;0.44;0.007450032315188039
54:21.2;-0.3417120214175556;0.06347904568651998;-0.2401343856869981;0.44;0.005208887758862085
54:21.2;-0.2914444984316672;0.03344088857370791;-0.2586992929678559;0.45799999999999996;0.002521325476595892
54:21.2;-0.23401445844712077;-0.0065862451605090125;-0.2878521436647968;0.504;0.00044365977168892023
54:21.2;-0.17063444632714508;-0.056468255768802274;-0.3294381062070171;0.569;0.003174277666134374
54:21.2;-0.103252839223407;-0.11536904464351184;-0.3857845496161453;0.65;0.004595535543263711
54:21.3;-0.03470487941791794;-0.18168866597087838;-0.459458612808749;0.705;0.0028971085844329684
54:21.3;0.0312916279059101;-0.25307581166438886;-0.5528878338613618;0.6970000000000001;0.004378403973275187
54:21.3;0.09037978356675455;-0.32656067842881464;-0.6678461731341688;0.706;0.019711134815972416
54:21.3;0.13808712509798293;-0.39884680177145154;-0.8048305067903406;1.067;0.04432652966836194
54:21.3;0.1705744078933968;-0.4667452138577865;-0.9623942586811102;1.067;0.07662081534972306
54:21.3;0.185432244680712;-0.527645488302697;-1.136560328390769;1.067;0.11120388948673267
54:21.3;0.18229560470583328;-0.579878672527148;-1.3204782752530706;1.252;0.13958687806706396
54:21.3;0.16311213515547285;-0.6228793084143044;-1.50448734853152;1.412;0.1528546718134138
54:21.3;0.13200956720009258;-0.6571308883349644;-1.6766855686747613;1.6540000000000001;0.1454483889496408
54:21.3;0.09479472893762558;-0.6839246952722176;-1.823998037754699;2.117;0.11825427271300801
54:21.4;0.0581903502350849;-0.7049951938577182;-1.933611385968665;2.459;0.07932431348125708
54:21.4;0.028964239563372098;-0.7221212079809173;-1.9945370269071523;2.6919999999999997;0.04171712146273542
54:21.4;0.013098774543229979;-0.7367753414130992;-1.999026908472893;2.721;0.019292317008022353
54:21.4;0.015106162363134487;-0.7498719002920333;-1.9436082285635106;2.34;0.022016585036713242
54:21.4;0.03755349110905256;-0.7616329039952915;-1.829611862625941;2.34;0.05233051181877389
54:21.4;0.08083107849995237;-0.7715688557439458;-1.6631898934511526;2.34;0.10372773622387474
54:21.4;0.14317868746757717;-0.7785578804765783;-1.4548713434683047;1.9769999999999999;0.16217872115516918
54:21.4;0.22097269763724994;-0.7810085985349036;-1.2186828232341669;1.528;0.21032220336999916
54:21.4;0.30925069083435147;-0.7770976265177012;-0.97086102503678;1.2;0.23331535830665795
54:21.4;0.4023955229696778;-0.7650667992141962;-0.7282665943101846;1.135;0.2242037566562967
54:21.5;0.4948457848286528;-0.7435484908091436;-0.5067107465468682;1.232;0.18644008265499665
54:21.5;0.5816837657962695;-0.7118693590022944;-0.3194492736881261;1.2930000000000001;0.1322784655193029
54:21.5;0.6589889222635289;-0.670273629337232;-0.17607091344813666;1.2570000000000001;0.07777103248032594
54:21.5;0.7239183005602153;-0.6200161956684398;-0.08192601641235797;0.9;0.036771760923734166
54:21.5;0.7745589593614582;-0.5633075462480122;-0.038121063800628636;0.9;0.016632788400138876
54:21.5;0.8096612274120684;-0.5031316130675627;-0.041980379620057386;0.9;0.01710138601539314
54:21.5;0.8283777686089533;-0.4429713129907515;-0.08781564832404312;0.8270000000000001;0.03222374032474734
54:21.5;0.8301011343599773;-0.3864605598382349;-0.16786807967794465;0.831;0.0538523064327046
54:21.5;0.8144411622713945;-0.3369767301035348;-0.2733306222091251;0.975;0.07501496599601924
54:21.5;0.7813355187481659;-0.2972156731221999;-0.395361021298257;1.153;0.09181277727443601
54:21.6;0.7312441303994698;-0.2688229615586444;-0.5259788131265887;1.3130000000000002;0.10339439709569741
54:21.6;0.6653483215039494;-0.2521612929222477;-0.6587338388533514;1.436;0.11051913107197046
54:21.6;0.5856722165164218;-0.24627800036226905;-0.789044013504928;1.482;0.1138102743032061
54:21.6;0.495068334523843;-0.2491043857358338;-0.9141319105991544;0.983;0.11273412344138754
54:21.6;0.3970539359875197;-0.25785920647114524;-1.0325723435833591;0.983;0.10571890010430528
54:21.6;0.29553447280228806;-0.26955523639181395;-1.143589644694039;0.983;0.09110162711259587
54:21.6;0.19446899707886267;-0.28147671292625276;-1.2463292776965902;1.023;0.068222187768764
54:21.6;0.0975119196258777;-0.2915272165986733;-1.3393089000460923;1.1540000000000001;0.038073041048411846
54:21.6;0.007660204337340409;-0.29839450436560305;-1.4201671064317658;1.298;0.003246165250421675
54:21.6;-0.07303298743731772;-0.3015172575194666;-1.4857381455260341;1.469;0.03271700301529571
54:21.7;-0.14360206233155767;-0.3008886453580024;-1.5324086961581107;1.5919999999999999;0.0662126674061166
54:21.7;-0.20413191486267554;-0.2967801703432902;-1.5566631411233272;1.795;0.09430624036567227
54:21.7;-0.2555634061889536;-0.2894804689237517;-1.5556967726944118;1.989;0.11509140347369061
54:21.7;-0.299404691780501;-0.27911748082981697;-1.5279640011891007;1.702;0.1276905509228897
54:21.7;-0.33741287908441053;-0.2655920041266037;-1.4735444987062358;1.702;0.13205045656202274
54:21.7;-0.37128962005332755;-0.24861362458454447;-1.3942697897642866;1.702;0.128701779208985
54:21.7;-0.40241817832079924;-0.22780942686502953;-1.2936152843716258;1.431;0.11859173433261339
54:21.7;-0.43166792455473163;-0.20287511037175263;-1.176385612809962;1.169;0.10302159105507482
54:21.7;-0.45929393603187635;-0.1737453874447248;-1.048237297581236;0.972;0.08364954899960327
54:21.7;-0.4849509874588507;-0.1407643251302688;-0.915122982831059;0.871;0.062469770876070634
54:21.8;-0.5078213078266454;-0.1048346522577375;-0.7827670018674614;0.8340000000000001;0.04167237839386281
54:21.8;-0.5268310192023681;-0.06751974761042014;-0.6562606223105021;0.836;0.023344173052977504
54:21.8;-0.5409069732340128;-0.031067080094398757;-0.5398186226742543;0.871;0.00907132820380302
54:21.8;-0.5492106226599988;0.0016743543429278984;-0.4366992948674954;0.652;0.0004015769641904618
54:21.8;-0.5512939584132619;0.027449975475231043;-0.34927012781723954;0.652;0.005285506813473681
54:21.8;-0.5471598865678216;0.04288740186400124;-0.27919631196258893;0.652;0.0065516949057287804
54:21.8;-0.5372479092252368;0.04484029737573172;-0.22772235886971318;0.626;0.0054859126975533605
54:21.8;-0.5223766710242402;0.030759074676410484;-0.1959990955259446;0.632;0.003149278781587806
54:21.8;-0.5036678847413308;-0.0009379798220766895;-0.18538881399549176;0.665;8.758329540690805e-05
54:21.8;-0.48247135338789165;-0.05053406109126631;-0.19767195843050167;0.71;0.004819486836482588
54:21.9;-0.46030439959603964;-0.11678000882737893;-0.23508018398001315;0.768;0.012636582922179323
54:21.9;-0.4388008511671664;-0.1968166104327982;-0.3000934125400352;0.8140000000000001;0.025917056269386684
54:21.9;-0.41963525757886916;-0.2863072422633993;-0.3949684728795528;0.846;0.04745333446109313
54:21.9;-0.4043628359728744;-0.37981786957381003;-0.5210199816921498;0.7829999999999999;0.08002045316861624
54:21.9;-0.39413115368556095;-0.47142255280906953;-0.6777499130362532;0.7829999999999999;0.12592750257023846
54:21.9;-0.38928843597632434;-0.5554161230659287;-0.8620013319544988;0.7829999999999999;0.18637940566239036
54:21.9;-0.3889799485026518;-0.6269687559840454;-1.0673563262545909;0.9390000000000001;0.260305019033379
54:21.9;-0.3908466853172962;-0.6826082093489194;-1.2839879996276495;1.173;0.34256177865559656
54:21.9;-0.39095608556830286;-0.7204833842443774;-1.4991176687181376;1.567;0.4222675126824623
54:21.9;-0.3841025494949217;-0.7403845966697811;-1.6981153489699705;2.171;0.48291617515322643
54:22.0;-0.3645338791850058;-0.7435195069170063;-1.866107154947147;2.863;0.505786044566064
54:22.0;-0.3269749671254445;-0.7321069248084437;-1.9897673263477256;3.1310000000000002;0.476311771399136
54:22.0;-0.2676547045666903;-0.7089082740630939;-2.058877857959539;2.991;0.3906569092108148
54:22.0;-0.1850287291535208;-0.6768158319855059;-2.067315293721425;2.11;0.2588906658855822
54:22.0;-0.0800443456690248;-0.6385656605769824;-2.0133587209878945;2.11;0.10290995286175794
54:22.0;0.044004491357490225;-0.5965819646475267;-1.8994705115703316;2.11;0.04986544294235629
54:22.0;0.18189241336703763;-0.5529175083355579;-1.7318028768831073;1.8969999999999998;0.17417001300481638
54:22.0;0.32705256656483744;-0.5092433724542341;-1.5195958684791009;1.699;0.25308770714736656
54:22.0;0.47229686444950886;-0.466854545381607;-1.274509293014536;1.514;0.2810215729550123
54:22.0;0.6105960663248199;-0.4266786198030864;-1.0098929109412575;1.371;0.26310566997602153
54:22.1;0.7358020036937255;-0.3892931855571353;-0.7400172197547246;1.3030000000000002;0.21197253488150677
54:22.1;0.8431940919808294;-0.35496830242768757;-0.4792972946051806;1.272;0.14345711944790032
54:22.1;0.9297759726668325;-0.32374595539843803;-0.24152722841240967;1.213;0.07270240341185641
54:22.1;0.9943055704758728;-0.29554947136334414;-0.039121646274395766;1.135;0.011496540706541688
54:22.1;1.0370950262475278;-0.2702996682323647;0.11762372494083381;1.135;0.03297304025100795
54:22.1;1.059654231256489;-0.24801486962907687;0.22118253385967368;1.135;0.05812898305451123
54:22.1;1.0642611034028653;-0.22888052732791644;0.26726373550908294;1.131;0.06510241053855671
54:22.1;1.0535267525054242;-0.2132772072441348;0.2550450173840229;1.085;0.05730689220252301
54:22.1;1.0300062075038552;-0.20175574661308107;0.18717526134143575;1.021;0.038896829555640874
54:22.1;0.9958969893580549;-0.19495461551509868;0.06954515342414343;0.932;0.013502519418559773
54:22.2;0.9528586182577456;-0.1934668366004383;-0.08918862294711585;0.846;0.01644161427971554
54:22.2;0.9019687941445;-0.19767712224365033;-0.2783252729191545;0.847;0.049625005275922215
54:22.2;0.8438118010218973;-0.20760208430058047;-0.48605359050614627;1.014;0.08514545291253824
54:22.2;0.7786755397325882;-0.22277540289826586;-0.7005199074158298;1.6740000000000002;0.12151901817680016
54:22.2;0.7068164518947798;-0.24221751293929597;-0.9108853183285989;1.6740000000000002;0.1559465934449453
54:22.2;0.6287413284989292;-0.2645118531871682;-1.1081584878023067;1.6740000000000002;0.18429732167863075
54:22.2;0.545450876732469;-0.28798766196086356;-1.285613301247892;1.71;0.20194815195070026
54:22.2;0.4585843664905168;-0.3109834376048293;-1.438746334347286;1.629;0.20518269757620566
54:22.2;0.37040378917424044;-0.3321236055135313;-1.5648899041535165;1.483;0.192512508688167
54:22.2;0.28358219742340324;-0.3505069962452724;-1.6626741210693878;1.53;0.16526572445167878
54:22.3;0.200824934521986;-0.36572605542016773;-1.7315250891335618;1.6059999999999999;0.12717516934570142
54:22.3;0.12443069349019469;-0.37771233278320976;-1.7713224894296185;1.702;0.08325039897981666
54:22.3;0.055943544567800395;-0.38649102020486176;-1.7822511745287015;1.6980000000000002;0.03853526032262805
54:22.3;-0.003982313520473859;-0.39196800038670354;-1.7648173309211082;1.8219999999999998;0.0027547730248211324
54:22.3;-0.05548081076597915;-0.3938339860338414;-1.7199791998417382;1.8219999999999998;0.03758193913783212
54:22.3;-0.09921615381720326;-0.3915861783784009;-1.6493396190267935;1.8219999999999998;0.06407960602940423
54:22.3;-0.1360945649450007;-0.3846144335307839;-1.5553413371632865;1.79;0.0814126843045194
54:22.3;-0.16704478708760995;-0.37230444060294193;-1.4414008922247563;1.695;0.08964290666892526
54:22.3;-0.19290975597510024;-0.35413838532417596;-1.3119215695178783;1.527;0.08962621722092545
54:22.3;-0.21444128564848738;-0.32978816637630737;-1.1721453935433415;1.2919999999999998;0.08289435477259778
54:22.4;-0.23235749971137892;-0.2991962300110743;-1.0278419655732147;1.036;0.07145607495998067
54:22.4;-0.24741209942971926;-0.2626372284005538;-0.8848810672611931;0.813;0.05749924263414792
54:22.4;-0.2604322822413507;-0.22075664295552658;-0.7487759363455923;0.6829999999999999;0.043048743199639826
54:22.4;-0.27229977261684846;-0.1745887052491089;-0.6242944402458834;0.545;0.02967924782438835
54:22.4;-0.2838709077392799;-0.12556149960091104;-0.5152097777092594;0.545;0.018363754448216644
54:22.4;-0.2958517641449706;-0.075497824789942;-0.4242130325905699;0.545;0.00947529214398146
54:22.4;-0.30865525882635764;-0.026610643712292038;-0.35295904195262506;0.45299999999999996;0.002899034428719876
54:22.4;-0.32226923585288575;0.018525274881622627;-0.30218832616684677;0.31;0.0018041024373587685
54:22.4;-0.33616958987100376;0.057053767415335216;-0.27187695004566814;0.242;0.005214529646862547
54:22.4;-0.3493222304318661;0.08599114803797976;-0.26140266606242024;0.326;0.007852175256123193
54:22.5;-0.36031125599793423;0.10245495477969203;-0.26974466548662507;0.512;0.009957805983254565
54:22.5;-0.3675917672711241;0.10394297971510068;-0.29572990752299827;0.6920000000000001;0.011299420897244878
54:22.5;-0.3698111178747761;0.0886142134591275;-0.33830696605242555;0.815;0.011086495650124255
54:22.5;-0.3661092831372654;0.05551422506104575;-0.39679231329140646;0.838;0.008064515355591833
54:22.5;-0.3563208932668935;0.004707114818013557;-0.47101216937069273;0.838;0.0007900020319850916
54:22.5;-0.34104624023871266;-0.06268184401946501;-0.5612656402509101;0.838;0.0119984041581336
54:22.5;-0.32159649941527896;-0.14448556126349335;-0.6680695246127388;0.838;0.031042552414067084
54:22.5;-0.2998240537479218;-0.23757245601917515;-0.791702160486048;0.879;0.056392894873672966
54:22.5;-0.27783855710416316;-0.3380147276886149;-0.9316117390402894;0.8909999999999999;0.08749094161889219
54:22.5;-0.2576150942621605;-0.4413800623030375;-1.0857775634712572;0.89;0.12345960425727912
54:22.6;-0.24053543671321936;-0.5431324327081265;-1.2501318265458552;0.9670000000000001;0.1633204682804932
54:22.6;-0.22695500063625373;-0.6390691285199763;-1.418187729826336;1.075;0.20569385539997317
54:22.6;-0.21592676787667728;-0.7256930762456153;-1.5810596378501758;1.2819999999999998;0.24774660707665203
54:22.6;-0.2052031036748709;-0.8004374747263604;-1.7280378122620201;2.432;0.2838341058539854
54:22.6;-0.19155499098119538;-0.8617108540613563;-1.8477226191021554;2.432;0.3049943616127385
54:22.6;-0.17132634188510387;-0.9087912933959483;-1.9294787198663088;2.432;0.3004196202623547
54:22.6;-0.14106690143056844;-0.941639778207881;-1.9648461896442961;2.647;0.2609987830725226
54:22.6;-0.09810698065536756;-0.9607038873192998;-1.9486428821162725;2.6919999999999997;0.18366301674717117
54:22.6;-0.040994828974384945;-0.9667536264281328;-1.8796457142475969;2.533;0.07449393018512057
54:22.6;0.03024582730119368;-0.9607585139954526;-1.7608066680984322;2.285;0.05116716843944613
54:22.7;0.11405830308295341;-0.9437962359520526;-1.5989959144949188;2.02;0.1721283878132808
54:22.7;0.20749255115138912;-0.9169807867255743;-1.404324118716016;1.725;0.2671960916364021
54:22.7;0.3065211628247255;-0.8814063580538014;-1.1891457018487874;1.4569999999999999;0.3212711396554372
54:22.7;0.40649789809746145;-0.8381136723560583;-0.9668680614996428;1.102;0.32940367813706584
54:22.7;0.5026962467206604;-0.788091672773921;-0.7507208539912957;1.102;0.29741362573049646
54:22.7;0.5908247975615454;-0.7323256868162833;-0.552671607087086;1.102;0.23912783735160542
54:22.7;0.6674145604597442;-0.6718898900696271;-0.3826383162733523;1.113;0.17158615413062267
54:22.7;0.7300306187340488;-0.6080609902759718;-0.24803423719501413;1.105;0.11010317695628753
54:22.7;0.7773183301474786;-0.5424155113335;-0.15358850825651607;1.062;0.06475744893935056
54:22.7;0.8089121511561591;-0.4768736354530387;-0.10137905624358726;1.002;0.03910685722745186
54:22.8;0.8252385515593809;-0.41366363727451777;-0.09103915152466306;0.9229999999999999;0.03107814266021253
54:22.8;0.8272551928438141;-0.3551953927109244;-0.12010895573821453;0.8390000000000001;0.03529248322396391
54:22.8;0.8161777918392032;-0.3038464317176269;-0.1845033656924655;0.7759999999999999;0.045755489606385855
54:22.8;0.7932461265775742;-0.261680641546776;-0.2790595415668153;0.9520000000000001;0.05792638579980286
54:22.8;0.7595710120714174;-0.23014370828306585;-0.3980966004184525;0.9520000000000001;0.06959146155655817
54:22.8;0.7160842793365191;-0.2098059102766268;-0.5358802878703475;0.9520000000000001;0.08050996534026915
54:22.8;0.6635879230314542;-0.20022645455374885;-0.6868950286489144;1.033;0.09126627051834224
54:22.8;0.6028758510153244;-0.19998596355878967;-0.845901040252253;1.088;0.10198750369298717
54:22.8;0.5348874250238269;-0.20690205579412826;-1.007828590423253;1.1640000000000001;0.11153569253948584
54:22.8;0.4608430209705838;-0.21841370799910315;-1.1675887748383165;1.253;0.11752298612683916
54:22.9;0.38230406986458226;-0.23206679326360574;-1.3198888044906347;1.253;0.11710063972509488
54:22.9;0.3011042378607101;-0.24596767704435527;-1.4591548226327768;1.328;0.1080677930547722
54:22.9;0.21913796838883937;-0.2590513075646167;-1.5796606108918485;1.7369999999999999;0.08967413761895848
54:22.9;0.13806738462079204;-0.27106111223562757;-1.6758972650211823;2.001;0.06271995042814624
54:22.9;0.05907189552506613;-0.2822433410442627;-1.7431057389060551;2.001;0.0290621904245205
54:22.9;-0.017236046184062874;-0.29288340071651764;-1.7778077208820944;2.001;0.008974643284083776
54:22.9;-0.09067387535292343;-0.30288092319495685;-1.7781849995553485;1.78;0.04883498293651747
54:22.9;-0.1611743052911922;-0.31151583200262944;-1.7442559650879996;1.786;0.08757621016520938
54:22.9;-0.2284283121747171;-0.31744917162800834;-1.677891739205309;1.824;0.12167127661890384
54:22.9;-0.2916589288716356;-0.3189146289620629;-1.582736424701876;1.84;0.14721711917926386
54:23.0;-0.3496416960610918;-0.3140161423690661;-1.4640492246063017;1.8319999999999999;0.16074255651874117
54:23.0;-0.4009567610928857;-0.30104568148641764;-1.3284277607986532;1.7380000000000002;0.1603496016695321
54:23.0;-0.44433853543244756;-0.2787555674180847;-1.1833564902294398;1.496;0.14657271293050161
54:23.0;-0.47895587429317316;-0.24654327497956174;-1.0365679414692504;0.737;0.12240141484361014
54:23.0;-0.5045221369217151;-0.20453568092860586;-0.8952970738720437;0.737;0.09238819292123095
54:23.0;-0.5212445497711864;-0.15359652489811212;-0.7656003515733684;0.737;0.06129499883052466
54:23.0;-0.5296905121318934;-0.09529857893912189;-0.6519122767508108;0.7190000000000001;0.03290771885034023
54:23.0;-0.5306409764297999;-0.03188476782882462;-0.5569061434928272;0.737;0.009422497941556241
54:23.0;-0.5249583353069123;0.03378116122961056;-0.48161213618500676;0.706;0.00854076618159121
54:23.0;-0.5134679068516563;0.09828229690973651;-0.4257016014380781;0.6579999999999999;0.021482948421749696
54:23.1;-0.4968510731376083;0.15774986024428633;-0.38785299656587874;0.589;0.030399214828975778
54:23.1;-0.4755618746446686;0.20802560476007914;-0.3661385129624376;0.527;0.03622173400132072
54:23.1;-0.449790287315858;0.24491350396715672;-0.35840204223942024;0.49200000000000005;0.03948146694209761
54:23.1;-0.41949571775027195;0.26452916161832296;-0.3626264911501684;0.812;0.040240244890656585
54:23.1;-0.3845226669958026;0.2637198779441434;-0.37728512825968813;0.812;0.038259077887714
54:23.1;-0.34478910782723493;0.2404917120388987;-0.4016340591691631;0.812;0.033303063559648065
54:23.1;-0.30051570197128563;0.19436630086267812;-0.4358747536607221;0.893;0.025459498995307066
54:23.1;-0.2524499274712938;0.12660693804003673;-0.48112984748756843;0.8909999999999999;0.01537783000261246
54:23.1;-0.20203119525817656;0.040277322028475934;-0.5392084242178543;0.813;0.0043876875058268755
54:23.1;-0.15143818803810558;-0.05988986420253743;-0.6121655994596163;0.6940000000000001;0.005552104783140141
54:23.2;-0.1034666651371013;-0.16782635205208923;-0.7016970238240662;0.596;0.01218457093470807
54:23.2;-0.06121298521202958;-0.27665962227464397;-0.8084520892766792;0.581;0.013691266589440166
54:23.2;-0.027584034001494655;-0.37941543081074863;-0.931380627938939;0.821;0.009747650961210576
54:23.2;-0.0047132555997636575;-0.46982227836019785;-1.0672383734943998;1.2890000000000001;0.0023632846333025152
54:23.2;0.006580198410412916;-0.5430841798532127;-1.2103633785544738;1.2890000000000001;0.004325356575162902
54:23.2;0.007132022533758397;-0.5964490565290299;-1.3528003309870067;1.2890000000000001;0.005754661245088993
54:23.2;-0.0005431660973880838;-0.6294399187085192;-1.4848177068753108;1.528;0.0005076449556412649
54:23.2;-0.012575798040504306;-0.6437153632805196;-1.59583344150475;1.9709999999999999;0.012918645779019279
54:23.2;-0.024351389413581243;-0.6426189601838036;-1.6756793262554177;2.352;0.026222143659864278
54:23.3;-0.03127048671843227;-0.6305269844981479;-1.7159913683281798;2.46;0.033834005661839396
54:23.3;-0.029487595183137587;-0.6121125649334217;-1.7114242878883772;2.399;0.03089074206966663
54:23.3;-0.016466423749909045;-0.5916368646916488;-1.6604314337813044;2.2119999999999997;0.016176161001063873
54:23.3;0.008762974369125655;-0.5723766297201023;-1.5654791819200207;1.9680000000000002;0.007852007959579334
54:23.3;0.04567319837211796;-0.5562836614454272;-1.4326983270137925;1.253;0.03640093032899153
54:23.3;0.09256152306226101;-0.5439149182335373;-1.2710945855349496;1.253;0.06399401098305404
54:23.3;0.14698647426565667;-0.5345942247400384;-1.0915296659776381;1.253;0.08577034935762354
54:23.3;0.20618997817881307;-0.5267253269597346;-0.9056755096691579;1.02;0.0983613267775546
54:23.3;0.26743817776460527;-0.518186480975879;-0.7250376543545569;0.8759999999999999;0.1004777832031729
54:23.3;0.3282612132298272;-0.5067590677938946;-0.5600656282624311;0.8270000000000001;0.09316655120773584
54:23.3;0.38657819577311503;-0.4905462012172697;-0.4193872503924347;0.8140000000000001;0.07953027702790878
54:23.4;0.4406942692613564;-0.4683306236701667;-0.30924610926548696;0.7959999999999999;0.06382549683342786
54:23.4;0.4891813431748161;-0.4398203615547685;-0.2332191340405451;0.7559999999999999;0.050177543355005204
54:23.4;0.5306916161140272;-0.4057393416862457;-0.19225392732992674;0.6629999999999999;0.04139658991552744
54:23.4;0.5637780643222899;-0.36774150371107206;-0.18501460573807915;0.685;0.03835807785834601
54:23.4;0.5867915971101813;-0.3281671320929539;-0.20845876195499982;0.685;0.04014201066059378
54:23.4;0.597893207925094;-0.28970567834619604;-0.25850411886551544;0.685;0.04477628877415396
54:23.4;0.5951861967294261;-0.255041801938623;-0.3306348049960034;0.774;0.05018949055652007
54:23.4;0.5769555848681502;-0.22653134306037656;-0.42035851226643417;0.8370000000000001;0.05494023690496324
54:23.4;0.5419866122025848;-0.2059241098571822;-0.5234976387550819;0.88;0.05842658240287909
54:23.5;0.4899114726659821;-0.1941496495526718;-0.6363340898586494;0.956;0.06052564284224963
54:23.5;0.42151512967844756;-0.19119272582758556;-0.7556402345387007;1.052;0.060897520001355065
54:23.5;0.3389252420213597;-0.19608657472135116;-0.878630948817886;1.148;0.05839266167139956
54:23.5;0.24561492710895239;-0.2070452131033275;-1.0028589426360064;1.253;0.050998781863566996
54:23.5;0.14616874189563497;-0.22174202891702743;-1.1260539644417231;1.179;0.0364973834017801
54:23.5;0.04582287106987181;-0.23770457737926254;-1.245901921242705;1.179;0.013570745223796154
54:23.5;-0.0501265063158697;-0.25273552848329545;-1.3597918396913058;1.179;0.01722686159736101
54:23.5;-0.13692055959608632;-0.2652394575033697;-1.464606606403451;1.368;0.05318972992831803
54:23.5;-0.21085493485605616;-0.27437380071810397;-1.5566495919322907;1.5930000000000002;0.09005695761547759
54:23.5;-0.26966063589173694;-0.2800100087720655;-1.6317633018333833;1.696;0.12321065637041399
54:23.6;-0.3126718031614417;-0.282539191047348;-1.6856379730849724;1.757;0.1489126944263309
54:23.6;-0.340706351157036;-0.28259005495675793;-1.7142665912094313;1.814;0.16504997567888405
54:23.6;-0.3556716697527467;-0.2807494240095907;-1.714482770151626;1.925;0.17119901937152615
54:23.6;-0.36003215058546434;-0.2773647193785656;-1.6845016332586364;2.01;0.16821469764761568
54:23.6;-0.3563380208208459;-0.27246495121652414;-1.6243694624172937;1.882;0.15770941621653892
54:23.6;-0.34695635256174256;-0.265791409794388;-1.5362338468323495;1.882;0.1416684406692132
54:23.6;-0.3340106138075622;-0.25689999775685807;-1.4243761535160824;1.882;0.1222219088629688
54:23.6;-0.3194386124911531;-0.245289126665575;-1.2949750943103315;1.547;0.10146753819338913
54:23.6;-0.3050754130065275;-0.23051851274717894;-1.1555878919317686;1.143;0.0812673315186732
54:23.6;-0.2927087274183187;-0.2123011958446174;-1.014386071307814;0.8140000000000001;0.06303639804778166
54:23.7;-0.2840836565441827;-0.1905621808985844;-0.8792729549373235;0.62;0.04759996998932921
54:23.7;-0.28084831345994343;-0.16546511657965518;-0.757070417817398;0.555;0.03518151574653143
54:23.7;-0.28444078161891667;-0.13741804276893893;-0.6529390277100664;0.546;0.025521620715497812
54:23.7;-0.2959222658115933;-0.107077191989716;-0.5701093699018959;0.55;0.018064784956253896
54:23.7;-0.31576950649940994;-0.07536684785897613;-0.5099084625927175;0.523;0.01213508324319131
54:23.7;-0.3436607038909485;-0.0435184608441145;-0.47200443033299117;0.523;0.007059102324384363
54:23.7;-0.3783148946073084;-0.013108278375105078;-0.45477740948731604;0.523;0.0022552670741129515
54:23.7;-0.41745289669520064;0.013944822612837169;-0.45574240558715207;0.562;0.0026530162706411096
54:23.7;-0.45792759379666964;0.03545836175264076;-0.4719769244547607;0.6559999999999999;0.007663660308925483
54:23.7;-0.49603045760131226;0.049160611455729926;-0.5005255666271174;0.8140000000000001;0.012205396324779353
54:23.8;-0.5279337762993914;0.05295077563616194;-0.5387597262652604;1.004;0.01506076035160996
54:23.8;-0.5501879788097195;0.04520544526548957;-0.5846639706817722;1.1440000000000001;0.014541465597971816
54:23.8;-0.560172877189599;0.02506811875983958;-0.6370098299729363;1.189;0.008945197931881282
54:23.8;-0.5564056724225106;-0.007350543980157045;-0.6953786253438546;1.158;0.002844018168209994
54:23.8;-0.5386384452209177;-0.050921570647714236;-0.7600172052950558;0.972;0.02084599180010136
54:23.8;-0.5077349816744566;-0.1036156594582962;-0.8315433912055872;0.972;0.043746911536850765
54:23.8;-0.4653822100017237;-0.16275837622109138;-0.9105429964228445;0.972;0.06896894525220905
54:23.8;-0.41372128788011436;-0.2253655010524549;-0.9971145818069985;0.902;0.092969473259575
54:23.8;-0.35497054279618817;-0.2885065729802917;-1.0904326442813548;0.953;0.11167266262243154
54:23.8;-0.29110476331969737;-0.3496369482280044;-1.1884165126980777;1.04;0.12095819857237561
54:23.9;-0.22366368480032894;-0.40681789614483993;-1.2875949487935159;1.196;0.11715876615935628
54:23.9;-0.1537393561641752;-0.4587609168551881;-1.3832280809479751;1.405;0.0975585343108552
54:23.9;-0.08212130269503644;-0.5046989140558338;-1.4696880411849274;1.635;0.06091347285671952
54:23.9;-0.00950217660625141;-0.5441658729516907;-1.5410267849007693;1.807;0.007968280009465664
54:23.9;0.06338013472672399;-0.5768091697064709;-1.5916080101975443;1.864;0.05818639221866099
54:23.9;0.13573076025543773;-0.6023226225565274;-1.6166814247606611;1.864;0.13216970028604458
54:23.9;0.20677299764438717;-0.6204912730408528;-1.612829979686018;1.864;0.20692744203995483
54:23.9;0.2758055959061058;-0.6312700076416937;-1.578279896757107;1.864;0.2747908416112398
54:23.9;0.34217917828218936;-0.6348305457027233;-1.5130870717624192;1.7830000000000001;0.32868154127645655
54:23.9;0.405206403965963;-0.6315593685173414;-1.4192061463427366;1.686;0.36319174226502055
54:24.0;0.46405680868827603;-0.6220175304280097;-1.300440564067374;1.5630000000000002;0.37537408061988914
54:24.0;0.5176842145296671;-0.6068822418518951;-1.1622745087095854;1.4469999999999998;0.365155683790818
54:24.0;0.5648196394445351;-0.5868940122891095;-1.0115916685241255;1.361;0.33533177808567644
54:24.0;0.604042842708868;-0.5628302417302711;-0.8562843921715045;1.278;0.29111406960018144
54:24.0;0.6339219941776788;-0.5355144255346679;-0.7047573423105615;1.016;0.2392470565779592
54:24.0;0.6531883187108494;-0.5058557029607469;-0.5653532441723372;1.016;0.1868034740108234
54:24.0;0.6608987300870802;-0.4749027880947705;-0.4457702343506484;1.016;0.1399106268512399
54:24.0;0.6565437730844597;-0.44388997821626297;-0.35254607486633893;0.961;0.10274363114498948
54:24.0;0.6400786950305758;-0.414248398563342;-0.2906362975659438;0.861;0.07706267186894802
54:24.0;0.611876974091837;-0.3875550688246225;-0.2630805553162775;0.753;0.06238587656539159
54:24.1;0.5726209157911006;-0.3654030461835298;-0.2707761475490891;0.633;0.05665650438948308
54:24.1;0.5231571151477503;-0.3491993237688175;-0.3124122826346791;0.527;0.057073384891439316
54:24.1;0.464354657587024;-0.3399234569783158;-0.38461413656986165;0.513;0.060709433952574415
54:24.1;0.3970047911931887;-0.33789694321882147;-0.48230560088724445;0.5920000000000001;0.0646997073489165
54:24.1;0.32179184067671934;-0.3426159901411994;-0.5992467875213668;0.981;0.06606757561602485
54:24.1;0.23935180097295783;-0.35268909213666844;-0.7286505103078329;0.981;0.061510322091960175
54:24.1;0.1504194180906366;-0.3659012219269761;-0.86375180171363;0.981;0.04753973213476869
54:24.1;0.05604165100347251;-0.3794096256906848;-0.9982328780371992;1.112;0.021225167972237783
54:24.1;-0.04219337010617869;-0.3900670337115604;-1.126486191548206;1.218;0.01853998316079075
54:24.1;-0.1419843592261071;-0.39485095922153884;-1.2437614350245205;1.4409999999999998;0.06972857499378367
54:24.2;-0.24027869387229206;-0.3913345921754746;-1.346249010279324;1.587;0.12658693913087082
54:24.2;-0.3334240029818943;-0.3780865993390937;-1.4311266269771952;1.689;0.18041232696111636
54:24.2;-0.4175093483727714;-0.354889602161969;-1.4965642376441917;1.8119999999999998;0.2217455138456471
54:24.2;-0.48882504984381164;-0.3227309184953122;-1.5416584639458457;1.78;0.24321043181504834
54:24.2;-0.5443382283259299;-0.2835841105450506;-1.5662704752405991;1.6030000000000002;0.24177839493839756
54:24.2;-0.5820995643518401;-0.2400368148790543;-1.570783290458411;1.6030000000000002;0.21947820634427653
54:24.2;-0.601520060365416;-0.19485651180557034;-1.5558519012526166;1.6030000000000002;0.1823615580883781
54:24.2;-0.6034688154442487;-0.15060380091898226;-1.5222408012577087;1.587;0.13834839450391948
54:24.2;-0.5901710790580407;-0.10936395576125489;-1.470806862281857;1.5830000000000002;0.09493094002939176
54:24.2;-0.5649308065314633;-0.07260722629128868;-1.4026239246980339;1.589;0.05753291077008634
54:24.3;-0.531735939503081;-0.04115844420962214;-1.3191962890031594;1.57;0.028871170124441365
54:24.3;-0.49481316870004727;-0.015252833442300117;-1.2226810296270985;1.496;0.009227944016169188
54:24.3;-0.45818665302776673;0.00534442508537231;-1.116034218796397;1.3519999999999999;0.0027328823674030557
54:24.3;-0.4252779367968328;0.02117831707168899;-1.0030146144979202;1.175;0.009033822630018704
54:24.3;-0.39857908457731306;0.03292845428610193;-0.8880178645843398;0.6990000000000001;0.0116548731967211
54:24.3;-0.37943817145133807;0.04124112752520787;-0.7757726582113901;0.6990000000000001;0.012139645872568388
54:24.3;-0.36799765046284477;0.04658683862726017;-0.6709857930765034;0.6990000000000001;0.01150327788123903
54:24.3;-0.3633088701678095;0.049154382851396484;-0.578026155314682;0.619;0.010322520153426284
54:24.3;-0.36361497845186064;0.0487874697685547;-0.5006819227663447;0.601;0.008882024595145276
54:24.3;-0.366758337058014;0.04496748869653782;-0.44197907976206313;0.62;0.007289207987422736
54:24.4;-0.37063595368267843;0.03684669068983797;-0.40405417489142487;0.6459999999999999;0.005518050021618772
54:24.4;-0.3736115205690659;0.02333846506771289;-0.3880963454663114;0.6559999999999999;0.0033840136217828357
54:24.4;-0.37480367823912275;0.0032701238211984567;-0.3943786711924669;0.62;0.00048337196800114264
54:24.4;-0.3742007155153028;-0.024406353439796972;-0.42239141132282737;0.581;0.003857647927016738
54:24.4;-0.37259227360063346;-0.06036656701928697;-0.47107553727323964;0.862;0.010595485843536733
54:24.4;-0.37135207249842406;-0.1046645465265405;-0.5391172906150593;0.862;0.020954085370203306
54:24.4;-0.37213858928556504;-0.15652545254005293;-0.6252073673142984;0.862;0.036417804656808994
54:24.4;-0.37658383344291735;-0.21422520942827225;-0.7281507165187361;0.981;0.05874264929389429
54:24.4;-0.38601480779984015;-0.27509920996714243;-0.8467648210494314;1.077;0.08991996204634696
54:24.4;-0.4012214418094502;-0.33571250820050624;-0.9795684515482117;1.13;0.1319430279990726
54:24.5;-0.4222631104001542;-0.3922064174771065;-1.1242962064466406;1.074;0.18619953120520766
54:24.5;-0.4482953658803101;-0.4408069936533682;-1.2773112083903482;1.002;0.25241168083479704
54:24.5;-0.4774117364700684;-0.4784306815408038;-1.4330637434030307;1.0270000000000001;0.32732382890807643
54:24.5;-0.5065438340023232;-0.5032574985303269;-1.5838340827645156;1.27;0.4037541247981672
54:24.5;-0.5315183937740026;-0.5151005729354451;-1.7200209173871386;2.352;0.4709166650288066
54:24.5;-0.5473612579849754;-0.5154386264076272;-1.8310828320624435;2.352;0.5166054776238367
54:24.5;-0.5488388275611606;-0.5071012235310005;-1.9069380117645545;2.352;0.5307329633743865
54:24.5;-0.531126526947728;-0.4937128438485085;-1.9394317323283996;2.7119999999999997;0.5085655234265897
54:24.5;-0.49047667682943463;-0.479033161571829;-1.9235446470745823;2.727;0.4519456500147599
54:24.5;-0.4247834160231301;-0.4663210309347493;-1.8581650590823826;2.52;0.36807544422010824
54:24.6;-0.3339559106392592;-0.4578467943177244;-1.7463266870260414;2.185;0.2670144735607375
54:24.6;-0.2200400329522347;-0.4546486901292814;-1.5948790055710347;1.824;0.1595531514554789
54:24.6;-0.08708634300888972;-0.45655750531491807;-1.4136573528934482;1.4369999999999998;0.056206908222001244
54:24.6;0.05919487205910122;-0.4624384948732522;-1.2143050830596598;1.123;0.03324037221249331
54:24.6;0.2119426632186711;-0.4705574620535916;-1.0089446556215094;0.862;0.10062326295902799
54:24.6;0.36375610761812166;-0.4789746880769479;-0.8089188568988562;0.862;0.14093790669969136
54:24.6;0.5073051290823546;-0.4858918661909025;-0.6238230076855139;0.862;0.15376952420266832
54:24.6;0.6358368813054354;-0.489907343679505;-0.46097905558726654;0.9520000000000001;0.14359550941427449
54:24.6;0.7435394480270231;-0.4901638293758888;-0.32536859515518307;1.031;0.11858258328814908
54:24.6;0.8257863244847788;-0.48639362135190567;-0.21993068989865874;1.101;0.088336745281093
54:24.7;0.8792866856378128;-0.478878536393207;-0.14608670775579963;1.167;0.061512952245512065
54:24.7;0.9021456197352538;-0.46834858521735423;-0.10433929972516187;1.185;0.04408529741818003
54:24.7;0.8938343519086634;-0.4558458832274016;-0.09478286514489735;1.131;0.03861934566166418
54:24.7;0.8550788041940377;-0.4425777516833838;-0.11738194623831742;1.011;0.044421889293635934
54:24.7;0.7876882653696116;-0.4297768690593787;-0.17194073610542066;0.72;0.05820713117760629
54:24.7;0.6943667601056444;-0.41857848272050285;-0.2577925311062275;0.72;0.07492662189488078
54:24.7;0.5785656252553977;-0.4099169468097824;-0.37334412018945173;0.72;0.08854373064898961
54:24.7;0.44441683858108283;-0.4044386657714666;-0.5156608107256678;0.6779999999999999;0.09268454061213177
54:24.7;0.29673104973185227;-0.40242827215140914;-0.680250870995526;0.7240000000000001;0.08123077252240533
54:24.7;0.14099683713968564;-0.4037518716534735;-0.8611313655173487;0.9790000000000001;0.04902225980593725
54:24.8;-0.01668778955283523;-0.40783497888898745;-1.0511610248128265;1.278;0.007154059292308654
54:24.8;-0.16979692092238538;-0.4137065372509146;-1.2425348795056208;1.483;0.08728322466601121
54:24.8;-0.3116893799629972;-0.4201414901355727;-1.4272927959324717;1.5759999999999998;0.18690918776825977
54:24.8;-0.4360519707907596;-0.42590748271069356;-1.5977321248645044;1.578;0.2967272907623341
54:24.8;-0.5374590813054396;-0.43006404027953277;-1.7467095103754353;2.2119999999999997;0.4037376222108549
54:24.8;-0.6119984044487707;-0.4322079695936835;-1.867889217027932;2.2119999999999997;0.49407647470655464
54:24.8;-0.6578466738983575;-0.43255354446111005;-1.9559884004130734;2.2119999999999997;0.5565841482432586
54:24.8;-0.675644167836824;-0.43178560305073893;-2.007026478271566;2.444;0.5855167074823131
54:24.8;-0.6685504275873111;-0.43070171792144213;-2.0185688607060217;2.483;0.5812384611373015
54:24.8;-0.6419143625883079;-0.4297494235677778;-1.9899437311303934;2.355;0.5489505088700593
54:24.9;-0.6025434879636693;-0.42862894018825987;-1.9223789964685631;2.154;0.4964881648461799
54:24.9;-0.5576622923840806;-0.42611054864177345;-1.8189934371285827;1.9869999999999999;0.4322397440707502
54:24.9;-0.5137864844064399;-0.4201129412206888;-1.684604719254395;1.851;0.36361915094580494
54:24.9;-0.4758039261616476;-0.40798677823935486;-1.5253579988545007;1.6980000000000002;0.2961051044853368
54:24.9;-0.4464889516775966;-0.38690749026559945;-1.3482107652256234;1.061;0.23290330146496896
54:24.9;-0.4265152317782656;-0.3542941744883376;-1.1603533275934248;1.061;0.1753431518520364
54:24.9;-0.4148573036475741;-0.30820098063843365;-0.968700284813144;1.061;0.12385746413481646
54:24.9;-0.4093865927970071;-0.2476479730663228;-0.7795809993276837;1.061;0.07903685286366849
54:24.9;-0.40750697820980514;-0.1728617640603961;-0.5986487500854127;0.9309999999999999;0.042170239818796404
54:24.9;-0.40675105329515227;-0.08539522793141771;-0.4309157552282848;0.853;0.01496768592076992
54:25.0;-0.4052844574999058;0.011888812921065759;-0.2808006102604592;0.7959999999999999;0.0013529959279341393
54:25.0;-0.40225332278502995;0.11495415899702219;-0.1521196682407085;0.731;0.007034118790837229
54:25.0;-0.39790980686806976;0.21881096508770384;-0.047997862794381944;0.626;0.004179031305072657
54:25.0;-0.3934817829593476;0.3177869027201536;0.02929866211832329;0.51;0.0036636030693289884
54:25.0;-0.3908072484684222;0.4058396649646083;0.07857847824208615;0.611;0.012462946046639774
54:25.0;-0.39181867637207435;0.4769123814092558;0.09992306182878537;0.611;0.018671940891737925
54:25.0;-0.3980117560104642;0.5253255923599215;0.09477088791559592;0.611;0.019815243267144175
54:25.0;-0.4100325370713031;0.5461934902281547;0.06579531396943133;0.655;0.014735327876650755
54:25.0;-0.42746737963219344;0.5358598348251253;0.01652678847289145;0.682;0.0037856691280424184
54:25.0;-0.4488628445930059;0.49234404166377155;-0.04926812777314558;0.8390000000000001;0.010888007288952797
54:25.1;-0.47196173849236417;0.41575427387930647;-0.1283628149210899;1.151;0.025187365649055056
54:25.1;-0.494104557948027;0.30858533086403084;-0.2188265044542822;1.406;0.033365225191634665
54:25.1;-0.5127056692238732;0.17579974454797143;-0.32051919528042183;1.5130000000000001;0.028889525118052886
54:25.1;-0.5256851367528398;0.02459561255172177;-0.4350858647822514;1.4480000000000002;0.005625463550099844
54:25.1;-0.5317385166646992;-0.13619546371828603;-0.5653066013340476;0.858;0.04093971541075845
54:25.1;-0.5303728642977158;-0.297033466234475;-0.7138579183143939;0.858;0.11246009872500028
54:25.1;-0.5217179460992354;-0.44873148194861784;-0.8817784787936166;0.858;0.20643427698272906
54:25.1;-0.506184838870654;-0.5834183386376302;-1.0670628449961728;0.97;0.31512235065415617
54:25.1;-0.48405900543398567;-0.6952591602893106;-1.2637638973820855;1.123;0.42531526296801814
54:25.1;-0.4551228164039007;-0.7808896481731283;-1.4618659434809989;1.4369999999999998;0.5195481737385209
54:25.2;-0.41843058935692995;-0.8395293275541023;-1.6480617567327402;1.982;0.5789389643588493
54:25.2;-0.3723575867055516;-0.8727335945861242;-1.8073768003017203;2.55;0.5873413864442033
54:25.2;-0.31496326346852954;-0.8838102464154366;-1.9253355846247349;3.1060000000000003;0.535951352973627
54:25.2;-0.24457608432078443;-0.8770420128276839;-1.990171763652827;3.5069999999999997;0.4268988114565305
54:25.2;-0.16040867713353493;-0.8569321758176105;-1.9945535192571429;2.423;0.27417004369284975
54:25.2;-0.06301811605740064;-0.8276524273658799;-1.9364738284698344;2.423;0.1010008527729283
54:25.2;0.045481727218923726;-0.7927441031960112;-1.8192712983025097;2.423;0.06559450171177564
54:25.2;0.16146683700073075;-0.75501317732745;-1.6509832127408848;1.839;0.2012706859627101
54:25.2;0.28009728400641437;-0.7165344786396136;-1.4432580584710013;1.4269999999999998;0.28966097061844365
54:25.2;0.39582863711489114;-0.678709381575707;-1.2100096372560418;1.217;0.3250722465764894
54:25.3;0.5030547712792237;-0.6423495106930122;-0.9660119815252146;1.115;0.3121542003267204
54:25.3;0.5967522750614955;-0.6077741557045757;-0.7256450568588454;1.083;0.26318464841741657
54:25.3;0.6730077671973391;-0.5749175975634988;-0.501937436247887;1.073;0.1942116449288874
54:25.3;0.7293582308794501;-0.5434471914557566;-0.3059527195347922;1.065;0.12126977028538763
54:25.3;0.7649254834126368;-0.5128938554250063;-0.14648066666643206;1.018;0.057468112552689216
54:25.3;0.7803607371488193;-0.4827934456532705;-0.029944815731598955;1.018;0.011281800632833449
54:25.3;0.7776303920550652;-0.45283199464560414;0.039569035690222784;1.018;0.013933678846883017
54:25.3;0.7596738747566607;-0.4229812526338109;0.06024419425098254;0.9359999999999999;0.019358134831449055
54:25.3;0.7299605682568262;-0.3936043434971652;0.03248329459783438;0.828;0.009332958909559375
54:25.3;0.6919817783993766;-0.3655076564241142;-0.0411037507363395;0.7120000000000001;0.010396151279991233
54:25.4;0.6487392599342873;-0.33991653466741506;-0.1557150820847847;0.579;0.034337854076554555
54:25.4;0.6023181815781591;-0.31835909016105834;-0.3044649275341384;0.47700000000000004;0.05838220582267194
54:25.4;0.5536378008797461;-0.3024556218801407;-0.478683170514988;0.469;0.0801559111366911
54:25.4;0.502446902629469;-0.2936306870617196;-0.6684752818197721;0.665;0.09862271807322567
54:25.4;0.44757761055729745;-0.2927882011503087;-0.8635453714572853;1.6640000000000001;0.11316368615927971
54:25.4;0.3874051528188586;-0.30001379575855674;-1.0541727857626257;1.6640000000000001;0.12252322482675872
54:25.4;0.32040600105600725;-0.31438492960365166;-1.2321121985104346;1.6640000000000001;0.1241116697304112
54:25.4;0.24568839327738834;-0.3339643203336743;-1.3911749022044122;1.817;0.11414751069746677
54:25.4;0.16339125897147969;-0.3560227630555104;-1.5273788589105077;1.82;0.08884916702364319
54:25.4;0.0748857494939912;-0.37749006376538075;-1.638699838964423;1.6580000000000001;0.04632379345012067
54:25.5;-0.017252070167979014;-0.39556731912974596;-1.724533092617798;1.56;0.01176882628468404
54:25.5;-0.10949849743788076;-0.4083562824333461;-1.7850309392995989;1.7080000000000002;0.07981658626439767
54:25.5;-0.1978396911655819;-0.4153060568953529;-1.8205239371750899;1.8719999999999999;0.14958156888997662
54:25.5;-0.2783636777363616;-0.41729144019411263;-1.8311946684846725;1.964;0.21270933859767574
54:25.5;-0.3478779575222464;-0.41625038174026047;-1.8170484184663025;1.931;0.26311648356998235
54:25.5;-0.4044127888662851;-0.4144901640949276;-1.778106425120047;1.931;0.29805530860773033
54:25.5;-0.4474844323279139;-0.4139170492043762;-1.71471203987239;1.931;0.31760142599853497
54:25.5;-0.47805580214508103;-0.4154509201079346;-1.6278661051336842;1.909;0.3233084081343751
54:25.5;-0.49821575026364945;-0.41876724511652913;-1.5195281068154562;1.84;0.3170289304488236
54:25.5;-0.5106747945198107;-0.4223667808838765;-1.3928142482442878;1.705;0.30041898699201813
54:25.6;-0.5182175808847008;-0.42388610141965793;-1.2520233374136005;1.5430000000000001;0.2750259944388516
54:25.6;-0.5232398193646804;-0.4205358754817246;-1.1024506626420751;1.344;0.24258447361730165
54:25.6;-0.5274465492044783;-0.40956232643650525;-0.9499991614706997;1.126;0.20522094283396394
54:25.6;-0.5317384930312545;-0.3886484418891535;-0.8006441594207195;0.9229999999999999;0.1654605910059521
54:25.6;-0.5362777685271294;-0.35620164179323427;-0.6598438593655545;0.7440000000000001;0.1260453678045525
54:25.6;-0.5406913330134122;-0.31151813215233476;-0.5320130927238507;0.7440000000000001;0.08960970727280829
54:25.6;-0.5443402210520902;-0.25485709629311415;-0.42017956618082386;0.7440000000000001;0.058291077646790056
54:25.6;-0.546577045710941;-0.18746842844619582;-0.32589644569463944;0.7240000000000001;0.033393285580429984
54:25.6;-0.5469400298265854;-0.11159082256352508;-0.24940493343792236;0.722;0.015222052967547493
54:25.6;-0.5452624101146719;-0.030408702839888384;-0.18997684344542548;0.696;0.0031499533413905504
54:25.7;-0.5416917726379173;0.052048783922039876;-0.14634593980071023;0.627;0.004126135676285537
54:25.7;-0.5366245047933716;0.13107867268759266;-0.11714316621384228;0.5670000000000001;0.00823985357039891
54:25.7;-0.5305768637314885;0.20155655756101212;-0.1012707279169971;0.525;0.010830017844517037
54:25.7;-0.5240296953490944;0.25828074378160415;-0.0981783446409366;0.518;0.01328812276167233
54:25.7;-0.5172880632677143;0.29640493926613476;-0.10803292340036838;0.6759999999999999;0.016564335630952675
54:25.7;-0.510388439464965;0.31192707781381673;-0.1317879622620127;0.6759999999999999;0.020981167379712718
54:25.7;-0.5030707822534731;0.3021707590121402;-0.17115686740438688;0.6759999999999999;0.026018116827555334
54:25.7;-0.4948183581667139;0.2661879446119079;-0.22848855969642443;0.731;0.03009529791630723
54:25.7;-0.48495839995635803;0.20503005520423093;-0.3065466822191762;0.7859999999999999;0.03048025772524153
54:25.7;-0.47280898371191593;0.12185261633495668;-0.4081955929750544;0.847;0.02351737747068198
54:25.8;-0.4578474402047912;0.021821689123420647;-0.5359873667944752;0.935;0.005355052196857818
54:25.8;-0.439862796037164;-0.08820967301754036;-0.6916349712582917;1.065;0.02683554298924763
54:25.8;-0.41904065759680614;-0.20027917784510493;-0.8753606405075997;1.1159999999999999;0.07346474538606092
54:25.8;-0.3959189134511809;-0.30614872552519945;-1.085133734801647;0.956;0.13152913678414613
54:25.8;-0.37116945918538247;-0.39833584721344395;-1.3158764803752376;1.263;0.19455247050642985
54:25.8;-0.34523321691919817;-0.4711791685573078;-1.5588207183078107;1.263;0.2535682223045456
54:25.8;-0.31793567301726283;-0.5216766698611097;-1.8012943867458782;1.263;0.2987620081313089
54:25.8;-0.2882488736441683;-0.5498466126360225;-2.0272335112865947;1.7009999999999998;0.3213016453680964
54:25.8;-0.2543071282764597;-0.5584967952092754;-2.21860436154027;2.589;0.31510774769936334
54:25.8;-0.21369089416509116;-0.5524614301268344;-2.357658993919535;3.4419999999999997;0.2783357359494649
54:25.9;-0.1639205884827614;-0.5375023807259413;-2.4296090712957303;3.957;0.2140672831079787
54:25.9;-0.10304538004431614;-0.5191473315305708;-2.4250739853499135;4.083;0.12973111303626317
54:25.9;-0.030171032533063018;-0.5017400386478341;-2.341673880066336;3.622;0.03544829438989204
54:25.9;0.054230600310301344;-0.4879050184245937;-2.18436580806957;2.855;0.05779696943863377
54:25.9;0.14832718563931005;-0.4784879310115446;-1.9644670659328707;1.159;0.13942366564671546
54:25.9;0.24922211832526964;-0.4728700451223746;-1.6977017623143038;1.159;0.20007359981172834
54:25.9;0.353395715135008;-0.4694640787182399;-1.4019036687979927;1.159;0.2325850625664153
54:25.9;0.4571220313562932;-0.4662222420203171;-1.0949961941405613;0.991;0.23336609077120696
54:25.9;0.5567763745180799;-0.46106694834815715;-0.7935577705672167;0.917;0.20371515478440272
54:25.9;0.6490388818570701;-0.45221725956469533;-0.5119717685593016;0.9179999999999999;0.1502670851524862
54:26.0;0.7310263963564667;-0.4384133980197963;-0.26204215545280024;0.9420000000000001;0.08398235329036115
54:26.0;0.8003756753430565;-0.4190530949636608;-0.05293688925480992;0.975;0.01775502756809438
54:26.0;0.8552910565378763;-0.3942556215672125;0.10869472080773548;1.02;0.036652219322442434
54:26.0;0.8945602966788423;-0.36486373861855714;0.21857794254606636;1.071;0.07134222608848717
54:26.0;0.9175328736126632;-0.33238603844439496;0.2747382268701868;1.054;0.08378832288482616
54:26.0;0.9240559865283731;-0.2988808744360798;0.27751250443632114;1.054;0.07664414201411573
54:26.0;0.914378203499915;-0.26678945467031473;0.22958490418584562;1.054;0.05600642516769004
54:26.0;0.8890443214905415;-0.2387279538680184;0.13594972652538365;0.968;0.028853933491601216
54:26.0;0.848804947055014;-0.21724207490097597;0.0037171185890391783;0.847;0.0006854223490484852
54:26.0;0.7945590576161521;-0.2045278451032449;-0.15829318455783808;0.72;0.025724138655904984
54:26.1;0.7273466394897476;-0.20213842622931782;-0.3401917470084232;0.7759999999999999;0.05001659125743153
54:26.1;0.6484036488082202;-0.21071515359153664;-0.5318630988408295;1.058;0.07266764380977482
54:26.1;0.5592728204412863;-0.22978988898103808;-0.7239116146834966;1.45;0.09303367440708149
54:26.1;0.4619355327415394;-0.25771007969460635;-0.908537190408007;1.7590000000000001;0.10815721227465927
54:26.1;0.3589125428717426;-0.29174048997286184;-1.0801302145185931;1.489;0.11309970147783378
54:26.1;0.2532939048942608;-0.3283714044623769;-1.2354164125155571;1.489;0.10275511187796828
54:26.1;0.14868662186576614;-0.36379744182216367;-1.373116210899453;1.489;0.07427434485129182
54:26.1;0.049074099788128114;-0.3944753106575836;-1.4932350089077069;1.265;0.028906820918248935
54:26.1;-0.04143727292291917;-0.41766494369603285;-1.5961896024264977;1.307;0.027625087864106487
54:26.1;-0.11900711655589367;-0.43186004478300505;-1.682008369442175;1.505;0.08644584237133118
54:26.2;-0.18056256997939932;-0.4369937874661441;-1.749827694354089;1.7069999999999999;0.13806966659838302
54:26.2;-0.22432398525431083;-0.434327398684257;-1.7978094130440363;1.952;0.17516066635721037
54:26.2;-0.25021701230103377;-0.4260297250441322;-1.8234483367603718;2.097;0.19437938291452336
54:26.2;-0.2600259349681167;-0.4145732367106631;-1.8241196459680544;2.086;0.19663972113357814
54:26.2;-0.2571933983067808;-0.40213000438636737;-1.7976896808335332;1.94;0.18592638311948168
54:26.2;-0.24628123040317604;-0.39012329306759486;-1.743060668043516;1.94;0.16747334677079465
54:26.2;-0.23223509187808927;-0.3790012594006188;-1.6605839034848153;1.94;0.14616026487811928
54:26.2;-0.2196507854987029;-0.36821518611886256;-1.5523096720033303;1.834;0.1255488734342894
54:26.2;-0.21218507994832464;-0.3563565650130287;-1.4220426883680626;1.6540000000000001;0.10752569056847487
54:26.2;-0.21216695633289628;-0.3414167750068285;-1.2751746529317414;1.4069999999999998;0.09237028283953615
54:26.3;-0.22041989318547842;-0.3211373911061088;-1.1182965751406198;1.133;0.07915870073196193
54:26.3;-0.23629248818658477;-0.29340849850024364;-0.9586430713660331;0.9179999999999999;0.06646293903271411
54:26.3;-0.25788438866421026;-0.25665816875345465;-0.8034624576830691;0.785;0.05317968157209545
54:26.3;-0.2824400252259549;-0.21016844532979279;-0.6594202138218118;0.659;0.03914317136390494
54:26.3;-0.3068616268470678;-0.1542630233258922;-0.532126131041594;0.6709999999999999;0.02518946873952787
54:26.3;-0.32826255042947716;-0.09035086498197231;-0.42583942862716884;0.6709999999999999;0.012629888733586215
54:26.3;-0.3444551011036928;-0.02086216565388474;-0.3433638686498404;0.6709999999999999;0.002467440016187427
54:26.3;-0.3542737408997592;0.050869531191905994;-0.2861031963651212;0.615;0.00515607716433727
54:26.3;-0.35768295677261935;0.12075757120449988;-0.2542192528408505;0.49;0.010980473152298277
54:26.3;-0.3556792704024212;0.18416006088766207;-0.2468373945534784;0.37799999999999995;0.01616832230685146
54:26.4;-0.3500419239391053;0.23614736493732358;-0.26227457035014806;0.35;0.021680003615368502
54:26.4;-0.34301071616656914;0.2718492098439464;-0.2983001934858509;0.429;0.027815655462710306
54:26.4;-0.33696959412505;0.28687603116697913;-0.352451971283529;0.542;0.03407100331078819
54:26.4;-0.3341933034591726;0.2777922342125817;-0.4224099870464628;0.695;0.03921498215036896
54:26.4;-0.33668335639235913;0.24260167960264978;-0.5063920931798314;1.2009999999999998;0.04136207971449593
54:26.4;-0.34608519662934156;0.18118732573095542;-0.6034809348408695;1.2009999999999998;0.037842027126129954
54:26.4;-0.36364560183912487;0.09562691875535233;-0.7137491729942483;1.2009999999999998;0.02482013387822841
54:26.4;-0.3901548951880184;-0.009706168120113821;-0.8380618622028255;1.3659999999999999;0.003173664013209271
54:26.4;-0.4258258628326681;-0.12834351177790018;-0.9775108310467818;1.305;0.053422908880582605
54:26.4;-0.47007106938357685;-0.25228195308207013;-1.132520845252431;0.946;0.13430615380924874
54:26.5;-0.5211626292693535;-0.37289325311929433;-1.3017470040669237;0.845;0.25297894602787024
54:26.5;-0.5758300282225649;-0.4820609614848154;-1.4809962327300443;1.024;0.4111026014828202
54:26.5;-0.6289568883181507;-0.5733166449632657;-1.6625291398323327;1.3969999999999998;0.5994937982486569
54:26.5;-0.6736087555410238;-0.6427050589526839;-1.8351318125954363;1.882;0.79448683617507
54:26.5;-0.7015971398091531;-0.6891431022145935;-1.985197334136731;3.365;0.9598445576432216
54:26.5;-0.704609454764586;-0.7141703827924436;-2.0986971540059036;3.365;1.056087921758286
54:26.5;-0.6756566836522989;-0.7212115273304183;-2.163508355735124;3.365;1.0542589912770806
54:26.5;-0.6104235683619142;-0.7146342632627473;-2.17141719896969;3.42;0.9472364497438324
54:26.5;-0.5081843542102773;-0.6988649931370399;-2.1193455066921696;3.022;0.7526903362868342
54:26.5;-0.37213200278691094;-0.6777100108467157;-2.0096746544817568;2.506;0.5068350917731554
54:26.6;-0.20910131664261034;-0.6539556617834676;-1.8497492240537199;2.051;0.25294023947121286
54:26.6;-0.02876005535649045;-0.6292626755472182;-1.65075485260194;1.588;0.029874749523771952
54:26.6;0.15756730509485528;-0.6042947707898856;-1.4262304393242562;1.274;0.13580152424804864
54:26.6;0.33822269780903114;-0.5789759211426597;-1.190488489242436;1.187;0.23312478696850794
54:26.6;0.5024679202776646;-0.5527823943567092;-0.95718997628901;1.195;0.26586470393996214
54:26.6;0.6414980437933134;-0.5250159053953652;-0.7382633251245724;1.195;0.24864463411510332
54:26.6;0.7491088926689854;-0.49504105099455664;-0.5432694484557743;1.195;0.20146585404215434
54:26.6;0.8219881898093394;-0.46248835089022305;-0.3792050546538403;1.177;0.14415857930246992
54:26.6;0.859671533475106;-0.42742227817950934;-0.2506359669020378;1.145;0.09209437276813985
54:26.6;0.8642431722476908;-0.3904669995782452;-0.15999890944796522;1.0859999999999999;0.053992982123779835
54:26.7;0.839860895060053;-0.3528828042887517;-0.10791706506928585;0.998;0.03198364689892761
54:26.7;0.7921660517760581;-0.3165875170538312;-0.09342712911615207;0.893;0.02343057881987674
54:26.7;0.7276243597121086;-0.284113070173202;-0.11409272612931755;0.7829999999999999;0.02358611439716569
54:26.7;0.6528387207336238;-0.25848070846984206;-0.16605917109220356;0.657;0.028021856596444055
54:26.7;0.5738841017564601;-0.24297732229545485;-0.24415602833499472;0.433;0.034045317373404944
54:26.7;0.49573479566201545;-0.24082992449795296;-0.3421385207089163;0.433;0.040847156185328366
54:26.7;0.4218687950276503;-0.25480266748269975;-0.45308277925839374;0.433;0.04870336053342771
54:26.7;0.35411265968226957;-0.28675993668129784;-0.569892281692113;0.64;0.057869896314603195
54:26.7;0.2927310066374041;-0.33724082732179095;-0.6858784387177216;0.92;0.06771050031400919
54:26.7;0.23670671710793417;-0.4050945995497798;-0.7953830730253012;1.15;0.07626817949916602
54:26.8;0.18413357088739485;-0.4872453526510753;-0.8943646046511615;1.351;0.08024080633638805
54:26.8;0.132650987180611;-0.5786699604863536;-0.9808195294748163;1.5030000000000001;0.07528882669806257
54:26.8;0.07987621487312913;-0.6726700585085466;-1.0549051387581965;1.541;0.05668040980281946
54:26.8;0.02381675243175071;-0.7614939629436561;-1.1186656851738068;1.511;0.02028847122535919
54:26.8;-0.03674545313331914;-0.8372998730489788;-1.1753399477655755;1.754;0.03616164097170322
54:26.8;-0.10193019476592967;-0.8933205285301409;-1.2283554797021319;1.754;0.1118495486257051
54:26.8;-0.17056913606186422;-0.9249410363764426;-1.2802544810129888;1.754;0.2019811322097349
54:26.8;-0.24024399379376182;-0.9303710566253356;-1.3318441140773034;1.6680000000000001;0.29768854672025796
54:26.8;-0.30761672597955175;-0.9107301176687276;-1.3817736875437716;1.5730000000000002;0.3871119364095653
54:26.8;-0.3690319574525894;-0.8695611497013791;-1.4265929538603508;1.578;0.4577877630967332
54:26.9;-0.42126208735745946;-0.8119357422660174;-1.4612373511514998;1.75;0.4997983293555402
54:26.9;-0.4621836730059631;-0.7434010129460875;-1.4798342898777357;1.943;0.5084530238279525
54:26.9;-0.491173643932202;-0.66903907558356;-1.476691611838229;2.136;0.4852620699566792
54:26.9;-0.5091114090192413;-0.5928414567537794;-1.4472854663037933;2.213;0.43682309965311644
54:26.9;-0.5180224091440134;-0.5174608041675864;-1.3890359214038979;1.545;0.37233981911929803
54:26.9;-0.5205162791996213;-0.4442736387575445;-1.3017140894620958;1.545;0.30102354584620494
54:26.9;-0.5192036331126031;-0.37363722772388436;-1.1874666383651549;1.545;0.23036117279365828
54:26.9;-0.5162310006504162;-0.3052362748177787;-1.0505516862547153;1.212;0.1655379795056069
54:26.9;-0.5130041706217341;-0.23844211149924618;-0.8968776763077317;0.922;0.1097076896389828
54:26.9;-0.5101168903481808;-0.17262931740440882;-0.7334089614367421;0.753;0.06458482231961807
54:27.0;-0.5074686200005131;-0.10741649188583773;-0.5675222546470792;0.693;0.030935921239142034
54:27.0;-0.5045257254735085;-0.04282096352544919;-0.40641477930174147;0.718;0.00878029774860379
54:27.0;-0.5006505803253584;0.0206604616559359;-0.2566308637348518;0.745;0.0026545055097898745
54:27.0;-0.49540420349545905;0.08201678438520198;-0.123719452014491;0.7020000000000001;0.005026901933780815
54:27.0;-0.4887369761995205;0.13970779471543848;-0.012003115836501672;0.546;0.0008195771321427739
54:27.0;-0.4810281648308875;0.19166221907079056;0.07555405511410411;0.546;0.006965700482999464
54:27.0;-0.4729987080582669;0.23530454741638152;0.13736159999135497;0.546;0.015288173955088212
54:27.0;-0.4655571529685632;0.2676380265827039;0.1730712358813405;0.528;0.021564814046619113
54:27.0;-0.4596291996482872;0.2854119266377741;0.18329708433326541;0.455;0.024045581548942003
54:27.0;-0.4560033058965978;0.28538846051434846;0.16922253592295614;0.405;0.022022296164688208
54:27.1;-0.4552276080796295;0.2647003035843786;0.13214883424384832;0.47;0.015923787320335343
54:27.1;-0.4575989061887486;0.22126252147248962;0.07305390537969247;0.6459999999999999;0.007396670501949301
54:27.1;-0.4632628165084358;0.15417698900940055;-0.0077543564801017964;0.8540000000000001;0.0005538507720776071
54:27.1;-0.47239241103227747;0.0640455652865168;-0.11079284974267972;1.077;0.003351997672925813
54:27.1;-0.4853552808193653;-0.04689228017926216;-0.23726747326641004;0.846;0.00540006908336541
54:27.1;-0.502755279465056;-0.17483713916691299;-0.3885814717910113;0.846;0.03415642590976622
54:27.1;-0.5252684589833352;-0.3146900489269701;-0.5655030177554615;0.846;0.09347581494107188
54:27.1;-0.553259268848065;-0.46043240825769444;-0.7671052925579679;0.597;0.19541124968626622
54:27.1;-0.5862306198995612;-0.605593352019033;-0.9896798105169383;0.727;0.3513535196726101
54:27.1;-0.6222349049443594;-0.7437885341237845;-1.2259088678142698;0.965;0.5673643392834934
54:27.2;-0.657446123129644;-0.8692714102364779;-1.4646362327653917;1.3980000000000001;0.8370383161058998
54:27.2;-0.6861130680476248;-0.9773897750402284;-1.691501174054444;2.0709999999999997;1.1343205134874133
54:27.2;-0.7010385624973715;-1.0648428295205303;-1.8904582557005458;2.79;1.411219311466634
54:27.2;-0.6945716089833481;-1.1296980128862693;-2.0458930371329;3.395;1.6053225875360428
54:27.2;-0.6599183330944469;-1.1712237249811186;-2.1448328808592634;3.446;1.6577670893489107
54:27.2;-0.5924608818808925;-1.1896547933613584;-2.178751971169546;3.446;1.5356365224764204
54:27.2;-0.49077269929295936;-1.1859866471602551;-2.144646115272604;3.446;1.2482909886276436
54:27.2;-0.357105660628858;-1.1618319244617914;-2.0452654301384703;2.81;0.8485739940145005
54:27.2;-0.19724587205555552;-1.1193299095255675;-1.888547781523522;2.191;0.41695963034270495
54:27.2;-0.019774448812718337;-1.0610810089037703;-1.6864199385199337;1.7690000000000001;0.03538495574774963
54:27.3;0.16508987061929062;-0.9900724835988408;-1.4532472397992438;1.499;0.23753462481234106
54:27.3;0.3468039370340884;-0.90957082316243;-1.204254507081462;1.4240000000000002;0.3798733443625751
54:27.3;0.5157127555327666;-0.8229772282337775;-0.9541770453496896;1.393;0.4049716823854413
54:27.3;0.6639766678979202;-0.7336605278214245;-0.7162767592223981;1.361;0.34892238508495627
54:27.3;0.7861206977149705;-0.6447901239169088;-0.5017366137114752;1.145;0.2543216907750643
54:27.3;0.8791990720344113;-0.5591977215913299;-0.3193711518823779;1.145;0.15701758699441143
54:27.3;0.9426318620060029;-0.4793012517161332;-0.17557173321077366;1.145;0.0793241222017565
54:27.3;0.9778028858450654;-0.4071102820216419;-0.0744060275432808;1.072;0.029619075887081105
54:27.3;0.9875107089657682;-0.344296754607549;-0.01778589618397407;0.99;0.0060471465824597365
54:27.4;0.9753551071373017;-0.29228691020755126;-0.005631312806447117;0.895;0.00160539453688935
54:27.4;0.9451354604259595;-0.2523285735308067;-0.03600585740851675;0.804;0.008586845473026447
54:27.4;0.9003352401899659;-0.225500777796327;-0.10525123730530822;0.738;0.021368768958479403
54:27.4;0.8437585638771761;-0.21264686977796315;-0.208177851897695;0.6779999999999999;0.037351815084024964
54:27.4;0.7773641842695447;-0.21422872199645274;-0.33837564631834816;0.664;0.05635096045869998
54:27.4;0.702310385116546;-0.2301238806805092;-0.4886855302224711;1.2229999999999999;0.07898056922915782
54:27.4;0.619187619070658;-0.25941916660027664;-0.6517890902413387;1.2229999999999999;0.10469631849042418
54:27.4;0.5283827697748248;-0.3002804796210239;-0.8207616703470295;1.2229999999999999;0.13022453478209225
54:27.4;0.4304967420252653;-0.34997912631121547;-0.9894071062952497;1.315;0.14906889666217243
54:27.4;0.3267273035699051;-0.40511919093479887;-1.1523010432188903;1.3090000000000002;0.1525226001464558
54:27.5;0.2191298630478883;-0.46204498357443385;-1.3046095866033436;1.3019999999999998;0.13208892091570787
54:27.5;0.11068050295136563;-0.5173350406687991;-1.441826986112096;1.501;0.08255743081329985
54:27.5;0.005088891188864465;-0.5682402600589016;-1.5595916056277335;1.72;0.004509891090756802
54:27.5;-0.09364983127090969;-0.6129251711857797;-1.6536961186623194;1.8230000000000002;0.0949227175880447
54:27.5;-0.18189709579614133;-0.6504396364002616;-1.720310662450845;1.969;0.20353525449694232
54:27.5;-0.2570364676549356;-0.680466219064678;-1.7563476699838085;2.086;0.30719334517793645
54:27.5;-0.31794568679887053;-0.7029796472465976;-1.7598662301422967;2.086;0.39334655146551706
54:27.5;-0.3651349087218341;-0.7179496460789787;-1.7304265932605858;2.086;0.45362869855829907
54:27.5;-0.4005478572569489;-0.7251484044135496;-1.6693283372202707;2.03;0.48486749918657646
54:27.5;-0.42711156647422666;-0.7240697179954797;-1.5796875492751226;1.94;0.48853188329498193
54:27.6;-0.4481507888601226;-0.7139481931580177;-1.4663259368871226;1.7830000000000001;0.4691604353986044
54:27.6;-0.4667929170326489;-0.6938593409236116;-1.3354611005377834;1.556;0.4325406606092319
54:27.6;-0.48547865189859474;-0.6628757994459037;-1.1942138135157578;1.364;0.38431239485820845
54:27.6;-0.5056588606344361;-0.6202513280992284;-1.0499850254700966;1.19;0.3293126623219647
54:27.6;-0.5277159318584301;-0.5655993272726737;-0.9097848519917989;1.069;0.27154873973696875
54:27.6;-0.5511058485017475;-0.49903180705843203;-0.7796057641344939;0.907;0.2144066685269959
54:27.6;-0.574668245516801;-0.4212433996331559;-0.6639290495784433;0.907;0.16072076104953323
54:27.6;-0.5970063601067326;-0.3335599849946276;-0.565440113233558;0.907;0.11260029239252625
54:27.6;-0.6168321764551269;-0.23798439634915194;-0.4849899871231909;0.91;0.07119480022916609
54:27.6;-0.6332111740684985;-0.13724297386837445;-0.4217817715562625;0.9059999999999999;0.03665443223021524
54:27.7;-0.6456836908725666;-0.03480461382394803;-0.3737176749420277;0.8390000000000001;0.008398471919431905
54:27.7;-0.6542603034427135;0.0651574875140764;-0.3378368308480467;0.716;0.014401969758731613
54:27.7;-0.6593066971561543;0.15787685642274793;-0.31079532137264215;0.62;0.03235045773741016
54:27.7;-0.6613633389093151;0.238186151233448;-0.2893679877543752;0.616;0.04558344123109141
54:27.7;-0.6609694801325025;0.30080052679645713;-0.27096742080657016;0.6709999999999999;0.053873733885094935
54:27.7;-0.6585572055464634;0.3406971382624722;-0.25416386749738795;1.016;0.05702637976285143
54:27.7;-0.6544456991433963;0.3535737455917027;-0.23915007041831085;1.016;0.05533808681167222
54:27.7;-0.6489186696691984;0.33633581920001066;-0.22804974403439301;1.016;0.04977290392142924
54:27.7;-0.642339642405249;0.28754437150181256;-0.22495622367928567;1.094;0.04154967293565148
54:27.7;-0.6352577718333238;0.20776409900226547;-0.23562381604522123;1.0959999999999999;0.03109851685712
54:27.8;-0.6284571948104554;0.09975710172632231;-0.2667931657310152;1.016;0.01672608216470831
54:27.8;-0.6228954280718534;-0.03153863257939055;-0.32519204745075986;0.858;0.006388485587466551
54:27.8;-0.6194841875740115;-0.17929923656259555;-0.41631754645725133;0.594;0.046241656279111684
54:27.8;-0.6187118418393892;-0.33538427584695196;-0.543176184295664;0.588;0.11271243844479893
54:27.8;-0.6201867985780485;-0.49112576015648607;-0.7052225624566311;0.76;0.21480353782268188
54:27.8;-0.6222592089366734;-0.6382081216433817;-0.8977542458287042;1.44;0.3565259344873381
54:27.8;-0.6218908542771187;-0.7694733395495398;-1.1119248936410921;1.44;0.5320876763850377
54:27.8;-0.6148632236628864;-0.8794967096325605;-1.3353499599474112;1.44;0.7221174409887304
54:27.8;-0.5963071005571302;-0.9648435696699424;-1.553164096798568;1.883;0.8936022020283442
54:27.8;-0.561469206324747;-1.024014790060927;-1.7494205315327764;2.436;1.005834183019352
54:27.9;-0.5065777810999376;-1.0571684540247452;-1.9087433114558068;2.8819999999999997;1.0222046703734067
54:27.9;-0.42961001940947446;-1.0657363129518722;-2.018045007953548;3.159;0.9239639210873927
54:27.9;-0.33075755140336166;-1.0520446364858584;-2.06801530626181;3.075;0.7196108181475835
54:27.9;-0.21246951094098213;-1.019009848843426;-2.0540951791704365;2.833;0.4447291158656437
54:27.9;-0.07908439534718097;-0.9699180182918992;-1.9767764779103016;2.53;0.15162939093877223
54:27.9;0.06382342511729142;-0.9082468880686977;-1.841241761416901;1.699;0.10673204785213891
54:27.9;0.21019470665120218;-0.8374910676091477;-1.6565234822796568;1.699;0.29160808127186705
54:27.9;0.35414798879861975;-0.7609987028114267;-1.4344565375489546;1.699;0.3865948732350729
54:27.9;0.49043777188525706;-0.6818586465150267;-1.1886579766733116;1.473;0.3974982050571739
54:27.9;0.6146958061395535;-0.6028566463463575;-0.933616869052504;1.271;0.3459736262085764
54:28.0;0.723508552365738;-0.5264876876467076;-0.6838595445831382;1.121;0.26049464574881653
54:28.0;0.8143834427230479;-0.4550058304353087;-0.4531519308093324;1.036;0.1679150920780607
54:28.0;0.8856327558096884;-0.3904966574923784;-0.25374928034664257;0.982;0.08775579621077964
54:28.0;0.9361966225257318;-0.3349521183559031;-0.09573451137670048;0.9790000000000001;0.030020527824502808
54:28.0;0.9654362280321475;-0.290319056487448;0.013504827212410406;1.0070000000000001;0.0037851942130696986
54:28.0;0.9729384690424299;-0.25849171929293197;0.06961468148051109;0.9009999999999999;0.017507851360494955
54:28.0;0.9583738068435954;-0.2412308308804422;0.07140400409548345;0.9009999999999999;0.01650784241800268
54:28.0;0.9214399432913148;-0.24001367041693444;0.020780915468968094;0.9009999999999999;0.004595869503245188
54:28.0;0.8619074952656122;-0.2558342538845837;-0.07746645480727883;0.9009999999999999;0.01708177632689837
54:28.0;0.7797610988742119;-0.2889716443325266;-0.2160254792860815;0.83;0.04867677215464857
54:28.1;0.6754073529771029;-0.33874443497116474;-0.38556430431876154;0.8059999999999999;0.08821344308861973
54:28.1;0.5499099574549351;-0.40328772898417814;-0.5753966204662218;0.898;0.12760682357487735
54:28.1;0.4052134165149193;-0.47941688878090805;-0.7742724302665599;1.085;0.15041492828941688
54:28.1;0.24432116275722335;-0.562658396334696;-0.97121641879837;1.2830000000000001;0.13351249332473172
54:28.1;0.07139565535947506;-0.6475205409682337;-1.15631623046196;1.5090000000000001;0.0534566766913683
54:28.1;-0.10824949769874997;-0.7280353934126388;-1.3213676813189261;2.077;0.10413628088377118
54:28.1;-0.2882838697361896;-0.7985104102791931;-1.4603000331856493;2.077;0.33615766674646974
54:28.1;-0.46162700910184545;-0.8543121471813108;-1.569329198039943;2.077;0.6189019447500707
54:28.1;-0.620866713272064;-0.8924645147080366;-1.6468300913563467;2.233;0.9125110402660188
54:28.1;-0.7588713647620695;-0.911915193113079;-1.69297415953621;2.289;1.171582689575217
54:28.2;-0.8695966054799168;-0.9134284295837347;-1.709212915680047;2.261;1.3576521952319116
54:28.2;-0.9489554127910171;-0.8991560123993478;-1.6976978935786613;2.219;1.448575947404728
54:28.2;-0.9955020203834682;-0.8720259951511226;-1.66074131932243;2.198;1.4416955844019497
54:28.2;-1.0106847182647882;-0.8351281377673624;-1.6004365941075647;2.021;1.3508505024158095
54:28.2;-0.9985513537761909;-0.7912365745656101;-1.5185283884814837;1.839;1.1997746300246968
54:28.2;-0.9649710731906903;-0.7425359214110661;-1.4165420361724703;1.693;1.0149887527525672
54:28.2;-0.9165931179462883;-0.6905480500367337;-1.2961015645220288;1.693;0.8203695464220031
54:28.2;-0.8598326186421237;-0.636206328280972;-1.159323424451726;1.693;0.6341857979942088
54:28.2;-0.8001172909744385;-0.5800037791631648;-1.0091640579889405;1.526;0.46832382657542365
54:28.2;-0.7414924464506618;-0.5221524294283968;-0.8496136178211575;1.301;0.3289466735767131
54:28.3;-0.6865579091761282;-0.46271873407750985;-0.6856716583817495;1.087;0.21782637111280004
54:28.3;-0.6366461561435767;-0.4017282072790025;-0.5231093612956149;0.94;0.1337897801306942
54:28.3;-0.5921338434554198;-0.339248478248922;-0.3680846120500773;0.846;0.07394102286616766
54:28.3;-0.5527864733201978;-0.2754607564151311;-0.2266991225843181;0.777;0.034519697578472536
54:28.3;-0.5180552787952398;-0.21072519494150932;-0.10456779031627952;0.711;0.011415383295494465
54:28.3;-0.48727225040230177;-0.1456458322240566;-0.006433447018981681;0.486;0.00045657641080637046
54:28.3;-0.45972852491997523;-0.08114426195990738;0.06416025937838075;0.486;0.00239345560785333
54:28.3;-0.4346669210096898;-0.01854895887382837;0.10511713322876268;0.486;0.0008475193789475478
54:28.3;-0.41124166022517866;0.04030781889487654;0.11592953672961219;0.45399999999999996;0.0019216774889434895
54:28.3;-0.3884861975412705;0.09301591060867886;0.09769530028292686;0.408;0.0035302585021028533
54:28.4;-0.36531498905076165;0.13658009130979154;0.05299997250130097;0.34600000000000003;0.002644420619712753
54:28.4;-0.3405864189883019;0.16752181306154665;-0.014353755870028025;0.27699999999999997;0.0008189629344497491
54:28.4;-0.3132520226894072;0.18211805561159156;-0.09978145382630821;0.315;0.005692417121133758
54:28.4;-0.282596947179352;0.17678440617907493;-0.19849394335721554;0.514;0.009916506016578805
54:28.4;-0.2485468321441188;0.1485800016570262;-0.30614523239276664;0.845;0.01130566445185668
54:28.4;-0.21198248024960878;0.09577287957563255;-0.4194412028838442;1.188;0.008515567676823304
54:28.4;-0.1749686292260641;0.01836650903133447;-0.536572317258416;1.188;0.0017243088966738232
54:28.4;-0.14078570264733317;-0.08152656902496454;-0.6573296198289157;1.188;0.00754468167745834
54:28.4;-0.1136716425287518;-0.1995659878868607;-0.7828096698233554;1.0290000000000001;0.017758032378120504
54:28.4;-0.09823226577563286;-0.32939622269377866;-0.9147129181071114;0.787;0.029597674417588555
54:28.5;-0.09855726828427161;-0.46322115306833006;-1.0543483161132168;0.86;0.04813501923479247
54:28.5;-0.11717702641048643;-0.5926869948130069;-1.2015413664795476;1.094;0.08344620639572652
54:28.5;-0.1540820362334031;-0.709923448983467;-1.3536979371819917;1.423;0.1480762125182776
54:28.5;-0.2060680622396239;-0.8085368875766551;-1.5052885614714324;1.805;0.2508015909307667
54:28.5;-0.2666565201260533;-0.8843469742349684;-1.6479660023820524;2.02;0.3886182121243892
54:28.5;-0.3267535797987344;-0.9356956602306636;-1.7713975396838628;2.736;0.541590461098511
54:28.5;-0.37600331385165936;-0.9632619264376695;-1.8646802440184433;2.736;0.6753679342594527
54:28.5;-0.40450778864523623;-0.969487535294604;-1.91798837645384;2.736;0.7521684084515572
54:28.5;-0.404448144191735;-0.957839948373409;-1.924041174409986;2.85;0.7453669891246932
54:28.5;-0.3712547744366125;-0.9321174996096403;-1.8791211257169798;2.713;0.650275638338474
54:28.6;-0.30417086009712996;-0.8959122309818699;-1.7835530716055994;2.398;0.4860367500300309
54:28.6;-0.20618239521318837;-0.8522749622926038;-1.641652216315494;1.9909999999999999;0.2884778469070336
54:28.6;-0.08338873686160884;-0.8035709946372022;-1.4612079946122443;1.6269999999999998;0.09791375075667808
54:28.6;0.05601190791087048;-0.7514742510832892;-1.2526310444250064;1.3969999999999998;0.052725127809980496
54:28.6;0.20289633933172035;-0.6970469178346933;-1.0279207219794173;1.3090000000000002;0.14537704732116985
54:28.6;0.348336693074518;-0.6408748325431968;-0.7995954401416904;1.02;0.1785018618425175
54:28.6;0.4845024324924648;-0.5832437556179157;-0.5797066146863891;1.02;0.16381524492563934
54:28.6;0.6052441071054101;-0.5243439725803557;-0.37905159451301773;1.02;0.12029433554409683
54:28.6;0.7063373024722124;-0.4644860701927198;-0.20666331107468278;0.9740000000000001;0.06780289224137816
54:28.6;0.785438661120557;-0.40430045494378347;-0.06956252239164214;0.95;0.022089802143531814
54:28.7;0.8418452065406331;-0.34488666874405416;0.027312252333888308;0.929;0.007929871813664923
54:28.7;0.8761483668644672;-0.2878841202565716;0.0810784971403258;0.9009999999999999;0.020450364617578404
54:28.7;0.88985576684605;-0.23544792056830136;0.0908302135335051;0.879;0.01903026402289631
54:28.7;0.8850336703722219;-0.1901250544485395;0.05751881873686884;0.872;0.009678523372981548
54:28.7;0.8640028377356472;-0.15463626712640166;-0.01621021128999879;0.858;0.0021657843039321516
54:28.7;0.8291007551842186;-0.13157941697013106;-0.12623695457597123;0.772;0.013771516830403325
54:28.7;0.7825124141446099;-0.12308502020203102;-0.2672370324787426;0.772;0.025739083448040993
54:28.7;0.726174189675705;-0.1304725193543505;-0.43296202260377886;0.772;0.04102132281752528
54:28.7;0.6617551119282933;-0.15396113065082334;-0.616491026837108;0.846;0.06281092024763148
54:28.7;0.5907042602161072;-0.1924773286758503;-0.8104640044955551;1.008;0.09214747021725522
54:28.8;0.5143363541965811;-0.24359245138784896;-1.0073402198738144;1.193;0.12620809815192197
54:28.8;0.43392756497699964;-0.3036307279402792;-1.199696401449617;1.3969999999999998;0.15806449066757455
54:28.8;0.35080743317007124;-0.3679921956477727;-1.3805292180463242;1.5659999999999998;0.17821858774778268
54:28.8;0.26644232869333623;-0.43170703134915384;-1.543507473105375;1.764;0.17754198837652818
54:28.8;0.18248908795492164;-0.49016129801203134;-1.683143670354008;1.911;0.15055566666487316
54:28.8;0.10076309217890993;-0.5398332166202153;-1.7949036334167465;2.136;0.09763425729498168
54:28.8;0.023073882103089343;-0.5788277175910732;-1.875301009978923;2.136;0.025046149943014486
54:28.8;-0.04904033674587182;-0.6070481789237437;-1.9220003749300558;2.136;0.057217657317387406
54:28.8;-0.11458272976110585;-0.62595673067973;-1.9339149225675492;2.148;0.138707786907563
54:28.8;-0.17328851360232023;-0.6379799114379971;-1.9112765444116377;2.106;0.21130039581671195
54:28.9;-0.22568435590503508;-0.645710091661814;-1.8556590559066717;2.0069999999999997;0.2704190077062119
54:28.9;-0.27296862563765295;-0.6511320403597569;-1.7699304495157324;1.815;0.3145849923462227
54:28.9;-0.31669378748102345;-0.6551042892301345;-1.6581194946951037;1.781;0.3440058375388504
54:28.9;-0.3583178119422287;-0.657209789218624;-1.5252069386758584;1.724;0.3591709418145689
54:28.9;-0.3987700618889024;-0.6559309066058239;-1.3768596872333259;1.692;0.360139141527604
54:28.9;-0.4381750616763086;-0.6490106170308546;-1.2191131904909358;1.25;0.3466917347931147
54:28.9;-0.47579493001046186;-0.6338701847363453;-1.0580124653287561;1.25;0.31908832839909895
54:28.9;-0.5101548503743035;-0.6080122541130167;-0.8992585636278145;1.25;0.27893238143960547
54:28.9;-0.5392760571969756;-0.569384760912396;-0.7479170511218929;1.09;0.22965209561691766
54:28.9;-0.5609639219469403;-0.5166949521817503;-0.6082001267585506;0.983;0.17628512009622496
54:29.0;-0.5731295988403768;-0.4496579552807373;-0.4833027330195523;0.929;0.12455305096055155
54:29.0;-0.574125075324294;-0.3691580914065071;-0.3752966726513937;0.912;0.07954147155539106
54:29.0;-0.5630556467417354;-0.2773012134004288;-0.2851114661893195;0.902;0.0445161678917343
54:29.0;-0.5400184187196746;-0.17734592351246595;-0.212613518259283;0.865;0.020362010502177057
54:29.0;-0.5062064801407291;-0.07351877428849653;-0.15675978965792164;0.755;0.005833922162010857
54:29.0;-0.46382987951851623;0.029263462158186065;-0.11578726040372041;0.366;0.0015716115311650684
54:29.0;-0.41585463512416704;0.12572558411324417;-0.08742012951774518;0.366;0.0045706361906758895
54:29.0;-0.3656314171406517;0.21057237010225896;-0.069115956129779;0.366;0.00532136699203372
54:29.0;-0.316514789467975;0.2788011978619334;-0.05839111509957997;0.33299999999999996;0.005152706577376027
54:29.0;-0.27154125319542577;0.32599151123546066;-0.05324611107614809;0.37200000000000005;0.004713353392848815
54:29.1;-0.23319709408963682;0.348591271155036;-0.05266999860685185;0.503;0.004281569018462521
54:29.1;-0.20330265782324536;0.3442035779091561;-0.05715766380492432;0.672;0.003999750545867805
54:29.1;-0.18303675847620274;0.31185043431906756;-0.0691262174231244;0.8340000000000001;0.003945730893477011
54:29.1;-0.1730949159221641;0.25217487061446314;-0.09307828537822323;0.932;0.004062884657961644
54:29.1;-0.17392970974904828;0.1675335931232421;-0.1353534205607892;0.9390000000000001;0.003944072691580412
54:29.1;-0.18598204011098518;0.06193146179794454;-0.2033577491525156;0.536;0.002342302945968999
54:29.1;-0.20979178416943975;-0.05922483948656698;-0.30428566430330883;0.536;0.003780714307926626
54:29.1;-0.24588457247463244;-0.1895282833141087;-0.4435145855920514;0.536;0.02066870260453974
54:29.1;-0.2943731643443572;-0.32208258351373686;-0.6229625009557083;0.489;0.05906461299015168
54:29.1;-0.35429088622039606;-0.450098093439553;-0.8397057817348923;0.8370000000000001;0.13390423031748372
54:29.2;-0.4227984738231252;-0.5675392172026028;-1.0851463842156805;1.253;0.2603859912145491
54:29.2;-0.4945533560804191;-0.6697203490415141;-1.3450303255365128;1.4;0.4454907844065344
54:29.2;-0.561608648565006;-0.7536880955184;-1.6005509471156218;1.746;0.6774776080787869
54:29.2;-0.6141030548344073;-0.8182601415413632;-1.8305349172644962;2.888;0.9198365700165685
54:29.2;-0.6417071215594238;-0.8637233538481746;-2.014361795875969;3.8139999999999996;1.1164749864756236
54:29.2;-0.6354632277233813;-0.8913428377197039;-2.134982644868746;3.71;1.2092874686637776
54:29.2;-0.5895030136100645;-0.9028823940311028;-2.1813611665970103;3.71;1.1610336085295156
54:29.2;-0.5022131969548779;-0.9002626930157909;-2.1498823105421865;3.71;0.9720129708856426
54:29.2;-0.37662401080987834;-0.8853830576446087;-2.0445733246009845;2.8489999999999998;0.6817763021757591
54:29.2;-0.2199793412524685;-0.8600806447176436;-1.8762006703823033;2.066;0.354977117396541
54:29.3;-0.042614030877196354;-0.8261793175608678;-1.6604719702921158;1.544;0.05845995595302942
54:29.3;0.1435737636009628;-0.7855632727238843;-1.4157308325655884;1.2919999999999998;0.15967500787366398
54:29.3;0.32668717202458386;-0.7402108240793022;-1.16061246905682;1.19;0.2806562674148804
54:29.3;0.4961236102911771;-0.692152275052096;-0.9120713991918934;1.1159999999999999;0.3131990120287405
54:29.3;0.6434360021550309;-0.643357578275022;-0.6840369220895448;1.06;0.28316353308212605
54:29.3;0.7627504256952309;-0.5955923889937053;-0.48676608688620876;1.074;0.2211321615936016
54:29.3;0.8508214129035957;-0.5502925405031206;-0.3268059504689751;1.074;0.15301076719876128
54:29.3;0.9068344393262769;-0.5084963188626493;-0.2073868579955722;1.074;0.0956306373852235
54:29.3;0.9320529419757331;-0.47084832051406944;-0.129051747500185;1.0859999999999999;0.05663507722266619
54:29.3;0.9293819809141072;-0.43766151692237215;-0.09035843959966132;1.094;0.036753722482756386
54:29.4;0.902891660881006;-0.40900988002071;-0.0885416083468279;1.074;0.03269767308852951
54:29.4;0.8573155106203818;-0.3848251209782005;-0.12006726657190954;0.977;0.039612177765921644
54:29.4;0.7975272519249779;-0.3649774739793571;-0.18104783853706286;0.8440000000000001;0.052699311029127206
54:29.4;0.7280148317803794;-0.349323349249172;-0.2675143796191828;0.711;0.0680322718916534
54:29.4;0.6524026878652968;-0.33770401400583366;-0.3755692485019259;0.63;0.08274504367947659
54:29.4;0.5730965417978984;-0.3298880687021376;-0.5014604197367563;0.815;0.09480495928983804
54:29.4;0.4911228308788118;-0.32547244448940177;-0.6416072044332226;0.815;0.10255895364279848
54:29.4;0.4062086119780041;-0.3237831569334161;-0.7925694973136663;0.815;0.10424151963752883
54:29.4;0.3171061783256959;-0.32382685708546693;-0.9509403561107125;0.9520000000000001;0.09764968505049598
54:29.4;0.22212132062863169;-0.32433206908637824;-1.1131799883733808;1.124;0.08019467469060844
54:29.5;0.119767168012611;-0.3239029208499015;-1.275444188812594;1.295;0.04947822420301222
54:29.5;0.009437018802925023;-0.32129151835994296;-1.4334518673146424;1.4469999999999998;0.004346274942382463
54:29.5;-0.10803681250675896;-0.31575763713638;-1.5824178765276298;1.567;0.05398173095933619
54:29.5;-0.23008717238413323;-0.3074246901847373;-1.7170818057642523;1.745;0.121456884674309
54:29.5;-0.3525141422641752;-0.2974887524522452;-1.8318734250309605;1.9980000000000002;0.19210672029455642
54:29.5;-0.47004970708323834;-0.2881347484347631;-1.9212352747729244;2.401;0.26020759859376147
54:29.5;-0.5772929902367224;-0.2821074569072647;-1.980065098037289;2.401;0.3224707433637729
54:29.5;-0.6697285014673712;-0.28205740110657057;-2.0041882624964753;2.401;0.37859493180367815
54:29.5;-0.7444736609735344;-0.2898967186553345;-1.9907736302412304;2.379;0.4296497034120715
54:29.5;-0.8005461273493472;-0.30636145269960535;-1.9386537207050114;2.228;0.4754673768702925
54:29.6;-0.8386598915377255;-0.3308588223310149;-1.8485453437352433;2.12;0.5129307093472755
54:29.6;-0.8607070704147036;-0.36157769049242783;-1.7231669310095858;2.074;0.5362710449397419
54:29.6;-0.8691379900064681;-0.39577370918292065;-1.5672314774433909;1.999;0.5390993649395321
54:29.6;-0.866425279526631;-0.4301185319860694;-1.3872778914661885;1.8330000000000002;0.5169907052083395
54:29.6;-0.8547113545800089;-0.46103396432020366;-1.1913002776544999;1.625;0.46943302300372053
54:29.6;-0.8356505931153083;-0.484983216815713;-0.9881621366577836;1.093;0.4004789048088853
54:29.6;-0.8104076116691605;-0.498723331705993;-0.7868572016762208;1.093;0.318023433229505
54:29.6;-0.7797587528395354;-0.49952814118839367;-0.5957642457378336;1.093;0.2320569894850302
54:29.6;-0.7442487339574883;-0.485385242841298;-0.42204578148655775;0.956;0.15246292118158283
54:29.6;-0.7043660787704163;-0.45516672175600753;-0.2712474125360711;0.899;0.08696300517477207
54:29.7;-0.6607117381040319;-0.4087707930121894;-0.147081656061613;0.884;0.039723763828625566
54:29.7;-0.6141401693533638;-0.34722584640396453;-0.051385511585626334;0.856;0.010957720895029117
54:29.7;-0.5658490539570761;-0.2727422654224911;0.015746004543434104;0.797;0.002430095884980025
54:29.7;-0.5173887671790854;-0.18869411316270548;0.05567649850431659;0.7020000000000001;0.005435597143220803
54:29.7;-0.47056809465718313;-0.09950991033982022;0.0708585300532349;0.578;0.0033180349140242158
54:29.7;-0.4272568848756768;-0.010452562433723544;0.06445104868777812;0.239;0.0002878338244560977
54:29.7;-0.38912868688375535;0.07270891435578258;0.03997757197525906;0.239;0.0011310904158270399
54:29.7;-0.3574281166594083;0.14408997911846666;0.0010453153892587674;0.239;5.383563442740708e-05
54:29.7;-0.3328520601307155;0.19808119404375576;-0.04888469259544322;0.239;0.0032230525249511512
54:29.7;-0.31559103178578185;0.22971416571361278;-0.10670364555336961;0.364;0.00773555873923336
54:29.8;-0.30552396562466455;0.23501952594144143;-0.16986402858959976;0.527;0.012196933281607434
54:29.8;-0.3025256246338551;0.21138639635568893;-0.2365968813382673;0.708;0.015130323619957564
54:29.8;-0.3068240385888577;0.15789427868604947;-0.30610226779599503;0.904;0.014829357079624397
54:29.8;-0.3193222816081346;0.0755623900818156;-0.3786390829399465;1.089;0.009136089591730361
54:29.8;-0.3417690793040587;-0.03254437683065928;-0.4554313427470718;1.182;0.005065608755657126
54:29.8;-0.3766437219777849;-0.16141088877722243;-0.5383425668580611;0.763;0.03272821222511796
54:29.8;-0.42666407731304457;-0.30439692655971295;-0.6293312492398612;0.763;0.08173454313740972
54:29.8;-0.4939454344184335;-0.4537568720176168;-0.7297579127094855;0.763;0.1635614694471794
54:29.8;-0.5789514093566761;-0.6012836615568657;-0.8396507632076076;0.759;0.292294205331574
54:29.8;-0.6794330299905669;-0.7390282744568665;-0.9570643767922031;1.105;0.4805613752021718
54:29.9;-0.7896076904058111;-0.8600433355469033;-1.077704595138214;1.475;0.7318657762071022
54:29.9;-0.8999043985740166;-0.959032830565623;-1.195013790075213;1.756;1.031342147167495
54:29.9;-0.9975852224282578;-1.032743124277852;-1.300835721654518;2.0909999999999997;1.3401850647794666
54:29.9;-1.0683476646481112;-1.0799839156580333;-1.3865854652887775;2.99;1.5998399445444609
54:29.9;-1.0986499033600283;-1.1013097778487353;-1.4446311184019047;3.802;1.747937028328042
54:29.9;-1.078151265356744;-1.0985339832593661;-1.4694909559912377;2.642;1.7404442275124163
54:29.9;-1.0015814158847542;-1.0742785292837342;-1.4585469154808255;2.642;1.5693635330872522
54:29.9;-0.8696343145402655;-1.0316674197044238;-1.4122161333288803;2.642;1.2670027348590984
54:29.9;-0.6888573353043709;-0.974146318659483;-1.3337147240773084;1.963;0.8949863811250106
54:29.9;-0.4706911806699248;-0.9053606711900306;-1.228573050978881;1.534;0.5235506108083033
54:30.0;-0.229885879157502;-0.8290399083654454;-1.1040088312125003;1.31;0.21040704637595578
54:30.0;0.017387990155717282;-0.7488651189455682;-0.9682441246681951;1.225;0.012607757828677698
54:30.0;0.25537176943412615;-0.6683217526917333;-0.8298495138672961;1.248;0.14163083854025343
54:30.0;0.4702177502973067;-0.5905556895375161;-0.6971736584646778;1.253;0.19359799130717095
54:30.0;0.6510191867933157;-0.5182549868662116;-0.5778755988204972;1.2109999999999999;0.1949717251744004
54:30.0;0.7903557061875529;-0.4535731197908436;-0.47854474637569117;1.123;0.17155068434126225
54:30.0;0.8844138715188121;-0.3981037399988547;-0.4043911140497461;1.123;0.14238144861059066
54:30.0;0.9327751918230635;-0.3529142909595817;-0.3590121880082482;1.123;0.11818311283216913
54:30.0;0.9379645608576072;-0.3186359893413466;-0.3442568384876915;1.085;0.10288778857094862
54:30.0;0.9048365598248197;-0.29558862862876284;-0.3601962026716679;1.013;0.09633785947506417
54:30.1;0.8398592484589926;-0.283903543828574;-0.40520436766707146;0.902;0.09661653109229174
54:30.1;0.7503471218290095;-0.2836069449501725;-0.47615608437013035;0.8420000000000001;0.10132775504449468
54:30.1;0.6437022275854319;-0.2946375129346347;-0.5687353152568168;0.871;0.10786567072119387
54:30.1;0.5267357363499263;-0.3167913534551611;-0.6778098967112948;0.9129999999999999;0.11310296994435143
54:30.1;0.40514524061600854;-0.34960860177515524;-0.7977981395229831;0.889;0.11300193237353312
54:30.1;0.2832088341719599;-0.39223440076341787;-0.9229650923618766;0.9840000000000001;0.10252688262673619
54:30.1;0.1637311591736689;-0.4432973346789929;-1.047634093289848;0.9840000000000001;0.07603894452641642
54:30.1;0.048243629526293616;-0.5008458393375749;-1.1663472580636507;1.256;0.028182006894194093
54:30.1;-0.06258199143903201;-0.5623702536216529;-1.2740251868482706;1.256;0.044838361438935645
54:30.1;-0.16839567984997694;-0.6249236563291151;-1.3661587368692638;1.6;0.14376695503809403
54:30.2;-0.2686326214362194;-0.6853400532321045;-1.4390295953216867;1.882;0.2649321048505687
54:30.2;-0.3621197391814464;-0.7405250939063354;-1.4899120818534481;1.9280000000000002;0.39953296723476933
54:30.2;-0.4469561196584039;-0.7877625180470884;-1.51717675140311;1.841;0.5341907704831914
54:30.2;-0.5207387306137243;-0.8249614218143401;-1.52023871621957;1.8219999999999998;0.6530783826222032
54:30.2;-0.5810834445154516;-0.8507863361193092;-1.4993754660512917;1.8980000000000001;0.7412580263545593
54:30.2;-0.6262529805378162;-0.8646571940246942;-1.45551728212588;1.874;0.7881540860740062
54:30.2;-0.6556475529374272;-0.8666512908209871;-1.390120066983814;1.874;0.7898909635239759
54:30.2;-0.6699935513766367;-0.8573575285600619;-1.3051620905978585;1.874;0.749716448776159
54:30.2;-0.6712033583670827;-0.8377215063192883;-1.2032233544112254;1.709;0.6765502186174471
54:30.2;-0.6619716820419659;-0.8089015369259728;-1.0875661865304949;1.526;0.5823589691137679
54:30.3;-0.6452229989161816;-0.7721477750029601;-0.9621412698246344;1.3719999999999999;0.47934599956667945
54:30.3;-0.6235661728240807;-0.7287100517014437;-0.8314720530321015;1.19;0.3778200179059853
54:30.3;-0.5989150924145327;-0.679766513839637;-0.7004098125122314;1.0290000000000001;0.28515254098315196
54:30.3;-0.5723667895304562;-0.6263588580646002;-0.5737911582330747;0.937;0.20570815174769563
54:30.3;-0.544326135896424;-0.5693313462699563;-0.45605620284338294;0.885;0.1413326982522192
54:30.3;-0.5147880275633024;-0.5092883290974837;-0.3508937058756272;0.737;0.09199574485452267
54:30.3;-0.48366419615480105;-0.446594224241531;-0.2609751272754929;0.737;0.056371054570818854
54:30.3;-0.4510654236043092;-0.3814351181067156;-0.18782523083284022;0.737;0.03231574288925598
54:30.3;-0.41748879733465044;-0.3139412406222985;-0.13184564392078651;0.662;0.01728060654884408
54:30.3;-0.3838862732921968;-0.24434497577959163;-0.09246538418342747;0.568;0.008673316111639533
54:30.4;-0.35160749604032865;-0.17313940897471855;-0.06836304552658207;0.461;0.004161744919703294
54:30.4;-0.3222301223026077;-0.10121200220624751;-0.05770167450630594;0.341;0.0018818567841159403
54:30.4;-0.29731361220364755;-0.029941732765546295;-0.05833145735877158;0.242;0.0005192715754915621
54:30.4;-0.27812848738529733;0.038746041223142756;-0.06793804902827134;0.153;0.0007321260858754008
54:30.4;-0.26541816240965294;0.10237408445550927;-0.08414115793230487;0.106;0.002286278610523499
54:30.4;-0.2592453571368703;0.15796763649972048;-0.10457332372145559;0.128;0.004282526108211433
54:30.4;-0.2589618454734255;0.2021785065452319;-0.12698335051921297;0.27399999999999997;0.006648406225731818
54:30.4;-0.26331977668200907;0.2314801721052828;-0.14940126629170128;0.27399999999999997;0.009106501284093472
54:30.4;-0.2707184624815471;0.24242304615951057;-0.17037218974386945;0.434;0.011181253250762193
54:30.5;-0.27955868681899626;0.231932757477655;-0.1892318810017501;0.605;0.012269571323797947
54:30.5;-0.2886563950723839;0.19763233167226485;-0.20636891672069674;0.725;0.01177290020124605
54:30.5;-0.29764606146040257;0.13816266182961148;-0.22339827396592948;0.7659999999999999;0.009186935034153848
54:30.5;-0.30729187892270804;0.053466449892386504;-0.24316765557570866;0.733;0.003995197369320279
54:30.5;-0.319635045244526;-0.05500230093841825;-0.26954290494044447;0.6709999999999999;0.004738742962053475
54:30.5;-0.3379320088715769;-0.18417763013091726;-0.30696676386211685;0.65;0.019105462976426093
54:30.5;-0.36636379258316976;-0.32941558800277965;-0.35983542007907937;0.782;0.04342707741327123
54:30.5;-0.40950920882167086;-0.48466911493856396;-0.4317691207609525;0.782;0.08569600912968516
54:30.5;-0.47157914681413227;-0.64278866742705;-0.5248604942750758;0.782;0.1590987211927991
54:30.5;-0.5554249588400206;-0.7959412278132795;-0.6389815065522555;0.777;0.2824845378551727
54:30.5;-0.6613919926211947;-0.9361675581992601;-0.7712389062083022;1.071;0.4775308677675214
54:30.6;-0.7862094202628915;-1.0560779250837424;-0.9156952169103323;1.485;0.7603002856052632
54:30.6;-0.9222506301886718;-1.149603875258545;-1.0634958311500458;1.734;1.1275426325643085
54:30.6;-1.0575523214870755;-1.212650280013609;-1.2035175247650898;1.965;1.5434403609314926
54:30.6;-1.1768426165336165;-1.243490475550999;-1.3235451324291667;2.659;1.9368661325535983
54:30.6;-1.2635169840167852;-1.2428112627947998;-1.4118148335447918;3.235;2.2169913822002147
54:30.6;-1.3021662236783182;-1.21340490342583;-1.4586229960636008;3.299;2.3047043843039727
54:30.6;-1.2810787620224884;-1.159598805444077;-1.4576759856118784;3.299;2.1654321968001176
54:30.6;-1.1941787633682588;-1.0865867877290116;-1.4069502015311994;3.299;1.8256288476720677
54:30.6;-1.0420481570672209;-0.9998274069941933;-1.3089594593256426;2.6510000000000002;1.3637633756145178
54:30.6;-0.8318984761988852;-0.9045954694999241;-1.1704268695584463;1.8869999999999998;0.8807831962331533
54:30.7;-0.5765617781985761;-0.8056890774769017;-1.0014455482707116;1.261;0.4652010270399699
54:30.7;-0.29275316103755405;-0.7072647273942054;-0.8142972344501616;0.851;0.16860348707018108
54:30.7;0.0010248006224325458;-0.612774530759308;-0.6221433859965029;0.836;0.0003906884525224191
54:30.7;0.2865588532195888;-0.5249811951438336;-0.43779034616274903;1.041;0.06586030814220652
54:30.7;0.5476910255101105;-0.44602757089822;-0.27267596885311574;1.217;0.06661073022992682
54:30.7;0.7715991204970095;-0.37753880586726035;-0.13615208332283815;1.3330000000000002;0.03966227421771646
54:30.7;0.9495245033822781;-0.3207351068048143;-0.035073356385663924;1.3330000000000002;0.010681444887525515
54:30.7;1.076964119995037;-0.2765371162221839;0.02633089639005543;1.3330000000000002;0.007841882098020062
54:30.7;1.1534056302491469;-0.24564970568564498;0.046340722469153335;1.2890000000000001;0.013129890842039381
54:30.7;1.181721290114653;-0.22860766923816483;0.025439208697040215;1.218;0.006872416216547819
54:30.8;1.1673440988243433;-0.22576957824796653;-0.0341168862556762;1.091;0.008991532149725059
54:30.8;1.1173402715187992;-0.23726108904112578;-0.12877669460446414;0.97;0.034138878118650615
54:30.8;1.0394838983699233;-0.26288402389872306;-0.2541541343662245;0.8959999999999999;0.06945110166403
54:30.8;0.9414358163713374;-0.3020108999981333;-0.4054054956347321;0.866;0.1152664627595352
54:30.8;0.8301156824076256;-0.35347800390022244;-0.5774886712153197;0.892;0.16945113470120776
54:30.8;0.7113225373815518;-0.41548448587901254;-0.7653014547932617;1.203;0.22617985423295134
54:30.8;0.5896125204225511;-0.4855127876653001;-0.9637141361386187;1.203;0.2758770667171094
54:30.8;0.46840226146139774;-0.5603089144082016;-1.167497337505552;1.203;0.3064096325940326
54:30.8;0.3502383772052805;-0.6359827337438935;-1.37114654240433;1.385;0.30541680524854453
54:30.8;0.2371511675913509;-0.7082808361784548;-1.5686568529552034;1.5230000000000001;0.2634867069247095
54:30.9;0.1309942746149748;-0.7730290757758234;-1.7533607410169452;1.7469999999999999;0.17754948695984002
54:30.9;0.03366366734427785;-0.8266532029853365;-1.917960646544363;2.122;0.05337335110215568
54:30.9;-0.05290048540375004;-0.8666154158366275;-2.0548571718633935;2.484;0.09420364513402744
54:30.9;-0.12696550561773884;-0.8916065436963483;-2.1567775557437807;2.7560000000000002;0.24415428412083431
54:30.9;-0.1874281245001157;-0.9014244736383912;-2.217571193007313;2.8560000000000003;0.37466375008509517
54:30.9;-0.234207057597788;-0.8966096099163496;-2.2329529718581047;2.485;0.46890292711991544
54:30.9;-0.2684004443579781;-0.8780106905846864;-2.2010140791990263;2.485;0.5186875872506247
54:30.9;-0.2921309662161256;-0.8464518971618781;-2.1224441098159423;2.485;0.5248269652073064
54:30.9;-0.30814762492393;-0.8025899228895215;-2.000501427023307;2.29;0.4947563680677864
54:30.9;-0.3193096587740648;-0.7469620496121708;-1.840777281406128;2.0540000000000003;0.4390478339050644
54:31.0;-0.3280782484333614;-0.6801658029358749;-1.6507846935303436;1.8230000000000002;0.36836865118009815
54:31.0;-0.3361416593222739;-0.6030755429622691;-1.4394207402041512;1.574;0.29179766488090325
54:31.0;-0.34427449027917073;-0.5170015739145344;-1.2163720646213811;1.379;0.21650261520350247
54:31.0;-0.3524585999747256;-0.4237384450569666;-0.9915187584521221;1.21;0.14808358347757833
54:31.0;-0.3602066652070024;-0.32550464822406455;-0.7743518262327981;0.9940000000000001;0.09079193379114753
54:31.0;-0.36697350185153405;-0.22481154681842425;-0.5733985037979493;0.585;0.047305308095316204
54:31.0;-0.3725316253844913;-0.12431083824904439;-0.3956860256693056;0.585;0.018324108512916548
54:31.0;-0.3772165414341348;-0.026669483604096468;-0.24634085155228097;0.585;0.0024782309349608155
54:31.0;-0.38199120426320493;0.06549808413425288;-0.128424897454928;0.527;0.003213151383997038
54:31.0;-0.3883188231759651;0.1496483956332353;-0.04302426583801294;0.484;0.0025001955410689195
54:31.1;-0.3978651631514642;0.2233078413912428;0.010485395298309275;0.426;0.000931589737530077
54:31.1;-0.412081554437599;0.2840715977148103;0.03410042033569355;0.32299999999999995;0.003991817900300138
54:31.1;-0.431751330364901;0.32960832673268203;0.030855944664926895;0.27699999999999997;0.004391073493848477
54:31.1;-0.45661166896574873;0.3576812561861089;0.004523610717438982;0.337;0.0007388025953137289
54:31.1;-0.4851756755136511;0.36620875384053275;-0.040695098682975744;0.359;0.007230525242267516
54:31.1;-0.5148509887972736;0.35338774000296247;-0.10054494398256655;0.862;0.0182933509499268
54:31.1;-0.5423628534668018;0.3178856722251696;-0.17118503739397903;0.862;0.029513906207609318
54:31.1;-0.5643744491916387;0.2590818983385253;-0.2496768383051397;0.862;0.03650754847190311
54:31.1;-0.5781415215682342;0.17732027569861478;-0.33436687951590993;1.093;0.03427802657406109
54:31.1;-0.5820722841544067;0.07412693060376742;-0.4250719294997275;1.236;0.01834067707970229
54:31.2;-0.5761121875540134;-0.04765188569441124;-0.5230206260381633;1.288;0.014358397435898352
54:31.2;-0.5618830426925429;-0.18382882922817756;-0.6305139728693011;1.265;0.06512597861068106
54:31.2;-0.5425104737351807;-0.3289967919794097;-0.7502806413159442;1.157;0.13391324414787767
54:31.2;-0.5221059388403294;-0.47680855498423846;-0.8845582301400904;0.956;0.22020597553726728
54:31.2;-0.5049235276377383;-0.6204231822001632;-1.0340149903730624;0.753;0.32392201066355075
54:31.2;-0.494285091499159;-0.7531043386890367;-1.1967150360842642;1.361;0.44547507428983824
54:31.2;-0.4914699374638743;-0.8688945812817486;-1.3673868596626297;1.361;0.5839228209078133
54:31.2;-0.4948636348004171;-0.9632165682533573;-1.537240622091321;1.361;0.7327424247562718
54:31.2;-0.4996649962154598;-1.0332478369810325;-1.694507230035886;1.7930000000000001;0.8748364250788918
54:31.2;-0.49832666468203224;-1.0780050784488122;-1.8257578548006226;2.517;0.9807947009329118
54:31.3;-0.4817217130701749;-1.098178686975453;-1.9178622983411375;3.266;1.0145808357373476
54:31.3;-0.4408454470816331;-1.0958125845770508;-1.96018291192741;3.5839999999999996;0.9469329798039636
54:31.3;-0.36869317201461993;-1.0739311855468368;-1.9464497629312492;3.47;0.7706989156271008
54:31.3;-0.26185554421681795;-1.0361893190680067;-1.8758535556313376;3.036;0.5089789432420065
54:31.3;-0.12142025426007366;-0.9865661458191617;-1.7531614815041168;2.542;0.2100096575348865
54:31.3;0.0470301783633494;-0.9290672390537629;-1.587946480443593;1.41;0.06938404787312534
54:31.3;0.23424611068719794;-0.867397178825664;-1.3932190466683705;1.41;0.28308039774571037
54:31.3;0.4286363806811899;-0.8046332289410207;-1.1838235887582529;1.41;0.4082949254659942
54:31.3;0.6177151284275255;-0.7429871895609922;-0.9748852268664054;1.228;0.44742789090139357
54:31.4;0.7894483641839525;-0.6837208909606625;-0.7804337021685565;1.3130000000000002;0.4212487204601837
54:31.4;0.9334269843508576;-0.6272263198463938;-0.6122459195650378;1.4869999999999999;0.35845160153161587
54:31.4;1.041806191686474;-0.5732496852030675;-0.47897948013708364;1.645;0.28605376444207725
54:31.4;1.1099187732447022;-0.5212187021462846;-0.3856965626340191;1.705;0.22312948139787306
54:31.4;1.1364815747052113;-0.4706083553925661;-0.3338251947066445;1.659;0.17854230761981277
54:31.4;1.1233616838224538;-0.42126429117224634;-0.3215203497387366;1.515;0.15215377070505526
54:31.4;1.0749337190284727;-0.3736089581076458;-0.3443294844999692;0.9329999999999999;0.1382843967582687
54:31.4;0.9971525711769069;-0.3286904155338373;-0.39603805257062;0.9329999999999999;0.12980325111741545
54:31.4;0.8965614894721594;-0.28808367325911616;-0.4695567510454062;0.9329999999999999;0.12127933734389348
54:31.4;0.7794664745551017;-0.25368178986378803;-0.5577321996563974;0.903;0.11028398543604595
54:31.5;0.6514072821085333;-0.22740669688959628;-0.6540196716402606;0.9990000000000001;0.09688279748980286
54:31.5;0.5169364112243856;-0.21086490551014067;-0.7529994364192794;1.15;0.08207976044079814
54:31.5;0.37964773391971124;-0.2049945296854571;-0.8507151385326875;1.296;0.06620750852496485
54:31.5;0.2423547761982642;-0.20977736815394388;-0.944791294631884;1.3730000000000002;0.04803370632423751
54:31.5;0.10730116083968351;-0.2241045262153397;-1.034279569157268;1.262;0.024870985498844516
54:31.5;-0.023684179794209486;-0.24587900520228295;-1.119206075285834;1.001;0.006517632299876773
54:31.5;-0.14911428702025453;-0.27238861788450036;-1.1998623230762502;1.0759999999999998;0.048734849429567344
54:31.5;-0.26782919852251436;-0.30086844717933364;-1.2759916163391944;1.0759999999999998;0.10282113350098243
54:31.5;-0.378989749207048;-0.3290480222470297;-1.3461082386338514;1.0759999999999998;0.16786754170712412
54:31.5;-0.48204510094533154;-0.3554545539236874;-1.4071832955249617;1.219;0.24111399953784357
54:31.6;-0.5766723765496609;-0.37935860505524815;-1.454835899260691;1.505;0.31826808963593506
54:31.6;-0.6626913833484668;-0.4004200866266402;-1.48402679703996;1.869;0.3937938433596087
54:31.6;-0.7399349463289513;-0.41821553486928637;-1.4901068853292831;2.202;0.4611169870375285
54:31.6;-0.8080650307914455;-0.43185184246577485;-1.469957427407598;2.41;0.5129627710798017
54:31.6;-0.8663822659417818;-0.43980342165727065;-1.422901017643349;2.396;0.5421791943618527
54:31.6;-0.9137262724592327;-0.440003820796356;-1.3510856305906447;2.1830000000000003;0.5431945891444703
54:31.6;-0.9485511335964011;-0.4301435132676908;-1.2591708285545735;1.311;0.5137582147441258
54:31.6;-0.9691841636305404;-0.4080916637083287;-1.1533876986629228;1.311;0.4561832633911907
54:31.6;-0.9741935554754403;-0.37235040583575607;-1.040314597085325;1.311;0.37736513775000247
54:31.6;-0.9627641102012867;-0.32245558220838644;-0.9258039437621935;1.3;0.28741459532301533
54:31.7;-0.9350071887661546;-0.25926268842404043;-0.8143377932839246;1.355;0.19740564195545238
54:31.7;-0.8921565511459929;-0.18508949124987842;-0.7088622957843124;1.369;0.11705358180411247
54:31.7;-0.8366074156673089;-0.1037061725919665;-0.6110098101250871;1.246;0.0530120378477239
54:31.7;-0.7717723476392309;-0.020167060308238793;-0.5215515042916165;1.044;0.008117625530675255
54:31.7;-0.701769444763605;0.05951847158090482;-0.44091107673316426;0.813;0.018416081767965334
54:31.7;-0.6310072263477354;0.12886199193905834;-0.36961601706596503;0.647;0.030054531056596518
54:31.7;-0.5637632688972782;0.1814801631734822;-0.30863130261140026;0.632;0.03157663954755525
54:31.7;-0.5038536641932989;0.21172563572247752;-0.2595649907943263;0.789;0.02769006548142844
54:31.7;-0.45444894005850356;0.21528831443150367;-0.22474138039563618;0.789;0.021988145210069074
