Time;AccX;AccY;AccZ;Acc-old;Acc-trns
54:48.3;0.03032356029052352;-0.27899836497082986;-0.9264776756301409;0.9670000000000001;0.007838208427012
54:48.3;0.0207662396002225;-0.2689134227870489;-0.9428750979833306;1.01;0.005265316803960182
54:48.3;0.011723320228302003;-0.2593188331677589;-0.9584259993182339;1.033;0.002913689529149283
54:48.3;0.003667693086956683;-0.25065968824331014;-0.9723784868214368;1.0270000000000001;0.0008939491663241008
54:48.3;-0.0030138321249751233;-0.2433070680695386;-0.9841234587022023;1.024;0.0007216446020729175
54:48.4;-0.00805077256064519;-0.23752762981096368;-0.9932369986143036;1.035;0.0018993481659351145
54:48.4;-0.011302763848432954;-0.2334638318800412;-0.9994961935019139;1.035;0.0026374571210749276
54:48.4;-0.012758062731987561;-0.23112769763615024;-1.0028742398176724;1.035;0.002957217056248988
54:48.4;-0.012520701139789097;-0.2304075484271728;-1.0035203555713006;1.024;0.00289501980145379
54:48.4;-0.010790418389940134;-0.23108555231743924;-1.0017294087265953;1.015;0.002497822090972084
54:48.4;-0.007838748103421474;-0.23286413632027306;-0.9979069922836898;1.0270000000000001;0.0018215428074489348
54:48.4;-0.0039840557379840985;-0.23539911158273144;-0.992535330551765;1.031;0.0009308424918754702
54:48.4;0.0004327210352552218;-0.2383358097202714;-0.9861417758240499;1.02;0.0001017036792185413
54:48.4;0.005070870048735412;-0.24134293779776894;-0.9792676243361432;1.001;0.0011984460062431075
54:48.4;0.009610508102004481;-0.24413904697388816;-0.97243542269521;0.993;0.0022816255132629653
54:48.5;0.013770320305769775;-0.24650895266441497;-0.96611707594063;0.992;0.0032794914055179337
54:48.5;0.017322241134486913;-0.24831058208370166;-0.9607072366757144;0.992;0.004132285982062813
54:48.5;0.02010278056014102;-0.2494742809363161;-0.9565043759209678;0.9840000000000001;0.004796990658319742
54:48.5;0.02202033881914857;-0.24999618703867027;-0.9536989096332474;0.983;0.005250113205258358
54:48.5;0.023057792530622918;-0.2499267108973516;-0.9523669593989856;0.975;0.005488260550144054
54:48.5;0.023269335347249752;-0.24935602002411986;-0.9524693381507486;0.9740000000000001;0.0055265593696381555
54:48.5;0.02277060802233085;-0.24839964712182544;-0.9538566148199935;0.9740000000000001;0.005395214274779526
54:48.5;0.021722889528486396;-0.2471866012853262;-0.9562820249716891;0.98;0.005134858877734624
54:48.5;0.020314583849409238;-0.24584993294325871;-0.9594239249985246;0.987;0.004791688400170332
54:48.5;0.01874384801221676;-0.2445182823784767;-0.9629178405562392;0.997;0.004413258066555848
54:48.6;0.017204110188018564;-0.24330760119877717;-0.966395412487166;1.015;0.004045225647550193
54:48.6;0.015871502361522724;-0.24231346554815972;-0.9695246842894186;1.015;0.0037286743718696466
54:48.6;0.014892654297063938;-0.24160475850200322;-0.9720444759238378;1.015;0.0034975483632680047
54:48.6;0.01437293980375649;-0.24121917989647115;-0.9737866879607701;1.011;0.003376146445634044
54:48.6;0.014366842501485231;-0.24116089344399677;-0.9746841839688785;1.0070000000000001;0.0033770083449861715
54:48.6;0.014872529560607202;-0.24140083877975277;-0.9747658028262545;1.0070000000000001;0.0034996442586183725
54:48.6;0.015832469185196093;-0.24188033241971402;-0.9741419142669971;1.006;0.0037305377435052933
54:48.6;0.017140889511964248;-0.24251812998546748;-0.9729838272838638;1.002;0.004044670876418951
54:48.6;0.018657016375940198;-0.24322020180824414;-0.9714995499610082;0.998;0.004408434992214742
54:48.6;0.020221619661110586;-0.24389043655672293;-0.9699081266619058;0.9940000000000001;0.00478345075121252
54:48.7;0.021674345265016423;-0.2444398170690757;-0.9684152608621285;0.992;0.00513073473829722
54:48.7;0.02286985302158239;-0.24479210187260295;-0.9671931792728707;0.992;0.00541469501777488
54:48.7;0.023691065620966914;-0.24488589699865898;-0.9663668491706757;0.992;0.005606481503389815
54:48.7;0.024058157593306123;-0.24467476817176168;-0.9660071102659129;0.9940000000000001;0.005686327565342152
54:48.7;0.023932573980565256;-0.24412724985903367;-0.9661300218184031;0.995;0.005644704954640762
54:48.7;0.023315933054841993;-0.2432277263688315;-0.9667011701006964;0.995;0.005482241010709646
54:48.7;0.022244091397886162;-0.24197826374064116;-0.9676436859175332;0.997;0.005208425951859266
54:48.7;0.02077742854011653;-0.24040065411813794;-0.96884906147741;0.9990000000000001;0.004839311358221607
54:48.7;0.01898945294711243;-0.2385372132229194;-0.9701901034877364;1.004;0.004394661561125942
54:48.7;0.016956384044703995;-0.23644881685908958;-0.9715350321649769;1.0070000000000001;0.003895191867682296
54:48.8;0.014749786772296445;-0.23420960878037436;-0.9727609297976959;1.004;0.003360443283211595
54:48.8;0.01243287653788047;-0.23189941547825063;-0.973764291874045;1.004;0.0028075346167989353
54:48.8;0.010059835878953968;-0.22959621706704786;-0.9744670437599436;1.004;0.0022507267864027534
54:48.8;0.007676955757038503;-0.22737087538954343;-0.9748176687046876;1.002;0.0017015599848137584
54:48.8;0.005324454325936736;-0.2252846691410292;-0.9747881493689655;1.0;0.0011692758642651432
54:48.8;0.0030383475475720756;-0.22338860937908966;-0.9743680089364163;0.998;0.0006613349749198166
54:48.8;0.0008523629506703194;-0.22172328058197172;-0.9735570308179704;0.995;0.00018399128704361963
54:48.8;-0.0012001004424240659;-0.22031866940523695;-0.9723583227335311;0.99;0.00025709594786882525
54:48.8;-0.0030844185903111322;-0.21919399057970498;-0.9707734777311534;0.9890000000000001;0.0006563263763260416
54:48.8;-0.004764436424861897;-0.21835739717653488;-0.9688017452687928;0.986;0.0010078928344097247
54:48.9;-0.006204493758287914;-0.21780511780944165;-0.9664448280797461;0.992;0.0013060250247186606
54:48.9;-0.0073743653883773545;-0.2175197429586037;-0.9637175509540884;0.992;0.001545870473408125
54:48.9;-0.008255881993772635;-0.21746810648239964;-0.9606624600121295;0.992;0.0017247647583066442
54:48.9;-0.008848434355298238;-0.21759972201768127;-0.9573646433716899;0.992;0.0018433260216906815
54:48.9;-0.009170978200595536;-0.2178466918549167;-0.953962632042244;0.991;0.0019058907117984714
54:48.9;-0.00925950427450975;-0.21812583452238477;-0.9506518242093466;0.983;0.0019200667558204087
54:48.9;-0.009159717941490864;-0.21834358659875006;-0.9476781380514807;0.976;0.001895323740017239
54:48.9;-0.008915374797942336;-0.21840364516350158;-0.9453216969315437;0.973;0.0018406834767006983
54:48.9;-0.008554193802940207;-0.21821647420243948;-0.94387251578374;0.97;0.0017618947442344665
54:48.9;-0.008075303118770197;-0.21770933987914265;-0.9436010276867439;0.968;0.0016589156314575912
54:49.0;-0.007443515645752567;-0.21683559071178235;-0.9447261146468476;0.955;0.0015248060046636086
54:49.0;-0.00659447198925116;-0.2155818982960989;-0.9473838606332419;0.955;0.001346847118853609
54:49.0;-0.005450504420365766;-0.21397188611155832;-0.9516019799320278;0.9590000000000001;0.0011098102921735875
54:49.0;-0.003942749029749501;-0.21206467013105795;-0.9572856233366062;0.971;0.0008004035229379812
54:49.0;-0.002033257810472093;-0.2099479146824474;-0.9642180707824951;0.982;0.00041160371044812245
54:49.0;0.0002684817112061273;-0.20772659880159045;-0.9720757960310246;0.992;5.42134377181543e-05
54:49.0;0.002898094184128772;-0.20550984542205203;-0.9804542177829133;1.004;0.0005839456761985831
54:49.0;0.005738462889600571;-0.2033984561733923;-0.9888993927327776;1.01;0.0011542379248867635
54:49.0;0.008629537126134856;-0.20147525017550108;-0.9969415438198433;1.02;0.0017333206027876295
54:49.0;0.01138301882776113;-0.19979918322037152;-1.0041278004881895;1.025;0.0022837057947596245
54:49.1;0.013799501695974619;-0.19840318065714868;-1.0100528933328707;1.038;0.002765388493051012
54:49.1;0.015686045287449532;-0.19729517437612457;-1.0143869400636194;1.038;0.0031393054695953763
54:49.1;0.01687244538304587;-0.19646167020215816;-1.0168990725212226;1.044;0.003370805656677499
54:49.1;0.017225120677693006;-0.19587283662367094;-1.017475446957199;1.048;0.003432894239843008
54:49.1;0.016658406395021818;-0.19548781249757657;-1.016130209123604;1.05;0.0033090437006917947
54:49.1;0.015143312497891403;-0.1952590700784476;-1.013007574171275;1.045;0.002995330810589926
54:49.1;0.012713029232300619;-0.19513535039891866;-1.0083728048243081;1.034;0.0025015323450107412
54:49.1;0.009463228887120161;-0.19506366215199433;-1.0025908520564324;1.024;0.001850714619436191
54:49.1;0.0055450425684862945;-0.19499135320304947;-0.9960939153000399;1.008;0.0010770119571243495
54:49.1;0.0011503642132182224;-0.19486880035881501;-0.9893419556517155;0.998;0.00022178087939994526
54:49.2;-0.003508259277451941;-0.194652447713846;-0.9827819908199112;0.987;0.0006711332276634082
54:49.2;-0.008218933579586973;-0.19430768883368876;-0.9768122146070926;0.987;0.0015599710491451277
54:49.2;-0.012787966185790346;-0.1938113417798787;-0.9717554542597217;0.987;0.002408450109225307
54:49.2;-0.01704992099933484;-0.19315359892673487;-0.9678435278573434;0.9840000000000001;0.0031873541847125338
54:49.2;-0.020869488523056763;-0.1923392597040812;-0.965211116366618;0.9790000000000001;0.003874378629609542
54:49.2;-0.0241373264744829;-0.19138799017668423;-0.9638967259083695;0.977;0.004452811919295335
54:49.2;-0.026763299945189972;-0.1903332959109013;-0.963849384393849;0.977;0.004909797764922967
54:49.2;-0.028670674973051334;-0.18921987367774026;-0.9649410165568112;0.983;0.005234864355466768
54:49.2;-0.029794118840126373;-0.18809932139488922;-0.9669842855419107;0.991;0.005419225100911398
54:49.2;-0.030082917687384858;-0.18702495763622973;-0.9697540704101629;0.996;0.005456085050945359
54:49.3;-0.02950917425060007;-0.186047237081422;-0.9730089823244221;0.997;0.0053419169426180135
54:49.3;-0.028079147625186568;-0.18521106884124508;-0.9765090710419027;0.997;0.00507840274821114
54:49.3;-0.02584431384264922;-0.18455501603712754;-0.9800277309284494;0.997;0.004674436068731898
54:49.3;-0.022907943565998977;-0.18411104382293958;-0.9833585159275252;0.998;0.004147418188655474
54:49.3;-0.019423976930393154;-0.18390357398740656;-0.986319250545188;1.003;0.003523269242901099
54:49.3;-0.015587389069144024;-0.18394791773779834;-0.9887557469343667;1.006;0.002835027477912426
54:49.3;-0.011617867215402424;-0.18424928231128124;-0.9905462247633612;1.008;0.002120347099284438
54:49.3;-0.007740354294697214;-0.18480347926944127;-0.991606293986239;1.012;0.0014184376746383235
54:49.3;-0.004166133597052163;-0.185599335998524;-0.991893666207798;1.015;0.0007669635556082781
54:49.3;-0.001076893850543924;-0.186621549325762;-0.9914114042948081;1.011;0.0001992455350371621
54:49.4;0.0013871077945052312;-0.18785237051545103;-0.9902085239453048;1.008;0.00025802010787926203
54:49.4;0.0031342824084526163;-0.18927135159410807;-0.9883775138181894;1.008;0.0005863350617851866
54:49.4;0.004124220300894133;-0.19085352503658912;-0.9860493339794852;1.008;0.0007761411065584987
54:49.4;0.004366002573670947;-0.19256694456493664;-0.9833864987839508;1.006;0.0008267800113825668
54:49.4;0.003913447604135682;-0.19437054350544974;-0.980573944542187;1.003;0.0007458823350858473
54:49.4;0.002858519609240269;-0.19621306371291597;-0.9778068403644823;0.996;0.0005484312154658029
54:49.4;0.0013237040513447605;-0.1980334919462452;-0.9752752365583555;0.988;0.0002556564420895741
54:49.4;-0.0005463129291866506;-0.19976320852630358;-0.9731471478502134;0.985;0.00010620268527593659
54:49.4;-0.0025933727315579857;-0.20132989592614672;-0.9715532101497006;0.9840000000000001;0.000507270725738804
54:49.4;-0.004654591628437654;-0.20266299039802194;-0.9705763026811263;0.983;0.0009155576888210269
54:49.5;-0.0065710039948458894;-0.20370016036071542;-0.9702483289697343;0.992;0.001298691522400096
54:49.5;-0.008196090336231733;-0.20439399000425812;-0.970554392334649;0.992;0.001625903393631284
54:49.5;-0.009403454313535746;-0.20471764319060956;-0.9714426461131594;0.997;0.0018700785850052513
54:49.5;-0.01009231812651032;-0.2046682000802834;-0.9728368730847486;1.001;0.0020094690666429193
54:49.5;-0.010190299589321663;-0.20426708486816772;-0.9746486249893591;1.002;0.0020287728191475695
54:49.5;-0.009654393883914085;-0.2035580673561718;-0.9767861806097978;1.001;0.001919609271784188
54:49.5;-0.00847166955718238;-0.20260384616411542;-0.9791586505246975;1.0;0.0016806208927905237
54:49.5;-0.006660566191018541;-0.20148202481729846;-0.9816753484887863;1.0;0.0013173929668179858
54:49.5;-0.004272432188656686;-0.20028077408641384;-0.984242251712221;1.001;0.0008422023409651747
54:49.5;-0.0013918062757763115;-0.1990941111634155;-0.9867580354851148;1.003;0.0002734310792813737
54:49.6;0.0018661586914581708;-0.1980168490151432;-0.9891117423931061;1.006;0.0003655073166055298
54:49.6;0.0053613476783527765;-0.19713971432428654;-0.9911832289023668;1.006;0.001047615799713726
54:49.6;0.008935941482323663;-0.19654527409151892;-0.9928467474996355;1.011;0.001743753688451625
54:49.6;0.012421779067037926;-0.19630475553297835;-0.9939775840874119;1.015;0.002423768917042804
54:49.6;0.01564789060360719;-0.19647499818807332;-0.9944612236683971;1.016;0.0030573907572605326
54:49.6;0.01844919248639237;-0.19709465953984187;-0.9942038064935314;1.0170000000000001;0.0036151609767953543
54:49.6;0.020676454692063986;-0.19817982079645932;-0.993142122424151;1.015;0.004069554861796516
54:49.6;0.02220627231223189;-0.1997202825534122;-0.9912515738327827;1.015;0.004396243334592254
54:49.6;0.02294941905253567;-0.20167794562576635;-0.9885511533376967;1.014;0.004575401941093283
54:49.6;0.022856552189820828;-0.2039879391511964;-0.9851048985499977;1.01;0.0045930131480397055
54:49.6;0.021920853710289546;-0.20656239768310386;-0.9810193965595808;1.005;0.004442079471815742
54:49.7;0.020177500670279354;-0.2092962751098161;-0.9764372626529721;0.997;0.004123568507061697
54:49.7;0.017700212987001685;-0.21207432228500872;-0.9715274059071609;0.992;0.003646881369539932
54:49.7;0.014595585294020864;-0.2147784202161945;-0.9664738222094538;0.986;0.0030297183278262508
54:49.7;0.010996006323051227;-0.2172947087775208;-0.9614650098147992;0.981;0.0022972994883649076
54:49.7;0.0070516154890513175;-0.21952016697559187;-0.9566857829947177;0.98;0.0014809226227249586
54:49.7;0.0029215423453750966;-0.22136837128458065;-0.952312376027885;0.981;0.000615895716401368
54:49.7;-0.001235007067958182;-0.22277391373020328;-0.9485103520756561;0.9790000000000001;0.00026096114721503697
54:49.7;-0.0052669315222567846;-0.2236946483184334;-0.9454334314773433;0.976;0.001113894915088864
54:49.7;-0.009038080205080328;-0.22411124758150935;-0.9432208247038535;0.972;0.0019105271992252506
54:49.7;-0.012432665521536991;-0.22402444695174534;-0.9419913653120254;0.97;0.0026236541490632253
54:49.8;-0.015359125844775607;-0.22345103411597636;-0.941834090686756;0.966;0.0032323864222051067
54:49.8;-0.017751962131707138;-0.22241980915383458;-0.9427962332884723;0.96;0.003722525361717703
54:49.8;-0.019571120286481464;-0.22096867105424542;-0.9448708710824472;0.9590000000000001;0.004086192765015252
54:49.8;-0.020798953087597258;-0.2191436933191342;-0.9479876794187457;0.966;0.004320889351445423
54:49.8;-0.02143514343175102;-0.2170003119404488;-0.9520102910478923;0.973;0.004428211904359506
54:49.8;-0.021490291673619925;-0.21460576307254253;-0.9567419434601203;0.978;0.0044124368628152355
54:49.8;-0.020979563982588018;-0.2120413321301901;-0.9619385610513206;0.9840000000000001;0.00427921706269735
54:49.8;-0.019918377359823214;-0.2094030894881987;-0.9673270645439881;0.993;0.004034691931087868
54:49.8;-0.018321608480335556;-0.20680014443796665;-0.9726266396345948;1.002;0.003685196046207383
54:49.9;-0.01620637441289948;-0.20434971438467456;-0.9775706715981004;1.005;0.003237487250817007
54:49.9;-0.013597245940159802;-0.2021688882123833;-0.9819267355493264;1.0070000000000001;0.0026992577731859897
54:49.9;-0.010532530973706936;-0.20036421947361024;-0.9855123314780836;1.0090000000000001;0.002079768407228211
54:49.9;-0.00707044219005478;-0.19902151211379157;-0.9882051871925261;1.016;0.0013905727881075166
54:49.9;-0.0032937901331181172;-0.1981982048734588;-0.98994776847973;1.018;0.0006462609607447938
54:49.9;0.000688365663726433;-0.19791951511380584;-0.990745438644068;1.015;0.0001349801477069746
54:49.9;0.004743079643531555;-0.19817814911711648;-0.9906576132215259;1.006;0.0009311931372415816
54:49.9;0.008719605219842051;-0.19893701868777983;-0.9897827098672837;1.001;0.001716928821082863
54:49.9;0.012458105430132533;-0.20013466168761945;-0.9882401883804396;1.003;0.002463977992322365
54:49.9;0.015800047914204866;-0.20169274827055067;-0.986154257136838;1.002;0.0031426320951251146
54:50.0;0.018599557258964707;-0.20352413692305635;-0.983642632809918;1.0;0.0037235386980810437
54:50.0;0.020734316419464622;-0.20553966465819834;-0.9808114127348582;1.0;0.004179947972384393
54:50.0;0.022113712615033677;-0.20765271812338204;-0.9777555403754458;1.0;0.004489826584719011
54:50.0;0.022682544797884063;-0.2097817432313499;-0.97456357500545;1.001;0.004637347516288707
54:50.0;0.022420881835738298;-0.21185133844680007;-0.9713246883793029;1.001;0.004613689140431247
54:50.0;0.02134243352126272;-0.21379258424107525;-0.9681351061882003;0.996;0.0044174591577894615
54:50.0;0.019493509193800825;-0.21554328188131647;-0.96510134332631;0.993;0.004055061437611976
54:50.0;0.016953099117421287;-0.21704873535774805;-0.9623387706595946;0.988;0.0035410686293505214
54:50.0;0.013833181999612204;-0.21826330161898969;-0.9599656389922695;0.986;0.002898401190761346
54:50.0;0.010277292681808863;-0.21915241608654795;-0.9580937963858418;0.981;0.0021579084511132588
54:50.1;0.006454867937115444;-0.21969465431088372;-0.9568177683958649;0.976;0.0013568632582899125
54:50.1;0.0025501887209768118;-0.21988340508257645;-0.9562041485879801;0.976;0.0005361859108028907
54:50.1;-0.0012521011472301797;-0.21972744295538554;-0.9562835822298021;0.976;0.00026309367955462546
54:50.1;-0.004781142141913586;-0.2192494749866431;-0.9570474022443947;0.9790000000000001;0.0010032372895740589
54:50.1;-0.007891701990804838;-0.21848233781872767;-0.958449835543119;0.98;0.00165255681062532
54:50.1;-0.010474255709638359;-0.21746374591425396;-0.9604152697470869;0.986;0.002187605936328658
54:50.1;-0.012463665931359516;-0.21623116836816977;-0.9628490138891282;0.992;0.0025949099112099893
54:50.1;-0.013844757384434475;-0.21481779177152008;-0.9656492838936229;0.996;0.00287193773698756
54:50.1;-0.014652105371447942;-0.21324948325207604;-0.968717735253982;0.997;0.003026810776734012
54:50.1;-0.014962705742095852;-0.21154262221593637;-0.9719661276010613;0.997;0.0030765157932897925
54:50.2;-0.014882599225241494;-0.20970347580688015;-0.9753178515718185;0.9990000000000001;0.003043901460301327
54:50.2;-0.014530342268616369;-0.20773004011682425;-0.9787046047164294;0.9990000000000001;0.0029541108043898614
54:50.2;-0.014020841113544824;-0.20561641161588948;-0.9820597821343879;0.9990000000000001;0.002831194913740961
54:50.2;-0.013452459633920097;-0.2033586350768904;-0.9853109206280226;0.9990000000000001;0.0026954892995623998
54:50.2;-0.012898866171516681;-0.2009605201906186;-0.9883738400278829;1.006;0.00256202595566305
54:50.2;-0.012405714331327505;-0.19843823670248237;-0.9911506473070252;1.01;0.002439983022982167
54:50.2;-0.011991559747092127;-0.1958230840893206;-0.9935322824280605;1.013;0.00233303656171349
54:50.2;-0.011652188333319557;-0.19316223576373023;-0.9954046012558858;1.014;0.0022404195976893915
54:50.2;-0.011367225418937109;-0.19051741179123305;-0.9966563467106904;1.014;0.002158413168718817
54:50.2;-0.011107279335801232;-0.18796144663156272;-0.9971879353421941;1.015;0.0020818694314079763
54:50.3;-0.01083951021473409;-0.18557288809429465;-0.9969207845399434;1.016;0.0020053253150074716
54:50.3;-0.010530399258174039;-0.18342945096482152;-0.9958069190148856;1.016;0.001923486060546705
54:50.3;-0.010146473398882479;-0.18160190567245027;-0.9938378362007487;1.016;0.0018312643855791086
54:50.3;-0.009655025929883848;-0.18014970894098425;-0.99105095257884;1.013;0.0017237845844601204
54:50.3;-0.009026342578844358;-0.17911826851528043;-0.9875320583183352;1.008;0.0015966248994159025
54:50.3;-0.008237620656212684;-0.1785364663121602;-0.983413035181431;1.0;0.0014463209734918768
54:50.3;-0.007277889331172269;-0.1784131646041267;-0.9788652280898501;0.9940000000000001;0.0012710283731486244
54:50.3;-0.006152726990633276;-0.17873287413035144;-0.9740897497036142;0.9890000000000001;0.0010712012169896274
54:50.3;-0.00488719786330357;-0.17945241753198382;-0.9693061781038456;0.986;0.0008501003920684631
54:50.3;-0.003525522099957609;-0.18050096119866116;-0.9647406019932105;0.982;0.0006139224527487956
54:50.4;-0.0021266929714385367;-0.1817847792982797;-0.9606133412283515;0.9740000000000001;0.00037137351392208293
54:50.4;-0.0007564686175450331;-0.18319614549775348;-0.9571266040483314;0.9740000000000001;0.00013264064818182877
54:50.4;0.0005224369344771506;-0.18462404306197108;-0.9544527634491557;0.9740000000000001;9.206118684549487e-05
54:50.4;0.0016595874200019316;-0.18596420101260117;-0.9527238907987924;0.968;0.00029403331380407324
54:50.4;0.002623758704695516;-0.1871273058222688;-0.9520225940064161;0.965;0.00046742109959077566
54:50.4;0.00340654005638013;-0.18804550670991665;-0.95237439867806;0.9640000000000001;0.0006100763265892986
54:50.4;0.0040219128059407845;-0.18867725496815646;-0.9537431597425059;0.965;0.0007237417668689535
54:50.4;0.004502000540918458;-0.18900966021981983;-0.9560317655300052;0.971;0.0008135080724516917
54:50.4;0.004890344008586009;-0.18905735010049907;-0.9590895833175842;0.9790000000000001;0.0008867315294371854
54:50.4;0.005234324277847199;-0.18885775126959714;-0.9627260942713898;0.983;0.0009516958646545291
54:50.5;0.005577771712781166;-0.18846387973674275;-0.9667282457058932;0.99;0.0010162329464433312
54:50.5;0.00595429811883573;-0.18793624695674124;-0.9708783754438278;0.99;0.0010864405155682523
54:50.5;0.006381920979594936;-0.18733531309447699;-0.9749703201997597;0.996;0.0011656347017780244
54:50.5;0.0068597932471393674;-0.1867153021338766;-0.9788227116030294;0.998;0.0012537038969642426
54:50.5;0.007367732074718097;-0.18611947448633623;-0.9822894578396925;1.003;0.001346992337598029
54:50.5;0.007868551567828992;-0.18557673216940804;-0.9852675104395342;1.008;0.0014387074096784678
54:50.5;0.008312436173458771;-0.18509984631529766;-0.9877015473416617;1.0090000000000001;0.0015197078819042399
54:50.5;0.008642467129662018;-0.18468587899718136;-0.9895848773489274;1.008;0.0015795176276119376
54:50.5;0.0088010135211257;-0.18431897116945492;-0.9909562021076472;1.011;0.0016075229649776248
54:50.5;0.008737220840121119;-0.18397507635867658;-0.9918926053027193;1.012;0.001594398794702297
54:50.6;0.008415462009392666;-0.18362800551985417;-0.9924994842954443;1.008;0.001533723848604803
54:50.6;0.007823611208216863;-0.1832560953444463;-0.992898124233997;1.008;0.0014235423086445761
54:50.6;0.006979424626434966;-0.18284854989725927;-0.9932119382203127;1.0090000000000001;0.0012675148991810475
54:50.6;0.005933574253918833;-0.18241018989090999;-0.9935528337213569;1.0090000000000001;0.0010753663520303987
54:50.6;0.0047683403267602216;-0.18196331095736654;-0.9940090198050231;1.0070000000000001;0.0008624648418180763
54:50.6;0.003591163460888002;-0.18154575379024285;-0.9946351283336923;1.006;0.0006484627931976463
54:50.6;0.0025226608299379898;-0.18120518603142452;-0.9954454689452442;1.004;0.0004550372612771898
54:50.6;0.0016800447027879159;-0.18099071906166728;-0.9964115502921818;1.005;0.00030298134994380773
54:50.6;0.001158930929923418;-0.18094369823421996;-0.9974651261545989;1.01;0.00020916968224830181
54:50.6;0.001017926360590117;-0.1810895522396849;-0.9985074378329138;1.013;0.000184060696168053
54:50.7;0.001269886167645658;-0.1814322354185821;-0.9994238739892962;1.025;0.00023026554767763098
54:50.7;0.0018814253505973805;-0.18195221248503374;-1.000101346329276;1.025;0.00034236419900537517
54:50.7;0.002779620209412987;-0.1826081514227668;-1.0004442674372502;1.022;0.0005078068099452144
54:50.7;0.0038634940013032018;-0.1833417722573593;-1.0003853959568987;1.02;0.0007086128286140129
54:50.7;0.005018041581494475;-0.18408491009238478;-0.9998901425548088;1.0170000000000001;0.0009236442530229846
54:50.7;0.006129116609665669;-0.18476772315855128;-0.9989555012433006;1.016;0.0011312800648282534
54:50.7;0.007097760965379523;-0.18532688997211594;-0.9976059354834043;1.014;0.0013122567987323979
54:50.7;0.007852485887337982;-0.1857125375369301;-0.9958883361784592;1.013;0.0014523090198718094
54:50.7;0.008357807900648646;-0.1858927599269955;-0.9938673822961666;1.012;0.0015441279994373824
54:50.7;0.008617424022696501;-0.18585511863800552;-0.9916217433410739;1.012;0.0015881738122029158
54:50.8;0.008671199631156834;-0.18560519050484012;-0.9892407468991913;1.0090000000000001;0.0015921035059849628
54:50.8;0.008586481765361734;-0.18516266708176363;-0.9868206492422256;1.004;0.001568942069256421
54:50.8;0.008445338988089605;-0.18455585497825522;-0.9844598542061197;0.997;0.0015344153150763826
54:50.8;0.00832967775724349;-0.18381594872919482;-0.9822533357538313;0.997;0.001503955211773885
54:50.8;0.00830645074504362;-0.18297268591051255;-0.980287365639766;0.9990000000000001;0.0014898932848429647
54:50.8;0.00841585738815392;-0.18205235708556183;-0.9786354050263462;0.998;0.0014993934085622738
54:50.8;0.008665483505247776;-0.18107821872307803;-0.9773547476272129;0.9940000000000001;0.0015335969654588011
54:50.8;0.009031775065383288;-0.18007309278333752;-0.9764826461605312;0.992;0.0015881315231856474
54:50.8;0.009468047062213353;-0.17906384113607865;-0.9760312745265848;0.991;0.0016547486603760231
54:50.8;0.009916737549983172;-0.17808643302568566;-0.9759823113272726;0.987;0.001723620304667485
54:50.9;0.010322865580985136;-0.17718908011557102;-0.9762830344311891;0.983;0.0017857183771076424
54:50.9;0.010645335600785918;-0.17643105808759638;-0.976846376404794;0.9840000000000001;0.001834681432904617
54:50.9;0.010863202756431736;-0.17587664247633783;-0.9775573456459232;0.99;0.0018677050593779417
54:50.9;0.010975637705414357;-0.17558561648009682;-0.9782869047530729;0.9990000000000001;0.0018853194148303976
54:50.9;0.010996611234105665;-0.17560282064919663;-0.9789116596264362;1.005;0.0018903136068982606
54:50.9;0.010946932480093664;-0.17594925861201632;-0.9793348372117684;1.0070000000000001;0.0018863013877272695
54:50.9;0.010846289249765774;-0.17661686505385096;-0.9795028533370963;1.004;0.0018763724998231582
54:50.9;0.010706951876282745;-0.17756824694967716;-0.9794131221008924;1.0;0.0018620746004750358
54:50.9;0.010530035546893718;-0.17874144196514496;-0.979111837668074;0.995;0.0018428390047914702
54:50.9;0.010304875247433941;-0.18005832043977502;-0.9786835534129461;0.995;0.001815926320429106
54:50.9;0.010011531137906168;-0.18143431059571438;-0.978236021138307;0.9940000000000001;0.0017769023916286049
54:51.0;0.00962551183660715;-0.18278722821461588;-0.9778834885988594;0.9940000000000001;0.001720508382365016
54:51.0;0.009123037354177282;-0.18404415825459558;-0.9777303111962676;0.992;0.0016416499937464098
54:51.0;0.008485280620628139;-0.18514662837738077;-0.9778557089213018;0.99;0.0015362319492659825
54:51.0;0.0077011172385603;-0.1860546450449269;-0.9783005093885796;0.988;0.0014017369827725944
54:51.0;0.006769124962490787;-0.18674957143091783;-0.9790574215030811;0.987;0.0012376570191204
54:51.0;0.005699838078390902;-0.18723524210235692;-0.9800669530539023;0.991;0.001045937804307038
54:51.0;0.004518426739263516;-0.1875366393183287;-0.9812208203168216;0.995;0.0008314576415762708
54:51.0;0.0032669154888352193;-0.18769577801764792;-0.9823733647376621;1.003;0.0006023778341170006
54:51.0;0.002004659127883947;-0.18776505575046729;-0.9833594698791406;1.004;0.0003701413552841199
54:51.1;0.0008061668273141252;-0.18779906566743876;-0.9840157593334238;1.006;0.00014897740483235203
54:51.1;-0.00024385612519141095;-0.18784639755566493;-0.9842014777573088;1.006;4.508380391615216e-05
54:51.1;-0.0010574954220818424;-0.18794302064674448;-0.9838164111187264;1.006;0.00019553241371776878
54:51.1;-0.0015511711486138572;-0.18810836002280013;-0.9828144642375132;1.006;0.0002867737232880013
54:51.1;-0.001652096868328265;-0.1883443619624187;-0.9812122521469775;1.004;0.0003053170761271773
54:51.1;-0.0013027409603776033;-0.18863729730338682;-0.9790922671458343;1.004;0.00024060755188016664
54:51.1;-0.00046373467413864285;-0.18896193494928187;-0.9766001907454184;1.002;8.557771813190808e-05
54:51.1;0.0008834828384302384;-0.18928741452403908;-0.9739359145845365;0.9990000000000001;0.0001628734283801067
54:51.1;0.002733449257223662;-0.18958345434749196;-0.9713379578355817;0.9940000000000001;0.0005033636020585008
54:51.1;0.005053202198617259;-0.1898251956463073;-0.9690614691950673;0.9890000000000001;0.0009295480808116314
54:51.2;0.00777970758638982;-0.18999560061347065;-0.9673509922459637;0.977;0.0014298513835869996
54:51.2;0.010819736954728832;-0.1900855429537637;-0.9664105145010636;0.977;0.0019875928992991792
54:51.2;0.014053779219003157;-0.19009270629584218;-0.9663745680690439;0.97;0.0025816898803945883
54:51.2;0.017345108824225207;-0.19002062370202585;-0.9672847227824956;0.9670000000000001;0.0031881011857632343
54:51.2;0.02055364614568327;-0.18987878388675863;-0.9690757970113171;0.9690000000000001;0.0037820134063063135
54:51.2;0.023551777788208036;-0.18968395615555858;-0.971575851611296;0.976;0.0043404125044434645
54:51.2;0.02623751313536349;-0.1894618477878878;-0.9745228262505421;0.9890000000000001;0.004844360492592991
54:51.2;0.028541241762020372;-0.18924732179898104;-0.9775976219731303;1.006;0.005280350399875814
54:51.2;0.030425524442770833;-0.18908141912597531;-0.9804689859943075;1.02;0.005640541342660095
54:51.2;0.03188013642227528;-0.18900478146680671;-0.9828413556555102;1.026;0.005922108836709555
54:51.3;0.03291524525340118;-0.18904921381876647;-0.9844950288102887;1.016;0.006126119984890112
54:51.3;0.0335548704862311;-0.18923045292910332;-0.9853102948555466;1.016;0.006256329539236798
54:51.3;0.03383199080248708;-0.18954458120328016;-0.9852725834446704;1.0090000000000001;0.006318228457833721
54:51.3;0.033786077513037964;-0.18996875787514692;-0.9844608591389138;1.004;0.006318564323600002
54:51.3;0.03346310950330532;-0.19046551632464065;-0.983024082178041;0.9990000000000001;0.006265371255485335
54:51.3;0.032917258689301246;-0.19098922349520359;-0.9811511042205014;0.993;0.006168341653114809
54:51.3;0.03221262454793715;-0.19149331894308844;-0.9790390954969651;0.987;0.006039204997100827
54:51.3;0.03142299629607015;-0.1919374919323881;-0.9768650929810084;0.983;0.005891718664706422
54:51.3;0.03062828729322386;-0.1922942498702677;-0.9747647622243056;0.982;0.005741016974971397
54:51.3;0.029908058467455964;-0.1925538268059183;-0.9728216733789514;0.983;0.005602393543108003
54:51.4;0.029334123348671776;-0.19272590334225367;-0.9710686739434676;0.993;0.005489883748304461
54:51.4;0.028964253292148977;-0.1928373231377259;-0.9695001206873668;0.993;0.0054150353789449695
54:51.4;0.02883768186274202;-0.19292659610847981;-0.9680906984255966;0.997;0.005386026621543955
54:51.4;0.028971918801083945;-0.1930369127604654;-0.9668149967352597;0.996;0.005407057661494022
54:51.4;0.029360434289465775;-0.19320886776525942;-0.9656626924586417;0.992;0.0054779111498839935
54:51.4;0.029971666776991562;-0.19347309325524853;-0.9646462874283191;0.985;0.005593705116503497
54:51.4;0.03075022681012299;-0.1938428952998757;-0.9638009586454241;0.982;0.005744940899757064
54:51.4;0.031620539417835894;-0.1943079100007543;-0.963178444491646;0.98;0.00591788483759874
54:51.4;0.03249228576537124;-0.1948307441808965;-0.9628379595191796;0.981;0.00609524205917018
54:51.4;0.0332668589506535;-0.19534852864886082;-0.9628365574469997;0.981;0.006257120413677792
54:51.5;0.033844619914658786;-0.1957801257552226;-0.9632201403230417;0.981;0.006382396769800039
54:51.5;0.034133224133980136;-0.19603795771100163;-0.9640156322707545;0.981;0.006450621479436453
54:51.5;0.03405701735797502;-0.19604193593705072;-0.9652249811572657;0.981;0.006444424598578622
54:51.5;0.03356643728843575;-0.19573256442687073;-0.9668221211650389;0.982;0.006352064697194264
54:51.5;0.03264508406444496;-0.195080846236611;-0.9687542533970432;0.986;0.006169444255197553
54:51.5;0.03131169423436611;-0.19409324898875946;-0.9709483469036959;0.997;0.005900830283865619
54:51.5;0.029615531761572444;-0.19281051175548006;-0.9733221933256999;1.002;0.00555785060108275
54:51.5;0.02762614131060669;-0.19130031836135503;-0.975796957076899;1.003;0.0051569792173089875
54:51.5;0.025420335427404926;-0.1896459629174872;-0.9783066687012503;1.0;0.004716283390138435
54:51.5;0.023069819587898135;-0.18793463872752064;-0.9808011766598851;0.998;0.0042523794416813344
54:51.6;0.02063242638400842;-0.18624835321303063;-0.9832421984680927;0.997;0.003778359303864922
54:51.6;0.018148966320752302;-0.1846583244395554;-0.9855950627793936;0.997;0.0033030816136678516
54:51.6;0.015646126273480294;-0.18322221743889178;-0.987819895021098;0.997;0.0028318010245781617
54:51.6;0.013144057986702545;-0.18198345410568093;-0.9898655689055694;1.001;0.0023677595033294624
54:51.6;0.01066615338102756;-0.18097205989737095;-0.9916686433278668;1.005;0.0019141939328091604
54:51.6;0.008248163589763078;-0.18020652928554448;-0.9931579938115463;1.014;0.0014762031606813091
54:51.6;0.005943963834585087;-0.1796960024575323;-0.9942639219038003;1.016;0.001061979797299575
54:51.6;0.0038259150605856464;-0.179441730069624;-0.9949289024294653;1.014;0.0006830473629520327
54:51.6;0.001979046257621385;-0.17943715453726358;-0.9951168602996111;1.015;0.0003533803557979641
54:51.6;0.00049014569625702;-0.17966718228500986;-0.9948190056244965;1.014;8.760684174975138e-05
54:51.7;-0.0005650596224101741;-0.18010788465517685;-0.9940557203441416;1.01;0.00010116673389034567
54:51.7;-0.0011325348117458053;-0.18072722702658303;-0.9928749799131052;1.01;0.00020322152780973953
54:51.7;-0.0011857700538265173;-0.1814867879712017;-0.9913482555901156;1.01;0.00021333972911596508
54:51.7;-0.0007267684532267543;-0.18234455824024923;-0.9895647088048785;1.008;0.0001311393640427189
54:51.7;0.00021657896137414743;-0.1832589115710966;-0.9876239111385751;1.006;3.919881745764646e-05
54:51.7;0.0015953975872137441;-0.18419307865392415;-0.9856271133139388;0.9990000000000001;0.0002896375596336999
54:51.7;0.0033454358317331974;-0.18511867117004757;-0.9836677819109846;0.995;0.000609188049946491
54:51.7;0.005391686298957498;-0.1860169266270457;-0.9818232276919447;0.9940000000000001;0.0009847146133177601
54:51.7;0.007651219879941971;-0.1868771915436834;-0.980149623885054;0.9940000000000001;0.001401455651374652
54:51.7;0.01003485529969674;-0.1876930111085956;-0.9786819339261016;0.996;0.0018433202222768548
54:51.8;0.012449084884379779;-0.18845686610821732;-0.977438553601162;1.0;0.002293183763602661
54:51.8;0.014799304013966537;-0.18915511498436943;-0.9764286409900991;1.0;0.002733379237370759
54:51.8;0.01699434588721118;-0.1897647795007492;-0.9756589617654319;0.9990000000000001;0.003146430196990931
54:51.8;0.018951674738505047;-0.19025329790207196;-0.9751372969355739;0.995;0.0035159731946611157
54:51.8;0.020602686568056614;-0.19058152312177445;-0.9748710985219755;0.991;0.0038278229713340594
54:51.8;0.021897747741067224;-0.19070942127543483;-0.9748622629651155;0.99;0.004071128924393185
54:51.8;0.022810403723503334;-0.1906033094243396;-0.975100467699223;0.99;0.004239481785307679
54:51.8;0.02333978445473133;-0.19024310404207428;-0.9755578488900886;0.99;0.004331704195356919
54:51.8;0.023510079889280878;-0.1896278856083336;-0.976187133737363;0.991;0.004352005011533865
54:51.8;0.023366586257788216;-0.1887781266815283;-0.9769243779336048;0.9940000000000001;0.004309311495405923
54:51.9;0.02296919120270712;-0.18773349307786003;-0.9776964035689248;1.0;0.00421591146063782
54:51.9;0.02238516049926204;-0.18654662200847635;-0.9784316160708584;1.0;0.004085809175844865
54:51.9;0.02168262510327292;-0.18527522057625456;-0.9790714817827397;1.002;0.003933177992975605
54:51.9;0.02092496928598781;-0.18397552469349845;-0.9795796369495191;1.002;0.003771070295358767
54:51.9;0.020166148665686532;-0.18269872439355517;-0.9799465814617091;1.001;0.003610446232904891
54:51.9;0.019447901482690755;-0.18148983911305994;-0.9801892511116521;0.9990000000000001;0.0034596725610200056
54:51.9;0.01880006971606032;-0.18038762632581684;-0.9803458481943896;0.996;0.0033246468267878267
54:51.9;0.018243863381753565;-0.17942458336573708;-0.9804672286495377;0.9940000000000001;0.0032094590596611345
54:51.9;0.01779622896103429;-0.17862675026054659;-0.9806068547352161;0.9940000000000001;0.003117234015203994
54:51.9;0.01747315305988646;-0.1780130454589889;-0.9808115129482318;0.992;0.003050764375954681
54:52.0;0.017290437207411507;-0.17759379673713793;-0.9811145372126377;0.996;0.0030126832839676627
54:52.0;0.017261345933082935;-0.1773687171682516;-0.9815323598137964;0.996;0.0030050818367737217
54:52.0;0.01739172884732966;-0.17732533955094734;-0.9820641794368686;0.9990000000000001;0.0030286802562251376
54:52.0;0.01767454083537173;-0.17743885861657321;-0.9826937545841954;1.001;0.0030818753647408707
54:52.0;0.018086070748004116;-0.17767355458028075;-0.9833920077421757;1.0;0.0031600480821974116
54:52.0;0.018585425038070442;-0.1779855304611747;-0.9841192924417907;0.9990000000000001;0.0032554043583497257
54:52.0;0.01911780237844089;-0.17832674081045333;-0.9848268799996268;0.998;0.0033574869553920903
54:52.0;0.01962145529758661;-0.17865039017678427;-0.9854582311385642;0.9990000000000001;0.003454406209642871
54:52.0;0.020037445510397215;-0.17891708130060463;-0.9859512873365549;1.0;0.0035346760527873136
54:52.0;0.02031979697507817;-0.17910011332770998;-0.9862429279806683;1.004;0.003589212132299408
54:52.1;0.020442518844855612;-0.17918804966700896;-0.986275932435518;1.0070000000000001;0.003612783066651722
54:52.1;0.020400901471246107;-0.17918358964211173;-0.9860075094640538;1.0070000000000001;0.003604357113843769
54:52.1;0.02020708290915985;-0.1790995040743984;-0.9854172947429152;1.0070000000000001;0.0035663025723473257
54:52.1;0.019881994585546594;-0.17895369821219206;-0.9845124667404923;1.005;0.0035028524899249638
54:52.1;0.019446509086961952;-0.17876534796372867;-0.9833284481786455;1.002;0.003418405614984446
54:52.1;0.018914592051326954;-0.17855282663358055;-0.981924918067762;0.997;0.0033162097348819215
54:52.1;0.01829054376360855;-0.17833294168877792;-0.9803780458738004;0.993;0.0031978034574414132
54:52.1;0.01757068985045024;-0.178120642009978;-0.9787708105162102;0.991;0.0030632615081158817
54:52.1;0.01674807163371126;-0.1779286778648286;-0.9771836887042651;0.9890000000000001;0.0029119704963956328
54:52.1;0.015817925118648962;-0.1777670658563129;-0.9756876523041296;0.988;0.002743542096603776
54:52.2;0.014782017330795278;-0.17764246964124963;-0.9743405310932216;0.991;0.0025585345046214825
54:52.2;0.013650879808919061;-0.17755786246765076;-0.9731867059699281;0.991;0.002358830413461415
54:52.2;0.012444279959071134;-0.17751286575792585;-0.9722590279811997;0.9890000000000001;0.002147739441428101
54:52.2;0.011190943960236455;-0.177504861181139;-0.9715813677600944;0.987;0.0019299948486936743
54:52.2;0.009928108255735165;-0.1775306485799964;-0.9711707181538209;0.988;0.001711730634548477
54:52.2;0.008700854656366795;-0.17758820796227734;-0.9710386574428865;0.9890000000000001;0.0015004190120552119
54:52.2;0.007561048551976594;-0.17767800285582872;-0.971192227818891;0.9890000000000001;0.0013047307230354156
54:52.2;0.006565585495414036;-0.1778034077790703;-0.9716339652476487;0.987;0.0011342694349240413
54:52.2;0.0057733924408182955;-0.17797028684030267;-0.9723608105577717;0.987;0.0009990932541625338
54:52.2;0.005240784989821167;-0.1781860376742187;-0.9733622007035527;0.99;0.0009089594100140654
54:52.3;0.005015544728728229;-0.17845818431889965;-0.9746180995488539;0.99;0.0008723465547881249
54:52.3;0.005130852196569149;-0.17879239303386377;-0.9760975836417263;0.99;0.000895430285377239
54:52.3;0.005600356291763576;-0.17919029222704386;-0.9777582530885113;0.993;0.000981209231773254
54:52.3;0.006415376522660185;-0.17964810150082317;-0.9795466551661391;0.9940000000000001;0.0011289375239037743
54:52.3;0.0075450905850351375;-0.18015678732398094;-0.9813999204785097;0.996;0.0013340162051692906
54:52.3;0.008940269795246371;-0.1807036077665525;-0.9832487337920214;0.998;0.001588476682441654
54:52.3;0.010539958182236896;-0.18127442880981184;-0.985021694418137;1.004;0.0018820069755722973
54:52.3;0.012278964378010186;-0.1818561014044545;-0.986650850409356;1.0090000000000001;0.002203195878746328
54:52.3;0.014093679252504489;-0.1824380364988555;-0.9880773798748622;1.01;0.002540567452760245
54:52.3;0.01592488251486618;-0.18301212431579497;-0.9892555609820713;1.008;0.002883132484991145
54:52.4;0.017717574224093594;-0.18357093027735533;-0.9901534123872641;1.006;0.0032204062300426996
54:52.4;0.019418672577027216;-0.18410526998557475;-0.9907498479827987;1.006;0.003542009924474038
54:52.4;0.020974070248380643;-0.18460251071384962;-0.9910297799043478;1.003;0.0038371345372900183
54:52.4;0.022326945998213017;-0.185046125131872;-0.9909793702837137;1.002;0.00409424597743185
54:52.4;0.02341864580662929;-0.1854163170788538;-0.9905835690729681;1.006;0.004301311038952963
54:52.4;0.02419220976179555;-0.1856913726787966;-0.989827362214777;1.0090000000000001;0.004446586254342552
54:52.4;0.024597799758479463;-0.18584925464013938;-0.9887007154201407;1.01;0.004519828266346462
54:52.4;0.024598989262316243;-0.18586891356706386;-0.9872055245296562;1.0070000000000001;0.004513688669383882
54:52.4;0.024178592106327283;-0.18573135671927696;-0.9853621445878238;1.004;0.004424988165664939
54:52.4;0.023342613955541953;-0.1854212967984327;-0.9832137779270043;1.003;0.004255563325964933
54:52.5;0.022121541835794296;-0.1849300495708451;-0.980828316143337;1.0;0.004012507661555974
54:52.5;0.020569199023856486;-0.18425916722791852;-0.9782979851509532;1.0;0.0037078114687011353
54:52.5;0.018759827489800242;-0.18342341485794142;-0.9757370263064574;0.997;0.0033575029311613963
54:52.5;0.016783830436067824;-0.18245193242194618;-0.9732771251784467;0.996;0.0029804103789401386
54:52.5;0.014742556372465562;-0.18138712105410382;-0.9710599484179872;0.99;0.002596720980170833
54:52.5;0.01274279528395409;-0.1802812836365644;-0.9692263677076294;0.983;0.0022265916103941
54:52.5;0.01089146576836307;-0.1791915851171121;-0.9679029112667195;0.977;0.001889016442691139
54:52.5;0.009290168270651378;-0.17817453710243172;-0.9671874430436906;0.9740000000000001;0.0016009577431117198
54:52.5;0.008028926895153965;-0.17728123654958108;-0.9671372197999615;0.975;0.001376601926887018
54:52.5;0.007179140580672504;-0.176553799227366;-0.9677624021037031;0.98;0.0012266432428611575
54:52.6;0.006786750074464506;-0.17602272461195073;-0.9690265012644861;0.988;0.0011576206089471326
54:52.6;0.0068669408504260015;-0.17570498413199026;-0.9708527404965126;0.988;0.0011713879400995983
54:52.6;0.007401325289488601;-0.1756030677439332;-0.9731333677879815;0.988;0.0012647769872014616
54:52.6;0.008338086902148467;-0.17570539635304064;-0.9757390367639004;0.991;0.0014295034158622003
54:52.6;0.009595343142510007;-0.17598823882762346;-0.9785271792250715;0.993;0.0016524070851493702
54:52.6;0.01106780185850108;-0.17641878543141162;-0.9813499195492531;0.997;0.0019161526079789857
54:52.6;0.012636444624465155;-0.17695862698250805;-0.9840623520742185;1.002;0.002200489271647077
54:52.6;0.014180424378243694;-0.17756689097304862;-0.9865312831650028;1.0070000000000001;0.0024840599924766294
54:52.6;0.015589672405769911;-0.1782027781050782;-0.9886435666343778;1.0090000000000001;0.00274657336449233
54:52.6;0.016776205760667635;-0.17882777737328295;-0.9903125533729098;1.0090000000000001;0.002970988749290714
54:52.7;0.017682203927847563;-0.17940790694882836;-0.9914814342396175;1.008;0.003145303519096921
54:52.7;0.018283577071899242;-0.17991599467955752;-0.9921232878361919;1.0090000000000001;0.0032635974478675066
54:52.7;0.01858866602923494;-0.18033364137473948;-0.9922386870312826;1.0090000000000001;0.003326144656240431
54:52.7;0.01863262359820712;-0.1806523277321875;-0.9918520874790921;1.008;0.0033386007326625176
54:52.7;0.018468831925320082;-0.18087326468784826;-0.9910079620913279;1.0070000000000001;0.0033104798614848707
54:52.7;0.01815931523297281;-0.18100596064572505;-0.9897672736566839;1.005;0.0032533098969014106
54:52.7;0.017766141083426393;-0.18106573349354968;-0.9882046542193035;1.006;0.003178895633970242
54:52.7;0.01734506347863328;-0.18107049207453146;-0.9864063522832472;1.004;0.003097985892787542
54:52.7;0.016941661859863816;-0.18103735841048865;-0.9844684293186498;1.004;0.0030194372380786907
54:52.7;0.016589557143192046;-0.1809800091011914;-0.9824941496302316;1.002;0.0029498190191886674
54:52.8;0.016310045196382;-0.18090755828238034;-0.9805894978243975;0.995;0.0028933376213557504
54:52.8;0.016112718237248767;-0.18082524297283717;-0.9788564904011567;0.995;0.0028519827526237505
54:52.8;0.01599716089884484;-0.18073635474153132;-0.9773850968851888;0.992;0.0028258827890000637
54:52.8;0.01595588817080451;-0.18064435428954356;-0.9762452844413898;0.9890000000000001;0.002813871922384067
54:52.8;0.015977963007693004;-0.18055433093097084;-0.9754805800775873;0.9890000000000001;0.002814154580843579
54:52.8;0.016051893172267923;-0.1804735779882291;-0.9751041467428054;0.99;0.002824820736562206
54:52.8;0.016166416035567545;-0.1804113687665628;-0.9750979431172446;0.99;0.0028439757753102595
54:52.8;0.016308727272733803;-0.1803779581432859;-0.9754149620527542;0.99;0.002869412260600448
54:52.8;0.01646096123726794;-0.1803828613134137;-0.975984169882752;0.9890000000000001;0.0028979656770608906
54:52.8;0.016596780635802475;-0.18043279630256936;-0.9767178846411371;0.991;0.0029248828346719316
54:52.9;0.016680383617988438;-0.18053000527066015;-0.9775214348235771;1.001;0.0029436198201595303
54:52.9;0.016669403782929058;-0.18067154842791178;-0.9783042673258737;1.001;0.0029463462369372587
54:52.9;0.016521166504169352;-0.18084957522007808;-0.9789904136059192;1.001;0.0029250725369177302
54:52.9;0.016200223963520995;-0.18105206893782602;-0.9795257757216825;0.9990000000000001;0.0028730314448602184
54:52.9;0.015685090451261634;-0.18126360206589587;-0.9798808673918166;0.997;0.002785934563840194
54:52.9;0.014972739671472576;-0.1814660206930553;-0.9800494734014356;0.995;0.002662837038697222
54:52.9;0.0140799718443705;-0.18163928257994008;-0.9800448822645289;0.996;0.0025064412501797344
54:52.9;0.013041664854372;-0.1817627752959743;-0.9798955136097292;0.997;0.0023228317305828924
54:52.9;0.011906954421441272;-0.1818172882107893;-0.9796410512727064;0.9990000000000001;0.0021208152759117907
54:52.9;0.010734392948955817;-0.18178745084601167;-0.9793290824725872;0.997;0.0019110411583024521
54:53.0;0.009586226737992599;-0.18166413259262884;-0.9790115532859196;0.9940000000000001;0.001704922740066644
54:53.0;0.008521730322874104;-0.18144624779588858;-0.9787406450656287;0.9940000000000001;0.00151336401205168
54:53.0;0.007590574533637704;-0.18114166111743146;-0.9785645529403997;0.9940000000000001;0.001345496198651816
54:53.0;0.006827953465286141;-0.18076721000898632;-0.978524068303507;0.996;0.001207762997671488
54:53.0;0.006252641669250878;-0.18034791428086522;-0.9786503904844815;0.997;0.0011035759777561704
54:53.0;0.00586809320870127;-0.17991525129184047;-0.9789637991789255;0.995;0.0010335502961387724
54:53.0;0.0056658107292897305;-0.17950426336513786;-0.9794725544554587;0.9940000000000001;0.0009961600059709746
54:53.0;0.005629475152764749;-0.17914936547673255;-0.9801719303295863;0.9940000000000001;0.000988519958196423
54:53.0;0.005738163122301988;-0.1788790101527472;-0.9810439887801152;0.997;0.0010069797892723717
54:53.0;0.0059677730448944016;-0.17870995602867604;-0.9820586203797171;0.9990000000000001;0.0010473659688520793
54:53.1;0.006290970521791703;-0.17864271213086566;-0.9831754870566052;1.0;0.001104928042015133
54:53.1;0.006676786603779209;-0.17866007508612858;-0.984345783882185;1.0;0.00117420166984603
54:53.1;0.007091153536092902;-0.17872989883586327;-0.9855129835445392;0.997;0.001249040292759828
54:53.1;0.007499138967368757;-0.17881174803719152;-0.986612849963278;0.998;0.001322982860906692
54:53.1;0.007868816799895022;-0.17886569309589173;-0.9875742868290542;1.0;0.001389972659465597
54:53.1;0.00817620462285879;-0.17886058893517096;-0.9883230200568053;1.005;0.0014453243495909244
54:53.1;0.008410504266606217;-0.17877920782574358;-0.9887890774839063;1.0090000000000001;0.0014867662859990823
54:53.1;0.008578375798717263;-0.17861904260212336;-0.9889170248064919;1.012;0.001515279258577804
54:53.1;0.008705274915948125;-0.1783897567467281;-0.9886761901385412;1.013;0.0015353467693928252
54:53.1;0.008832201388323737;-0.17810943840024016;-0.9880675666291138;1.012;0.0015543275369209355
54:53.2;0.00900807840618895;-0.17780130273660755;-0.9871248957234531;1.001;0.001581026689783979
54:53.2;0.009280099180934432;-0.17749131873027318;-0.9859093887631803;1.001;0.0016239278738652272
54:53.2;0.009685045823635711;-0.17720658896222247;-0.9844998803243982;0.997;0.0016896517929731662
54:53.2;0.010243702460088508;-0.17697419051804172;-0.982981499353737;0.9940000000000001;0.0017820186053343642
54:53.2;0.010959106243272522;-0.17682012096465036;-0.981435602650121;0.9940000000000001;0.0019018165789330243
54:53.2;0.011818129414368998;-0.17676803469435082;-0.9799326402077404;0.9940000000000001;0.002047145440981164
54:53.2;0.012794986144523023;-0.17683780687967002;-0.9785285466681269;0.9940000000000001;0.0022140551778986484
54:53.2;0.013855151789414995;-0.17704429219379011;-0.9772642547649066;0.993;0.0023972053148083473
54:53.2;0.014958886086651272;-0.17739650886566372;-0.9761673281606137;0.991;0.002590410499322985
54:53.2;0.016064311420244805;-0.17789704550957627;-0.9752547999987297;0.991;0.002787076867102426
54:53.3;0.017130251059233794;-0.17854130618637806;-0.9745367347783186;0.992;0.0029805790874856395
54:53.3;0.018118916767450987;-0.17931647777812706;-0.9740201924098641;0.992;0.003164611412711385
54:53.3;0.018998363742577667;-0.18020053226731686;-0.9737129650322669;0.995;0.0033335211933046625
54:53.3;0.019744467181834063;-0.1811618575774246;-0.9736259882953069;0.995;0.003482605979343069
54:53.3;0.02034191160064617;-0.18216015709907094;-0.9737731380606316;0.992;0.0036083025480367127
54:53.3;0.020783468918046964;-0.183149013711593;-0.9741676367783754;0.9890000000000001;0.003708141670841061
54:53.3;0.021067154971075912;-0.18407995445896105;-0.9748156071660316;0.988;0.003780374821507245
54:53.3;0.021191814697567132;-0.18490720622811668;-0.9757087303018148;0.988;0.0038233334426964697
54:53.3;0.021152716382505626;-0.18559202186968823;-0.9768185884711855;0.988;0.0038347703863142327
54:53.3;0.020939097441317025;-0.18610571537865775;-0.9780949186889377;0.992;0.0038115241103907427
54:53.4;0.020534920254574606;-0.18643118703094505;-0.9794689415333854;1.001;0.003749749490026938
54:53.4;0.019922648462710055;-0.1865632774022936;-0.9808612863068548;1.001;0.003645699158640922
54:53.4;0.019088537763723386;-0.18650839323222654;-0.9821923257776322;1.005;0.003496774115276365
54:53.4;0.018027489300280107;-0.18628354054914145;-0.9833920513594457;1.0070000000000001;0.0033024513134826934
54:53.4;0.016745937723870393;-0.18591455588264158;-0.9844072061231334;1.005;0.0030647683179262715
54:53.4;0.015262196263106724;-0.18543330322702076;-0.9852044429108137;1.003;0.0027882462734153675
54:53.4;0.013604786153688106;-0.184873975927568;-0.9857694170020432;1.001;0.0024793785595180603
54:53.4;0.011809900303394866;-0.18426911710661423;-0.9861029398204567;1.001;0.002145957121022568
54:53.4;0.009918764922366673;-0.1836461604714079;-0.9862160610247208;1.002;0.0017964350557541607
54:53.4;0.007974703862763189;-0.18302511859497733;-0.9861257387342313;1.001;0.0014393206491838473
54:53.5;0.00601938583781736;-0.1824177435234311;-0.9858519633590442;1.002;0.0010825076324194362
54:53.5;0.004088712353816942;-0.18182820835229735;-0.985416508987594;1.002;0.0007326012439279626
54:53.5;0.0022101859526364254;-0.18125505443699003;-0.9848431096973989;1.001;0.0003945354131212579
54:53.5;0.0004036302586513386;-0.18069390462554955;-0.9841586428551616;1.001;7.177816140439255e-05
54:53.5;-0.001314647151199776;-0.18014045680362528;-0.9833948345181113;1.001;0.00023288868416075623
54:53.5;-0.0029262101018929496;-0.1795934127245692;-0.9825900703823393;1.001;0.0005163786520366364
54:53.5;-0.004406000075463795;-0.17905700927017948;-0.9817908345624896;1.002;0.0007745595269384522
54:53.5;-0.005720777712936331;-0.17854278191093892;-0.9810519549340367;1.001;0.0010020499667330557
54:53.5;-0.0068307824311719;-0.17807027958502214;-0.980434529933017;1.0;0.0011925606950985359
54:53.5;-0.007693538750076386;-0.17766660837490755;-0.9800005968266512;0.998;0.001339548053197816
54:53.6;-0.008268124656422836;-0.17736477276126383;-0.9798044085407954;0.988;0.0014368577400317832
54:53.6;-0.008518782004816247;-0.17720076774288013;-0.9798816033893095;0.988;0.0014791652934643574
54:53.6;-0.008418078842887778;-0.17720930680896926;-0.9802391992707905;0.987;0.001462283506445764
54:53.6;-0.00795054077004126;-0.17741814407233034;-0.9808500279535386;0.99;0.0013835578081263255
54:53.6;-0.007116968690737252;-0.1778414341883125;-0.981654107016959;0.996;0.0012424716705379314
54:53.6;-0.005938446275451951;-0.17847346872719708;-0.9825671167614998;1.002;0.0010413787753238374
54:53.6;-0.004458587374877078;-0.17928487232318527;-0.9834937296201766;1.005;0.0007861628610468472
54:53.6;-0.002743039745280582;-0.18022318091924874;-0.9843419808292163;1.008;0.0004866186601297305
54:53.6;-0.0008759398096246181;-0.1812184974516267;-0.985034860522543;1.006;0.00015636098235306635
54:53.6;0.0010466121237911288;-0.18219325378813883;-0.9855167755251171;1.003;0.00018792392494966742
54:53.7;0.0029256273455526135;-0.18307385010498886;-0.9857546861858464;1.002;0.0005279759885361167
54:53.7;0.004669591873420679;-0.18380155300830558;-0.9857355709154983;1.002;0.0008460353891854004
54:53.7;0.006204055782464782;-0.1843404262459986;-0.9854625583819342;1.003;0.00112703242180951
54:53.7;0.0074786171939441376;-0.18468099375283412;-0.9849514410480897;1.003;0.0013603740108385054
54:53.7;0.00847046620255444;-0.184839570178408;-0.984228041827392;1.002;0.0015409835346973564
54:53.7;0.00918434396420246;-0.18485425383325463;-0.9833259800562243;1.0;0.001669456482139543
54:53.7;0.009649098117452959;-0.18477890070869465;-0.9822842921727576;0.997;0.001751363526256121
54:53.7;0.009911539629642398;-0.18467604104325328;-0.981144974788148;0.995;0.0017959112106732463
54:53.7;0.010028848176436114;-0.1846093452607213;-0.9799511623092079;0.9990000000000001;0.0018143002946263127
54:53.7;0.010060850531144071;-0.1846363037030747;-0.9787464967805455;1.0;0.0018181177837038988
54:53.8;0.010063157793769109;-0.18480193134527628;-0.9775751870966412;0.993;0.0018179877730837009
54:53.8;0.01008175024481912;-0.18513416707763303;-0.9764815371646923;0.993;0.0018225797776072056
54:53.8;0.010149351638022748;-0.1856413121853257;-0.9755083907762468;0.993;0.0018379933608813606
54:53.8;0.010283787281111102;-0.1863116171166981;-0.9746949848396266;0.992;0.0018675049067634134
54:53.8;0.010488337601630674;-0.18711501111910972;-0.9740747640820516;0.991;0.0019116464727799512
54:53.8;0.010753821771441146;-0.18800681552215745;-0.9736732926017838;0.99;0.001968564665172897
54:53.8;0.01106182392182834;-0.18893306969957627;-0.9735064441655257;0.991;0.0020345742926988434
54:53.8;0.011388330871247701;-0.18983689092750256;-0.9735792739805106;0.992;0.0021048056887530138
54:53.8;0.011707294367262137;-0.1906649929701041;-0.9738857938063438;0.9940000000000001;0.002173879819302778
54:53.8;0.011994016845532302;-0.19137325247689513;-0.974409438264014;0.993;0.002236595127202411
54:53.9;0.012228276829116203;-0.19193049209708238;-0.9751237863113249;0.9940000000000001;0.0022885952334754335
54:53.9;0.012396771930623359;-0.19232032127928952;-0.9759932668454264;0.9940000000000001;0.002326915479812706
54:53.9;0.012494317603759639;-0.192541253463783;-0.9769739313661181;0.995;0.002350278413861167
54:53.9;0.01252353909360112;-0.19260530296384573;-0.9780145939585646;0.997;0.002359069042482009
54:53.9;0.012493175474736228;-0.19253531192175125;-0.9790585683012312;0.998;0.002355005389616461
54:53.9;0.012415285434577096;-0.19236142858677716;-0.9800459752797733;0.998;0.0023405674008342646
54:53.9;0.012301848222138742;-0.1921173076446632;-0.9809163987637386;0.9990000000000001;0.00231829581526907
54:53.9;0.01216170054643886;-0.19183677332746552;-0.9816116680955279;1.0;0.0022901602837924195
54:53.9;0.01199897056297858;-0.19155163117130733;-0.9820786461701859;1.0;0.002257231542926125
54:53.9;0.011813642697767092;-0.19129067536377048;-0.9822720222909487;1.001;0.0022197773025089186
54:54.0;0.011603893940002627;-0.1910790954258427;-0.9821572357783711;1.001;0.002177699482285445
54:54.0;0.011369058869524934;-0.1909373370345066;-0.9817136052671926;1.001;0.0021310821249479737
54:54.0;0.011111867167141734;-0.19087925113852425;-0.9809374230233499;1.0;0.002080592683501472
54:54.0;0.010838983867490125;-0.19091023256689688;-0.9798445043516186;1.0;0.0020275657093766822
54:54.0;0.010559743555852827;-0.19102617801838345;-0.9784716784100477;0.9990000000000001;0.0019737607921478683
54:54.0;0.010283991662319414;-0.19121363486850662;-0.9768767800132852;0.997;0.0019209690152551572
54:54.0;0.010020531888326821;-0.1914510585098446;-0.9751367765113297;0.9940000000000001;0.001870742798657449
54:54.0;0.009777278220922198;-0.1917108907539971;-0.973343996477641;0.991;0.0018244464182110794
54:54.0;0.009562981712172118;-0.19196214337923428;-0.9716010376033766;0.99;0.0017835976260746648
54:54.0;0.00938916712207676;-0.19217323271592;-0.9700153169304225;0.9890000000000001;0.0017502438374600417
54:54.1;0.009270556739571494;-0.1923149575411409;-0.9686939283662327;0.991;0.0017270521723235322
54:54.1;0.009223315880831267;-0.19236364553892402;-0.9677386108604462;0.991;0.0017169915208289912
54:54.1;0.00926236026454242;-0.19230440748252092;-0.9672397631480929;0.9890000000000001;0.0017228404077476406
54:54.1;0.009399906189870884;-0.19213419877437832;-0.9672682301969893;0.986;0.001746928446070619
54:54.1;0.009646363433842245;-0.19186420588250921;-0.9678644367103497;0.982;0.0017913156209388096
54:54.1;0.010012656773888544;-0.191520817155126;-0.9690261518086288;0.976;0.0018582357583553483
54:54.1;0.010511802835053886;-0.19114409909874733;-0.9706980834506319;0.975;0.0019503936478203082
54:54.1;0.011157742391987394;-0.19078290937773953;-0.9727677058079641;0.981;0.0020707369924592434
54:54.1;0.011960797516919627;-0.19048689734373142;-0.975071165870648;0.987;0.0022215779710911547
54:54.1;0.012920930604315135;-0.19029705186022552;-0.9774105586072858;0.997;0.002403271743924526
54:54.2;0.014021248285255522;-0.19023727730537343;-0.9795803416174445;1.013;0.002612897434542312
54:54.2;0.015224249460940368;-0.19030928553725898;-0.9813974151827113;1.013;0.0028434184704177784
54:54.2;0.016472310728127767;-0.19049201836095686;-0.9827276094026436;1.013;0.003083645655344846
54:54.2;0.01769259273035103;-0.19074549393419854;-0.9835023490426105;1.011;0.003319106358236031
54:54.2;0.01880548789843096;-0.19101796644492636;-0.98372279745562;1.0070000000000001;0.0035337153163464367
54:54.2;0.019735085896893247;-0.19125467616430064;-0.9834524092453587;1.003;0.0037119697813060033
54:54.2;0.020419910844114604;-0.1914062614711282;-0.9828009155442768;0.9990000000000001;0.0038412761933884015
54:54.2;0.02082211030397464;-0.19143534752064292;-0.9819035300381169;0.996;0.0039139538018058495
54:54.2;0.02093325936465446;-0.19132088310212592;-0.9808991125685962;0.993;0.0039284711930597195
54:54.2;0.020775391892136785;-0.19106069863689926;-0.9799104875666994;0.99;0.003889618364427831
54:54.3;0.020396964523018278;-0.190672693895181;-0.9790294430773302;0.991;0.003807586653630306
54:54.3;0.019864781447403147;-0.1901943173573202;-0.9783082010667637;0.991;0.003696213274387244
54:54.3;0.019253792112322317;-0.1896795668630779;-0.9777581804003018;0.992;0.003570822689975224
54:54.3;0.018636733006432583;-0.18919306841375683;-0.977355754206309;0.996;0.0034460984347691164
54:54.3;0.01807523026306532;-0.18880162628237163;-0.9770536038662873;0.9990000000000001;0.003334325243421888
54:54.3;0.017613772507621844;-0.18856457137970245;-0.9767951564560139;1.0;0.0032442624399064983
54:54.3;0.01727755470882532;-0.18852484888603388;-0.9765288243908571;0.998;0.003180796941623071
54:54.3;0.01707411683946825;-0.18870271880989822;-0.9762190970852607;1.0;0.0031453118104012925
54:54.3;0.01699750963465546;-0.18909317158673555;-0.9758528446805338;0.998;0.003136501319925479
54:54.3;0.017033186128906117;-0.18966719131068882;-0.9754404443265323;0.997;0.00315129357338755
54:54.4;0.01716200486612784;-0.19037637972260388;-0.9750120851690602;0.991;0.0031855988314673043
54:54.4;0.017362452015356425;-0.19116005141984288;-0.974610357302872;0.991;0.0032347388126043367
54:54.4;0.01761121485829083;-0.19195340318401344;-0.9742811448156087;0.9890000000000001;0.0032935891971930566
54:54.4;0.017882946776754803;-0.19269514048035877;-0.974065214872466;0.991;0.003356586788516911
54:54.4;0.018149976856492396;-0.19333336351180608;-0.9739922928712569;0.991;0.0034177351311361105
54:54.4;0.018382164605084253;-0.19382911141492495;-0.9740783785103512;0.992;0.0034706399293980236
54:54.4;0.01854675866808284;-0.19415740708983792;-0.9743262487027247;0.993;0.0035085396365230627
54:54.4;0.018608269670095115;-0.1943061024263459;-0.9747285649302158;0.996;0.0035243264158047053
54:54.4;0.018528724788649194;-0.1942732266576863;-0.9752725065149883;0.998;0.0035106251958096613
54:54.4;0.01826885395627924;-0.19406369655654884;-0.9759443759103199;0.9990000000000001;0.0034600364134010687
54:54.5;0.0177907622378423;-0.19368621540108616;-0.9767325214127076;0.997;0.003365649738076517
54:54.5;0.017062436570650746;-0.19315108837903086;-0.9776275226063924;0.997;0.0032218968267509365
54:54.5;0.016063796451964218;-0.1924695540212951;-0.9786196770998152;0.997;0.0030256882332785054
54:54.5;0.014793229910871349;-0.1916549525674857;-0.9796947508741691;0.996;0.002777626420317745
54:54.5;0.013273170340052423;-0.19072540457003467;-0.9808293619215767;0.9940000000000001;0.0024829997226075607
54:54.5;0.011553152546917645;-0.18970681661692962;-0.9819875562218849;0.996;0.0021522337061421135
54:54.5;0.009708860905281233;-0.18863463192790547;-0.9831202437493847;0.997;0.001800513355148438
54:54.5;0.007836476309193466;-0.18755324877539342;-0.9841687239911944;1.003;0.001446488468486863
54:54.5;0.006043197817227113;-0.18651308312435858;-0.985072234839104;1.008;0.0011103098434174733
54:54.5;0.004436124896990576;-0.1855661354694217;-0.9857777057133664;1.01;0.0008114868383978565
54:54.6;0.0031117921258340176;-0.18476124834423643;-0.9862486255786052;1.008;0.0005670324018297921
54:54.6;0.0021477967797643546;-0.18413999960887603;-0.9864700798605127;1.008;0.0003901442783857575
54:54.6;0.0015970194306540867;-0.18373360550211426;-0.9864485427220685;1.003;0.0002894497862769824
54:54.6;0.0014843254373318546;-0.1835608089234108;-0.9862069207142039;0.9990000000000001;0.0002687058607313984
54:54.6;0.0018053969205055849;-0.18362685892031105;-0.9857768435810553;0.998;0.0003268041138237654
54:54.6;0.0025275993947047283;-0.1839240214763458;-0.9851909431834374;1.0;0.00045800171853456635
54:54.6;0.0035932712552374417;-0.18443390889697725;-0.9844774405315623;1.0;0.0006524339362140541
54:54.6;0.004925752188200644;-0.18513107343858273;-0.9836579719501428;1.001;0.0008970073347253769
54:54.6;0.006437558918344846;-0.18598633672823087;-0.982748320192844;0.9990000000000001;0.00117664259895337
54:54.6;0.00803912368250472;-0.18696804666679714;-0.9817613303821268;0.997;0.0014756454507204688
54:54.7;0.009646346054582613;-0.18804034988570326;-0.9807115110821804;1.002;0.0017789148530571927
54:54.7;0.011185940643966387;-0.1891593669003757;-0.9796207751504682;1.002;0.0020728045298793575
54:54.7;0.012598462703773034;-0.1902697809791625;-0.9785238932488415;1.005;0.002345626219093462
54:54.7;0.013839301815440479;-0.19130464249454868;-0.977471133073362;1.003;0.002587876999894862
54:54.7;0.014877859806425198;-0.19218990360827057;-0.9765255094462607;0.996;0.0027922520837636773
54:54.7;0.01569513786049938;-0.1928530977322508;-0.9757536851344207;0.9890000000000001;0.0029534658531766038
54:54.7;0.016280473453980992;-0.1932338554998135;-0.9752123621186809;0.985;0.003067958266701224
54:54.7;0.01662877711372237;-0.19329348365526144;-0.9749344969311655;0.9840000000000001;0.003133667858599521
54:54.7;0.016739512343585176;-0.19302147036205652;-0.9749202363498405;0.988;0.003150050430403676
54:54.7;0.016617706109135714;-0.19243775804178478;-0.9751357911594369;0.992;0.003118361497786146
54:54.8;0.016276110230104467;-0.19159066280316386;-0.975520567023532;1.0;0.0030420152887386067
54:54.8;0.015737019569501794;-0.19055136433271855;-0.9760000511353548;1.0;0.002926741649651404
54:54.8;0.015032544703648164;-0.18940643272814664;-0.9765003350649571;1.001;0.002780350995483773
54:54.8;0.01420302668145012;-0.18824957803272638;-0.9769603780976972;0.9990000000000001;0.002612112425014257
54:54.8;0.013294146718788626;-0.187173294042269;-0.977339710779202;0.9990000000000001;0.0024319234259500234
54:54.8;0.012353690880029883;-0.18626102976778564;-0.977620981637172;0.997;0.002249516813190736
54:54.8;0.011428665368112137;-0.18558074586453568;-0.9778077816907855;0.996;0.0020738718743514265
54:54.8;0.010562684924772782;-0.1851805671405871;-0.9779187163191986;0.992;0.00191281290602547
54:54.8;0.009793082383305823;-0.18508667045993726;-0.97797922581228;0.9890000000000001;0.001772654838955983
54:54.8;0.009147737119391618;-0.18530300937902716;-0.97801334496243;0.987;0.0016578335675411558
54:54.9;0.008642637954850287;-0.18581236469768536;-0.9780379783794071;0.996;0.0015706399875342605
54:54.9;0.008281333777250351;-0.18657843981666727;-0.9780615062896706;0.996;0.0015112207668696435
54:54.9;0.008056468554036429;-0.18754887531047626;-0.9780866099734317;0.996;0.0014778708868031505
54:54.9;0.007952703969550036;-0.1886590389440306;-0.9781155805404593;1.0;0.0014675152103725394
54:54.9;0.007950186038535974;-0.1898363947672308;-0.9781560698400561;1.002;0.0014762670388794416
54:54.9;0.008027749234038097;-0.19100512068878753;-0.9782254804761324;1.0;0.0014999534431644182
54:54.9;0.00816483903385627;-0.19209063708261762;-0.9783523732593375;1.0;0.001534437229183528
54:54.9;0.00834140849529697;-0.19302407430007915;-0.978573967702852;0.998;0.0015755947559754314
54:54.9;0.008536435722955956;-0.19374692018120135;-0.978930047866604;0.997;0.001619060365501726
54:54.9;0.008727095413018303;-0.19421577215468233;-0.9794545654193154;0.995;0.0016601163041647994
54:55.0;0.00889030963019386;-0.19440676751224137;-0.9801666289152569;0.997;0.0016940576210535902
54:55.0;0.009006557915753844;-0.19431904827871788;-0.9810625575441735;0.997;0.0017170024777906124
54:55.0;0.009064180867852484;-0.19397626460127973;-0.982110410512357;0.995;0.0017267818271126038
54:55.0;0.009062086454762405;-0.19342510949696684;-0.983248149664339;0.996;0.0017234718341150482
54:55.0;0.009009563201768808;-0.19273075083125008;-0.9843864896248834;1.001;0.001709308270718157
54:55.0;0.008923226034154377;-0.1919700326969299;-0.9854169898617481;1.006;0.0016880114139301925
54:55.0;0.00882240938769656;-0.19122345292962475;-0.98622457767212;1.0090000000000001;0.0016638117381842274
54:55.0;0.008724860601123997;-0.1905666137795152;-0.9867021309642257;1.0090000000000001;0.001640557210570656
54:55.0;0.008643970464213406;-0.19006206253749566;-0.9867641309534985;1.0090000000000001;0.001621145766727892
54:55.0;0.008587562491587337;-0.1897528600078271;-0.9863570279899349;1.0090000000000001;0.0016072831219707488
54:55.1;0.008557536615546818;-0.18965883801735103;-0.9854652246734437;1.005;0.0015994223294710274
54:55.1;0.008549849415172638;-0.1897755732831755;-0.9841126994538784;1.005;0.0015967745938502296
54:55.1;0.008554806899837987;-0.19007573271721132;-0.9823608740106438;1.005;0.001597378891548717
54:55.1;0.008557825939056858;-0.19051275522317218;-0.9803032461504053;1.001;0.0015982619033446245
54:55.1;0.008540759875255259;-0.19102690476733686;-0.9780569196004614;0.995;0.0015957144601953773
54:55.1;0.008483861460756694;-0.1915531113841276;-0.9757513980372304;0.99;0.001585703412384725
54:55.1;0.00836838857686556;-0.19202927715977935;-0.9735161556564746;0.987;0.001564416717504254
54:55.1;0.00817952108218329;-0.1924036087709238;-0.9714694201537983;0.988;0.0015288688214389436
54:55.1;0.007908933559727343;-0.19264004178124033;-0.9697101812987526;0.988;0.0014774284114573604
54:55.1;0.007556565041459873;-0.19272134709736316;-0.9683139858895412;0.986;0.0014101666908325438
54:55.2;0.007131546782599371;-0.19264982902414446;-0.9673318514828823;0.986;0.0013290087843447756
54:55.2;0.006652314774216811;-0.19244579351180519;-0.9667913520636633;0.986;0.0012376959523921613
54:55.2;0.006145889440716244;-0.19214401227304775;-0.9666992458634012;0.986;0.0011415711335600036
54:55.2;0.005646412111601602;-0.19178817258948244;-0.967045290110509;0.986;0.0010472279089151079
54:55.2;0.005192932088267752;-0.19142346347500327;-0.96780690769759;0.988;0.000962047533238054
54:55.2;0.0048262264699794775;-0.19108844576998926;-0.9689541322402785;0.992;0.0008936044946102738
54:55.2;0.004584761185875089;-0.19080834202539962;-0.9704537599886736;0.993;0.0008489633141299106
54:55.2;0.004500659684790911;-0.19059169467136583;-0.972271230277294;0.993;0.0008340029406562031
54:55.2;0.004596710587180005;-0.19043117751712846;-0.974369111332446;0.99;0.000852920831759025
54:55.2;0.004884730850947374;-0.19030829999904184;-0.9767023855948987;0.992;0.0009079472494534118
54:55.3;0.005365058575506375;-0.19020094395480402;-0.9792122468219632;0.995;0.000999226567098372
54:55.3;0.0060271392678080534;-0.1900916953754981;-0.9818207615958232;0.995;0.0011248810024169764
54:55.3;0.006851323282280768;-0.18997443228100397;-0.9844283281638317;0.998;0.0012813085326757606
54:55.3;0.007811641679484016;-0.18985743809818872;-0.9869151459473979;1.003;0.001463692152112788
54:55.3;0.0088789837219256;-0.18976281561147887;-0.9891472511102998;1.006;0.0016666151439175944
54:55.3;0.01002413199964589;-0.1897229732134992;-0.990986789928991;1.01;0.0018846667306952798
54:55.3;0.011220198951675897;-0.18977521795381627;-0.9923052331054215;1.013;0.0021129311135711618
54:55.3;0.012443800756959701;-0.18995553572329188;-0.9929976429159386;1.018;0.002347216885745774
54:55.3;0.01367419526801453;-0.1902925873107921;-0.9929958420253477;1.018;0.002583872491507357
54:55.3;0.014890232683246222;-0.19080258334252637;-0.9922782344319062;1.016;0.0028191565940494886
54:55.4;0.016066007387307953;-0.19148528838968568;-0.9908744656310897;1.011;0.003048330226867106
54:55.4;0.01716664243296449;-0.19232136422600096;-0.9888643206019402;1.011;0.0032647475117036076
54:55.4;0.018145477976776105;-0.19327139316631659;-0.9863715302658409;1.006;0.00345920674023899
54:55.4;0.018943572043236906;-0.19427687753040196;-0.9835537006120595;0.9990000000000001;0.0036197707426625985
54:55.4;0.019492069217908;-0.19526336723565518;-0.9805898352884673;0.993;0.003732210292946391
54:55.4;0.019717450604034063;-0.19614568444316835;-0.9776675808704979;0.995;0.003781122373025541
54:55.4;0.01954899942601945;-0.19683484807383111;-0.9749725800957549;0.996;0.003751620713998825
54:55.4;0.018927277220239066;-0.19724584778178428;-0.9726809622068291;0.9990000000000001;0.0036313359444295214
54:55.4;0.017812049843106713;-0.19730521428514433;-0.9709535779895698;1.0;0.003412329266136318
54:55.4;0.016187918291203814;-0.19695747228940477;-0.9699288996669377;0.9940000000000001;0.00309245483278573
54:55.5;0.014066239025080307;-0.19616988961753137;-0.969711885740679;0.981;0.002675796365596884
54:55.5;0.011483269220098773;-0.19493546245805893;-0.9703587627974806;0.981;0.002172144593300999
54:55.5;0.008496329934114845;-0.19327467676971358;-0.9718611227032005;0.981;0.0015959178559964541
54:55.5;0.005180306315764406;-0.19123666592537403;-0.9741343808074524;0.981;0.0009650403573797099
54:55.5;0.0016253909799665647;-0.18889976449875118;-0.9770146342251013;0.985;0.0002999786391809426
54:55.5;-0.002064475605347269;-0.1863708121333573;-0.980265941689407;0.992;0.0003771651584853692
54:55.5;-0.005773160978887185;-0.183782375852838;-0.9835982413847097;1.001;0.0010436028890302982
54:55.5;-0.009374485476784454;-0.18128722041782025;-0.9866942685459832;1.008;0.0016768616647554009
54:55.5;-0.012736212593423108;-0.17904974958255881;-0.9892420074627473;1.012;0.002255882980663963
54:55.5;-0.015727611105151938;-0.17723463247354498;-0.990968248675716;1.016;0.002762301571445239
54:55.6;-0.01823117665394756;-0.1759932002106223;-0.9916690454332511;1.0190000000000001;0.003181832729331712
54:55.6;-0.020156618682186878;-0.17544869481089148;-0.9912336643962333;1.0190000000000001;0.003505450710658309
54:55.6;-0.021453213127259646;-0.17568234239752012;-0.9896593623401467;1.016;0.0037299773802505175
54:55.6;-0.022116590743547136;-0.17672281278929206;-0.9870550583898203;1.013;0.0038579107419315227
54:55.6;-0.02218773320193962;-0.17854116385708835;-0.9836330027222665;1.0070000000000001;0.003896587098160029
54:55.6;-0.021744188968848374;-0.1810522220741784;-0.979688826495528;0.996;0.003856872017062328
54:55.6;-0.020885645141152587;-0.184122244829479;-0.9755718716785894;0.988;0.0037515732107254386
54:55.6;-0.019717471928049984;-0.18758186014549624;-0.9716494288455766;0.981;0.0035937815033883717
54:55.6;-0.01833593695559554;-0.1912425700869466;-0.9682698226748692;0.978;0.0033953462970242963
54:55.6;-0.01681770888010821;-0.19491453751502757;-0.965729297363009;0.977;0.003165676038620751
54:55.7;-0.015215051062447338;-0.19842328161792974;-0.9642462583967252;0.978;0.0029110790878845196
54:55.7;-0.013556929535447737;-0.2016233621797211;-0.9639444432541753;0.978;0.002634839681615003
54:55.7;-0.011854809538131825;-0.20440775487081542;-0.9648451266128544;0.977;0.0023380271855216227
54:55.7;-0.010110660419305887;-0.20671239173216435;-0.9668680748262771;0.981;0.002020753113502245
54:55.7;-0.008324367252148801;-0.20851632027642392;-0.9698411978344397;0.988;0.0016834177917385246
54:55.7;-0.006498421913166226;-0.2098385251228808;-0.9735186444794041;0.998;0.0013275087832044497
54:55.7;-0.004639095234141037;-0.21073227177909026;-0.977605848239213;1.005;0.00095571439642988
54:55.7;-0.002754860773619757;-0.21127727716406225;-0.9817883942014404;1.011;0.0005714396095889287
54:55.7;-0.0008540975169997701;-0.2115696608384102;-0.9857608169462861;1.015;0.00017812808564047748
54:55.7;0.0010555229339726478;-0.21170988067408494;-0.9892519642355149;1.0190000000000001;0.00022106282851747932
54:55.8;0.002964373356933444;-0.21178970037766598;-0.9920445794699487;1.024;0.0006228291431616667
54:55.8;0.004855172810592397;-0.21188013655872245;-0.9939874840993175;1.021;0.0010225295147650241
54:55.8;0.006696458563325059;-0.21202274120601872;-0.9949993836187367;1.021;0.0014127016183248106
54:55.8;0.008438278898149862;-0.21222630988500138;-0.9950644789550336;1.016;0.0017819861388844046
54:55.8;0.010012497626415241;-0.21247008507037377;-0.9942216417026276;1.012;0.002115063595971893
54:55.8;0.011338664568055658;-0.21271275349937258;-0.992550245335222;1.011;0.0023939106577141422
54:55.8;0.01233471440310976;-0.21290466657955667;-0.990156249502984;1.0090000000000001;0.002600267404447145
54:55.8;0.012929889410300294;-0.2129998702915067;-0.9871614531768764;1.0090000000000001;0.0027187065778088815
54:55.8;0.013075925147458435;-0.21296509186538426;-0.983697179355118;1.008;0.002739316881275438
54:55.8;0.012752844295910722;-0.2127840759351923;-0.9799018317816979;1.008;0.0026590637557776563
54:55.9;0.011967982793555914;-0.21245696309416431;-0.9759204704725104;1.0;0.0024814547097530815
54:55.9;0.010749927541325923;-0.2119958314690303;-0.9719041158394903;1.0;0.002214910997957074
54:55.9;0.009140927120125387;-0.21141886979795094;-0.9680068720888527;0.992;0.001870735698016617
54:55.9;0.007190949364910255;-0.21074592212294052;-0.9643798186378304;0.985;0.0014614821788620175
54:55.9;0.004954601362609075;-0.20999692443624976;-0.9611618002136293;0.981;0.0010000418022871212
54:55.9;0.002490207572939551;-0.20919301240125449;-0.9584685793092802;0.977;0.0004992988935977605
54:55.9;-0.0001405355393666333;-0.20835887782178403;-0.9563825990203924;0.9740000000000001;2.8004630074775677e-05
54:55.9;-0.002873691210498593;-0.20752456011689754;-0.9549454792212749;0.97;0.0005694927225802222
54:55.9;-0.00564548622081674;-0.20672521660959345;-0.9541549115582986;0.97;0.0011135601929779654
54:55.9;-0.008395518453780488;-0.20599831996764112;-0.9539672707544828;0.971;0.0016498508086770333
54:56.0;-0.011069787827301534;-0.2053787762399976;-0.9543065728092819;0.98;0.002169615494377689
54:56.0;-0.01362270653175895;-0.20489326715970263;-0.9550788237110962;0.98;0.0026658168234609874
54:56.0;-0.016017827060743322;-0.20455542828273507;-0.9561888779038644;0.9840000000000001;0.00313298486646271
54:56.0;-0.018227650706547364;-0.20436310332951702;-0.9575560715489463;0.988;0.0035669531158855263
54:56.0;-0.020233047494842813;-0.204298046481653;-0.9591254424432026;0.9890000000000001;0.003964614147767212
54:56.0;-0.022022318512672317;-0.2043276980431775;-0.9608723629103618;0.986;0.004323704293522716
54:56.0;-0.02358934020178095;-0.2044085730842064;-0.9627996371866007;0.9840000000000001;0.0046424883038193535
54:56.0;-0.024930265903667672;-0.20449120488100464;-0.964927903494147;0.9840000000000001;0.004919221859265371
54:56.0;-0.026038992717914208;-0.20452668845528418;-0.9672819427473044;0.9840000000000001;0.005151423409648511
54:56.0;-0.026902783668132518;-0.2044742540114212;-0.969876243312312;0.986;0.0053352180462730055
54:56.1;-0.027500436394686387;-0.20430851314804854;-0.9727027458539724;0.993;0.005465201648211912
54:56.1;-0.027804913656659512;-0.20402482132419145;-0.9757224922481146;0.993;0.005535168848101232
54:56.1;-0.027790077237078794;-0.2036416434823104;-0.9788615976588823;0.995;0.005539590195154989
54:56.1;-0.02743898416548349;-0.20319949972283075;-0.9820114349264805;1.0;0.005475291030370211
54:56.1;-0.026750814227916867;-0.20275677072319442;-0.9850331689146814;1.003;0.005342729981627625
54:56.1;-0.025744428953850654;-0.2023832054390497;-0.9877667788390785;1.0070000000000001;0.005146502034997593
54:56.1;-0.02445784432772718;-0.20215216394420474;-0.9900440639456926;1.013;0.0048949819559295
54:56.1;-0.022944277981277954;-0.20213244661303953;-0.9917043517302986;1.016;0.004599309627240155
54:56.1;-0.021266544758742595;-0.20238036501689685;-0.9926110153758202;1.0170000000000001;0.004272129410268145
54:56.1;-0.01949179203735805;-0.20293281891957446;-0.9926666255556302;1.018;0.0039265169630906226
54:56.2;-0.017687712742042193;-0.20380237956350422;-0.9918249035248708;1.016;0.003575328374883128
54:56.2;-0.015920090862467155;-0.20497513034519813;-0.9900984729603501;1.016;0.0032309118118447016
54:56.2;-0.014250694966302713;-0.20641115334235793;-0.9875621174073033;1.016;0.0029049163226272847
54:56.2;-0.012734393687915574;-0.20804698271702038;-0.9843513345555306;1.011;0.002607893357537315
54:56.2;-0.011414874406399229;-0.20979974351498967;-0.9806556518827895;1.0070000000000001;0.002348511148125886
54:56.2;-0.010319545119209628;-0.21157332172135307;-0.9767062789638187;1.001;0.0021324823163992586
54:56.2;-0.009455387465631713;-0.2132667358930323;-0.9727585772823621;0.995;0.0019615867579742207
54:56.2;-0.008807510290354618;-0.2147839315275395;-0.9690709635010201;0.99;0.001833202867314785
54:56.2;-0.008340991263093324;-0.21604335290470458;-0.9658826495722928;0.983;0.0017405357172652295
54:56.2;-0.008005517196648085;-0.21698564876926046;-0.9633929583708924;0.981;0.0016734928970176474
54:56.3;-0.007741921903472875;-0.21757869535724894;-0.9617448073884423;0.981;0.0016200372650043988
54:56.3;-0.007489513486367482;-0.21781988647697678;-0.9610141651429538;0.981;0.0015677648517691
54:56.3;-0.007192798353083419;-0.21773575051389898;-0.9612060390340608;0.981;0.0015053729869213234
54:56.3;-0.00680634374074149;-0.2173788442422977;-0.9622565860406589;0.983;0.0014237116739090627
54:56.3;-0.006297482606184692;-0.21682202877538556;-0.9640406911994062;0.985;0.001316332929580685
54:56.3;-0.005647821670272403;-0.2161504129028207;-0.9663844346058742;0.99;0.0011797418101941826
54:56.3;-0.0048550004932291025;-0.21545136729365877;-0.9690816478186214;0.995;0.0010136753881138084
54:56.3;-0.003935342051246375;-0.21480351458404495;-0.9719130447007613;1.0;0.0008215826896798221
54:56.3;-0.0029265477216298334;-0.2142664646571156;-0.9746655324304926;1.004;0.0006111747765348991
54:56.3;-0.001888590861142658;-0.21387359853084678;-0.9771488820948369;1.0070000000000001;0.00039468970639627404
54:56.4;-0.0009011034549500059;-0.2136298475029004;-0.979207377983769;1.004;0.00018849995999807963
54:56.4;-5.669201887865433e-05;-0.21351505487512082;-0.980725406337521;1.004;1.1871288284626428e-05
54:56.4;0.000548975628698485;-0.2134916436719304;-0.9816277811857727;1.004;0.00011504845385788732
54:56.4;0.000828590008117568;-0.2135140728141441;-0.9818769889247454;1.003;0.00017370938345286676
54:56.4;0.0007139725733240817;-0.2135375869203828;-0.9814697434520476;1.004;0.00014963485788420483
54:56.4;0.00016379701621111094;-0.21352451409183082;-0.9804344922196915;1.006;3.4290380955851715e-05
54:56.4;-0.0008335290707416216;-0.21344718601220636;-0.9788303114603848;1.005;0.0001741480414417906
54:56.4;-0.0022618424526620706;-0.21328744455463697;-0.9767463900373755;1.001;0.00047120452981235357
54:56.4;-0.00408238578451649;-0.2130337425282239;-0.9743006586246157;0.9990000000000001;0.0008473355667176506
54:56.4;-0.006239928355927931;-0.21267760891941828;-0.9716363896656091;0.998;0.001289451892630371
54:56.5;-0.008668103631754099;-0.21221110746246688;-0.9689162826630888;0.99;0.001782290371932337
54:56.5;-0.011293141557249317;-0.21162597249810408;-0.9663142128584359;0.99;0.0023094156586582052
54:56.5;-0.014036042069989332;-0.21091422978169452;-0.9640053568023291;0.99;0.0028538424245727364
54:56.5;-0.01681389844191004;-0.21006980898983868;-0.9621553758506826;0.986;0.003398421723438691
54:56.5;-0.01954141592359554;-0.20909064572901667;-0.9609087640839385;0.9790000000000001;0.003926203326923052
54:56.5;-0.02213323479691073;-0.20798081811997934;-0.9603766139439177;0.975;0.004420890412029351
54:56.5;-0.02450661134310353;-0.20675246353890553;-0.9606254475280507;0.976;0.004867299196403808
54:56.5;-0.02658351737532134;-0.20542745266144724;-0.961669866922687;0.98;0.005251664003882244
54:56.5;-0.02829192043361092;-0.20403873514839552;-0.963471060761628;0.9840000000000001;0.005561778964569297
54:56.5;-0.029567036582536607;-0.20263089050578717;-0.9659411608268162;0.988;0.005787141806999757
54:56.6;-0.03035357370726711;-0.20125913880600232;-0.9689517284861053;0.993;0.005919262259287329
54:56.6;-0.03060926927581367;-0.1999864521305932;-0.9723441318400955;0.993;0.005952145450289918
54:56.6;-0.030309059475118562;-0.1988793747281605;-0.9759400462301709;0.996;0.0058828170817425305
54:56.6;-0.02944870142415569;-0.19800367556642834;-0.9795513391168392;1.0;0.005711715980507966
54:56.6;-0.028046746653937134;-0.19742044405281747;-0.9829895393865107;1.003;0.005442814238190751
54:56.6;-0.026144180830628045;-0.19718249090505266;-0.9860752418878569;1.0090000000000001;0.005083390138147965
54:56.6;-0.023801711144935;-0.1973307359875914;-0.9886472607448522;1.011;0.004643487528065129
54:56.6;-0.021095446636278374;-0.19789052256927106;-0.9905708296356985;1.011;0.004135226048192923
54:56.6;-0.01811209382857861;-0.19886816885013178;-0.9917441520137632;1.011;0.003572182038555568
54:56.6;-0.014944562409291533;-0.20024847760640616;-0.9921031468645722;1.011;0.002968993543962345
54:56.7;-0.011688374162282383;-0.20199412113680962;-0.9916248048505131;1.016;0.0023412091741774905
54:56.7;-0.008438882763444674;-0.20404730931144982;-0.9903294872568531;1.016;0.0017052793626885037
54:56.7;-0.005289096527559152;-0.20633311823644124;-0.9882817241236295;1.013;0.0010785274398160893
54:56.7;-0.0023277118912015536;-0.2087634216462467;-0.9855884281935131;1.0090000000000001;0.00047893792397173037
54:56.7;0.00036307691382470546;-0.21124098071469988;-0.9823937223447984;1.005;7.534637954463199e-05
54:56.7;0.0027101396806558206;-0.21366394661537585;-0.9788705385767473;1.002;0.000566823932286434
54:56.7;0.004652100652793405;-0.215930995671896;-0.9752099111990654;1.0;0.0009796302704444674
54:56.7;0.006141695527857403;-0.21794687193195517;-0.9716089542050546;0.998;0.0013005601158917206
54:56.7;0.007147262948870847;-0.21962782052165755;-0.9682580839010829;0.991;0.0015199112991137289
54:56.7;0.007652913226701867;-0.22090633690501077;-0.9653278345341183;0.985;0.0016319610611301462
54:56.8;0.00765726089001809;-0.221734759291961;-0.9629561749568742;0.982;0.0016349848972697263
54:56.8;0.007171298502470557;-0.2220874260961903;-0.9612381350958393;0.982;0.0015309209394650108
54:56.8;0.006216694698105332;-0.22196123368317663;-0.9602197307043837;0.981;0.001324973814395959
54:56.8;0.004825665452473004;-0.22137451222425833;-0.9598973183194276;0.982;0.0010254384695532093
54:56.8;0.0030422281579214365;-0.22036441553716538;-0.9602223053806629;0.985;0.0006437319100201102
54:56.8;0.0009231251587065045;-0.21898332648052174;-0.9611101689360696;0.988;0.0001942874768512068
54:56.8;-0.0014635076419475712;-0.21729478606635397;-0.9624520644527451;0.9890000000000001;0.000306071864107787
54:56.8;-0.004042239091220065;-0.2153693223112077;-0.9641270179929641;0.991;0.0008393441977223951
54:56.8;-0.00673585671997724;-0.2132806146906066;-0.9660129138720874;0.992;0.001387800873632503
54:56.9;-0.009470026063397722;-0.2111025825975337;-0.9679950655073287;0.992;0.0019351643917772208
54:56.9;-0.012175270284847954;-0.2089079230485674;-0.9699718238543912;0.996;0.0024671334486094797
54:56.9;-0.01478577831422518;-0.20676815846717578;-0.9718571643859697;0.996;0.0029711890841766873
54:56.9;-0.017236061893797724;-0.2047544067413954;-0.9735803948407977;0.9940000000000001;0.0034359206237169404
54:56.9;-0.019457496970579562;-0.20293734202827834;-0.9750834791167755;0.993;0.0038502660298307067
54:56.9;-0.021376863032389285;-0.201384917138591;-0.9763173228813108;0.993;0.004203024391446116
54:56.9;-0.022918230226425477;-0.2001575078569773;-0.9772390803309677;0.993;0.004482845684787697
54:56.9;-0.02400837864352964;-0.19930151969734783;-0.977812294509218;0.997;0.004678740256249453
54:56.9;-0.0245847751156668;-0.19884329566942596;-0.978010532805699;1.0;0.004781021807537648
54:56.9;-0.024604374637075765;-0.19878503945749382;-0.9778237170502928;1.003;0.004782517791570363
54:56.9;-0.024051444767700686;-0.19910373958996963;-0.977265135329377;1.003;0.00467986140828171
54:57.0;-0.022943085656267622;-0.19975323299138142;-0.9763766616068738;1.001;0.004474690825202252
54:57.0;-0.021331744223341505;-0.20066879527683423;-0.9752302373908082;1.001;0.0041745855868142966
54:57.0;-0.019304524598147473;-0.20177314068416477;-0.9739247831649176;0.998;0.003793568079392132
54:57.0;-0.016979272300877677;-0.20298273500981098;-0.9725786746188368;0.993;0.003351991556035877
54:57.0;-0.01449727443566995;-0.20421380528095406;-0.9713185933078166;0.99;0.0028756310242995294
54:57.0;-0.012012352153124453;-0.20538788420506426;-0.9702662672192283;0.988;0.0023938327775094746
54:57.0;-0.009676453278064935;-0.20643689665016904;-0.9695252129972688;0.985;0.0019367012521553809
54:57.0;-0.007622713795503785;-0.20730772632233935;-0.9691697220987543;0.9840000000000001;0.0015315279968422836
54:57.0;-0.005948388592717613;-0.20796597735320255;-0.9692380718747297;0.986;0.0011990080212689643
54:57.1;-0.004701545765118635;-0.2083984514029475;-0.969731351678033;0.991;0.000950137790707174
54:57.1;-0.003875598459268982;-0.20861382109428686;-0.9706180945667053;0.998;0.0007847480330677135
54:57.1;-0.003413491023462246;-0.20864109726672087;-0.9718430962214447;0.998;0.0006921413202810972
54:57.1;-0.0032197388127129696;-0.20852581232274192;-0.9733373295607972;0.998;0.0006534973704127483
54:57.1;-0.0031764152378100196;-0.20832425323772932;-0.975026006489432;0.9990000000000001;0.000645198433206831
54:57.1;-0.0031597398826734057;-0.20809637350974658;-0.9768335109820571;0.998;0.0006422977397772588
54:57.1;-0.0030553755125375176;-0.20789827185003626;-0.9786856628907566;0.998;0.0006216682666194037
54:57.1;-0.002771352124315988;-0.20777529352786223;-0.9805106144227749;1.001;0.0005645961523084042
54:57.1;-0.002247964478862097;-0.20775660723796596;-0.9822396600422341;1.004;0.0004587348711033946
54:57.1;-0.0014643593536156371;-0.20785172213033445;-0.9838085928089577;1.005;0.00029944144111845454
54:57.2;-0.00044159207017975923;-0.20804928421462723;-0.9851594574256604;1.0070000000000001;9.050947022239083e-05
54:57.2;0.0007582338546223699;-0.20831848753738055;-0.9862422516297341;1.0070000000000001;0.00015578103662281217
54:57.2;0.002037030462868452;-0.20861307738851553;-0.98701641254493;1.0070000000000001;0.00041943380260698704
54:57.2;0.0032697484088439577;-0.2088773174504801;-0.9874524048734836;1.01;0.0006744065665803034
54:57.2;0.00431658876226496;-0.2090529434049452;-0.9875338903740992;1.011;0.0008911462239164492
54:57.2;0.005037393031757972;-0.2090860652311069;-0.9872605284260334;1.012;0.0010398308563113585
54:57.2;0.005307001483413281;-0.20893302677292622;-0.9866507628520337;1.012;0.0010940061436360052
54:57.2;0.005030087224924488;-0.20856457097215536;-0.9857435251928252;1.011;0.001034141545039472
54:57.2;0.004153734320517504;-0.2079682961534683;-0.9845977874423517;1.01;0.0008505399242458309
54:57.2;0.002675941824801654;-0.2071498111339788;-0.9832892355194466;1.0070000000000001;0.0005450577185488957
54:57.3;0.0006485514989624697;-0.2061329023175918;-0.9819038855246445;1.004;0.00013126857300042847
54:57.3;-0.001826034573482103;-0.20495865135957267;-0.9805291515622886;0.998;0.00036697439294813
54:57.3;-0.004603795996390067;-0.20368321527059663;-0.9792437270843269;0.993;0.000918252482383279
54:57.3;-0.007512068832828936;-0.20237420365395417;-0.9781085121370683;0.993;0.0014869684364472269
54:57.3;-0.010364526426857788;-0.20110602405535344;-0.9771610757896573;0.995;0.00203676396213524
54:57.3;-0.012976582408384353;-0.19995458316187442;-0.9764151785420134;0.997;0.0025335309503274187
54:57.3;-0.015180148259477503;-0.19899141853901378;-0.9758650254692351;0.997;0.002947814253965683
54:57.3;-0.016836748916160785;-0.1982775515264709;-0.9754923253605077;0.998;0.00325653417104088
54:57.3;-0.01784802176734187;-0.19785809794838857;-0.9752737100583636;0.9990000000000001;0.0034440578210842687
54:57.3;-0.018162723024829977;-0.1977588083302069;-0.9751865091507053;0.998;0.003502712410627348
54:57.4;-0.01777933193522327;-0.19798486024087292;-0.9752117291082923;0.997;0.0034327828792849874
54:57.4;-0.016743562859502886;-0.19852145089966297;-0.9753339993807433;0.9940000000000001;0.003241967681672346
54:57.4;-0.015141069975117515;-0.1993357464683128;-0.9755391091196133;0.9940000000000001;0.0029443296893594583
54:57.4;-0.013086900657362713;-0.20038001090836843;-0.9758104265903407;0.993;0.0025589196889078316
54:57.4;-0.0107136976024465;-0.20159570607631122;-0.9761257657044288;0.9940000000000001;0.002108271015689469
54:57.4;-0.008160115000202755;-0.20291813481657847;-0.9764560934667293;0.9940000000000001;0.001616850483821893
54:57.4;-0.0055604868832399;-0.20428109156044322;-0.9767669826415791;0.997;0.001109511891562723
54:57.4;-0.0030368786886366614;-0.2056211376878962;-0.9770229960044513;0.9990000000000001;0.0006100985423784781
54:57.4;-0.0006944522175189671;-0.20688143075404555;-0.9771943003347093;1.004;0.00014039279016550674
54:57.4;0.001379959766144215;-0.2080152059310736;-0.9772639358594859;1.004;0.0002805261682663096
54:57.5;0.0031175765831166777;-0.20898884772469284;-0.9772336421960387;1.006;0.0006367055737711653
54:57.5;0.004467864808878967;-0.20978413285159137;-0.9771262709601112;1.002;0.0009158478924500044
54:57.5;0.005400428428385731;-0.2103989650695409;-0.9769836731933323;1.002;0.00111009237631727
54:57.5;0.00590784893139617;-0.21084596177876533;-0.9768602531413054;0.998;0.0012168221547861268
54:57.5;0.00600748616498273;-0.21114866792310283;-0.9768135627385319;0.995;0.0012390613385959359
54:57.5;0.005740398458163012;-0.2113359482842502;-0.9768939475445648;0.996;0.0011851213851896416
54:57.5;0.005166344779589563;-0.2114359421694038;-0.97713519752521;0.9990000000000001;0.0010673745867440987
54:57.5;0.004354920827663733;-0.21147128046453334;-0.977547344288351;0.998;0.0009002631196446769
54:57.5;0.003374276164028632;-0.21145678501093307;-0.9781116628699706;0.996;0.0006978959633932126
54:57.5;0.0022799929194731797;-0.21139994169412146;-0.9787776706619005;0.9940000000000001;0.0004717614118646218
54:57.6;0.001106986664318704;-0.21130357860116428;-0.9794628408541513;0.993;0.00022910639173494586
54:57.6;-0.00013334768765557297;-0.2111696041632477;-0.980056809353093;1.001;2.759739854329321e-05
54:57.6;-0.0014500881097523949;-0.21100236150479304;-0.9804316335051931;1.001;0.0002999846430103832
54:57.6;-0.002865374821563449;-0.21081019345473165;-0.9804579396561675;1.0070000000000001;0.0005922458345952883
54:57.6;-0.00440572661245206;-0.21060442342238642;-0.980024766291724;1.011;0.0009093311825006621
54:57.6;-0.0060948819441360375;-0.21039614181940522;-0.9790595668829809;1.013;0.001255486898302896
54:57.6;-0.007949171454916283;-0.2101922378415385;-0.9775442774154938;1.01;0.0016333339001131538
54:57.6;-0.00997451677731491;-0.20999227601203246;-0.9755238017556226;1.005;0.002043304333402447
54:57.6;-0.012163316861763918;-0.20978725880495544;-0.9731049962117189;0.997;0.002483080681808758
54:57.6;-0.014490178665968953;-0.20956068444235368;-0.9704466610531924;0.992;0.002946830924504411
54:57.7;-0.016907190061973047;-0.20929178593912115;-0.967743044259688;0.9890000000000001;0.003424393604039116
54:57.7;-0.019341084091160782;-0.20896030613897454;-0.9652041035055157;0.986;0.0039008905810678594
54:57.7;-0.02169503484755627;-0.20855168095980625;-0.9630352093276218;0.986;0.004357287460329541
54:57.7;-0.023856603533885173;-0.20806125554646987;-0.9614178018564545;0.98;0.004772126939714891
54:57.7;-0.025711317165081765;-0.2074963357275481;-0.9604917293890026;0.975;0.005124227312849619
54:57.7;-0.027159392284941145;-0.20687554828801558;-0.9603403215640328;0.972;0.0053957817388739105
54:57.7;-0.02813168941131267;-0.20622591980497215;-0.9609803286059465;0.9740000000000001;0.005575111543791132
54:57.7;-0.02860085853644181;-0.2055788375667389;-0.9623592620913769;0.978;0.005658413828327903
54:57.7;-0.028585252348015722;-0.20496619524047135;-0.9643615119461191;0.9840000000000001;0.005650204141123128
54:57.7;-0.02814570127614389;-0.20441746341770223;-0.9668225531933182;0.991;0.00556258732118281
54:57.8;-0.027377247884692896;-0.20395760740807325;-0.9695487462025771;0.997;0.005413764326659604
54:57.8;-0.02639855304860589;-0.20360533418077673;-0.9723391387972377;1.003;0.005226212233766917
54:57.8;-0.02534092043272031;-0.20337143258123377;-0.9750053311062207;1.003;0.005024806283538017
54:57.8;-0.02433748205440299;-0.20325770326027368;-0.9773861049013212;1.002;0.004834914725565369
54:57.8;-0.02351206401965824;-0.2032573617130895;-0.979355313256074;1.0;0.004680339141029314
54:57.8;-0.0229672678123876;-0.2033574215104935;-0.9808238670848942;0.998;0.004581000998484027
54:57.8;-0.02277234461080444;-0.20354278026564657;-0.9817384128658352;1.0;0.004550501206569767
54:57.8;-0.022952914109381523;-0.2038009570252003;-0.9820797283788637;1.003;0.0045939979519655965
54:57.8;-0.023485437804469444;-0.20412591406406108;-0.9818628951147667;1.0070000000000001;0.004707037423806129
54:57.8;-0.024298636127340126;-0.2045195156284652;-0.9811393359213987;1.012;0.004875816366835287
54:57.9;-0.025281919572998992;-0.20499012242639708;-0.979998580296918;1.013;0.005078885555001131
54:57.9;-0.026298746256872;-0.20554914070164865;-0.978566246635861;1.0;0.005289820582121722
54:57.9;-0.02720177856959103;-0.2062071763615887;-0.976995525628537;1.0;0.005480165208325886
54:57.9;-0.02784692726263085;-0.20697125629400986;-0.9754523687596537;0.993;0.005622032914949807
54:57.9;-0.028104391336558114;-0.20784365760172938;-0.9740973261575795;0.99;0.005690013696500181
54:57.9;-0.027866109798665533;-0.2088219412165468;-0.9730677312999202;0.99;0.005662334785637478
54:57.9;-0.027050322233841982;-0.2098993218136878;-0.9724632435166369;0.991;0.005521494876113464
54:57.9;-0.025604948569505237;-0.21106472238241955;-0.9723365115604166;0.992;0.005254799533202567
54:57.9;-0.023511601350984096;-0.21230251795369487;-0.9726892862459705;0.992;0.004855248769276298
54:57.9;-0.02079067787957309;-0.2135923539495822;-0.973473394799568;0.995;0.004322932341542976
54:58.0;-0.01750588529506343;-0.21490921017532552;-0.9745959136531843;0.9940000000000001;0.0036666013386786617
54:58.0;-0.01376548428296508;-0.21622361956668013;-0.9759280396876407;1.001;0.0029047745043518872
54:58.0;-0.009718450716022956;-0.2175019840906205;-0.9773169941993622;1.001;0.002065835376554343
54:58.0;-0.0055456803168198515;-0.2187068910001606;-0.9785999145576215;1.003;0.0011869227970289808
54:58.0;-0.0014475728087239405;-0.2197972323236229;-0.9796185667729065;1.006;0.00031168768544328427
54:58.0;0.0023704491119742113;-0.22072817527817856;-0.9802338884177154;1.0090000000000001;0.0005128827851799548
54:58.0;0.005712822288342291;-0.221451396271016;-0.9803392992598361;1.012;0.001240239474679045
54:58.0;0.008407368454748942;-0.22191610942564358;-0.979871211682946;1.011;0.0018281756037351426
54:58.0;0.010316012114871221;-0.22207143068167667;-0.9788148684881992;1.0090000000000001;0.002242358730104511
54:58.0;0.011341850731729641;-0.2218704701820278;-0.9772042098721184;1.003;0.0024590579323925167
54:58.1;0.011432559993780768;-0.2212759847961982;-0.9751159169062442;0.998;0.0024668004379874895
54:58.1;0.010581074119996382;-0.22026675027731984;-0.9726594146142754;0.993;0.002266937234631881
54:58.1;0.008824948561959745;-0.21884349160835517;-0.9699655732415878;0.993;0.001873277592068501
54:58.1;0.006245217446655858;-0.21703317185849194;-0.9671765935327972;0.991;0.0013109298710894048
54:58.1;0.002964308380838831;-0.21489047917754991;-0.9644383064731583;0.988;0.0006143487909923993
54:58.1;-0.0008582566176870474;-0.21249558406179983;-0.9618947979438696;0.986;0.00017542627677983422
54:58.1;-0.005033420347806329;-0.20994791016798833;-0.9596846706482975;0.982;0.001014152613487643
54:58.1;-0.009353400526854034;-0.20735686019134436;-0.9579381953655984;0.982;0.001857913241635894
54:58.1;-0.01360454625365284;-0.20483174459167003;-0.9567744490919455;0.9840000000000001;0.002666188767096354
54:58.1;-0.017580352645620356;-0.20247356652819068;-0.9562971103924709;0.981;0.0034039937874273066
54:58.2;-0.021092934716814563;-0.20037029406737597;-0.956587394750047;0.978;0.004042918604268086
54:58.2;-0.023982160109297487;-0.19859562256873362;-0.9576934891747542;0.97;0.004561256597664816
54:58.2;-0.026122559749933764;-0.19721003197217846;-0.9596179419216533;0.97;0.004943597387559985
54:58.2;-0.02742854056854838;-0.19626232261855114;-0.9623066656450819;0.971;0.005180278732206892
54:58.2;-0.027858404658871887;-0.19578972486068044;-0.9656439549165686;0.978;0.005266998135665597
54:58.2;-0.02741742628538134;-0.1958153458553882;-0.9694566044812881;0.986;0.005204772870002144
54:58.2;-0.026159775486106457;-0.1963430656672492;-0.9735275793304996;0.995;0.005000320472885891
54:58.2;-0.024188621890557628;-0.1973514897612225;-0.9776169544620239;1.003;0.004666811503554894
54:58.2;-0.021653398619261303;-0.19878947980874795;-0.9814860173999383;1.008;0.004224775004781157
54:58.2;-0.01874276491636109;-0.20057554699066824;-0.9849200866967802;1.012;0.003702649799035067
54:58.3;-0.01567176677746591;-0.20260215091564238;-0.987746660807003;1.013;0.003136227668071229
54:58.3;-0.012663095286464228;-0.20474446484318345;-0.9898472797526222;1.015;0.0025663757234265987
54:58.3;-0.009924965585713853;-0.20687192204199392;-0.9911631570860273;1.015;0.0020350529301467546
54:58.3;-0.007630034762880251;-0.208860094022672;-0.9916957074370272;1.016;0.001580375976143936
54:58.3;-0.005899339758627376;-0.210600737652146;-0.9915033529109981;1.016;0.0012318490254109348
54:58.3;-0.004793084215658767;-0.2120091319327216;-0.9906955436124013;1.018;0.0010067226434591512
54:58.3;-0.004307987330628944;-0.21302886444644167;-0.9894241946073643;1.015;0.0009080199612248978
54:58.3;-0.004379712267014269;-0.2136342788760042;-0.9878722842202943;1.012;0.0009243092936644251
54:58.3;-0.004888828191567953;-0.21383055927243352;-0.9862395103476674;1.011;0.0010309959137951117
54:58.3;-0.005669878710931084;-0.2136516410170995;-0.984725387521329;1.0090000000000001;0.0011928755478341118
54:58.4;-0.0065246138661154;-0.21315648474522916;-0.9835104329154558;1.004;0.0013678306637674748
54:58.4;-0.0072407401590323895;-0.21242414176944363;-0.9827363230189642;0.995;0.0015115546141413602
54:58.4;-0.007615820729504912;-0.2115476634160361;-0.982486860444662;0.995;0.001582893502159621
54:58.4;-0.007483323113786605;-0.2106268074101937;-0.9827729683713163;0.9940000000000001;0.0015490354078867535
54:58.4;-0.006736369583305619;-0.20975975456790996;-0.9835253008486924;0.9940000000000001;0.001389740163755867
54:58.4;-0.005345042933804425;-0.20903450820433875;-0.9845969390574616;0.997;0.001100088605329236
54:58.4;-0.003364131461398886;-0.20852115509992844;-0.9857769472868885;1.003;0.0006915152123207575
54:58.4;-0.0009295900744078824;-0.20826632418021918;-0.9868138771235846;1.01;0.00019104944397165183
54:58.4;0.0017560844591908654;-0.20829069350829263;-0.9874465478836869;1.0170000000000001;0.0003611842977367385
54:58.4;0.00444736079508101;-0.20858959853216608;-0.987437806563409;1.021;0.0009160195925544583
54:58.5;0.006884295773787786;-0.2091362157540848;-0.9866060614716392;1.022;0.0014204715687114405
54:58.5;0.008821638434502482;-0.209886522620656;-0.9848497192320073;1.016;0.0018234916183056957
54:58.5;0.01005404425475272;-0.21078506911755177;-0.9821613681575182;1.016;0.002081438027955839
54:58.5;0.010434581662071727;-0.21177054978963064;-0.9786308091546312;1.011;0.0021625168016919973
54:58.5;0.009885731325017228;-0.21278042514897408;-0.9744374910159169;1.002;0.0020497196293023613
54:58.5;0.008403398435311236;-0.2137543812457539;-0.969833457754222;0.9940000000000001;0.0017420761822016294
54:58.5;0.006054690700112124;-0.21463692908526538;-0.965118662135532;0.985;0.0012542298193787922
54:58.5;0.0029698985429508088;-0.2153796138217355;-0.960611698958049;0.977;0.0006144606538844682
54:58.5;-0.0006709080059406488;-0.21594301836975902;-0.9566198634393385;0.973;0.0001385930767710904
54:58.5;-0.004655627369469674;-0.21629828014055374;-0.9534124053106906;0.97;0.0009600902897980541
54:58.6;-0.00876037237163256;-0.2164276734861443;-0.9511999461946905;0.9670000000000001;0.0018034627431008443
54:58.6;-0.0127699577877813;-0.21632407914163373;-0.9501216104787957;0.972;0.002624662833952569
54:58.6;-0.01649622241398005;-0.21598952820047745;-0.9502399277485335;0.972;0.003385715596749725
54:58.6;-0.019791637652913117;-0.21543311933186018;-0.9515423388963564;0.973;0.004057161709290175
54:58.6;-0.02255617793752948;-0.2146685845931061;-0.9539476010743534;0.976;0.004619112342278279
54:58.6;-0.024737002797206406;-0.21371200894162032;-0.9573156556635983;0.981;0.005060939740292042
54:58.6;-0.026322151932458276;-0.21258050889167754;-0.9614599579799668;0.986;0.005379922701303955
54:58.6;-0.027330357912939595;-0.21129243587808877;-0.96616127988931;0.991;0.0055792895109898774
54:58.6;-0.027799389861063874;-0.2098689086262905;-0.9711817818902634;0.997;0.005666095566833597
54:58.6;-0.027775188867102136;-0.20833581390799916;-0.976278184599783;1.0;0.0056492987148862115
54:58.7;-0.02730336126441292;-0.2067252432709714;-0.9812133549296754;1.001;0.005538256651459791
54:58.7;-0.026423599985985383;-0.205075689361558;-0.9857663981006302;1.011;0.005341708399939348
54:58.7;-0.025166885188983974;-0.20343105590340427;-0.9897417749989418;1.011;0.005067206726257863
54:58.7;-0.023555222216652516;-0.20183917213141087;-0.992977592594557;1.016;0.004720979452700551
54:58.7;-0.02160384079440836;-0.2003504513142064;-0.995352658685917;1.0190000000000001;0.004308223983446843
54:58.7;-0.019325550039881022;-0.1990166779444525;-0.9967917600980325;1.021;0.003833767535184838
54:58.7;-0.01673615429549797;-0.19788945828969323;-0.9972685540085524;1.021;0.0033028622081722673
54:58.7;-0.013859079486984243;-0.19701803734546683;-0.9968053214241613;1.02;0.002721765606380866
54:58.7;-0.010727615641151163;-0.1964466256793363;-0.9954690276812418;1.016;0.002097855305579549
54:58.7;-0.007384608701598625;-0.1962116338182561;-0.9933637142348227;1.012;0.0014393305178160782
54:58.8;-0.003880777117190606;-0.19633900863530568;-0.9906200343567696;1.008;0.0007548008865004075
54:58.8;-0.0002729417287374458;-0.19684138987661223;-0.9873835484077715;1.001;5.304839486956462e-05
54:58.8;0.0033772238901645982;-0.19771483695960948;-0.9838037897204995;1.001;0.0006569126195324341
54:58.8;0.007003867903944414;-0.1989357530675714;-0.9800257154096593;0.9990000000000001;0.0013654891709276294
54:58.8;0.010537421782225775;-0.2004594419361665;-0.9761840147510521;0.996;0.00206201857243909
54:58.8;0.013905582322558327;-0.20222152473157246;-0.9723995771371917;0.991;0.0027343954480109917
54:58.8;0.017035378928467494;-0.20414250133581452;-0.9687771507366862;0.9890000000000001;0.0033690628842289187
54:58.8;0.0198561951429194;-0.20613481638619666;-0.9654038588560451;0.986;0.003951449295776002
54:58.8;0.022303193429289984;-0.20811112046550945;-0.9623488866701118;0.985;0.004466783329029452
54:58.8;0.024320779458320885;-0.20999208211987816;-0.9596646752473023;0.9840000000000001;0.004901171711650048
54:58.9;0.02586589217915268;-0.21171236796352347;-0.9573894878100384;0.981;0.005242788609181701
54:58.9;0.02691056681792694;-0.21322420278618215;-0.9555508119637997;0.9790000000000001;0.005482935419565674
54:58.9;0.027443046041716115;-0.2144986562910566;-0.9541691256921603;0.9790000000000001;0.005616713219254591
54:58.9;0.027467369168552313;-0.21552500092990468;-0.9532617706305583;0.981;0.005643218898814676
54:58.9;0.027002296463268332;-0.21630839911694896;-0.9528464488327333;0.981;0.0055654079497202726
54:58.9;0.026080677663110407;-0.2168662990469955;-0.9529432766051392;0.982;0.0053898662708307355
54:58.9;0.02474972963496824;-0.21722413727237097;-0.9535741136142332;0.981;0.005126642022111912
54:58.9;0.023071588796793205;-0.21741093092512762;-0.9547584628310047;0.978;0.004789083342104858
54:58.9;0.021122722100135292;-0.2174551838216752;-0.956506386441319;0.977;0.004393468575947591
54:58.9;0.018990914639552887;-0.2173814260500534;-0.9588100672641525;0.978;0.003958228855965388
54:59.0;0.01676939555306641;-0.21720765985102844;-0.961636323328637;0.977;0.003502703730041687
54:59.0;0.014548661298989796;-0.21694393247019714;-0.9649223236198027;0.988;0.0030455300959835517
54:59.0;0.012407621375761662;-0.21659213269597274;-0.9685759856180433;0.988;0.002602944493664719
54:59.0;0.010406545895767848;-0.21614693781564337;-0.972481257791203;0.996;0.0021874439376647486
54:59.0;0.008583955264944385;-0.21559775665374908;-0.976507323241848;1.003;0.001807204036115397
54:59.0;0.006957907074434497;-0.21493153060383327;-0.9805200412788746;1.01;0.0014663418529737649
54:59.0;0.005530493000599212;-0.21413615637542058;-0.9843932715179434;1.016;0.0011657958007942023
54:59.0;0.0042938609131910185;-0.21320401371609063;-0.988017213160769;1.0170000000000001;0.0009044985185630134
54:59.0;0.0032363430862379964;-0.21213499543140704;-0.9913013577055411;1.015;0.0006805696457903547
54:59.0;0.002347511935878492;-0.21093881500974812;-0.9941713707771683;1.011;0.0004922951572785501
54:59.1;0.001621237512575654;-0.20963673969784696;-0.9965616009070566;1.01;0.0003387023344583457
54:59.1;0.0010565392364326476;-0.20826270277102532;-0.9984068702353152;1.013;0.0002196871683268513
54:59.1;0.0006569080177779315;-0.20686325003139353;-0.9996376268204812;1.015;0.00013584088459164538
54:59.1;0.0004290216845582482;-0.2054956463828988;-1.0001812020366063;1.018;8.817806353054334e-05
54:59.1;0.0003813590608868361;-0.20422392578568954;-0.9999697377962258;1.022;7.788028764779369e-05
54:59.1;0.0005227873268589254;-0.20311340769190722;-0.9989533056086299;1.026;0.00010607397209166401
54:59.1;0.0008610406543451004;-0.2022247768178904;-0.9971151184386129;1.028;0.0001736214277483039
54:59.1;0.0014010641811508942;-0.20160888929964232;-0.9944847348949928;1.025;0.00028090911304733297
54:59.1;0.0021434506909328924;-0.20130298053062334;-0.9911452823386315;1.018;0.00042766235245203385
54:59.1;0.003083425700815879;-0.20132833030056307;-0.9872322498382721;1.01;0.0006128549719025041
54:59.2;0.004210721591272445;-0.2016892327782172;-0.982923813577603;1.002;0.0008347551327959338
54:59.2;0.0055103294444653565;-0.20237323078147068;-0.9784248363290009;0.997;0.0010910837758867432
54:59.2;0.006963776153936734;-0.20335253274010215;-0.9739477286758792;0.99;0.001379208857359917
54:59.2;0.008550176035423684;-0.20458638371450685;-0.9696932797464537;0.985;0.0016962355770741193
54:59.2;0.010246019787925189;-0.20602414531343635;-0.9658339995540043;0.982;0.0020388055208015706
54:59.2;0.012023069596093318;-0.20760878071883185;-0.9625018657768137;0.9790000000000001;0.0024024959207730834
54:59.2;0.013844824112214412;-0.20928029613220508;-0.9597815934208752;0.977;0.002780918112598148
54:59.2;0.015663134103105512;-0.21097874903955702;-0.9577097314142861;0.978;0.0031648365064567323
54:59.2;0.01741714630861033;-0.21264672183690408;-0.9562792198727403;0.9790000000000001;0.003541770453745369
54:59.2;0.019036379394364273;-0.2142314365095649;-0.9554483931565161;0.98;0.003896500945826069
54:59.3;0.02044820806740727;-0.21568677826470706;-0.9551527738349703;0.9840000000000001;0.004212613548937097
54:59.3;0.02158806563794563;-0.2169752634975063;-0.9553176462003574;0.986;0.004474780678852658
54:59.3;0.022409417198589222;-0.2180695610919543;-0.9558693394719738;0.986;0.004671153541412037
54:59.3;0.022890604690772046;-0.2189530518040408;-0.9567433362637537;0.986;0.004795166750863137
54:59.3;0.023036808405105157;-0.21961922299691256;-0.9578879767622478;0.985;0.00484626750976797
54:59.3;0.022876881023554826;-0.22007004443702563;-0.9592636205788363;0.9840000000000001;0.004829428260354437
54:59.3;0.022456033062796987;-0.22031369157331243;-0.9608382204993985;0.983;0.004753623668715652
54:59.3;0.021826116545410047;-0.2203621641204637;-0.9625810651710296;0.982;0.004629678286053306
54:59.3;0.021035745691064565;-0.22022930852620706;-0.9644569075700917;0.9840000000000001;0.00446802767976548
54:59.3;0.02012270839721712;-0.21992943605851523;-0.9664226613965464;0.9890000000000001;0.004276976848932279
54:59.4;0.019110735381822796;-0.219476532570726;-0.9684280516034635;0.993;0.004061933884152033
54:59.4;0.01801156140332885;-0.21888414163423928;-0.9704201242421743;0.9990000000000001;0.003825828119326236
54:59.4;0.01683156390041255;-0.2181661022358789;-0.9723500125051844;0.9990000000000001;0.00357054381610963
54:59.4;0.01558060915069129;-0.21733830952961958;-0.974179620760615;1.002;0.0032988286528237614
54:59.4;0.014279933918754822;-0.21642144769032157;-0.9758861937254781;1.0070000000000001;0.0030159606398329087
54:59.4;0.012966458607295726;-0.21544404512256407;-0.9774635037503208;1.005;0.002730589547708493
54:59.4;0.011692348092660017;-0.21444455834470713;-0.9789189934553497;1.003;0.002454502741261413
54:59.4;0.010520081093771488;-0.2134711855710833;-0.9802669824458554;1.0;0.0022014190713285343
54:59.4;0.009514439095816828;-0.2125787989010118;-0.9815193939811713;0.998;0.0019851897522006594
54:59.4;0.008733535880135142;-0.21182317365118766;-0.9826767125473853;0.998;0.0018179178068770242
54:59.5;0.008220907947513638;-0.2112533241783593;-0.9837220728418742;1.002;0.0017084243511051734
54:59.5;0.007999776144033261;-0.21090340599623653;-0.9846202657118822;1.0070000000000001;0.0016612316553344026
54:59.5;0.008069652819566975;-0.2107861242589397;-0.9853215386543301;1.0070000000000001;0.0016760032071980473
54:59.5;0.008405125063411723;-0.2108894181038372;-0.9857684268875374;1.008;0.0017473257312726044
54:59.5;0.008956716292493335;-0.211177355016165;-0.9859034866496263;1.008;0.0018647927263685585
54:59.5;0.00965398820163943;-0.21159502882110895;-0.9856766396514677;1.0090000000000001;0.0020134770692034495
54:59.5;0.010411421904898724;-0.21207613437822517;-0.9850518118784835;1.01;0.0021750083006659305
54:59.5;0.011137504363389318;-0.21255129120126373;-0.9840128402160037;1.011;0.0023294446747938644
54:59.5;0.011746240719816435;-0.21295556338922136;-0.9825682020562776;1.011;0.002457822934751713
54:59.5;0.012168664933752054;-0.2132345373219975;-0.9807535148099686;1.008;0.0025448392491205997
54:59.6;0.012361199018073768;-0.21334880503560585;-0.9786306678001713;1.003;0.002580890831237241
54:59.6;0.012308488961587592;-0.21327663724642498;-0.9762832114925973;1.0;0.0025628538822739405
54:59.6;0.012020132886414951;-0.21301462493379572;-0.9738087740474488;0.995;0.0024934024047080583
54:59.6;0.011522651898750897;-0.212576246507769;-0.9713101163046437;0.9890000000000001;0.0023791678817585028
54:59.6;0.010849402956779391;-0.21198847423063988;-0.9688867881035047;0.988;0.0022283895978504617
54:59.6;0.010031459955995801;-0.21128685934425642;-0.9666292245487401;0.986;0.0020487857872930754
54:59.6;0.009091857079251576;-0.21051007749047726;-0.9646163524344036;0.987;0.0018462058008048064
54:59.6;0.008044494173947385;-0.20969516613291123;-0.9629165050628756;0.987;0.001624335708294215
54:59.6;0.00689773169020204;-0.2088743048003276;-0.9615903085974189;0.986;0.0013854198063142848
54:59.6;0.005661310855830636;-0.2080732648391928;-0.9606937638381243;0.985;0.0011316659669280882
54:59.7;0.004354238287542726;-0.20731110831126576;-0.96028007355172;0.9840000000000001;0.0008668275039762359
54:59.7;0.0030112066133959866;-0.2066005787507656;-0.9603994391935845;0.987;0.0005974808458275192
54:59.7;0.0016857492268691336;-0.20594883100511957;-0.9610964508714044;0.987;0.00033367162304706767
54:59.7;0.00044916700129002336;-0.20535851345819114;-0.9624046427744493;0.986;8.877246186540543e-05
54:59.7;-0.0006147793073591869;-0.20482935864510365;-0.9643378780462359;0.985;0.00012143410383292315
54:59.7;-0.0014183607111163468;-0.20436013125195004;-0.9668791016522839;0.9790000000000001;0.0002802560773529481
54:59.7;-0.0018797595641738816;-0.20395051090298;-0.9699685332773629;0.98;0.00037186452213660177
54:59.7;-0.001932568990409604;-0.20360270605005173;-0.9734947853548276;0.9840000000000001;0.0003830471029206393
54:59.7;-0.0015336274066764216;-0.20332279854499172;-0.9772926896224139;0.992;0.00030474079056956393
54:59.7;-0.0006681846979752646;-0.2031214227589173;-0.981150253057295;0.9990000000000001;0.00013316428935420072
54:59.8;0.0006483044999834993;-0.20301299057105027;-0.9848247248076186;1.005;0.00012961695310176506
54:59.8;0.0023716060004783782;-0.20301317155390966;-0.9880655179818076;1.014;0.00047572119352630644
54:59.8;0.004432365683230119;-0.20313527201966117;-0.9906404739427873;1.0190000000000001;0.000891942774067405
54:59.8;0.006741216989853092;-0.2033864880355994;-0.9923615770310314;1.022;0.0013605996173682309
54:59.8;0.009195320883318746;-0.20376479970976782;-0.9931064347973061;1.023;0.0018607663640704064
54:59.8;0.01168639632583147;-0.2042571717087164;-0.9928326037455546;1.023;0.0023699214692296643
54:59.8;0.01410967180713229;-0.20483965924611564;-0.9915829995809138;1.02;0.0028658933790236462
54:59.8;0.01637274716343382;-0.20547958668065353;-0.9894818188949014;1.0170000000000001;0.0033288793680481847
54:59.8;0.01840309498207561;-0.20613933126708198;-0.9867214061888705;1.014;0.0037432279968890943
54:59.8;0.020152445271820554;-0.20678087153436636;-0.9835412159431312;1.0070000000000001;0.004098554136220929
54:59.9;0.02159622862406512;-0.20737015633059194;-0.980200519477437;0.9990000000000001;0.004389743048900968
54:59.9;0.0227275508945355;-0.20788030711454614;-0.9769472955932844;0.987;0.004615695216158703
54:59.9;0.02354757335321981;-0.20829299776891838;-0.9739873232502017;0.9690000000000001;0.004777207806329075
54:59.9;0.024056275766585738;-0.20859838197704872;-0.9714596286541116;0.972;0.004874881758107394
54:59.9;0.024247870246385802;-0.2087947484953848;-0.9694254439202499;0.985;0.0049080342519628745
54:59.9;0.024112987953021057;-0.2088883453205289;-0.9678751306821395;0.998;0.004875111688271206
54:59.9;0.023646049052105343;-0.20889230654563187;-0.9667509098585756;1.0070000000000001;0.00477524458698269
54:59.9;0.022853110023316348;-0.20882362192298246;-0.9659766459737801;1.005;0.004609900602525845
54:59.9;0.021755344970175717;-0.20869864773334856;-0.9654838307623089;0.998;0.004383596930748633
54:59.9;0.020386636732609466;-0.2085286746916906;-0.965226215556934;0.9890000000000001;0.004103368084597425
55:00.0;0.018787807398038776;-0.20831686846274627;-0.9651816138192969;0.983;0.0037775444036453974
55:00.0;0.017001392180108967;-0.2080573801063606;-0.9653445561631614;0.9840000000000001;0.003414679622620002
55:00.0;0.015069171481891014;-0.20773683582706526;-0.965715470848432;0.9840000000000001;0.0030230969577929178
55:00.0;0.013032266766094314;-0.20733753008020758;-0.966291027037859;0.986;0.0026109937282961736
55:00.0;0.010932342773159975;-0.20684102422426762;-0.9670579666676536;0.987;0.002186766573682559
55:00.0;0.008812453104398961;-0.20623119846232663;-0.9679908275574204;0.988;0.0017592292066071177
55:00.0;0.006716765870614219;-0.20549676648136694;-0.9690529921639833;0.9890000000000001;0.0013375583276158296
55:00.0;0.004689243099215581;-0.2046338444628929;-0.9702002548942531;0.992;0.0009309826678826481
55:00.0;0.0027717069398818456;-0.2036488816711261;-0.9713861342603116;0.995;0.0005483037785079496
55:00.0;0.0010015604525807323;-0.20256149236904528;-0.9725680287979194;1.0;0.0001973122480412142
55:00.1;-0.0005906599203472566;-0.201406164788732;-0.9737128002002672;1.002;0.0001158353569506976
55:00.1;-0.001983567995258076;-0.20023180406254332;-0.974799824870549;0.995;0.0003871645589805723
55:00.1;-0.0031665558726357403;-0.19909855749296296;-0.9758200471391281;0.995;0.0006152122930195591
55:00.1;-0.004140054304849858;-0.19807208584015792;-0.9767714961184678;0.992;0.0008009811403918518
55:00.1;-0.004913598833524487;-0.19721598563397363;-0.9776536827889821;0.99;0.0009473857564380492
55:00.1;-0.005501365584342667;-0.19658344439688566;-0.9784637840955598;0.9940000000000001;0.0010581864647722428
55:00.1;-0.005915945641757427;-0.19620969570510846;-0.9791965845627331;1.001;0.0011366179990552087
55:00.1;-0.006162364648535009;-0.19610708434184884;-0.9798482910436662;1.005;0.0011841303588480928
55:00.1;-0.006235002101129838;-0.19626394366365718;-0.9804221469372777;1.006;0.0011997485628792675
55:00.1;-0.006119332130824102;-0.19664727979928098;-0.9809325431232263;1.005;0.0011804051931444538
55:00.2;-0.005798257214506783;-0.19720826664210633;-0.981405019511713;1.001;0.0011222015593105768
55:00.2;-0.005260430501125776;-0.19788917066503578;-0.9818716428500134;0.9990000000000001;0.0010221109315709514
55:00.2;-0.004506981297959986;-0.19863041538546633;-0.9823633368294836;0.9990000000000001;0.0008794348108286898
55:00.2;-0.0035540387665949505;-0.1993768417201545;-0.982901716920622;0.9990000000000001;0.0006964773005114179
55:00.2;-0.0024304328498245395;-0.20008268737636145;-0.9834926439767955;1.002;0.0004782602145929518
55:00.2;-0.001171780494114419;-0.20071520400761664;-0.9841226873495064;1.003;0.00023145990970169193
55:00.2;0.00018660660981209028;-0.20125695346438238;-0.9847587137125932;1.004;3.698347790196999e-05
55:00.2;0.0016152820339238856;-0.2017067772948213;-0.9853502411884948;1.005;0.00032104024673188327
55:00.2;0.003092954692080258;-0.20207938670083314;-0.985834034047925;1.006;0.0006161683414117048
55:00.2;0.00460539139616805;-0.20240337737910452;-0.9861404539368164;1.0070000000000001;0.0009192276416026854
55:00.3;0.006141885386540869;-0.2027173451696786;-0.9862010766536228;1.0090000000000001;0.0012278861199430185
55:00.3;0.007690393442489016;-0.20306407367010454;-0.9859568911092859;1.01;0.0015397123031888067
55:00.3;0.009232402789645456;-0.2034834650235537;-0.9853660137051365;1.01;0.0018511492989447713
55:00.3;0.01073881748572466;-0.2040054619933001;-0.9844095311376676;1.0070000000000001;0.002156622175248184
55:00.3;0.012168208754051266;-0.20464427192264595;-0.9830943260430179;1.004;0.0024480564857114816
55:00.3;0.013468222860823446;-0.2053947957018254;-0.9814527325100254;1.001;0.002714995523436837
55:00.3;0.014579964027720558;-0.20623156242316282;-0.9795400493328902;0.9990000000000001;0.002945328784186359
55:00.3;0.015444231874549314;-0.2071099428160201;-0.9774314477906837;1.0;0.003126464991019627
55:00.3;0.016007994481279788;-0.2079691651157571;-0.9752192930459698;1.001;0.003246670079927992
