Time;AccX;AccY;AccZ;Acc-old;Acc-trns
53:58.4;0.009791674275730465;-0.17701829001323383;-0.9579289434008654;0.9740000000000001;0.0016603834455272185
53:58.4;0.008689546523494244;-0.17553559189580586;-0.9631217879013653;0.9740000000000001;0.001469073444785496
53:58.5;0.007730351040603434;-0.1741697278948902;-0.968038976563064;0.986;0.001303361034658141
53:58.5;0.007032528916442393;-0.173023115640572;-0.9724383194020062;0.998;0.0011832532848577307
53:58.5;0.006673537754947275;-0.17217159252009664;-0.976130506355265;1.0070000000000001;0.0011215677270299304
53:58.5;0.0066783030043990445;-0.1716541825960815;-0.978999770000764;1.008;0.0011222848481771306
53:58.5;0.0070192361939048105;-0.17146831300573884;-0.9810147763869839;1.005;0.0011807264180847253
53:58.5;0.00762771306410033;-0.1715725528783373;-0.9822261742637509;0.9990000000000001;0.0012854454870385144
53:58.5;0.008413035300072175;-0.17189658738238112;-0.9827512778745475;0.993;0.0014212274376426061
53:58.5;0.009282620574328111;-0.1723556837916178;-0.9827501962655152;0.99;0.0015723142412900498
53:58.5;0.010157419420398781;-0.1728657735428062;-0.9823995638031782;0.991;0.001724966084491587
53:58.5;0.010979212255643665;-0.17335570652321416;-0.981869444116282;0.991;0.0018688010456865897
53:58.6;0.011710196156321157;-0.1737745700132682;-0.9813067404682062;0.992;0.00199689474680137
53:58.6;0.012328179482013037;-0.17409366686489075;-0.9808259417147352;0.992;0.002105105496345802
53:58.6;0.012821358131429834;-0.17430438323539746;-0.9805063042244582;0.997;0.002191254041173018
53:58.6;0.013185193801907075;-0.17441394133908752;-0.9803936929853594;0.997;0.002254593354465803
53:58.6;0.01342174071381505;-0.17444059939924383;-0.9805049200392352;0.996;0.002295652732715316
53:58.6;0.013540257937549758;-0.17440900563334688;-0.9808326037411259;0.996;0.0023162782939213857
53:58.6;0.01355759801206516;-0.17434590884774678;-0.9813495015478977;0.9940000000000001;0.0023196273449234256
53:58.6;0.013497339239308043;-0.17427628622600508;-0.9820124712981121;0.993;0.002309954701553551
53:58.6;0.013387446701378345;-0.17421998643062137;-0.9827670667580913;0.995;0.0022921673649912663
53:58.6;0.013257096824410907;-0.17418915828734224;-0.9835539050904034;1.003;0.0022712645152422276
53:58.7;0.013133730242028038;-0.17418686706794903;-0.9843169624200621;1.006;0.002251844872915185
53:58.7;0.013041001226151238;-0.1742071661610701;-0.9850121327209332;1.006;0.0022377858930487716
53:58.7;0.012997401889236104;-0.17423659532078714;-0.9856132522253158;1.004;0.0022320424925253925
53:58.7;0.013014838512684434;-0.17425684637423713;-0.9861135338288308;1.003;0.0022364312554527185
53:58.7;0.013096748543914872;-0.17424810203902574;-0.9865222733955229;1.002;0.002251326278124756
53:58.7;0.013236085963956541;-0.17419227502519793;-0.9868582346277901;1.0;0.002275323957812186
53:58.7;0.013414015755925133;-0.17407541152028713;-0.9871416445120496;0.998;0.0023050254058473787
53:58.7;0.013600089243630006;-0.17388911068169424;-0.9873866142019581;0.9990000000000001;0.0023350779340538773
53:58.7;0.013754216274021581;-0.17363152488264347;-0.9875954437060431;1.002;0.0023585414112790182
53:58.7;0.013830417662063697;-0.17330857421033152;-0.9877555957072248;1.002;0.0023675809861835886
53:58.8;0.013782311003158685;-0.17293520160791928;-0.9878393188151662;0.997;0.0023544623961259613
53:58.8;0.013570120257002584;-0.17253562382030177;-0.9878058532979715;0.997;0.002312778652556627
53:58.8;0.013168352450614871;-0.17214158441500205;-0.9876070550882151;0.998;0.0022387284665247274
53:58.8;0.012572627652676058;-0.17178856539614126;-0.9871977399531744;1.002;0.0021321829154411233
53:58.8;0.011804119546125957;-0.1715110609608078;-0.9865508847194333;1.0070000000000001;0.001997308834659544
53:58.8;0.010910582536580884;-0.17133871979758541;-0.9856755589792701;1.013;0.0018426270589012275
53:58.8;0.009963742844839179;-0.1712948716735139;-0.984633367931109;1.018;0.0016805112363116425
53:58.8;0.009053844107217426;-0.1713976695034111;-0.9835480268987651;1.0170000000000001;0.0015262774801690123
53:58.8;0.008282802844415432;-0.1716627750662592;-0.9826029061971114;1.01;0.0013971128825364634
53:58.8;0.007756978629312801;-0.17210620070500227;-0.982023360793669;1.003;0.0013110248738888157
53:58.9;0.007579362756356009;-0.17274644452094284;-0.9820442888032936;0.981;0.0012857984121558855
53:58.9;0.007840296086218366;-0.17360542591224654;-0.9828679379307953;0.981;0.0013377991842717528
53:58.9;0.008606103230585797;-0.1747074996786421;-0.9846208740685584;0.982;0.0014804274806421015
53:58.9;0.009905861442741233;-0.1760756491209989;-0.9873197501084792;0.9840000000000001;0.001722064332904828
53:58.9;0.011717846928519121;-0.17772452817180334;-0.9908525585637475;0.986;0.0020634988232228523
53:58.9;0.013958898644232122;-0.17965115059520417;-0.9949783320830504;0.9940000000000001;0.0024951392041326504
53:58.9;0.016480804257956828;-0.1818249967475386;-0.9993460393114594;1.003;0.0029946625074952996
53:58.9;0.01907694340361929;-0.18417997319978438;-1.0035315988378661;1.028;0.003525999518439209
53:58.9;0.02150069413333449;-0.18661153629062907;-1.007088569645136;1.044;0.004040718872481209
53:58.9;0.023494855953141672;-0.18898251447800207;-1.009603579600506;1.052;0.004482757971939172
53:59.0;0.02482731672303707;-0.1911383046757823;-1.0107452222914128;1.045;0.00479644215640889
53:59.0;0.02532401575200363;-0.19292702583944984;-1.010297777455637;1.045;0.0049359987592151044
53:59.0;0.024890455559840406;-0.1942180399987207;-1.0081768733288872;1.036;0.004873703934167485
53:59.0;0.02351789750100042;-0.1949148294636672;-1.0044287784479107;1.03;0.0046042884434973575
53:59.0;0.021275540897171246;-0.1949615728928805;-0.999216800725645;1.02;0.00414466427507227
53:59.0;0.018292722863463538;-0.19434425802099367;-0.9927985402139096;1.012;0.003529483845723902
53:59.0;0.014735973625229555;-0.19308787697917992;-0.9854974794092758;1.004;0.002804073291578048
53:59.0;0.010785606749618284;-0.19125168200774284;-0.977671791438519;0.992;0.002016707575551892
53:59.0;0.006615756343596224;-0.18892394813641844;-0.9696827085694918;0.98;0.001211981989524637
53:59.0;0.002380494123169965;-0.18621645394134687;-0.9618648907475716;0.9670000000000001;0.00042638236942489616
53:59.1;-0.0017928154269777486;-0.18325799611102103;-0.9545019378457263;0.9570000000000001;0.00031359947602395286
53:59.1;-0.005803183142198308;-0.1801865007376737;-0.947810573382223;0.9570000000000001;0.0009910831148889454
53:59.1;-0.009570422056120456;-0.17714058076562236;-0.941935916323587;0.956;0.0015968734924588618
53:59.1;-0.01302741420954519;-0.17425232626245868;-0.9369575428790964;0.953;0.0021269472455380705
53:59.1;-0.016113638637253676;-0.17164251135100772;-0.9329033197951156;0.951;0.0025802103840204945
53:59.1;-0.01877202545090871;-0.16941784435884358;-0.9297670153208158;0.95;0.002956952995189307
53:59.1;-0.020948761956205084;-0.16766876015328888;-0.9275263400802989;0.948;0.003257892623799994
53:59.1;-0.02259393190694948;-0.16646635073932;-0.926158978023573;0.9490000000000001;0.0034834037552081407
53:59.1;-0.02366111818223516;-0.165858243505685;-0.9256546562466941;0.9470000000000001;0.0036326312659151626
53:59.1;-0.024105856967570123;-0.16586463353741857;-0.9260216382702156;0.946;0.0037025207727545235
53:59.2;-0.02388452277515557;-0.16647613205038225;-0.927286694757119;0.943;0.003687080107395345
53:59.2;-0.022955714720112236;-0.16765418908264768;-0.9294888535007088;0.943;0.003577251005150543
53:59.2;-0.021285428839498674;-0.1693334110511263;-0.9326687551142057;0.9420000000000001;0.003361649957622091
53:59.2;-0.018855967665388957;-0.17142454678367788;-0.9368565460941878;0.946;0.0030282723444801213
53:59.2;-0.01567743513741239;-0.173817562550397;-0.9420614309095078;0.955;0.0025671301760561787
53:59.2;-0.01179986550565998;-0.17638495169244592;-0.9482651379657862;0.9640000000000001;0.001973641971027326
53:59.2;-0.0073232890461258525;-0.17898544603833072;-0.9554198895715624;0.97;0.0012523282347112429
53:59.2;-0.002402784060805257;-0.181468130326744;-0.9634499478455673;0.98;0.0004200918582309428
53:59.2;0.002753478692098225;-0.1836773161141279;-0.9722552488978009;0.992;0.0004917196245424353
53:59.2;0.007893500351062382;-0.1854590788758343;-0.9817155831513502;1.006;0.001437154356854234
53:59.3;0.012737111972513718;-0.18667019232222862;-0.9916933827796665;1.0190000000000001;0.00235788900330205
53:59.3;0.01699641747643238;-0.18718919324645406;-1.0020327609766655;1.0190000000000001;0.0031880129973879314
53:59.3;0.020398712897108054;-0.1869283817302795;-1.0125533798659447;1.021;0.0038609656638084106
53:59.3;0.022709315821801364;-0.18584533317367716;-1.023040615543862;1.03;0.004317661448113511
53:59.3;0.023752138808798385;-0.1839525036587539;-1.0332365816608964;1.04;0.004514484847431459
53:59.3;0.023426202862474568;-0.18132319825715532;-1.0428372038313534;1.054;0.004429674217595796
53:59.3;0.021716553761700938;-0.17809196615368314;-1.0514983722122744;1.063;0.004066715965474657
53:59.3;0.01869863444965872;-0.17444813413984836;-1.0588512830732335;1.07;0.0034539113562844343
53:59.3;0.014535899970871305;-0.1706226537882902;-1.0645252345412053;1.078;0.002640186335696078
53:59.3;0.009471088164916867;-0.16686981143909715;-1.0681755699086157;1.087;0.0016881860050219936
53:59.4;0.003812181611191893;-0.16344589523119504;-1.0695141184159347;1.092;0.0006663986710221585
53:59.4;-0.0020853436804073593;-0.1605871416520718;-1.0683385808625785;1.092;0.00035776456265642807
53:59.4;-0.007838508036728975;-0.15848997451555794;-1.0645564894650088;1.089;0.001322525075816627
53:59.4;-0.01305885660251037;-0.1572969931313986;-1.058199720296784;1.08;0.0021736680214247206
53:59.4;-0.017377526173950095;-0.1570912875784034;-1.0494270877659735;1.068;0.0028647868906495366
53:59.4;-0.020473395494030516;-0.15789970555560048;-1.0385146186936105;1.056;0.0033572509888408573
53:59.4;-0.022101504849436446;-0.15970345549944642;-1.0258350636828997;1.041;0.003620876376769597
53:59.4;-0.022116619487059463;-0.16245265585893673;-1.0118295434431608;1.023;0.0036354059832135266
53:59.4;-0.02048659569902269;-0.1660809472637252;-0.9969748212809595;1.006;0.0033921402513328405
53:59.4;-0.01729213006364411;-0.17051723481193018;-0.9817498371915487;0.9890000000000001;0.00289479365920792
53:59.5;-0.012713087931472206;-0.17569328027474507;-0.9666051522475897;0.961;0.00215901325153828
53:59.5;-0.007005616450386152;-0.18154706353695188;-0.9519392170426704;0.961;0.0012107230315324881
53:59.5;-0.0004763868736382626;-0.18802201884153402;-0.9380853940955881;0.95;8.402545483721682e-05
53:59.5;0.006540841285522017;-0.1950623239208019;-0.9253116555739669;0.9470000000000001;0.001180578956462176
53:59.5;0.013704311060158975;-0.2026052976547543;-0.9138308785039665;0.945;0.00253731176664873
53:59.5;0.020679567571686798;-0.21057307887693916;-0.9038163123506472;0.938;0.003935722553996505
53:59.5;0.027152590437518997;-0.21886611958007085;-0.8954157763107823;0.9329999999999999;0.005321260852537668
53:59.5;0.03284245711685612;-0.22736005434315656;-0.8887592934145561;0.9259999999999999;0.0066364214889844415
53:59.5;0.037514318546681795;-0.23590553746276918;-0.8839575449214864;0.915;0.007822878843245071
53:59.5;0.04099153379384786;-0.24432971831051511;-0.8810917383921645;0.9059999999999999;0.008824530167546843
53:59.6;0.04316394891296581;-0.25243952005676623;-0.8801983020708372;0.907;0.009590892917849375
53:59.6;0.043989283026062566;-0.26002846857535733;-0.8812536056428483;0.907;0.010080189316512117
53:59.6;0.043487041807171604;-0.26688779709919497;-0.8841639824350191;0.9179999999999999;0.01026174934511215
53:59.6;0.04172762519359997;-0.2728203150800127;-0.8887644402759827;0.932;0.01011782223940716
53:59.6;0.03882094889677515;-0.2776544655237203;-0.8948262824668431;0.9420000000000001;0.009645162318014912
53:59.6;0.03490799113223105;-0.28125607182986384;-0.902070914704207;0.948;0.008856608430668824
53:59.6;0.03015582611871024;-0.2835362047719633;-0.9101860116193969;0.953;0.0077823347746987384
53:59.6;0.024753944992173087;-0.2844552333885929;-0.9188414347019062;0.961;0.006469920154856492
53:59.6;0.01890906278421832;-0.2840240272175927;-0.9277045836045015;0.9690000000000001;0.0049823563635429035
53:59.6;0.012836941671296176;-0.2823026104559066;-0.9364563917031248;0.98;0.003393626325727676
53:59.7;0.006751326851617564;-0.2793956101236329;-0.9448088211250167;1.001;0.0017821844561774155
53:59.7;0.0008512761340635159;-0.27544412298021265;-0.952522375478668;1.001;0.0002233465018535035
53:59.7;-0.004690993622493922;-0.27061475505175947;-0.9594195179402348;1.004;0.0012179371123325015
53:59.7;-0.009739739463638004;-0.2650871376137177;-0.9653899252997366;1.002;0.002492520607774556
53:59.7;-0.014201754143904774;-0.25904124492679875;-0.9703866656538371;1.002;0.003569897352476387
53:59.7;-0.018028261041196113;-0.252646224818461;-0.9744156846808295;1.001;0.004438241366688692
53:59.7;-0.021211831844078537;-0.24605267968353034;-0.9775222901986302;1.005;0.0051019117723720385
53:59.7;-0.023777793285849683;-0.23938945700022013;-0.9797778856471765;1.008;0.005577045654010818
53:59.7;-0.025770792847301147;-0.23276444276334485;-0.9812687343455464;1.0090000000000001;0.005886164285659869
53:59.7;-0.02723888827198118;-0.22626756146263416;-0.9820869142073818;1.006;0.006052873519701977
53:59.8;-0.02821903129347752;-0.2199737688579746;-0.9823229954837887;1.001;0.00609771760437807
53:59.8;-0.028728076620628512;-0.21394459075363567;-0.982060611176904;1.001;0.0060359572264375196
53:59.8;-0.028761914992420395;-0.20822811014767342;-0.9813739722174448;1.0;0.005877487192511986
53:59.8;-0.028302880711452497;-0.20285794186627656;-0.9803293392133857;1.002;0.005628525736692011
53:59.8;-0.027333341498604734;-0.19785172239385687;-0.9789902895466975;1.004;0.0052943292580653264
53:59.8;-0.025851784250958926;-0.19321015270400346;-0.9774249375315768;1.005;0.004882068647128066
53:59.8;-0.023887149675232946;-0.18891834865491167;-0.9757119863846149;0.9990000000000001;0.004403115844767293
53:59.8;-0.021507801492384366;-0.1849508510793287;-0.9739425438166935;0.995;0.0038742325957411847
53:59.8;-0.018822867667128918;-0.18128012642169977;-0.9722162586420698;0.99;0.0033174078193640845
53:59.8;-0.015975346849627665;-0.17788680886524338;-0.9706325471676941;0.983;0.002758346942184915
53:59.9;-0.013128177852958238;-0.17476909311480626;-0.9692792683740138;0.981;0.002223914099029503
53:59.9;-0.010446048371102391;-0.1719487876445266;-0.9682217707919311;0.981;0.0017391057632365585
53:59.9;-0.008076500573699711;-0.1694721626784754;-0.967494864176077;0.975;0.001324250873860119
53:59.9;-0.006133577034124652;-0.16740449611825062;-0.9670995066296;0.97;0.0009930065287479975
53:59.9;-0.0046862838491951485;-0.165818564568296;-0.9670056745424459;0.9740000000000001;0.0007514338661519686
53:59.9;-0.003753144665559692;-0.16477945516740491;-0.967162608135147;0.9840000000000001;0.0005981331393206112
53:59.9;-0.003302922963302296;-0.164329802369377;-0.967515838708446;0.992;0.0005251372925270605
53:59.9;-0.00326014346235012;-0.16447948225695597;-0.9680271261934857;0.997;0.000519081999879538
53:59.9;-0.0035133264212960217;-0.16520209161050267;-0.9686910187990286;0.996;0.0005622368628052507
53:59.9;-0.003924635008496309;-0.1664386325013269;-0.9695420986107857;0.993;0.0006333154511933513
54:00.0;-0.00434109403292958;-0.16810747664040593;-0.9706499065940779;0.981;0.0007083515353940332
54:00.0;-0.004607896598640292;-0.17011828154203262;-0.9721028113002881;0.981;0.0007620191947474148
54:00.0;-0.004583090516548367;-0.17238601274756601;-0.9739860088873669;0.9790000000000001;0.0007695080681752792
54:00.0;-0.004151614330387683;-0.1748410882301277;-0.9763604406528633;0.983;0.0007087134550724834
54:00.0;-0.0032364638699025556;-0.17743346222569328;-0.9792481189271828;0.988;0.0005623400770475051
54:00.0;-0.001805411065863116;-0.18013063023943124;-0.9826265966883038;0.995;0.0003195598315431797
54:00.0;0.0001273284863528586;-0.18291090809753918;-0.9864325485968611;1.006;2.2973786255500175e-05
54:00.0;0.0025039124301571634;-0.18575435727743175;-0.9905720604036653;1.014;0.00046072759022834615
54:00.0;0.00522890914391155;-0.18863464748276226;-0.9949334955413877;1.02;0.000981356069014674
54:00.0;0.008177861093527819;-0.19151515396639013;-0.9993983013016238;1.024;0.001565241955372094
54:00.1;0.011208762755543587;-0.19435098931940248;-1.0038462452880204;1.023;0.002186812922596399
54:00.1;0.014176509366356138;-0.19709601630858659;-1.0081541113500732;1.023;0.0028169171971295687
54:00.1;0.016948439342514405;-0.19971176787391673;-1.0121899539638002;1.022;0.0034260633739084277
54:00.1;0.01941770574044015;-0.20217493367040226;-1.0158073578409448;1.022;0.003987829474568576
54:00.1;0.021511599352221553;-0.20448134395976897;-1.0188448380871804;1.033;0.0044816139265204695
54:00.1;0.023193329649305774;-0.20664571421332353;-1.021134173720621;1.045;0.004894094084042925
54:00.1;0.024457619783447702;-0.20869706264436033;-1.0225180670401508;1.055;0.005219170878149812
54:00.1;0.02532259710858604;-0.21067018367259083;-1.0228731749299012;1.057;0.0054567380804093095
54:00.1;0.025821677653705362;-0.21259464245644072;-1.0221317435974138;1.054;0.0056110436487485345
54:00.1;0.0259984705909105;-0.21448441341943772;-1.020295546541435;1.05;0.005689440095125407
54:00.2;0.025905790400421017;-0.2163320394981752;-1.017439010184999;1.038;0.005701985088076201
54:00.2;0.02560781412050287;-0.2181094553632204;-1.0137023902302489;1.038;0.005661838438588608
54:00.2;0.025182855903320835;-0.21977431585138707;-1.0092786765454829;1.033;0.0055858981795435985
54:00.2;0.024723699200527208;-0.22127860882731412;-1.0043982166937968;1.031;0.005494887641362411
54:00.2;0.024333318994584588;-0.2225763924465241;-0.9993132513859732;1.028;0.005412302912217179
54:00.2;0.024115602652237708;-0.2236282942231713;-0.9942825474015125;1.021;0.0053620972574366845
54:00.2;0.02416241827211252;-0.22440152673031397;-0.9895553950759156;1.012;0.00536545202921588
54:00.2;0.02453960128872171;-0.22486618033726652;-0.9853545723958578;1.003;0.005437311087963812
54:00.2;0.025274863597720076;-0.22499066141938923;-0.9818592512431228;0.995;0.005583448946083442
54:00.2;0.0263500722648327;-0.2247397331970519;-0.979190591831651;0.9890000000000001;0.005798676805433298
54:00.3;0.02769916668214404;-0.2240772145532502;-0.9774038073501337;1.001;0.006066503149047395
54:00.3;0.029212064019739654;-0.22297280495290359;-0.9764895564552574;1.001;0.0063603606764155605
54:00.3;0.03074459542712511;-0.22141008792665592;-0.9763845195294174;1.008;0.006646409138281507
54:00.3;0.03213416005620798;-0.21939214919772118;-0.9769878171149371;1.0090000000000001;0.006887746952209218
54:00.3;0.03321961445907388;-0.21694309816658594;-0.9781785448094845;1.0090000000000001;0.007049503957553549
54:00.3;0.03386229559134075;-0.2141064739149012;-0.9798303145787858;1.008;0.007103903731070439
54:00.3;0.03396436421889728;-0.2109425877979161;-0.9818204973962963;1.008;0.007034283273435228
54:00.3;0.03348148563329723;-0.20752581798379677;-0.9840339975200358;1.005;0.006837336554309051
54:00.3;0.03242837303231253;-0.2039413873774845;-0.9863630403092992;1.0070000000000001;0.006523299525698339
54:00.3;0.030876932630517415;-0.2002807257819711;-0.9887051654311223;1.0070000000000001;0.006114206604876592
54:00.4;0.028947685836269887;-0.19663521678548548;-0.9909613114012608;1.011;0.005640685048827519
54:00.4;0.026796204194993827;-0.19308925934947183;-0.9930348615667367;1.011;0.005138021182649694
54:00.4;0.024597230203692387;-0.18971419148892396;-0.994831543071491;1.014;0.004642325327992823
54:00.4;0.02252914881422624;-0.1865641126666556;-0.9962596855529808;1.014;0.004187409627339596
54:00.4;0.02076044361557064;-0.18367370645226636;-0.9972303846892581;1.014;0.0038025866744167717
54:00.4;0.01943862179344403;-0.18105802502659227;-0.9976572483875209;1.012;0.003511273113586391
54:00.4;0.018681348925305284;-0.17871471002505074;-0.9974557750359436;1.008;0.0033301376255487386
54:00.4;0.018569237565151376;-0.17662915114444228;-0.9965432316021882;1.006;0.0032685309221698227
54:00.4;0.019140036480933913;-0.17478216488654275;-0.9948407564234614;1.0070000000000001;0.0033280776036537685
54:00.4;0.02038466783856939;-0.1731585266941548;-0.992279394136683;1.0090000000000001;0.003502527017246163
54:00.5;0.022246005670848872;-0.17175414174532955;-0.9888104713672641;1.004;0.003778090172269
54:00.5;0.02462096521465806;-0.1705803570405217;-0.9844190164257016;1.004;0.004134415195814694
54:00.5;0.027365570646854093;-0.16966530336807892;-0.9791380113042386;0.9990000000000001;0.004546125885688815
54:00.5;0.030302294595621115;-0.16905286197996647;-0.9730612254913505;0.995;0.0049846906452385605
54:00.5;0.03322981426153992;-0.1687993856730258;-0.9663526059621688;0.99;0.005420438205014202
54:00.5;0.03593643522523438;-0.1689677086337491;-0.959250338916063;0.988;0.005824661216907975
54:00.5;0.03821826348501353;-0.16961837301031793;-0.9520635626692138;0.981;0.0061717707736240295
54:00.5;0.0399013903642476;-0.17079920390868278;-0.9451594275544736;0.972;0.006441380313889833
54:00.5;0.04086513355178873;-0.17253526220569088;-0.93893865800739;0.958;0.0066201527614025615
54:00.5;0.0410624345443923;-0.17482105087575928;-0.9337997490693615;0.946;0.006703354296385407
54:00.6;0.04053386327807839;-0.17761620115602395;-0.9300950641444425;0.927;0.006696192268209183
54:00.6;0.039411797817623426;-0.18084583503129578;-0.9280852980763061;0.927;0.006614890361974135
54:00.6;0.03791104760033476;-0.1844072988167954;-0.92790071141509;0.92;0.006487022429862739
54:00.6;0.03630352722851611;-0.18818436303738517;-0.9295172018872507;0.925;0.006350234858208286
54:00.6;0.034878988752440894;-0.19206686699584255;-0.9327530751798285;0.9390000000000001;0.006248604347796939
54:00.6;0.03389947723634981;-0.19596926601199388;-0.9372892775064033;0.956;0.0062266523092845616
54:00.6;0.03355814140784326;-0.19983956722842797;-0.9427116214580791;0.973;0.006322054584947592
54:00.6;0.033951096307160096;-0.2036538467422427;-0.9485682846978507;0.993;0.006558658527750879
54:00.6;0.03506608316690811;-0.20739901898962085;-0.9544314541042084;1.004;0.006941266195047218
54:00.6;0.03678747869401904;-0.2110522463723037;-0.9599503928583533;1.0070000000000001;0.007453131662258993
54:00.7;0.03891527981413774;-0.21456583325448592;-0.9648854156276312;1.0;0.00805668654242333
54:00.7;0.041194559892025404;-0.21786253620216378;-0.9691180645928806;1.0;0.008697593605996467
54:00.7;0.04335050143584236;-0.22084125038155641;-0.9726397884331482;0.997;0.009311643796460404
54:00.7;0.04512347000710512;-0.22339009212761513;-0.9755261021477936;0.9940000000000001;0.009833435900218608
54:00.7;0.04629923720043233;-0.22540342509483796;-0.9779043919306737;0.995;0.010205416731635424
54:00.7;0.04673062522587983;-0.22679938022296495;-0.9799227946095138;0.9990000000000001;0.010385689042345084
54:00.7;0.046348496347351276;-0.22753391133408038;-0.9817258736553;1.0090000000000001;0.010353138377926346
54:00.7;0.04516220267701952;-0.22760763066445247;-0.9834396969720989;1.015;0.0101090342541603
54:00.7;0.04325111120101352;-0.22706380321326444;-0.9851649420715015;1.013;0.00967507023225985
54:00.7;0.04074889145520666;-0.22597926822200876;-0.9869740878134262;1.0090000000000001;0.009088456801270987
54:00.8;0.03782215551006559;-0.22445243463680334;-0.9889093852110655;1.0090000000000001;0.008395123609831969
54:00.8;0.034646305226782866;-0.22259219830898982;-0.9909811316620891;1.0090000000000001;0.007642443755950456
54:00.8;0.03138331583258486;-0.22050934663123614;-0.9931679818324256;1.0170000000000001;0.006873034755184987
54:00.8;0.028166205008220258;-0.2183100465811069;-0.9954208794647489;1.023;0.006120808673040696
54:00.8;0.025092434423423172;-0.21609083498986292;-0.9976700988606624;1.0270000000000001;0.005409611811434524
54:00.8;0.02222539874522399;-0.2139355172730036;-0.9998326442882687;1.0270000000000001;0.004754006433855759
54:00.8;0.01960126793670683;-0.21191493508586323;-1.0018167699658151;1.023;0.00416134792407603
54:00.8;0.01723807930722123;-0.21008987111968908;-1.0035222159589707;1.018;0.0036343017266293413
54:00.8;0.015144606459707522;-0.20851582015625406;-1.004837849162651;1.015;0.0031731674325603276
54:00.8;0.013327395366235648;-0.20724700043975985;-1.0056409423728068;1.02;0.0027776433499230495
54:00.9;0.01179502451832109;-0.20633684129779128;-1.005802571703396;1.028;0.0024478701000110498
54:00.9;0.010559232113009114;-0.20583365046300456;-1.0052009852626258;1.028;0.002184749348839182
54:00.9;0.009633164810548062;-0.20577233420985305;-1.0037409914217306;1.031;0.0019896543472745884
54:00.9;0.009027450093784885;-0.20616437991065867;-1.0013750843559308;1.032;0.001863697873402456
54:00.9;0.0087449524783415;-0.20698849029330454;-0.9981217790582556;1.032;0.0018067047349789576
54:00.9;0.008775005715425218;-0.208184261266836;-0.9940770908412246;1.028;0.0018159980049259371
54:00.9;0.009087883508472488;-0.20965155530925378;-0.9894156485733646;1.02;0.0018851226646064776
54:00.9;0.009630792834719732;-0.2112578884254808;-0.9843792696143467;1.011;0.0020027993175314686
54:00.9;0.010327638614133076;-0.21285417499782538;-0.9792533024679089;1.0;0.0021526739259540226
54:00.9;0.011084966944610279;-0.21429590589344252;-0.9743339890008185;0.99;0.002314494372856016
54:01.0;0.011804752534471115;-0.21546434358227318;-0.9698924815917057;0.9790000000000001;0.002466924684889689
54:01.0;0.012401398206369423;-0.21628240605782814;-0.9661422358714249;0.9790000000000001;0.0025913908039657285
54:01.0;0.012817326020825774;-0.2167221258909085;-0.9632158534554364;0.976;0.0026756192094895955
54:01.0;0.01303116348781303;-0.21680305563907187;-0.9611551114807828;0.977;0.002715451636590039
54:01.0;0.013055312655414143;-0.21658266142347712;-0.9599148929568185;0.98;0.0027142115414091218
54:01.0;0.012923952883876386;-0.21614086685657477;-0.959379214559203;0.985;0.0026799245057919693
54:01.0;0.012676262733089886;-0.2155619796153639;-0.9593856916301112;0.988;0.002621540867230203
54:01.0;0.012341317344168275;-0.21491792379464766;-0.9597535521767762;0.987;0.0025456218175925983
54:01.0;0.011929780709629693;-0.2142562442619872;-0.9603104522520819;0.988;0.002454582334598693
54:01.0;0.011433915327633238;-0.21359476568947033;-0.9609149363811691;0.9940000000000001;0.002346769966720604
54:01.1;0.01083379505992243;-0.21292287466573434;-0.9614729413516244;0.9940000000000001;0.00221789000248858
54:01.1;0.01010571721761208;-0.21220783872994037;-0.961947144390026;0.9940000000000001;0.0020629075884904162
54:01.1;0.009229015820884255;-0.21140384539168855;-0.9623579604470006;0.992;0.0018776079537618806
54:01.1;0.008189184913750694;-0.2104616384445528;-0.9627756981527373;0.9890000000000001;0.0016593528450038308
54:01.1;0.006977555809916764;-0.20933725430565334;-0.9633047463990161;0.982;0.0014070629987359379
54:01.1;0.005589662442479949;-0.207999010416499;-0.964062245967733;0.977;0.0011208614332774496
54:01.1;0.004024868232301658;-0.20643258266934503;-0.9651551847433715;0.978;0.0008019126434623499
54:01.1;0.002288742132292179;-0.20464449673570229;-0.9666604188889771;0.983;0.0004527629394354111
54:01.1;0.00039787084803907867;-0.2026642023172658;-0.9686109252644757;0.987;7.810314580230044e-05
54:01.1;-0.0016150053236104968;-0.20054432124338656;-0.9709891765777926;0.9890000000000001;0.0003144841166899438
54:01.2;-0.0036986469646289716;-0.19835850077568817;-0.9737265948177138;0.99;0.0007143823711480017
54:01.2;-0.005785898041263226;-0.19619682099167862;-0.9767076619522157;0.99;0.0011087339270398433
54:01.2;-0.007800634380641493;-0.19415919522758132;-0.9797780716823293;0.996;0.0014839374708989135
54:01.2;-0.009666492517672225;-0.19234724273011333;-0.982757028773511;1.002;0.001827262926506423
54:01.2;-0.01131494836336526;-0.1908552389367519;-0.9854533570185672;1.008;0.002128103448112679
54:01.2;-0.012691599204395972;-0.18976125412964653;-0.9876836796697701;1.0090000000000001;0.00237871147896374
54:01.2;-0.013760478559378802;-0.18911990840119924;-0.9892900312029613;1.0090000000000001;0.002574509031345556
54:01.2;-0.014506481902065643;-0.1889579769854799;-0.9901547846354335;1.01;0.002714128601216122
54:01.2;-0.014935704475514846;-0.18927358087358884;-0.9902120472611003;1.015;0.0027992643699299197
54:01.2;-0.015073165311270075;-0.19003891897484176;-0.989455276912172;1.016;0.002834282808099127
54:01.3;-0.01495752294416162;-0.19120560378234092;-0.9879403810944866;1.011;0.002825472151342611
54:01.3;-0.014633392298434385;-0.19271127335580399;-0.9857830579989213;1.011;0.0027799276073506097
54:01.3;-0.014143418544521467;-0.19448646516475604;-0.983149609304306;1.005;0.002704353049776161
54:01.3;-0.013522849153157794;-0.1964610849280358;-0.9802415798059875;0.9990000000000001;0.002604221151988504
54:01.3;-0.012798060240560512;-0.19856961966402736;-0.9772757508761987;0.9940000000000001;0.002483556684797703
54:01.3;-0.011988426523230072;-0.20075404216426052;-0.974462027676299;0.9890000000000001;0.002345262205148675
54:01.3;-0.011109554831907903;-0.20296404800167117;-0.9719822673025644;0.985;0.002191664709616108
54:01.3;-0.010175680286967215;-0.20515562219925543;-0.9699728895414897;0.982;0.0020249134842167302
54:01.3;-0.009199930043346186;-0.20728972527787765;-0.9685134715188258;0.9840000000000001;0.001847004556539266
54:01.3;-0.00819272989798866;-0.2093325085926407;-0.9676226160923159;0.987;0.001659477336135273
54:01.4;-0.007159708908291134;-0.21125733347370232;-0.9672611440300299;0.9890000000000001;0.0014630221500594193
54:01.4;-0.00610044429258968;-0.21304755198921904;-0.9673414343403967;0.9890000000000001;0.0012572388837335795
54:01.4;-0.005008848470063184;-0.21469806802956487;-0.9677411796760074;0.992;0.001040699273897592
54:01.4;-0.0038753698536687095;-0.21621382237014428;-0.9683199280544403;0.997;0.0008113635266721598
54:01.4;-0.002690532878246143;-0.21760463831651466;-0.9689367764765164;0.996;0.00056728577276994
54:01.4;-0.0014492129915604241;-0.21887768781469477;-0.9694672440049283;0.997;0.0003075153866727072
54:01.4;-0.00015550538101951066;-0.2200303467863187;-0.9698173585706487;1.001;3.318317658406115e-05
54:01.4;0.001172002270491197;-0.22104631707971986;-0.9699334684155941;1.004;0.00025127754581240797
54:01.4;0.002495787250211538;-0.22189617221920802;-0.9698065714149956;1.0;0.0005370843465297515
54:01.4;0.0037578609617293017;-0.22254145861464492;-0.9694702132667832;0.9940000000000001;0.0008107484139285206
54:01.5;0.004882777973013273;-0.22294092607348243;-0.968992175141915;0.993;0.0010548168228642944
54:01.5;0.005785437151659204;-0.22305791864424562;-0.9684619460182133;0.993;0.0012497881028665993
54:01.5;0.006382652640967445;-0.22286803239427494;-0.9679767987661668;0.991;0.0013769365765056048
54:01.5;0.006606711586997922;-0.22236583875345828;-0.9676286727194634;0.9890000000000001;0.0014215500211211913
54:01.5;0.006418518142390415;-0.22156941677960715;-0.9674931663207113;0.99;0.001375917814954616
54:01.5;0.0058172632347525425;-0.22052156784828422;-0.9676215748931928;0.991;0.0012412959289821055
54:01.5;0.004843535117090788;-0.2192867772987456;-0.9680366563477447;0.988;0.001028174197507824
54:01.5;0.0035741492628602657;-0.21794362383715032;-0.9687324048582472;0.987;0.0007546067414399106
54:01.5;0.002109556476333295;-0.21657366189275076;-0.9696779162967494;0.993;0.0004430209881282499
54:01.5;0.0005573687950253897;-0.21524929661558834;-0.9708250505914569;1.002;0.0001164730278456683
54:01.6;-0.000983175926498861;-0.21402382153143765;-0.9721181566623478;0.9990000000000001;0.0002045560859817593
54:01.6;-0.002432018157684557;-0.2129261080206046;-0.9735025656168781;0.9990000000000001;0.0005041187252654638
54:01.6;-0.0037331767301005776;-0.21196098433657526;-0.9749290240365418;0.997;0.0007714494566391521
54:01.6;-0.004854815258241341;-0.2111148457281968;-0.9763537072340207;0.996;0.0010006879313822783
54:01.6;-0.00578619628121439;-0.2103646178057192;-0.9777357579627324;0.9990000000000001;0.0011901106896168166
54:01.6;-0.00653284459267072;-0.2096871161546074;-0.9790350210025126;0.9990000000000001;0.0013411343963593183
54:01.6;-0.007110870278117531;-0.2090659898870635;-0.9802119025784586;1.002;0.001457223334069541
54:01.6;-0.007541363997161037;-0.20849501709891524;-0.981229852232229;1.006;0.0015428238211688938
54:01.6;-0.007845661587870296;-0.20797830309046694;-0.9820595875633418;1.0090000000000001;0.0016024535214201416
54:01.6;-0.008041856063440761;-0.20752869085567827;-0.982683224571992;1.0090000000000001;0.001640015619724289
54:01.7;-0.00814261278797072;-0.2071655147068058;-0.9830962738920905;1.003;0.001658354205003054
54:01.7;-0.008154340199317687;-0.2069123524810941;-0.9833064652548718;1.003;0.0016590678189513108
54:01.7;-0.008077623798816089;-0.20679484146229915;-0.9833301844994089;1.005;0.0016425654908071834
54:01.7;-0.007908382902592137;-0.20683803489272504;-0.9831883506129254;1.006;0.001608254649652442
54:01.7;-0.007639099638759398;-0.20706276228412462;-0.9829028408341793;1.004;0.0015547292465793233
54:01.7;-0.007260134540696955;-0.20748139826085504;-0.9824932819491488;1.001;0.0014799717462216108
54:01.7;-0.006761931054553284;-0.20809456668797405;-0.9819738752273018;1.0;0.0013817561720221093
54:01.7;-0.006138682473526109;-0.20889023143440955;-0.9813508332741961;1.001;0.0012583967746452878
54:01.7;-0.005392771932705944;-0.20984524973100718;-0.9806215881368566;1.002;0.0011097180402082794
54:01.7;-0.004538341939431666;-0.21092824651223885;-0.9797764502121029;1.0;0.0009379052209325479
54:01.8;-0.0036026084911860664;-0.21210268648195796;-0.9788024815091284;1.003;0.0007479254291876736
54:01.8;-0.0026245402191355837;-0.21332974375111965;-0.9776888083091255;1.003;0.0005474006236882001
54:01.8;-0.0016513541576204176;-0.21457088368329516;-0.9764323684818692;1.004;0.0003459817425878313
54:01.8;-0.0007334902431651118;-0.21578987802667912;-0.9750428654863533;1.002;0.00015432956059302524
54:01.8;8.129437706991751e-05;-0.216953980326227;-0.9735457551405717;0.998;1.7170561498107822e-05
54:01.8;0.0007536209214301482;-0.2180343832988186;-0.9719827298364995;0.996;0.00015971160745381906
54:01.8;0.0012562777056275996;-0.21900637570950698;-0.9704100522281303;0.997;0.0002669916612071536
54:01.8;0.0015748280949098683;-0.21984939010603252;-0.9688954671883565;0.997;0.0003354558294336457
54:01.8;0.0017053175691887203;-0.22054660927016642;-0.9675140019198138;0.991;0.00036388395851613117
54:01.8;0.0016506182747567147;-0.22108383484789856;-0.9663425366111388;0.987;0.00035264256761843046
54:01.9;0.0014169605495331407;-0.2214482043393771;-0.9654534550940502;0.99;0.0003029432380551098
54:01.9;0.0010115740960545468;-0.22162792345682594;-0.9649084047762;0.99;0.000216325773995605
54:01.9;0.00044189297565166806;-0.22161348368126285;-0.9647530092480047;0.99;9.447772362079009e-05
54:01.9;-0.00028368531019379425;-0.2213997456897177;-0.9650125019024974;0.988;6.061036580685216e-05
54:01.9;-0.0011541430289537455;-0.22098803730439645;-0.9656879214966834;0.9890000000000001;0.0002463004452591137
54:01.9;-0.0021541407581967915;-0.22038779007365047;-0.9667529678492661;0.99;0.0004589624150019713
54:01.9;-0.00326252206834363;-0.21961745249661593;-0.9681520957657793;0.987;0.0006936875458801884
54:01.9;-0.004450802628553892;-0.2187044922601831;-0.969800714518441;0.986;0.0009440142265712902
54:01.9;-0.005681864211416469;-0.21768452647637024;-0.9715887952424792;0.992;0.0012017134103785901
54:01.9;-0.006909572720040685;-0.2165997378848204;-0.9733892995560841;0.9990000000000001;0.0014567857560224857
54:02.0;-0.008079655913881238;-0.21549643906597754;-0.9750716240712151;1.006;0.0016977333586878716
54:02.0;-0.009131739548615134;-0.2144215749863053;-0.9765179533268915;1.006;0.0019120631433015573
54:02.0;-0.010002857542154664;-0.2134187598826124;-0.977638719151431;1.008;0.002087060646551689
54:02.0;-0.010633099659247532;-0.2125252155000322;-0.9783834913759492;1.011;0.0022109527714918907
54:02.0;-0.010973213257499453;-0.21177057784182982;-0.9787449697772856;1.0070000000000001;0.002274411194185221
54:02.0;-0.01099254836665749;-0.21117750284726816;-0.9787551514794165;1.003;0.0022720615706117693
54:02.0;-0.01068510549144987;-0.21076334866046173;-0.9784741990100156;0.998;0.0022035518943959273
54:02.0;-0.010071908099119502;-0.2105419211775229;-0.977974306509682;0.995;0.0020738521011685264
54:02.0;-0.009198799621026968;-0.21052403412907286;-0.9773222951335827;0.99;0.0018926514786131202
54:02.0;-0.008129748736206326;-0.210715875952858;-0.97656503066141;0.99;0.0016729214506482951
54:02.1;-0.0069370343848366165;-0.211115330713237;-0.9757209790712981;0.993;0.0014289573347817
54:02.1;-0.005691026929794031;-0.21170777026478535;-0.9747795169085116;0.993;0.001174448110615801
54:02.1;-0.0044527847388644145;-0.21246324558187268;-0.9737075925259754;0.995;0.000921179083965122
54:02.1;-0.0032716282116872406;-0.21333632168095085;-0.9724618998864467;0.9990000000000001;0.0006787367153069315
54:02.1;-0.0021875516560293093;-0.21426875309558002;-0.9710040439401565;1.003;0.00045513286615682077
54:02.1;-0.0012360600499955424;-0.21519429270136042;-0.9693156902788748;1.001;0.0002578312545070251
54:02.1;-0.0004520584676276668;-0.21604442053226866;-0.9674104883502055;0.997;9.448186449126093e-05
54:02.1;0.0001297889536370139;-0.21675392802738003;-0.9653403207190852;0.995;2.7157210215177447e-05
54:02.1;0.00047892850869033036;-0.21726588431595092;-0.9631949892182567;0.991;0.00010022508697320012
54:02.1;0.0005759186577695402;-0.2175359109411624;-0.9610957887462219;0.986;0.00012040895394243832
54:02.2;0.0004204937055747158;-0.2175357291416267;-0.9591841959858857;0.98;8.773888509294337e-05
54:02.2;3.840843199859565e-05;-0.21725589566940787;-0.9576075892741499;0.98;7.99071659178131e-06
54:02.2;-0.000514968396783978;-0.21670756860458526;-0.9565044349947464;0.9790000000000001;0.00010674355072067782
54:02.2;-0.0011557587382718395;-0.21592307515260686;-0.9559910172600904;0.978;0.00023857232005497115
54:02.2;-0.00177791192581819;-0.21495519669998597;-0.9561506515014352;0.978;0.00036541344048578194
54:02.2;-0.0022640860199071447;-0.21387532031248954;-0.9570254269636059;0.977;0.0004634224539981566
54:02.2;-0.0024991013645824177;-0.21277049304353987;-0.9586104629701777;0.977;0.0005097267628141099
54:02.2;-0.002383351288874194;-0.21173899145054262;-0.9608511394147973;0.981;0.00048489198839373387
54:02.2;-0.0018440979534610597;-0.21088390136097687;-0.9636440547740135;0.985;0.0003747520866224763
54:02.2;-0.0008437597622885174;-0.2103047383762313;-0.9668420405035791;0.987;0.00017156290636288993
54:02.3;0.0006149327940077028;-0.21008799048864946;-0.9702626556191992;0.995;0.00012534822760741488
54:02.3;0.0024869642357855408;-0.21029803416996745;-0.9736988951500032;0.995;0.000509248114953384
54:02.3;0.0046865893319873045;-0.21096984432424612;-0.9769308344394296;0.993;0.0009659198682830267
54:02.3;0.007093114459503353;-0.21210449470951453;-0.9797379270786031;0.993;0.0014739975453317386
54:02.3;0.009561564379717103;-0.21366801820410067;-0.9819133379446091;1.003;0.0020060494521065334
54:02.3;0.011937920452839559;-0.2155937695270821;-0.9832822124928924;1.014;0.002530714011079591
54:02.3;0.014076960810166413;-0.21778784864040254;-0.9837236130686231;1.023;0.003015891009507975
54:02.3;0.015859510514005325;-0.22013668393064725;-0.9831921140257438;1.0270000000000001;0.00343257935243375
54:02.3;0.017205917962217813;-0.2225159200531702;-0.981732552654698;1.025;0.0037586520873294682
54:02.3;0.018083663317615715;-0.22479999597480146;-0.9794818620579638;1.016;0.003981796953972049
54:02.4;0.018508425693079717;-0.22687164712432253;-0.9766551784998257;0.993;0.0041010112529003395
54:02.4;0.018538918851218875;-0.22863021647410667;-0.9735185595189821;0.993;0.004126313934430749
54:02.4;0.01826621948084418;-0.22999780608975048;-0.9703553370221805;0.988;0.004076647532452116
54:02.4;0.01779880162638426;-0.23092288755914303;-0.9674342425830474;0.985;0.003976300497099546
54:02.4;0.017245615919006217;-0.23138127425690677;-0.9649848060785221;0.985;0.003850591017654771
54:02.4;0.01670074266464674;-0.23137429859157133;-0.9631821770964204;0.986;0.003721854037690426
54:02.4;0.016233109637691215;-0.23092446295690838;-0.9621411778663015;0.9890000000000001;0.0036067037069198947
54:02.4;0.015883247694790607;-0.2300698801569173;-0.9619176550195161;0.99;0.003515094221972079
54:02.4;0.015667011555455194;-0.22885945397666269;-0.9625140859282549;0.991;0.003451136326612962
54:02.4;0.01558423028197455;-0.22735033089310622;-0.9638864105998368;0.992;0.003415126578191857
54:02.5;0.015628727219295226;-0.22560809057315023;-0.9659500826080867;0.992;0.0034059084105367773
54:02.5;0.01579598812285197;-0.22370887444390639;-0.9685848043669666;0.992;0.0034226907613187437
54:02.5;0.016086291024910406;-0.221741488346357;-0.9716387806982861;0.992;0.003465833698080968
54:02.5;0.01650318210455924;-0.2198071298936;-0.9749341538141806;0.998;0.0035365903070371865
54:02.5;0.0170486820210437;-0.21801518888588178;-0.9782751573252434;1.003;0.0036361231796458483
54:02.5;0.017717491085000186;-0.21647515068778242;-0.9814593368134942;1.005;0.0037642857567694765
54:02.5;0.018492667123770103;-0.2152863288785509;-0.9842907578422279;1.006;0.0039186764920656906
54:02.5;0.01934450631628265;-0.21452829157650471;-0.9865936743079842;1.011;0.004094308392011013
54:02.5;0.020233163372571417;-0.21425457181657115;-0.9882257027964949;1.014;0.004284005614227615
54:02.5;0.021114619823439283;-0.21449033541433907;-0.9890899967250285;1.018;0.004479471771844879
54:02.6;0.02194879555420074;-0.21523255440129474;-0.9891455472593351;1.02;0.0046728178636262
54:02.6;0.02270765440412769;-0.216450802592083;-0.988413999609535;1.02;0.004858143785857425
54:02.6;0.02338075570245972;-0.2180880884477743;-0.9869810181696795;1.018;0.005032679691911189
54:02.6;0.023976532734950574;-0.22006253115321334;-0.9849906472904874;1.012;0.005197142086659727
54:02.6;0.024519204703958554;-0.22227108365616902;-0.9826323397263691;1.006;0.005355258011062015
54:02.6;0.025042734212180996;-0.22459605884574999;-0.9801220427085724;1.005;0.005512695847783897
54:02.6;0.025584091188116182;-0.22691427726996363;-0.9776800171641777;1.003;0.005675819232271046
54:02.6;0.026177864119555652;-0.22910757045520502;-0.9755080764077806;0.998;0.00585065538899253
54:02.6;0.026852869242155006;-0.2310728561561294;-0.9737682434962013;0.991;0.006042201950819704
54:02.6;0.02762995678438684;-0.23273039341271728;-0.9725648185577999;0.99;0.006253913422578496
54:02.7;0.028520135889436873;-0.23402946790789053;-0.9719325327950114;0.99;0.006487214451130108
54:02.7;0.029523163111304734;-0.2349510659067048;-0.9718335283291526;0.99;0.0067411219494455206
54:02.7;0.030627356099575342;-0.23550737386481685;-0.9721647521791565;0.998;0.007012193445967131
54:02.7;0.031811010675183146;-0.23573847029866513;-0.9727754140001422;1.008;0.007294919674197028
54:02.7;0.033044989540193685;-0.23570696020386644;-0.9734917280251384;1.012;0.007582462852707162
54:02.7;0.03429551424876778;-0.23549123814573503;-0.974143875850834;1.014;0.007867471475884819
54:02.7;0.035526345686537085;-0.23517795960808416;-0.9745894132737786;1.013;0.008142707695982212
54:02.7;0.03670031168941483;-0.23485453605960685;-0.9747287637270459;1.01;0.008401415959094993
54:02.7;0.03778083397472653;-0.23460258928779304;-0.9745109842447901;1.005;0.00863756005693725
54:02.7;0.03873392809018164;-0.234492823868382;-0.9739304796725597;1.002;0.008846043203580642
54:02.8;0.03953017756439485;-0.23458117817487753;-0.973017150428667;0.998;0.009022822701137911
54:02.8;0.04014561740380584;-0.23490592593557488;-0.9718232680398631;0.998;0.009164724351746366
54:02.8;0.040561189054815275;-0.2354854224817395;-0.9704101745575875;0.995;0.009268939489189417
54:02.8;0.04076161618622186;-0.2363163293740201;-0.9688370300950565;0.993;0.009332453985775221
54:02.8;0.040734892528128064;-0.23737267486719532;-0.9671528145773901;0.993;0.0093517394543301
54:02.8;0.0404731372578152;-0.2386067276454786;-0.9653920305490529;0.991;0.00932294804213133
54:02.8;0.039975121998362236;-0.2399526300923796;-0.9635741010117673;0.991;0.009242733497073673
54:02.8;0.03925034221928112;-0.24133293883345028;-0.961706207486925;0.991;0.009109666301024315
54:02.8;0.03832368960786749;-0.24266725003056058;-0.959789162217115;0.991;0.00892594742222131
54:02.8;0.03723884113383171;-0.24388144956813587;-0.9578257314800969;0.99;0.008698841645860643
54:02.9;0.03605838913764875;-0.24491592411312574;-0.9558305511376138;0.995;0.008441201205698617
54:02.9;0.03485996720480217;-0.24573113763158203;-0.9538402382873051;0.995;0.008170766599187994
54:02.9;0.033729295764195796;-0.2463092617404473;-0.9519214599485187;0.993;0.007908409219627054
54:02.9;0.03275177489000063;-0.2466514072713471;-0.950174182954697;0.99;0.007675764896065967
54:02.9;0.03200378167887253;-0.24677156658551636;-0.9487277822317569;0.987;0.007492694677736391
54:02.9;0.03154431363067131;-0.24668971321859803;-0.9477289647718536;0.98;0.007374902380334442
54:02.9;0.03140781478045008;-0.24642646605612709;-0.9473221603217664;0.972;0.007332005241994048
54:02.9;0.031599540223003764;-0.24600044810447863;-0.9476251293531731;0.9670000000000001;0.007366364942538688
54:02.9;0.03209489861529979;-0.24542816177763366;-0.9487046775961853;0.963;0.007472939126940038
54:02.9;0.03284350685547808;-0.2447256394448497;-0.9505584653056599;0.9670000000000001;0.00764025455364546
54:03.0;0.033777485537254674;-0.24391110433926805;-0.9531079846547645;0.9840000000000001;0.00785237437421872
54:03.0;0.034822264743812156;-0.24300787106105895;-0.956204645312476;0.9840000000000001;0.008091484432308473
54:03.0;0.03590719727865309;-0.24204656924691417;-0.9596468993564871;0.993;0.008340496482841872
54:03.0;0.036973284959519646;-0.24106577504242457;-0.9632039575952603;1.0;0.008585030704369808
54:03.0;0.03797673245310368;-0.24011054001813634;-0.9666416265486746;1.004;0.008814431615027131
54:03.0;0.038888938736689575;-0.23922898029746203;-0.9697465489749701;1.0070000000000001;0.009021902377641928
54:03.0;0.03969447525991933;-0.23846775232357756;-0.9723458438210426;1.008;0.009204082137166801
54:03.0;0.040388153065881865;-0.2378676484993889;-0.9743202039584556;1.01;0.009360328297727387
54:03.0;0.0409713462927526;-0.2374603667057109;-0.9756097661654964;1.01;0.009491776600491855
54:03.0;0.04144751303315265;-0.23726670944737807;-0.9762129853921246;1.0090000000000001;0.009600190794228086
54:03.1;0.04181759879895093;-0.23729567736309384;-0.9761793258648845;1.003;0.009686759657154312
54:03.1;0.04207682916566749;-0.23754384019353295;-0.9755972430057784;1.003;0.009751183792140577
54:03.1;0.042214225252732135;-0.2379949383288095;-0.9745797268131802;0.998;0.00979138024837326
54:03.1;0.04221500701496831;-0.23862013618657604;-0.9732501206665495;0.997;0.009803889806704448
54:03.1;0.042064859693810616;-0.23937915008733632;-0.9717307413728661;0.998;0.00978479446552963
54:03.1;0.04175450271164777;-0.2402218480702262;-0.9701360316323432;1.0;0.00973079793648692
54:03.1;0.04128302054099619;-0.2410896759595099;-0.9685704768919996;1.004;0.00964009482861183
54:03.1;0.040658787122402916;-0.24191691264438986;-0.9671295694730161;1.003;0.009512733111772762
54:03.1;0.039897638177736845;-0.24263270391844233;-0.9659007095139364;1.001;0.009350374610015724
54:03.1;0.03901913133452851;-0.2431649706220485;-0.964961081192248;0.997;0.009155633652303393
54:03.2;0.03804261105347103;-0.24344648454111592;-0.9643712879114679;0.9890000000000001;0.008931370310035826
54:03.2;0.036984707164108156;-0.24342234522006836;-0.9641660406418431;0.9890000000000001;0.008680294453563117
54:03.2;0.03585895646333989;-0.2430573252732012;-0.9643452407711177;0.987;0.008405022934759265
54:03.2;0.034677157396767154;-0.24234148140253825;-0.9648692590152937;0.99;0.008108485005255295
54:03.2;0.0334514468672617;-0.24129304970802415;-0.9656609330933783;0.995;0.007794430363271332
54:03.2;0.03219611320540554;-0.23995821794185698;-0.9666146407890122;0.9990000000000001;0.007467795946977688
54:03.2;0.03092862386556339;-0.23840758619562366;-0.9676106478426079;1.001;0.007134791831922627
54:03.2;0.029669792904985573;-0.23672960135726454;-0.9685315381901658;1.003;0.006802692637338948
54:03.2;0.028443238202025146;-0.23502205271458143;-0.9692774191049212;1.004;0.006479414280985792
54:03.2;0.027274426353245784;-0.2333831268774673;-0.9697774273765637;1.002;0.006173012417173237
54:03.3;0.026189629769821268;-0.2319033511593854;-0.9699961517519687;0.9990000000000001;0.005891235649776117
54:03.3;0.025214901905698847;-0.23065934628630713;-0.9699347255599099;0.9990000000000001;0.005641191566945182
54:03.3;0.024374967135112103;-0.22970971014471364;-0.9696273837929956;0.9990000000000001;0.005429105296097651
54:03.3;0.023692006497828953;-0.22909263669028243;-0.9691346845906893;0.998;0.005260137668457909
54:03.3;0.02318454121358273;-0.22882453070760753;-0.9685342891152946;0.993;0.005138260132670889
54:03.3;0.022866560707250495;-0.22889927175212424;-0.9679100122004448;0.9890000000000001;0.0050661756337181075
54:03.3;0.0227467241639065;-0.22928858959186987;-0.9673404392573637;0.987;0.005045226262269465
54:03.3;0.022827543802391444;-0.22994436496646609;-0.9668892794506524;0.9890000000000001;0.005075264736926002
54:03.3;0.023105087473197353;-0.23080303648128886;-0.9665997552572194;0.992;0.00515461004864483
54:03.3;0.023569902244472907;-0.23179133473003888;-0.9664942366653351;0.9940000000000001;0.005280247094008274
54:03.4;0.02420895367135714;-0.2328323015485558;-0.9665785390136724;1.0;0.005448242112016068
54:03.4;0.02500733887258439;-0.233850907855541;-0.9668487311445937;1.0;0.005654120646170564
54:03.4;0.02594846540488555;-0.2347788694936265;-0.9672975272016253;1.001;0.005892922958299184
54:03.4;0.027012177923212;-0.23555847287010412;-0.9679176144361729;1.0;0.006158808849304221
54:03.4;0.028171247456517227;-0.23614550446935406;-0.9687005433342318;0.996;0.006444293385949246
54:03.4;0.029387363429523684;-0.23651129456829992;-0.96963162774237;0.993;0.006739369717090543
54:03.4;0.03060821847213151;-0.2366434141441776;-0.9706830843236094;0.993;0.007030884059645818
54:03.4;0.0317673326371485;-0.23654449143106346;-0.9718086210284342;0.997;0.007302546595818114
54:03.4;0.032787774459348225;-0.23622931861422497;-0.9729421139157182;0.9990000000000001;0.0075358585588613915
54:03.4;0.03358981024447096;-0.23572134655751525;-0.9740011783011916;1.001;0.007711980913195495
54:03.5;0.0341010068643158;-0.2350499620818465;-0.9748947013110697;1.006;0.007814210345787758
54:03.5;0.03426628753504566;-0.23424916222991632;-0.9755326416405631;1.006;0.007830453353217167
54:03.5;0.03405565114905524;-0.2333569290932827;-0.9758363998674179;1.006;0.007755091088084954
54:03.5;0.033468326437610704;-0.23241403685870313;-0.9757483857168724;1.008;0.007589867457838315
54:03.5;0.03253303241478945;-0.23146176314058942;-0.9752397746382253;1.006;0.007343704756682861
54:03.5;0.031304573774043824;-0.23053916489203355;-0.9743155975873417;1.0070000000000001;0.007031567753283889
54:03.5;0.029857682881805802;-0.22968098610796972;-0.9730162964693868;1.005;0.0066726947689013496
54:03.5;0.02827960330324931;-0.22891668518378266;-0.9714149986898061;1.001;0.006288623093976437
54:03.5;0.026662738969430822;-0.2282703547597614;-0.9696102860343601;0.9940000000000001;0.0059013515757864
54:03.5;0.025098055668124675;-0.22776113133507905;-0.9677153303597529;0.99;0.005531810708990922
54:03.6;0.02366965097275073;-0.2274037670228552;-0.9658455922692067;0.987;0.005198729380199719
54:03.6;0.022450852883751024;-0.22720900920462864;-0.9641079051057543;0.987;0.004917949169926676
54:03.6;0.021501655380314247;-0.22718364793860965;-0.9625931564679814;0.987;0.004702098640040615
54:03.6;0.020866623754708293;-0.2273305728194346;-0.9613733467302755;0.9890000000000001;0.004560391306846055
54:03.6;0.020572588571519435;-0.22764916862607262;-0.9605023160020949;0.991;0.0044983518903516425
54:03.6;0.020626418133865523;-0.22813564752665452;-0.9600183796761752;0.9890000000000001;0.004517482894634851
54:03.6;0.02101393691608897;-0.22878239240680442;-0.9599468447784718;0.987;0.004615058461046267
54:03.6;0.021701008158506747;-0.22957588825396233;-0.9603011145860392;0.987;0.004784247256402147
54:03.6;0.0226370770550434;-0.23049390058664979;-0.9610823381961522;0.988;0.005014647185634174
54:03.6;0.023760672608961468;-0.23150315924493767;-0.9622783163944508;0.9890000000000001;0.005293176212175477
54:03.7;0.025005883276627484;-0.2325586160999093;-0.9638622592092483;0.9940000000000001;0.0056051805905884804
54:03.7;0.02630860719668341;-0.23360486309659645;-0.9657914645778699;0.9940000000000001;0.005935579129767861
54:03.7;0.027611453353210472;-0.23457987555457935;-0.9680056535587662;0.9940000000000001;0.006269860988766166
54:03.7;0.028866672880795686;-0.23542082711165144;-0.9704250300127907;0.9940000000000001;0.006594829951155412
54:03.7;0.030037099274710426;-0.23607123517897666;-0.9729491153747551;0.997;0.006899080141004938
54:03.7;0.031095335903741122;-0.2364881972189129;-0.9754581560114839;1.004;0.007173207064213829
54:03.7;0.03202151508231831;-0.2366481107401426;-0.9778184455436785;1.008;0.00740974297523184
54:03.7;0.03280014279036519;-0.2365493873373166;-0.979891402013036;1.01;0.007602834012113665
54:03.7;0.033416766826273585;-0.23621160170481345;-0.9815448886606012;1.012;0.007747753922948681
54:03.7;0.03385547069684167;-0.23567178834725602;-0.9826648925166547;1.016;0.007840466327287342
54:03.8;0.034098410504874575;-0.23497918957445246;-0.9831658948171683;1.015;0.007877534997917908
54:03.8;0.03412811618242596;-0.23418956134685034;-0.9829985199726395;1.015;0.007856565103822075
54:03.8;0.033931866387408624;-0.2333599485901921;-0.9821534790803756;1.013;0.007777023800337491
54:03.8;0.033506254731157606;-0.23254473961854094;-0.9806615513167999;1.01;0.007641023827974914
54:03.8;0.032860058425572096;-0.23179325468801973;-0.9785900900913537;1.004;0.007453666176822912
54:03.8;0.03201435657232009;-0.2311483080522128;-0.9760371961500851;1.002;0.007222738064454688
54:03.8;0.031000027283022032;-0.23064483070060401;-0.9731251785668373;0.9990000000000001;0.006957841177465472
54:03.8;0.02985397534043687;-0.23030795300686496;-0.9699947252916815;1.0;0.0066693034444537894
54:03.8;0.02861591075655085;-0.23015060059901593;-0.9668000581865903;0.9990000000000001;0.006367315258152475
54:03.8;0.0273267172177219;-0.23017131312493166;-0.963703877927672;0.995;0.00606153007909862
54:03.9;0.02602805584230088;-0.23035334413720804;-0.9608702832319759;0.985;0.005761041629880213
54:03.9;0.02476192115970064;-0.23066581323804022;-0.9584548477169379;0.985;0.005474434043760376
54:03.9;0.023569004579263277;-0.23106687158017963;-0.9565929531565025;0.981;0.005209620676065273
54:03.9;0.02248573719165816;-0.2315082051580229;-0.9553885572956611;0.978;0.004973401875793618
54:03.9;0.021541036201923672;-0.23194013461383872;-0.9549053186176404;0.976;0.004770927398715763
54:03.9;0.02075426042840743;-0.23231674972043814;-0.9551614786644065;0.98;0.004605370600372749
54:03.9;0.020135306805434076;-0.23260063529651628;-0.9561294319299665;0.9840000000000001;0.004478018000544087
54:03.9;0.019686602719954628;-0.23276681752008796;-0.9577398561382682;0.988;0.004388735492589478
54:03.9;0.019405875644711915;-0.23280551000926;-0.9598889524352872;0.9890000000000001;0.0043365812954698785
54:03.9;0.019288524563914996;-0.2327230598343102;-0.9624469281021256;0.9890000000000001;0.004320313055478488
54:04.0;0.01932904386270637;-0.2325406068823987;-0.9652665881170492;0.995;0.0043386682815903166
54:04.0;0.01952163906930582;-0.23229068965876573;-0.9681917421803371;0.995;0.004390454254899818
54:04.0;0.019860322276970748;-0.232012850429851;-0.9710653126871662;0.998;0.004474523283523703
54:04.0;0.020338444879064894;-0.23174937367589948;-0.9737370340659871;1.001;0.004589633424463795
54:04.0;0.02094739977115293;-0.23154158175129883;-0.9760708975971345;1.006;0.004734133285857062
54:04.0;0.02167452997627809;-0.23142637523789514;-0.9779524330373754;1.0090000000000001;0.004905466034793443
54:04.0;0.02250090927166787;-0.2314325772274163;-0.9792952200511927;1.011;0.005099624452539446
54:04.0;0.023399931562695743;-0.23157718301838456;-0.9800453973367032;1.008;0.00531075843261434
54:04.0;0.02433733431667939;-0.231862430288293;-0.9801831326645591;1.0070000000000001;0.005531088613557603
54:04.0;0.025272934077380536;-0.23227495545243707;-0.9797210281085982;1.006;0.005751226604012758
54:04.1;0.026164183201578338;-0.23278767322138624;-0.9787005187898025;1.005;0.00596097059331353
54:04.1;0.026971060140045112;-0.23336382110298792;-0.9771876918532075;1.005;0.006150487397046868
54:04.1;0.027660728752481434;-0.23396186094995877;-0.975269525964883;1.005;0.0063115109370689435
54:04.1;0.028210027694195103;-0.23454002371090632;-0.9730507851953585;1.003;0.006438074303225756
54:04.1;0.028604875747510857;-0.23505970702768117;-0.9706511460586142;1.002;0.006526516312233702
54:04.1;0.028837240652896452;-0.23548732013395177;-0.9682018194036763;0.9990000000000001;0.0065748692928423585
54:04.1;0.028901304425800592;-0.235794752414544;-0.9658408731764655;0.997;0.006581989126561195
54:04.1;0.028790559112389754;-0.23595939154276072;-0.9637065561651379;0.993;0.006546846826990871
54:04.1;0.02849700997144647;-0.23596482809991537;-0.9619283194767791;0.991;0.006468286960248432
54:04.1;0.028012814093547615;-0.23580257185599768;-0.9606159687280043;0.9890000000000001;0.006345342641350839
54:04.2;0.02733385794840406;-0.2354739236148802;-0.9598480438991223;0.983;0.006177976295611214
54:04.2;0.02646416691031191;-0.23499081806109612;-0.9596608685264585;0.983;0.005967973779202281
54:04.2;0.02541973967516039;-0.2343751275218131;-0.9600399676036508;0.982;0.005719682655999143
54:04.2;0.024230525496329727;-0.23365648238598874;-0.9609156931977094;0.982;0.005440338886013289
54:04.2;0.0229398675010182;-0.23286854669223267;-0.9621646091602072;0.9840000000000001;0.0051398579470252346
54:04.2;0.02160150029391825;-0.2320436379604997;-0.963617502170691;0.988;0.004830123781098408
54:04.2;0.02027460598137703;-0.23120633153107822;-0.9650738331116895;0.995;0.004523896769035126
54:04.2;0.019017448268551014;-0.23036781821872662;-0.9663209077749877;0.9990000000000001;0.004233459691029906
54:04.2;0.01788018622948014;-0.2295231514563646;-0.9671545242127346;1.0;0.003969121595676377
54:04.2;0.016897890535369744;-0.2286525350144871;-0.9673974539307086;0.996;0.003737777566407522
54:04.3;0.016085133434678975;-0.22772610056024914;-0.9669135189369373;0.991;0.003541808777964719
54:04.3;0.01543331805024409;-0.2267102814579596;-0.9656176279435738;0.991;0.0033785916766320236
54:04.3;0.014911327939218667;-0.22557338207462926;-0.9634841733226287;0.99;0.0032407740882641574
54:04.3;0.014469442905809602;-0.22428835609574035;-0.9605561416860262;0.99;0.0031173193223891743
54:04.3;0.014045792324582472;-0.22283215449627752;-0.9569553792103441;0.99;0.0029951307796219854
54:04.3;0.013574103327556649;-0.22118269978570912;-0.9528921591052553;0.993;0.0028609222737187405
54:04.3;0.01299147846084319;-0.21931550111362436;-0.948670445138508;0.992;0.002702982767337734
54:04.3;0.012245205090865284;-0.21720170518846788;-0.9446841896240404;0.987;0.0025125571033224386
54:04.3;0.011297742116272798;-0.21480859706104116;-0.9414000799323461;0.981;0.0022846387928882783
54:04.3;0.010129177414107932;-0.2121028526132419;-0.9393238053585491;0.9740000000000001;0.0020180690235966766
54:04.4;0.008737021299773115;-0.20905619838485046;-0.9389499528927159;0.946;0.0017150188097259102
54:04.4;0.007134036979957004;-0.20565259958725954;-0.9406998334983312;0.946;0.0013801320044462132
54:04.4;0.005345182517793697;-0.20189589590926937;-0.9448561599673397;0.9359999999999999;0.0010196608125934692
54:04.4;0.0034044611731741505;-0.19781662751194914;-0.9515062979197838;0.935;0.0006408005063166437
54:04.4;0.0013521784808115636;-0.19347636895345977;-0.9605054226835874;0.9490000000000001;0.0002512822252830755
54:04.4;-0.0007670448572212467;-0.18896794645238355;-0.9714680554818961;0.968;0.00014081127483944105
54:04.4;-0.0029057141495663005;-0.18441115780167763;-0.9837915554169806;0.9890000000000001;0.000527160878574164
54:04.4;-0.005015338216592074;-0.1799452677517557;-0.9967089897001035;1.011;0.0008995162862839358
54:04.4;-0.007049617353570749;-0.17572008042077025;-1.0093638570259922;1.034;0.0012503588935449728
54:04.4;-0.008968556340204279;-0.17188639293815108;-1.0208968100564126;1.057;0.0015737867531529018
54:04.5;-0.010741921380850516;-0.1685854239659985;-1.030533715607725;1.08;0.001866225833642906
54:04.5;-0.012350688330498485;-0.1659370387032578;-1.0376638398012492;1.08;0.00212662630108442
54:04.5;-0.013786646041286793;-0.16402811665216255;-1.0418975322025659;1.079;0.002356144563246892
54:04.5;-0.015051505785711704;-0.1629032146472759;-1.0430963546411598;1.079;0.0025576082965902552
54:04.5;-0.01615658322385963;-0.16255890742454396;-1.0413741705760773;1.068;0.0027350614940619133
54:04.5;-0.01712305259290933;-0.16294243560293747;-1.0370719943132973;1.056;0.0028935054238504268
54:04.5;-0.017982117941257883;-0.16395547921669462;-1.0307115236546749;1.044;0.0030388125288649155
54:04.5;-0.018774229106405957;-0.16546358528074626;-1.0229336640696642;1.03;0.0031776935684468192
54:04.5;-0.019546305942642474;-0.1673100802449697;-1.0144293371267625;1.014;0.0033174821906132215
54:04.5;-0.020346274438058178;-0.16933171337554198;-1.0058701326879798;1.0;0.003465493700583185
54:04.6;-0.021215496948615565;-0.17137350818522262;-0.9978462489083261;0.986;0.0036279435874540795
54:04.6;-0.022181048098729214;-0.17330161453813467;-0.9908187167856572;0.986;0.003808718489877673
54:04.6;-0.023249984724642674;-0.17501353155138183;-0.9850913392489341;0.986;0.004008397671208791
54:04.6;-0.02440677585775283;-0.17644477578253842;-0.9808045116865894;0.99;0.004223783719739102
54:04.6;-0.025613894376426825;-0.17757094583817987;-0.977948993974847;0.9940000000000001;0.004447989225238772
54:04.6;-0.026814902145944553;-0.17840463865190656;-0.9763945089977786;0.998;0.004670976550314998
54:04.6;-0.02793933831470302;-0.17898782349159398;-0.9759265459559641;1.003;0.0048804147931472116
54:04.6;-0.028909230884518394;-0.17938170363243072;-0.976284618772917;1.003;0.005062804169042999
54:04.6;-0.029647461412528477;-0.17965669016517705;-0.9771962124567015;1.001;0.005204903498144226
54:04.6;-0.030087687981347734;-0.17988425824189655;-0.9784027226890047;1.003;0.005295410459761621
54:04.7;-0.03018425554513889;-0.18013097765422606;-0.9796762543479022;1.0;0.005326616828103174
54:04.7;-0.02991983906396586;-0.18045413299084903;-0.9808281334888732;1.0;0.005295646669226323
54:04.7;-0.029309257757444574;-0.18089845516038483;-0.9817110015704646;0.997;0.005205031190600792
54:04.7;-0.028399198337220325;-0.181494114257685;-0.9822167410828873;0.997;0.0050626273214022495
54:04.7;-0.027264348993124493;-0.1822565232167651;-0.9822724998503912;0.997;0.004881015637553919
54:04.7;-0.02600043536288967;-0.18318818718969324;-0.9818367441455322;0.998;0.004676461529940753
54:04.7;-0.02471444670740563;-0.18428204430078302;-0.9808965217989498;1.0;0.004467423332411193
54:04.7;-0.023512602401673233;-0.18552511308113143;-0.9794660543669411;1.0;0.004272605489003193
54:04.7;-0.022487512674639488;-0.18690106261393258;-0.97758586072011;0.995;0.004108734731565842
54:04.7;-0.02170710110985037;-0.1883906384630465;-0.97532144115874;0.993;0.003988493777514522
54:04.8;-0.02120816824900126;-0.18996984615624896;-0.9727611649548412;0.992;0.0039191695776224006
54:04.8;-0.02099602618488272;-0.19160692014804515;-0.9700135473831707;0.992;0.0039023488961586503
54:04.8;-0.02104908040290813;-0.1932595644647104;-0.9672037471093063;0.991;0.003934523049607559
54:04.8;-0.02132585481167387;-0.1948738465183647;-0.9644681995544633;0.988;0.004008186476329083
54:04.8;-0.021772762466100517;-0.19638600272461926;-0.9619459669754765;0.98;0.004113151851047445
54:04.8;-0.022332235183705022;-0.1977279642190874;-0.9597664203551354;0.9740000000000001;0.004238047683996274
54:04.8;-0.022950805380759786;-0.19883608676997797;-0.9580349651669596;0.971;0.00437194306199696
54:04.8;-0.023585655197209066;-0.19966086872604738;-0.9568202779453471;0.972;0.004505793377731756
54:04.8;-0.02420755413748152;-0.20017462518613494;-0.9561465647888799;0.9740000000000001;0.004633235815371219
54:04.8;-0.024798931292915168;-0.2003748551925794;-0.955992647605261;0.976;0.004750406112357348
54:04.9;-0.025347653678109552;-0.20028285199905765;-0.9562974109944772;0.976;0.004854835420355938
54:04.9;-0.025838908367982555;-0.19993883106163593;-0.9569696511752834;0.976;0.004943897698065323
54:04.9;-0.026248632519010086;-0.19939568762565452;-0.9579002957866792;0.976;0.005013519998580219
54:04.9;-0.02654157479822327;-0.19871321460860775;-0.9589758464811907;0.982;0.005057793631761045
54:04.9;-0.02667517633315159;-0.19795352987715828;-0.9600925225583498;0.987;0.0050697160629430615
54:04.9;-0.026607954235066848;-0.1971773348982801;-0.9611700839935715;0.991;0.0050427649117490096
54:04.9;-0.02630933786722005;-0.19644020374087182;-0.962163076723424;0.992;0.004972662461697541
54:04.9;-0.025767795493120683;-0.1957886379955435;-0.96306657577542;0.988;0.004858710922702672
54:04.9;-0.024995425263937367;-0.1952565339650383;-0.9639143874508661;0.983;0.004704403544578861
54:04.9;-0.024028732549168774;-0.19486293058474508;-0.9647699362040589;0.983;0.004517351189433035
54:05.0;-0.022925860894575024;-0.19461121014128427;-0.9657123831459214;0.98;0.004308650888278254
54:05.0;-0.021760517938702626;-0.19448940211533755;-0.9668214987043301;0.98;0.004091772398118358
54:05.0;-0.020613430591762395;-0.19447170026455718;-0.9681643263152746;0.983;0.0038811083104589015
54:05.0;-0.019562968916052196;-0.19452186123851756;-0.9697855628523764;0.987;0.003690446346645406
54:05.0;-0.01867650440566358;-0.19459862690348945;-0.9717023517528572;0.99;0.003531576514172307
54:05.0;-0.018003453706264445;-0.194662147302159;-0.9739030787724952;0.993;0.0034131319231687366
54:05.0;-0.017570590620060094;-0.1946798462450843;-0.9763491532162129;0.996;0.0033397388506359823
54:05.0;-0.017380061815480394;-0.19463057824415625;-0.9789787349292108;0.998;0.0033115830267899378
54:05.0;-0.017410361760941923;-0.19450664347672153;-0.9817116814902731;1.0;0.003324498898587985
54:05.0;-0.01762024180608379;-0.19431367880725936;-0.9844554415529693;1.002;0.003370631708090594
54:05.1;-0.017955140136258648;-0.19406857445732856;-0.987111902498091;1.012;0.0034396195080080233
54:05.1;-0.018355249139193786;-0.19379573700382238;-0.9895847906074786;1.012;0.0035201203744766045
54:05.1;-0.01876392428430316;-0.19352241566108963;-0.9917862816037332;1.013;0.003601413972362293
54:05.1;-0.01913497685974447;-0.1932740615831898;-0.9936412503662809;1.013;0.0036747781659396965
54:05.1;-0.01943746098178405;-0.19307050619972266;-0.9950886720295999;1.012;0.0037343691972663525
54:05.1;-0.019656928693678;-0.19292342717531322;-0.9960810317612044;1.012;0.003777420218413415
54:05.1;-0.019793157527263246;-0.1928354497163157;-0.9965831921185295;1.012;0.0038037810841041807
54:05.1;-0.019855812947227873;-0.19280109669100864;-0.9965721125623426;1.014;0.003815099796059905
54:05.1;-0.019860255503010266;-0.1928092359119605;-0.9960383812696911;1.0170000000000001;0.0038140706969170906
54:05.1;-0.019825010266791177;-0.19284585853557606;-0.9949895758330921;1.0190000000000001;0.003804015416375146
54:05.2;-0.019770878301890074;-0.19289583569431049;-0.9934542038209592;1.014;0.003788756258044482
54:05.2;-0.01972052454212911;-0.19294320928444306;-0.9914842696723517;1.014;0.0037725394399593624
54:05.2;-0.01969722767545048;-0.19297083181938113;-0.989154941000348;1.0090000000000001;0.0037597684438239664
54:05.2;-0.01972205967849116;-0.1929606565899842;-0.9865608285325524;1.005;0.0037544377214160985
54:05.2;-0.019809698028738724;-0.19289547080143604;-0.9838093925499201;1.0;0.0037593334618607
54:05.2;-0.019964030421163306;-0.192761944170747;-0.9810128079581771;0.9990000000000001;0.003775236805369055
54:05.2;-0.02017515021634886;-0.1925540388440721;-0.9782799777205847;0.997;0.003800428571271207
54:05.2;-0.0204190175170515;-0.19227542662491295;-0.975709929092397;0.9940000000000001;0.0038307106568213328
54:05.2;-0.020660360460100006;-0.19193995359980723;-0.9733869268018474;0.991;0.003860013192157309
54:05.2;-0.020858680843626593;-0.1915702291339113;-0.9713770631229087;0.9890000000000001;0.0038815278102422306
54:05.3;-0.020976448268160464;-0.19119520458932693;-0.9697261120503875;0.986;0.003889179974640409
54:05.3;-0.020987629478931524;-0.19084757190632823;-0.968458749786642;0.986;0.003879101599973565
54:05.3;-0.020883948056119348;-0.19056130876325308;-0.9675793871207491;0.988;0.0038506490530612796
54:05.3;-0.02067641750592167;-0.1903692525201644;-0.9670745274052205;0.987;0.0038065544099540488
54:05.3;-0.02039114274122783;-0.1903004243695437;-0.9669159733506186;0.985;0.0037520624335401825
54:05.3;-0.020060666162973674;-0.19037701250004638;-0.9670641424383589;0.982;0.003693304698728274
54:05.3;-0.019714092449626557;-0.1906112363118458;-0.9674715915943604;0.983;0.003635494638667103
54:05.3;-0.019369673211603395;-0.19100244880889827;-0.9680877771559052;0.987;0.0035815908007260848
54:05.3;-0.01903207987404361;-0.19153492634368552;-0.9688658278099014;0.9940000000000001;0.003531814369359774
54:05.3;-0.01869426474401357;-0.19217708661154065;-0.9697703948755155;0.998;0.003484006173290334
54:05.4;-0.018342287483444644;-0.1928830706069308;-0.97078367966557;0.996;0.0034345518232101815
54:05.4;-0.01796135649628571;-0.19359720288641408;-0.9719062939156915;0.996;0.003379579021946524
54:05.4;-0.017541755753208817;-0.19426087155322772;-0.9731512491167429;0.991;0.0033161848967402778
54:05.4;-0.017083454679306227;-0.19482044812713598;-0.9745320031061688;0.987;0.0032434435485688634
54:05.4;-0.016598078355852294;-0.19523441586312923;-0.976047836878919;0.985;0.003162898761258999
54:05.4;-0.016107135638887563;-0.1954781118784719;-0.9776711893513298;0.987;0.003078288137556081
54:05.4;-0.015636492651931164;-0.19554552862389396;-0.9793413257684059;0.9940000000000001;0.0029944793042412056
54:05.4;-0.015208810819109577;-0.19544879560375766;-0.9809667016217469;0.9990000000000001;0.0029159664448879193
54:05.4;-0.014836897233128669;-0.19521623014813536;-0.9824355801809747;1.004;0.00284552950414369
54:05.5;-0.014520649251922826;-0.19488922360786246;-0.9836322613497414;1.0090000000000001;0.002783598699798144
54:05.5;-0.014248670055219893;-0.19451772824446786;-0.9844552887019188;1.011;0.0027285349135567007
54:05.5;-0.014003611326110152;-0.19415445608415133;-0.9848339671025178;1.011;0.002677629166339812
54:05.5;-0.013768816334403656;-0.19384874322670764;-0.9847401901776934;1.011;0.002628338275995549
54:05.5;-0.01353365615212029;-0.19364138483880952;-0.9841937530831274;1.01;0.002579252868560414
54:05.5;-0.013296115824168675;-0.19356129419060064;-0.9832604551827492;1.0070000000000001;0.0025305322700063734
54:05.5;-0.013062685651211797;-0.19362413337677672;-0.9820431019690061;1.001;0.002483833683097284
54:05.5;-0.01284643928004736;-0.19383247529017297;-0.9806665125076648;0.993;0.002441915636048314
54:05.5;-0.01266426292522655;-0.19417674901529708;-0.9792591848891931;0.988;0.0024081015529835623
54:05.5;-0.01253392487148712;-0.19463646594973658;-0.9779356745815528;0.9890000000000001;0.002385731621310209
54:05.5;-0.012471331540302897;-0.19518174069054303;-0.9767838194167494;0.988;0.002377663924563207
54:05.6;-0.012488146306780957;-0.1957752814139916;-0.9758593098189366;0.997;0.002385849499714682
54:05.6;-0.01258998249831004;-0.1963748657129701;-0.9751875323892997;0.997;0.002411010866224261
54:05.6;-0.01277539998522882;-0.19693622512745437;-0.9747703343099469;0.997;0.0024524627465171978
54:05.6;-0.013035963210681328;-0.19741630670924049;-0.9745944112878667;0.997;0.002508130131363277
54:05.6;-0.013357715048969328;-0.19777693194820423;-0.9746386542317342;0.9990000000000001;0.002574847082158775
54:05.6;-0.013724105634655839;-0.1979886779004726;-0.9748790299250512;0.9990000000000001;0.0026489583897143843
54:05.6;-0.014119587495723014;-0.19803430074572684;-0.9752904082261755;0.996;0.002727070599251649
54:05.6;-0.01453265892908374;-0.19791073420877234;-0.9758453310574479;0.9940000000000001;0.002806696283844221
54:05.6;-0.014957562184096346;-0.1976290905586266;-0.97651057822031;0.991;0.0028866135199906856
54:05.6;-0.015394380385712747;-0.19721283424670946;-0.9772433607647563;0.992;0.00296688092726146
54:05.7;-0.015847472599159466;-0.19669476916100267;-0.9779893973860182;0.996;0.0030485053858873854
54:05.7;-0.016322549803009023;-0.1961135351211993;-0.978684523504963;0.996;0.0031328405489619267
54:05.7;-0.01682338837148694;-0.19551010128922788;-0.9792601221102417;1.001;0.003220925953534893
54:05.7;-0.017349495005466495;-0.19492437736287496;-0.9796513775848087;1.003;0.0033130237362125592
54:05.7;-0.01789553702812517;-0.1943918119500039;-0.9798064943599057;1.006;0.0034084977943952756
54:05.7;-0.018452427906268897;-0.19394009265466988;-0.979694446736626;1.006;0.003505998793342663
54:05.7;-0.019009253861422853;-0.19358659788793137;-0.9793087916331996;1.001;0.003603794444658458
54:05.7;-0.01955507124097754;-0.19333740888967882;-0.9786660995535709;0.996;0.003700069155123806
54:05.7;-0.020079866453225213;-0.1931882752355376;-0.9777995484201214;0.992;0.0037930748914635102
54:05.8;-0.020574317323121705;-0.19312719726086336;-0.9767502224516638;0.991;0.0038810781734890092
54:05.8;-0.021028362953630367;-0.19313756580370126;-0.9755594684118757;0.991;0.003962104869310872
54:05.8;-0.021429183904402918;-0.19320065819544624;-0.9742648416921885;0.991;0.004033585471293886
54:05.8;-0.021759826197403482;-0.19329702201885757;-0.9729003964876562;0.993;0.00409212570101883
54:05.8;-0.021999675654631033;-0.19340715362947014;-0.9715003823227283;0.996;0.004133631778376358
54:05.8;-0.0221270642666855;-0.19351208888178464;-0.9701042603311333;0.995;0.0041538452218162015
54:05.8;-0.022123206691023776;-0.19359425712039469;-0.9687604247482401;0.991;0.004149128982752841
54:05.8;-0.02197630433366458;-0.19363872706948174;-0.9675264880052199;0.988;0.004117273748706285
54:05.8;-0.021685016652691066;-0.19363482705701918;-0.9664655607141621;0.9840000000000001;0.004058164195540505
54:05.8;-0.021260845485383848;-0.193577895856138;-0.9656397849580619;0.98;0.003974215810517911
54:05.9;-0.02072880982473661;-0.19347072772737156;-0.9651034727334333;0.982;0.0038704682633586584
54:05.9;-0.0201254625658367;-0.1933242940179105;-0.9648981227989789;0.986;0.0037541685350560017
54:05.9;-0.019493728748387316;-0.1931574334710538;-0.9650503214823111;0.986;0.0036337605407625933
54:05.9;-0.018875412112157812;-0.19299520600318093;-0.9655718272055852;0.986;0.00351744689603596
54:05.9;-0.018303333097712746;-0.1928655865291479;-0.9664603727261749;0.9840000000000001;0.003411685402803649
54:05.9;-0.017795047611947012;-0.1927944591196347;-0.9677003533841336;0.9840000000000001;0.003319973385225897
54:05.9;-0.017349566189931435;-0.19279968344598952;-0.9692636109329331;0.987;0.003242177928558079
54:05.9;-0.016947992165278477;-0.19288593647517346;-0.971110835912822;0.993;0.0031745898151595664
54:05.9;-0.01655818035361381;-0.19304219604443026;-0.9731934310820128;0.995;0.0031107422439459005
54:05.9;-0.016142415994791513;-0.19324288498810424;-0.9754547179788332;0.9940000000000001;0.003042840312037095
54:06.0;-0.01566632770285613;-0.19345247067067003;-0.9778293642712581;0.9940000000000001;0.0029634974808812045
54:06.0;-0.015106971915441633;-0.19363231744915255;-0.980241293294644;0.995;0.002867399852652174
54:06.0;-0.01445822349922736;-0.19374804326414696;-0.9826019947882172;0.995;0.0027525163062468256
54:06.0;-0.013732406833565833;-0.19377562250511673;-0.9848117516825394;1.001;0.0026205896675852067
54:06.0;-0.01295819778937678;-0.19370490803964005;-0.9867655214845887;1.0090000000000001;0.002476847089836619
54:06.0;-0.012175697159693062;-0.19353989825788634;-0.9883633044365163;1.014;0.0023290615120290844
54:06.0;-0.011430252047368968;-0.19329595879431255;-0.98952248063167;1.014;0.0021862722718964836
54:06.0;-0.010766955902281605;-0.1929952402530035;-0.9901883492943835;1.012;0.00205758291315981
54:06.0;-0.010227074813686069;-0.1926619830018826;-0.9903400510772067;1.011;0.0019513348547098837
54:06.0;-0.009846043493059339;-0.19231875716724325;-0.9899913466275477;1.0070000000000001;0.0018746266732807607
54:06.1;-0.009651665518583912;-0.19198374631925483;-0.9891875873235506;1.0070000000000001;0.001832927904880743
54:06.1;-0.009661777885418926;-0.19166899153288056;-0.9880007620138131;1.0070000000000001;0.0018296422761737339
54:06.1;-0.009881962702641954;-0.1913797676632381;-0.9865239110904127;1.0070000000000001;0.0018657216426251361
54:06.1;-0.010304369856240118;-0.19111504652528188;-0.9848651438671618;1.004;0.001939514747725398
54:06.1;-0.010908217384255122;-0.19086846468923682;-0.9831408872943168;0.9990000000000001;0.0020469334468867302
54:06.1;-0.011661902014688783;-0.19062920314456377;-0.9814683279610236;0.9990000000000001;0.002181901344997248
54:06.1;-0.012526247251823322;-0.19038272773136122;-0.9799576841550094;0.998;0.0023369845836105872
54:06.1;-0.013458181281096448;-0.19011174882110735;-0.9787049896312952;0.996;0.0025040738520845907
54:06.1;-0.014414187971829041;-0.18979781071000362;-0.9777855810533915;0.993;0.002675007527822044
54:06.1;-0.015353188288499468;-0.18942384878573262;-0.9772483656750162;0.993;0.0028420923483167735
54:06.2;-0.0162387509133893;-0.18897769555813027;-0.9771114119171532;0.992;0.0029985221032758527
54:06.2;-0.017040667428812474;-0.1884557009437467;-0.9773598013786744;0.992;0.003138703943652917
54:06.2;-0.01773622935370886;-0.18786514905135188;-0.9779465862148551;0.992;0.003258536969211532
54:06.2;-0.01831181072589441;-0.18722470267261673;-0.9787972391288983;0.9990000000000001;0.0033557312787646306
54:06.2;-0.018764996997827747;-0.18656284307356277;-0.9798172596769877;1.001;0.0034301944197006706
54:06.2;-0.01910653229689753;-0.1859143221639944;-0.9809016434820791;1.0;0.0034843372390062077
54:06.2;-0.01936073917919288;-0.1853148059984116;-0.9819443360860409;0.9990000000000001;0.0035230509429774993
54:06.2;-0.01956348776437935;-0.1847948658770119;-0.9828463036240915;1.001;0.003553217503776005
54:06.2;-0.019757635341541666;-0.1843751346015966;-0.9835220057343736;1.001;0.00358279036321629
54:06.2;-0.01998639324448583;-0.1840637335670306;-0.9839047293970169;1.0;0.003619559359889551
54:06.3;-0.02028569373416197;-0.1838559025437879;-0.9839512680911487;1.001;0.0036697884650403784
54:06.3;-0.020677441905485535;-0.183735335237811;-0.9836462477712932;1.0070000000000001;0.0037370459256068304
54:06.3;-0.021165598828266335;-0.1836767447932271;-0.9830057913921041;1.0070000000000001;0.0038215611281507294
54:06.3;-0.021736108769808353;-0.1836491058771188;-0.9820790741276816;1.004;0.003920279885330749
54:06.3;-0.0223605799034986;-0.18361914883269176;-0.980945800273016;0.9990000000000001;0.0040275973320491425
54:06.3;-0.023002591539556486;-0.18355503964431832;-0.9797087231734577;0.997;0.004136566928791329
54:06.3;-0.02362438977520369;-0.18343014591824036;-0.9784821936635967;0.995;0.004240179458097531
54:06.3;-0.02419145045619321;-0.18322640897220477;-0.9773788407879223;0.9890000000000001;0.004332244021798123
54:06.3;-0.024673888566665497;-0.182936858848436;-0.9764966131435541;0.988;0.004407674936248434
54:06.3;-0.02504593204124665;-0.18256714864536755;-0.9759082449555552;0.9890000000000001;0.004462403296536026
54:06.4;-0.02528555723420553;-0.18213584997734866;-0.9756548669749163;0.991;0.004493287226123916
54:06.4;-0.0253754958269722;-0.18167285827539728;-0.9757445191867133;0.992;0.004498220147995981
54:06.4;-0.0253054989712473;-0.18121565867579834;-0.9761550017691097;0.992;0.004476405400029303
54:06.4;-0.025074919920929886;-0.1808042858119094;-0.9768397098959045;0.9940000000000001;0.004428652269658979
54:06.4;-0.02469434111670219;-0.1804763052576587;-0.9777351380446975;0.996;0.004357514667930113
54:06.4;-0.024185180281184594;-0.1802626943547316;-0.9787691085852184;0.9940000000000001;0.004267125745948146
54:06.4;-0.023577208372195377;-0.18018497644600404;-0.9798691069560241;0.996;0.004162737492984974
54:06.4;-0.022905078775372997;-0.18025378945478862;-0.980970422587324;1.001;0.004050159312258413
54:06.4;-0.02220495385435472;-0.1804688468946771;-0.9820238081178293;1.005;0.003935266380259036
54:06.4;-0.021511129604611733;-0.18081996826120905;-0.9830016526675104;1.0070000000000001;0.003823524290522965
54:06.5;-0.020851958743699946;-0.18128899572538618;-0.9839006989405069;1.008;0.0037193715880900857
54:06.5;-0.020245289920590777;-0.18185268076534916;-0.9847393012475771;1.001;0.00362547553702447
54:06.5;-0.019694905405952312;-0.18248614031258814;-0.9855487412718373;1.001;0.003542108764354184
54:06.5;-0.019189640516178986;-0.18316555546358335;-0.9863604851390264;0.995;0.0034669398904174854
54:06.5;-0.018705995308724667;-0.183868785342667;-0.9871929813842352;0.995;0.00339539955333109
54:06.5;-0.018213769233370942;-0.18457379201249588;-0.9880418067917534;1.0;0.0033215835862154776
54:06.5;-0.017683023326684633;-0.1852560825241809;-0.98887577620568;1.005;0.003239445921578765
54:06.5;-0.01709026532233655;-0.1858869033150418;-0.989639442870732;1.0090000000000001;0.0031439424943666985
54:06.5;-0.016422849476525263;-0.18643370123033298;-0.9902601874158956;1.0070000000000001;0.003031951521234816
54:06.5;-0.0156822218908095;-0.18686348723214305;-0.9906572875377684;1.0070000000000001;0.002903056461553144
54:06.6;-0.014886824257724605;-0.1871482006105452;-0.9907514291785513;1.0070000000000001;0.0027602754624436706
54:06.6;-0.01407392022142179;-0.18726971325705816;-0.9904747218249776;1.013;0.0026105140000893395
54:06.6;-0.013298426420606767;-0.1872221568700008;-0.9897815451401739;1.013;0.002464318576479855
54:06.6;-0.012627641103544189;-0.18701108970452204;-0.9886591676082752;1.015;0.0023347274462821627
54:06.6;-0.012132620907245957;-0.18665089972525706;-0.9871355518343589;1.015;0.0022354322343408925
54:06.6;-0.011878155340792753;-0.1861621521196314;-0.9852813805468429;1.01;0.0021787162234127807
54:06.6;-0.011913475816580029;-0.18556972022452572;-0.9832042279386424;0.9990000000000001;0.0021736486109418846
54:06.6;-0.012265346016745915;-0.18490169848564897;-0.9810349207291265;0.992;0.0022248727242401034
54:06.6;-0.012934212319698263;-0.18418873280099846;-0.9789090304652024;0.987;0.002332090397214708
54:06.6;-0.013893169581971627;-0.18346334872367853;-0.9769484874421599;0.985;0.002490131705618452
54:06.7;-0.015089498040068849;-0.18275908350264106;-0.9752480592734668;0.988;0.0026894833451933274
54:06.7;-0.016449363864375812;-0.18210970486877923;-0.9738691667807301;0.99;0.002917311567330372
54:06.7;-0.017886139577041472;-0.1815488192829267;-0.9728407530475294;0.99;0.0031590158107526077
54:06.7;-0.019310767605707373;-0.18110924676622006;-0.9721651712685349;0.99;0.003400010198584308
54:06.7;-0.020640978091817287;-0.1808208843341569;-0.971826758340767;0.99;0.0036271683612516406
54:06.7;-0.021807194899395945;-0.18070684733453923;-0.9718011587478139;0.9940000000000001;0.0038295859995748065
54:06.7;-0.022755229248557697;-0.18077955029994086;-0.9720636168175206;0.996;0.003998758766668514
54:06.7;-0.02344702113775507;-0.1810388207011603;-0.972594315711621;0.993;0.004128488830020237
54:06.7;-0.02386058168050102;-0.18147277611370224;-0.9733792198322765;0.99;0.004214776794639389
54:06.7;-0.023989860107811272;-0.18206074896859362;-0.9744063078712053;0.99;0.0042558285846019134
54:06.8;-0.02384472830806193;-0.1827770442543247;-0.9756588105904564;0.992;0.004252183510912803
54:06.8;-0.023450454248119063;-0.18359434344934095;-0.9771077830175375;0.991;0.004206811269844156
54:06.8;-0.022845634079359012;-0.18448595649130628;-0.9787058555262694;0.991;0.004124950252712788
54:06.8;-0.02207839190753292;-0.18542699374734764;-0.9803833271920829;0.993;0.004013620556055263
54:06.8;-0.021201740315556383;-0.18639509007245358;-0.9820475709190324;0.995;0.0038809540860153028
54:06.8;-0.020268868000474574;-0.18737086845408765;-0.9835866647452686;0.998;0.0037354609107038985
54:06.8;-0.019328344808993536;-0.18833773529860648;-0.9848777064314069;1.002;0.003585207658089454
54:06.8;-0.01841923453899468;-0.18928094461836678;-0.9857993730885971;1.0070000000000001;0.0034369009034177335
54:06.8;-0.01756692959179286;-0.19018658849651857;-0.9862471591041604;1.013;0.0032950462448749582
54:06.8;-0.01678113821790588;-0.1910410372981031;-0.9861485611042737;1.014;0.0031614799174329872
54:06.9;-0.01605717694396936;-0.1918306195283826;-0.9854747551505988;1.011;0.0030355166964690433
54:06.9;-0.015380677643220774;-0.19254119882407045;-0.9842458507189791;1.003;0.0029147595521465367
54:06.9;-0.01473454959997248;-0.19315779052432655;-0.9825288906119879;1.003;0.00279636864218235
54:06.9;-0.014106113721602146;-0.1936645153961957;-0.9804301567764651;1.001;0.0026783917298292626
54:06.9;-0.01349227725513274;-0.19404494982787526;-0.9780842048505755;0.997;0.002560730338664302
54:06.9;-0.012901582417168739;-0.19428296253311222;-0.9756412705555652;0.9940000000000001;0.0024455010936572717
54:06.9;-0.012353312946687893;-0.1943643637881518;-0.973253852856212;0.991;0.0023368251404762945
54:06.9;-0.011874639130904004;-0.19427945549895817;-0.9710632302047304;0.988;0.002240241342267991
54:06.9;-0.011496670925558124;-0.19402576511875813;-0.9691869803465839;0.981;0.0021619172988776316
54:06.9;-0.011249784901110229;-0.19360971277295125;-0.9677089850306191;0.978;0.002107735609227918
54:07.0;-0.011158442899357449;-0.19304646122148322;-0.966673882245697;0.978;0.0020823101937112523
54:07.0;-0.011236089746666733;-0.19235829706646104;-0.9660877953031698;0.988;0.002088058773142003
54:07.0;-0.011481192638853568;-0.19157250745211069;-0.9659255686094025;0.988;0.002124534802626275
54:07.0;-0.011875681190305529;-0.19071957308734777;-0.9661422547972256;0.9890000000000001;0.0021882395983722786
54:07.0;-0.012386749175098986;-0.18983212348600215;-0.9666851658517019;0.991;0.0022730663014015958
54:07.0;-0.012971999660996896;-0.18894478324140096;-0.9675032931445021;0.992;0.0023713425065392847
54:07.0;-0.01358646121077677;-0.18809467217011056;-0.9685522880800995;0.987;0.0024751750512509016
54:07.0;-0.014188977078051076;-0.1873219889827957;-0.9697946459137221;0.986;0.002577624373507911
54:07.0;-0.014745731640015733;-0.1866700627981336;-0.9711962488331879;0.988;0.0026733018302785797
54:07.0;-0.01523014672909708;-0.18618434402063697;-0.9727214988217101;0.987;0.002758263554301699
54:07.1;-0.015620188762597121;-0.18590966549283186;-0.9743293579732755;0.986;0.0028293979591594723
54:07.1;-0.015895270306051392;-0.1858850860387878;-0.9759720319132684;0.996;0.0028836984027980047
54:07.1;-0.0160348441999489;-0.18613658483176165;-0.9775969061573485;0.996;0.0029178052701007953
54:07.1;-0.01601977883952015;-0.18666961473269766;-0.9791506087692553;0.9990000000000001;0.002928057800609459
54:07.1;-0.01583636677559029;-0.1874644127310589;-0.980582920626076;0.9990000000000001;0.002911110642070416
54:07.1;-0.015481641569333461;-0.18847598239505925;-0.9818488516811288;0.9990000000000001;0.0028649540486582518
54:07.1;-0.01496776821035073;-0.18963878251000096;-0.9829087735308178;0.997;0.0027899564179818628
54:07.1;-0.014323299722032827;-0.1908748079036554;-0.9837277687410494;0.9990000000000001;0.0026894695010830456
54:07.1;-0.013590445858349719;-0.19210322637030433;-0.9842758720175766;1.005;0.0025697164392174702
54:07.1;-0.01281938710720331;-0.19324964245216253;-0.984530342393142;1.0070000000000001;0.002439018342795747
54:07.2;-0.012061760609852812;-0.1942532411100181;-0.984479634990925;1.0070000000000001;0.002306671316580447
54:07.2;-0.011365298045285023;-0.19507070834590173;-0.9841274627036587;1.005;0.002181846741908969
54:07.2;-0.010770690001293952;-0.1956768577163609;-0.9834952709723828;1.005;0.002072789824325223
54:07.2;-0.010310578410599486;-0.19606277034683414;-0.9826223199708473;1.002;0.0019863912294736663
54:07.2;-0.010009577807709398;-0.1962326022188792;-0.9815634924565569;0.9990000000000001;0.0019279924107956528
54:07.2;-0.009883912719354786;-0.19620013736695233;-0.980385575528849;0.998;0.0019011882503129252
54:07.2;-0.009939798676575526;-0.19598588982417736;-0.9791631011465505;0.998;0.001907468753114068
54:07.2;-0.010170764103903428;-0.19561517259396913;-0.9779746198258782;1.0;0.0019457350532624575
54:07.2;-0.010555116379335646;-0.1951171002396432;-0.9768994256118776;0.9990000000000001;0.0020119084442004518
54:07.2;-0.01105510284834888;-0.19452402768301855;-0.9760138876390293;0.996;0.0020989014024640575
54:07.3;-0.011618788650371414;-0.19387064638987134;-0.9753865310705594;0.9940000000000001;0.002197099191763155
54:07.3;-0.012184679914478509;-0.19319219592648287;-0.9750718641685711;0.991;0.0022953046097857637
54:07.3;-0.012688264515162102;-0.19252205431558198;-0.9751038598531125;0.991;0.002381955187215846
54:07.3;-0.013069100174540799;-0.19188979402212278;-0.9754903923464415;0.99;0.0024463610861712886
54:07.3;-0.013276906092297609;-0.1913209216124911;-0.9762098353789589;0.991;0.002479719325226018
54:07.3;-0.01327543310226115;-0.19083881457459495;-0.9772106804957441;0.993;0.0024757319064037954
54:07.3;-0.013043512575787916;-0.19046829934907103;-0.9784145968874366;0.997;0.0024307494077908448
54:07.3;-0.012573514113996986;-0.1902395091122498;-0.9797227687041486;1.0;0.002343476438325279
54:07.3;-0.011868599193903692;-0.19019054344119238;-0.9810245527295827;1.003;0.00221446214205517
54:07.3;-0.010941071754353045;-0.1903679158293793;-0.9822068684874167;1.003;0.002045768976023519
54:07.4;-0.009813720906468166;-0.19082425534115324;-0.9831628135743395;1.0;0.0018411650526997724
54:07.4;-0.00852424246960659;-0.19161296358912708;-0.9837989041755207;1.002;0.0016068932152191807
54:07.4;-0.007130825792300833;-0.19277996617411888;-0.9840414242004512;1.002;0.0013527424143873396
54:07.4;-0.0057160126290392325;-0.1943537215689634;-0.9838426529311773;1.004;0.0010929786724412222
54:07.4;-0.004386291406865657;-0.19633572219242298;-0.9831870382142945;1.0070000000000001;0.0008467066089983021
54:07.4;-0.003266192048708222;-0.19869399675982571;-0.9820964043990832;1.004;0.000637353806629037
54:07.4;-0.00248718906964652;-0.20136148797226103;-0.980632862568431;0.9990000000000001;0.000491124562914872
54:07.4;-0.0021727822881838894;-0.2042400521435564;-0.9788987146205237;1.002;0.0004344050679821685
54:07.4;-0.0024214513238362202;-0.20720939814425685;-0.9770336539775965;1.01;0.0004902241654025828
54:07.4;-0.0032893287893322296;-0.2101386468961985;-0.9752093135994673;1.0070000000000001;0.0006740794041831046
54:07.5;-0.004775155835613443;-0.21289726878686152;-0.9736196877146823;1.0;0.000989798944736242
54:07.5;-0.006810968242457845;-0.215363123987237;-0.9724655922561238;0.992;0.0014264430642675046
54:07.5;-0.00926147097562408;-0.2174275315244086;-0.9719334855291567;0.992;0.0019571812667761915
54:07.5;-0.011932808804690054;-0.21899873657409502;-0.9721717376967353;0.987;0.002540547287530832
54:07.5;-0.014589121243074625;-0.22000520684315455;-0.9732685451446724;0.9840000000000001;0.0031238831502384823
54:07.5;-0.016974035936954932;-0.2203996066757193;-0.9752354805484696;0.9840000000000001;0.003648425022513539
54:07.5;-0.01883357860199234;-0.22016346737292602;-0.9780004402808068;0.992;0.004055245542367347
54:07.5;-0.019936884006369632;-0.21931164124365754;-0.981412951730743;1.005;0.004291120914748466
54:07.5;-0.020092508839047955;-0.21789499877259547;-0.9852621481567454;1.014;0.004313534030612552
54:07.5;-0.019160679949323398;-0.21599962660255392;-0.9893039688651079;1.023;0.004094432053500582
54:07.6;-0.01706334973422052;-0.2137408358534976;-0.9932916743887263;1.03;0.003622668467975445
54:07.6;-0.013793043293211849;-0.21125115033911138;-0.9970036147023131;1.0290000000000001;0.002905065406087153
54:07.6;-0.00941913534801987;-0.2086640756987037;-1.000263485618473;1.0290000000000001;0.001965953035177226
54:07.6;-0.004088359991047056;-0.20609863167839307;-1.002950323649939;1.0290000000000001;0.0008450913586025641
54:07.6;0.0019838244420665972;-0.20365001307282965;-1.0049979113214127;1.0270000000000001;0.0004060250590904495
54:07.6;0.008532672793254757;-0.20138846357031137;-1.0063852792037715;1.028;0.0017293542119619935
54:07.6;0.01527289405315848;-0.1993646318021441;-1.0071209988528698;1.023;0.003066557450127291
54:07.6;0.021931758808548436;-0.19761810589641507;-1.007224326847757;1.018;0.004365423680990586
54:07.6;0.028279482401636018;-0.19618606073679012;-1.0067067041320426;1.015;0.00558524931653553
54:07.6;0.03415020061113209;-0.1951094365215978;-1.00555766441142;1.016;0.006700057263023898
54:07.7;0.039449581626281545;-0.19443464503254923;-1.0037388455054794;1.0190000000000001;0.007699043711390509
54:07.7;0.04414855942872777;-0.19421009851091628;-1.001187765924139;1.0190000000000001;0.008584280094917355
54:07.7;0.0482656216204882;-0.19447859170873835;-0.9978301774096161;1.0190000000000001;0.009366262798615906
54:07.7;0.051842222680088715;-0.1952678110722835;-0.9935977847831986;1.0170000000000001;0.010058306967962468
54:07.7;0.05491701089690531;-0.1965815374345971;-0.9884476450820422;1.013;0.010670955017001925
54:07.7;0.05750450743688172;-0.19839367979964156;-0.982380074016646;1.011;0.011207513366569045
54:07.7;0.059582744572153165;-0.2006464918447914;-0.97545253835963;1.0070000000000001;0.01166160208323114
54:07.7;0.06109231525036713;-0.20325326799968094;-0.9677873805791479;0.9990000000000001;0.012017221776548103
54:07.7;0.061946684568814206;-0.20610471774863995;-0.9595715843844945;0.99;0.012251333982920413
54:07.7;0.06205097337836723;-0.20907770938233458;-0.9510477525160411;0.978;0.012338394601418614
54:07.8;0.0613242994754346;-0.21204543116527388;-0.9424970907836262;0.9670000000000001;0.012255796285489957
54:07.8;0.0597201100100578;-0.2148884443028637;-0.934216934112634;0.95;0.011988956822945417
54:07.8;0.05724035386836734;-0.21750551188304013;-0.926496788070618;0.95;0.011534970683252623
54:07.8;0.05394171693387413;-0.21982190421078174;-0.9195973967034483;0.941;0.010904191361032286
54:07.8;0.04993369132925865;-0.22179297349427657;-0.913736163104224;0.9359999999999999;0.0101195748977141
54:07.8;0.045368936338215926;-0.2234026813377926;-0.9090799527971221;0.9329999999999999;0.009214018067842994
54:07.8;0.0404275416450686;-0.22465859592624274;-0.9057446135615269;0.934;0.008226330116467968
54:07.8;0.03529839160551223;-0.22558516357509328;-0.9037997101743774;0.9359999999999999;0.007196770407107107
54:07.8;0.030161344705238645;-0.2262164434188729;-0.9032761790508357;0.9359999999999999;0.006163046259028372
54:07.8;0.025172984557268727;-0.22658914925231988;-0.904174013394434;0.9359999999999999;0.005157340899473684
54:07.9;0.02045750839127802;-0.22673686443225627;-0.906467407311948;0.937;0.004204623059306893
54:07.9;0.016103568174134636;-0.22668622065385127;-0.910105978461427;0.937;0.0033223027474942207
54:07.9;0.012166774974205258;-0.22645561552968607;-0.915012199271724;0.937;0.0025210731938067926
54:07.9;0.008675774796072263;-0.22605681179927714;-0.9210766679068183;0.9420000000000001;0.0018064321315339482
54:07.9;0.0056386453177936025;-0.22549917602328579;-0.9281539830159244;0.951;0.0011801569531154448
54:07.9;0.003047190277493209;-0.22479511794242568;-0.9360620274631821;0.961;0.0006411964023704506
54:07.9;0.0008789423137270082;-0.2239642992666556;-0.9445861313488155;0.972;0.00018594338517594004
54:07.9;-0.0009016693805633471;-0.22303460635603523;-0.9534876921393118;0.98;0.00019174968859956616
54:07.9;-0.0023417381665650546;-0.22203960099255704;-0.9625155771971349;0.988;0.0005004682598258946
54:07.9;-0.0034978614611405673;-0.2210137774369949;-0.9714184968553458;0.9990000000000001;0.0007509799125149659
54:08.0;-0.0044341139478434235;-0.2199874578360633;-0.9799569713720242;1.008;0.0009558984937869607
54:08.0;-0.0052197418680334;-0.2189826822510212;-0.9879136741049894;1.0190000000000001;0.0011292180046676519
54:08.0;-0.005925710770822614;-0.21801073665603976;-0.9951007367009316;1.0190000000000001;0.001285539366083694
54:08.0;-0.0066196994741041775;-0.21707157691547904;-1.0013628973359041;1.023;0.001438907016973971
54:08.0;-0.007360244725940195;-0.2161552470760907;-1.006576780093573;1.025;0.001601418881851878
54:08.0;-0.008191510385865575;-0.21524508375813306;-1.0106483815576237;1.028;0.0017819573774137726
54:08.0;-0.009139962382758103;-0.21432198764536906;-1.0135116192034552;1.033;0.0019853627468909016
54:08.0;-0.010213272672754148;-0.21336850873668733;-1.0151300910424805;1.0390000000000001;0.002212162114096982
54:08.0;-0.011401017412727046;-0.2123713542939678;-1.0155024795648488;1.043;0.002458784879293307
54:08.0;-0.01267683906020099;-0.21132162669152613;-1.0146699986876169;1.045;0.002718189567982248
54:08.1;-0.014002091618948352;-0.21021323858649912;-1.0127227991854097;1.042;0.002980873631729713
54:08.1;-0.015330618482265442;-0.20904055892872822;-1.0098022051366338;1.03;0.003236134389454968
54:08.1;-0.016613429247603968;-0.20779619747824615;-1.0060972986562982;1.03;0.0034732565644180285
54:08.1;-0.017801754593833808;-0.206469508236098;-1.001836596797109;1.024;0.0036822699641007
54:08.1;-0.018847764270229002;-0.2050461681783349;-0.9972765738208718;1.0190000000000001;0.0038541367211040838
54:08.1;-0.01970344969152048;-0.20350897092042133;-0.9926882872824092;1.014;0.003980510054288435
54:08.1;-0.02031888264033161;-0.20183976291435632;-0.9883427309402658;1.008;0.004053350147244849
54:08.1;-0.020641043830505697;-0.20002225544532776;-0.9844955300599658;1.002;0.0040646553306278865
54:08.1;-0.020613937294040284;-0.1980452511781381;-0.9813719448198333;0.996;0.004006443495670553
54:08.1;-0.020180067063202283;-0.19590572369394413;-0.9791535390427617;0.995;0.0038709764385374485
54:08.2;-0.01928295960340664;-0.19361124767968832;-0.9779679576267875;0.9940000000000001;0.0036511434877537605
54:08.2;-0.017870535230081655;-0.19118142229795396;-0.9778827074915937;0.996;0.0033409502954401854
54:08.2;-0.015899416313757072;-0.1886481527781939;-0.9789028169239052;0.996;0.0029361167214842273
54:08.2;-0.013340284940550099;-0.18605493384847002;-0.9809713682838364;0.998;0.002434796276664111
54:08.2;-0.01018428350837544;-0.1834552930927279;-0.9839717957395068;0.996;0.0018384142487806276
54:08.2;-0.006450308571634654;-0.18091020384725887;-0.9877316888578641;0.998;0.0011526104194900964
54:08.2;-0.002192548767043344;-0.17848406622506252;-0.9920290466721632;1.004;0.000388215706163947
54:08.2;0.0024933905354650103;-0.1762391221074966;-0.9966024002626098;1.011;0.0004379399417352543
54:08.2;0.0074683221938322275;-0.1742288272390154;-1.0011652947835454;1.0190000000000001;0.0013027132953710944
54:08.2;0.012553637951359812;-0.17249162701211748;-1.00542379942382;1.025;0.002177142116512233
54:08.3;0.017542588355958254;-0.17104734310835382;-1.009094285133312;1.0270000000000001;0.0030279015609049114
54:08.3;0.022217260502599822;-0.169898083404458;-1.0119186937673215;1.0270000000000001;0.003819659113428439
54:08.3;0.026368171154242927;-0.16903379798585288;-1.0136760375293161;1.0270000000000001;0.004518067748715429
54:08.3;0.02981294017251161;-0.16844034590501586;-1.0141909442713928;1.026;0.005092964647695815
54:08.3;0.03241117663313652;-0.1681069953202806;-1.013341320726866;1.025;0.005521236311849926
54:08.3;0.0340739213636233;-0.1680310695239893;-1.0110670460990374;1.031;0.005788841572479719
54:08.3;0.03476713821014447;-0.1682187689412913;-1.007380156934287;1.033;0.005891647927847284
54:08.3;0.03450957069202273;-0.16868231981107104;-1.0023745951418541;1.031;0.0058349773250677825
54:08.3;0.03336574951309502;-0.16943475041045766;-0.9962314011492356;1.024;0.00563201235539791
54:08.3;0.03143536934721332;-0.17048440288478015;-0.9892148627207452;1.012;0.005301440031647956
54:08.4;0.02884098428691461;-0.171830968121032;-0.981657098164851;0.998;0.004864870970970044
54:08.4;0.025716475678329926;-0.17346374629036976;-0.9739319790631489;0.977;0.004344589998042877
54:08.4;0.02219830036514648;-0.17536205637026858;-0.966422774344916;0.977;0.003762032203992734
54:08.4;0.018420297303432996;-0.17749747373332211;-0.959489685973044;0.9690000000000001;0.0031371054868954908
54:08.4;0.014511429287034947;-0.17983730431887793;-0.9534423215567939;0.963;0.002488194922470188
54:08.4;0.010594774336483478;-0.18234809829462745;-0.9485193987583633;0.958;0.0018324796762624908
54:08.4;0.006785752189810389;-0.1849976267755193;-0.9448762482229184;0.9540000000000001;0.001186148556644444
54:08.4;0.0031880659675314147;-0.1877543928457261;-0.9425804824936692;0.9520000000000001;0.0005642035948351172
54:08.4;-0.0001129278968792705;-0.19058507372049813;-0.9416162308883944;0.956;2.0265814380419962e-05
54:08.4;-0.003057998782279185;-0.19345122053255986;-0.9418967845984614;0.963;0.0005572012686971534
54:08.5;-0.005620306083971498;-0.1963068069121263;-0.9432840806511585;0.97;0.0010407294211797647
54:08.5;-0.007807662077535304;-0.1990980043298199;-0.9456114469101881;0.98;0.0014699434795919365
54:08.5;-0.00965954984586369;-0.2017657560070106;-0.9487045659730295;0.98;0.0018489933011085606
54:08.5;-0.011238901429522597;-0.20425067903345673;-0.9523958595162576;0.9790000000000001;0.0021862754092372367
54:08.5;-0.012619580024287435;-0.20649944003043566;-0.9565297318598868;0.978;0.0024926554626979436
54:08.5;-0.013871340475786626;-0.20847192494981706;-0.9609594301609812;0.98;0.002778888114393328
54:08.5;-0.015044611452833933;-0.21014821732640707;-0.9655390374348704;0.981;0.0030526465573055685
54:08.5;-0.016157633468448448;-0.21153363394447403;-0.9701152779162794;0.983;0.0033157404422395546
54:08.5;-0.017188658197214886;-0.21266005526856355;-0.9745234980834637;0.992;0.0035622157001637136
54:08.5;-0.01807596966956096;-0.2135829279280851;-0.9785907547046736;1.0;0.0037780634571998235
54:08.6;-0.01872740369223957;-0.21437465218267432;-0.9821465626359308;1.008;0.003943004803236734
54:08.6;-0.01903834155158095;-0.21511575419286502;-0.9850391546959544;1.0190000000000001;0.004034175849417921
54:08.6;-0.01891406691586245;-0.2158853969966776;-0.9871531225850173;1.0190000000000001;0.00403081356495541
54:08.6;-0.01829078608859495;-0.21675279969927955;-0.9884237581701348;1.02;0.003918684167064723
54:08.6;-0.017150332688336416;-0.21777095608614444;-0.9888444920328513;1.0190000000000001;0.003693180260868421
54:08.6;-0.01552582825329783;-0.21897341836562567;-0.9884659497382402;1.015;0.0033605308710356312
54:08.6;-0.013497972087348384;-0.22037400426176446;-0.9873872098259617;1.01;0.00293708412542858
54:08.6;-0.011183468833271742;-0.2219686187064343;-0.9857413670885529;1.006;0.0024469837965165196
54:08.6;-0.008718273766619428;-0.22373820573612538;-0.9836785324529299;1.002;0.0019187740966743602
54:08.6;-0.006238822837242456;-0.22565200143634484;-0.9813497131831886;1.001;0.0013815469327131688
54:08.7;-0.003864423238071116;-0.22767055403386;-0.9788944572242106;0.9990000000000001;0.0008612463985033331
54:08.7;-0.0016837812577225047;-0.22974823981891182;-0.9764339836408935;1.003;0.0003777293662171316
54:08.7;0.00025198230664339464;-0.23183509523966064;-0.9740700133965076;1.003;5.690355523238278e-05
54:08.7;0.0019287997081650391;-0.2338779023298992;-0.9718878428858202;1.003;0.0004384221336455666
54:08.7;0.003362224041602473;-0.2358208050994161;-0.9699609678467085;1.003;0.0007690649610962341
54:08.7;0.004585135671589882;-0.23760596223486435;-0.9683544453993153;1.0;0.0010549791473979866
54:08.7;0.005633632728388099;-0.23917458445919806;-0.9671251142031965;0.996;0.0013031254301040227
54:08.7;0.006534612580538304;-0.2404685551711459;-0.9663182750011937;0.992;0.001518442432507788
54:08.7;0.007298183402172299;-0.24143297294450872;-0.9659620134901988;0.991;0.0017020464308704077
54:08.7;0.007916757635117143;-0.24202000474845728;-0.9660613823830396;0.992;0.0018509868634364569
54:08.8;0.0083706716453331;-0.24219406922863007;-0.966594615505076;0.9940000000000001;0.0019596033890939826
54:08.8;0.00863790950068284;-0.24193767895440768;-0.9675126273048946;0.9990000000000001;0.0020219425018995147
54:08.8;0.008704059448618632;-0.24125645664500706;-0.9687418657997849;0.9990000000000001;0.0020342712555021627
54:08.8;0.008569079241315307;-0.24018131041828616;-0.9701896318423884;1.001;0.001996778988311753
54:08.8;0.00824937838129006;-0.23876621921558963;-0.9717506221025949;1.001;0.0019140308532608929
54:08.8;0.007775584423818686;-0.2370817524642573;-0.9733137059635341;1.0;0.0017942543547303834
54:08.8;0.007187289745292974;-0.2352063241703685;-0.9747685051081855;1.0;0.0016478422605052659
54:08.8;0.006526403923520657;-0.23321779750238644;-0.9760120543952356;1.001;0.001485562131162848
54:08.8;0.005830919233983849;-0.23118707939349326;-0.9769563147005648;1.0070000000000001;0.001316969535329276
54:08.8;0.005130688198874202;-0.22917393616685913;-0.9775368101175348;1.011;0.0011494073416335444
54:08.9;0.004445867948098782;-0.22722465269435826;-0.9777210865878199;1.012;0.0009877044014808573
54:08.9;0.0037875562739287613;-0.22537137524766623;-0.9775142520717791;1.0070000000000001;0.0008344127797067824
54:08.9;0.0031597536615650523;-0.223633222855865;-0.9769589723618387;1.0070000000000001;0.0006903445079952594
54:08.9;0.0025622049796460364;-0.22201900618367484;-0.976128975970333;1.001;0.000555278975381341
54:08.9;0.001994106531042412;-0.22053084892078273;-0.9751170741975538;0.996;0.0004288194407600111
54:08.9;0.0014584551323008586;-0.2191677364739451;-0.9740200936538047;0.99;0.0003113419288950075
54:08.9;0.0009661673490234622;-0.2179282947519176;-0.9729240545937933;0.9890000000000001;0.00020485422164118007
54:08.9;0.0005387665188836808;-0.2168125266114065;-0.9718932213176743;0.9890000000000001;0.00011352814000692355
54:08.9;0.00020878943310127636;-0.21582239097122963;-0.9709656892310558;0.9940000000000001;4.375310696379019e-05
54:08.9;1.765270004149187e-05;-0.2149612669465842;-0.9701560119156383;0.995;3.681399373079825e-06
54:09.0;1.106060388315254e-05;-0.21423275573148454;-0.9694630194192096;0.997;2.2971849415185096e-06
54:09.0;0.0002323777594052069;-0.2136395113425237;-0.9688796141414722;0.997;4.810009720175683e-05
54:09.0;0.0007150539513153936;-0.21318254298217892;-0.9684013592924361;0.997;0.00014762021709449516
54:09.0;0.001475767703476237;-0.21286104418398394;-0.9680315931737896;0.995;0.00030409110826904926
54:09.0;0.002509830709598497;-0.21267260790553275;-0.9677819880829855;0.991;0.0005165751619447143
54:09.0;0.0037895735626544223;-0.2126136178932637;-0.967668736308791;0.9890000000000001;0.0007796651630680206
54:09.0;0.005265482953693061;-0.2126795686821429;-0.9677057500414743;0.988;0.0010836955839548857
54:09.0;0.006869362045079965;-0.21286504223663852;-0.9678969545909336;0.987;0.0014153044586804526
54:09.0;0.00851887569407268;-0.21316310456543414;-0.9682296691589897;0.987;0.0017582179291844584
54:09.0;0.010123121218107326;-0.21356423208101774;-0.9686705824135481;0.985;0.002094204394382828
54:09.1;0.011588936806370973;-0.21405551794436256;-0.9691654686403712;0.988;0.002404185392589842
54:09.1;0.012827636290349458;-0.2146210520498844;-0.9696434762774719;0.996;0.002669506833455843
54:09.1;0.01376195369658045;-0.21524349133989537;-0.9700259046446892;0.996;0.0028733825664569177
54:09.1;0.014332970867352891;-0.21590580534555523;-0.9702378646140015;0.997;0.003002470558650343
54:09.1;0.014506391187681425;-0.21659214530919552;-0.9702203282622546;0.998;0.0030484035412689492
54:09.1;0.014276912983425639;-0.21728755319266715;-0.9699405156797088;0.998;0.0030089450926436916
54:09.1;0.01366931262293908;-0.21797674142926302;-0.9693994642687265;0.997;0.002888415104837756
54:09.1;0.0127356351897915;-0.2186421359043098;-0.9686361553149923;0.997;0.0026972123966773833
54:09.1;0.011549147370225363;-0.21926146235360647;-0.9677278219787528;0.997;0.0024505606554500584
54:09.1;0.010196544984597548;-0.21980571657477654;-0.966786126886158;0.997;0.002166817988972902
54:09.2;0.008770130633717758;-0.22023878912269246;-0.9659487958688819;0.992;0.0018657522689219726
54:09.2;0.007361510611850739;-0.22051966388940725;-0.9653665361923979;0.987;0.0015671353406428174
54:09.2;0.006057723353716425;-0.22060714518912647;-0.965186157808012;0.987;0.0012898526354928831
54:09.2;0.004939705646496574;-0.220466194654733;-0.965532193631563;0.986;0.0010515013520115421
54:09.2;0.0040822600523558105;-0.2200746004290975;-0.9664898376876955;0.9840000000000001;0.0008682961614100738
54:09.2;0.003554520195153398;-0.21942874726777942;-0.9680916042551868;0.987;0.0007550765163399703
54:09.2;0.0034198884764791685;-0.21854752430489396;-0.970309445704798;0.99;0.0007252171973801795
54:09.2;0.0037342692083076907;-0.21747387812665825;-0.973053224989426;0.9940000000000001;0.0007902223688523684
54:09.2;0.004541622303561083;-0.21627397311874916;-0.9761753872663649;0.998;0.0009588333386549412
54:09.2;0.005866837739610662;-0.21503396939739666;-0.9794809729999195;0.9990000000000001;0.0012356832302350652
54:09.3;0.007707306495860089;-0.21385418822021326;-0.9827420828157569;1.004;0.0016197945885164378
54:09.3;0.010025552196154157;-0.21284059023491378;-0.9857160463688932;1.013;0.0021033647117254385
54:09.3;0.012745221951832603;-0.2120944246005858;-0.9881660928785827;1.013;0.0026712012107795295
54:09.3;0.015751714200973606;-0.21170199790060168;-0.9898823812933978;1.018;0.00330093045354048
54:09.3;0.018897786270709923;-0.21172661297276565;-0.9907008519721847;1.022;0.003963956860859357
54:09.3;0.022014104174440247;-0.21220362943801388;-0.9905177522546799;1.018;0.004627176742173605
54:09.3;0.024924015961365724;-0.21313837541191033;-0.9892983384579226;1.014;0.005255414216498418
54:09.3;0.0274604553135465;-0.21450603027108328;-0.9870793834204016;1.011;0.0058143252291213724
54:09.3;0.029481883914807924;-0.21625238579653444;-0.9839667153100832;1.0090000000000001;0.006273307083140334
54:09.3;0.030884595327503584;-0.21829470650266125;-0.9801297403595238;1.011;0.0066079795012173965
54:09.4;0.0316101914422146;-0.22052316176776682;-0.9757936915011292;1.014;0.00680204252523354
54:09.4;0.03164838120618702;-0.2228046422394065;-0.9712280846925982;0.993;0.006848523788617326
54:09.4;0.031035717361699623;-0.22499049940744026;-0.9667292218789885;0.993;0.0067504203039345624
54:09.4;0.029850775237322106;-0.2269278503853848;-0.9625968387774122;0.993;0.006520604280499011
54:09.4;0.028206059969570645;-0.2284727590009834;-0.959107324533174;0.982;0.006180791005024413
54:09.4;0.02623683891638293;-0.2295039310646382;-0.9564859149637772;0.9740000000000001;0.005759439448924318
54:09.4;0.02408755329026165;-0.22993590158383329;-0.9548801398956145;0.9690000000000001;0.005288692728652402
54:09.4;0.021897578156562368;-0.2297298702391928;-0.9543384106227795;0.965;0.004800825894232313
54:09.4;0.01978896289031285;-0.2288996123044919;-0.9547988946973446;0.966;0.004324939122632472
54:09.4;0.01785825149732029;-0.22751064728459447;-0.9560929943670786;0.972;0.0038845507245482704
54:09.5;0.016172534377100235;-0.22567273576104838;-0.9579652504553942;0.983;0.003496285848417254
54:09.5;0.014767973485518223;-0.2235274396563788;-0.9601079133537694;1.002;0.003169361637131254
54:09.5;0.013648806087382542;-0.22123311743009513;-0.9622042608508203;1.002;0.0029054411184663313
54:09.5;0.012786208872432224;-0.21894954832981853;-0.963971705180103;1.005;0.0026986721974719143
54:09.5;0.012117958531970875;-0.21682387669660028;-0.9651959664564147;1.006;0.0025360164449851016
54:09.5;0.01155073557417659;-0.21497911814426487;-0.9657508032528688;1.0;0.0023981204743078947
54:09.5;0.010967010490693343;-0.21350631334447842;-0.9656015333165046;0.992;0.0022609810749258147
54:09.5;0.010237298992010816;-0.21246127293042397;-0.9647937862754492;0.981;0.002098455019129833
54:09.5;0.009236416109089039;-0.21186613873269042;-0.9634320618008091;0.973;0.0018853246102867977
54:09.5;0.007860550126565313;-0.211714584287145;-0.9616552030774947;0.9740000000000001;0.0016003799557659747
54:09.6;0.0060415017184604;-0.21197813262774584;-0.9596162529393729;0.977;0.001228948150534632
54:09.6;0.0037552172436377163;-0.2126109342606665;-0.9574714013032571;0.986;0.0007644454028378829
54:09.6;0.00102349179256618;-0.21355183698649682;-0.9553778422712768;0.986;0.00020881555202145513
54:09.6;-0.0020901879940170435;-0.21472465830374893;-0.9534960098789885;0.986;0.0004279432189996594
54:09.6;-0.005488724757755368;-0.21603870578891549;-0.9519902773668779;0.98;0.0011288481685537215
54:09.6;-0.009051992240702349;-0.21739132248010537;-0.9510240742703149;0.973;0.0018714485345764178
54:09.6;-0.01264865110430738;-0.21867325823046663;-0.9507488750260182;0.97;0.0026296969914612165
54:09.6;-0.016147034156849826;-0.21977666553371208;-0.9512896850861898;0.97;0.0033758810177507608
54:09.6;-0.019422794214946998;-0.22060473190218038;-0.9527310857325362;0.9740000000000001;0.004082224342802184
54:09.6;-0.022362714053193317;-0.2210815277536475;-0.9551071561990696;0.98;0.00472203353158125
54:09.7;-0.0248664460967689;-0.22116052415264098;-0.9583965447076066;0.982;0.005270679038169228
54:09.7;-0.026848995539969594;-0.22083020893496746;-0.9625221647240207;0.988;0.005706860612415658
54:09.7;-0.028245483976482803;-0.2201154806698766;-0.9673543962349791;0.988;0.006014301805394074
54:09.7;-0.0290172339875998;-0.2190743550766628;-0.9727171425806069;0.992;0.0061834965574191995
54:09.7;-0.029156677949840653;-0.21779066295274352;-0.9783969779114615;1.0;0.006212871901819179
54:09.7;-0.028688732227305516;-0.21636428595832372;-0.9841560312467276;1.008;0.006108870110213052
54:09.7;-0.027667279836237766;-0.21490087631569038;-0.9897484670444564;1.0170000000000001;0.005884769910059071
54:09.7;-0.026166841747939436;-0.2135028366198178;-0.9949388619261108;1.025;0.0055584199041061565
54:09.7;-0.024271181821101395;-0.21226256495561763;-0.9995196044355815;1.03;0.0051493883755695585
54:09.7;-0.02206159325242728;-0.21125796810100414;-1.0033242998657204;1.0290000000000001;0.004676180885955519
54:09.8;-0.019607374241084344;-0.2105495941026477;-1.0062352286551566;1.028;0.004154065736270672
54:09.8;-0.01695999992024841;-0.21017875794376387;-1.008184925764339;1.031;0.003593807963952889
54:09.8;-0.014151461663414308;-0.21016649596188478;-1.009153631247257;1.031;0.003001387502921797
54:09.8;-0.011196464050729375;-0.21051350111242884;-1.0091644752909799;1.033;0.0023786075784121416
54:09.8;-0.008097660656860866;-0.21120107499918683;-1.008277278196982;1.031;0.0017243907235695024
54:09.8;-0.004852871324896185;-0.21219289555225382;-1.0065810921160663;1.03;0.0010365216636766571
54:09.8;-0.0014631300081533883;-0.2134374319448377;-1.0041855394085881;1.024;0.00031359379987962475
54:09.8;0.0020597681071821464;-0.21487099554455186;-1.0012114115902435;1.02;0.00044312057568177474
54:09.8;0.005687633493145738;-0.21642139595236035;-0.9977816906312376;1.016;0.0012281950065050778
54:09.8;0.009373083682246031;-0.21801214904197785;-0.9940146245215987;1.016;0.002031215324438322
54:09.9;0.01304964357026048;-0.2195672738360501;-0.9900200485915863;1.015;0.0028366793613431975
54:09.9;0.016634301184412607;-0.22101653001600613;-0.9858988914879534;1.01;0.0036246134286937928
54:09.9;0.02003196179546854;-0.22230042078772574;-0.9817447003614158;1.01;0.004371820614405848
54:09.9;0.023141206312705113;-0.2233739699800056;-0.9776457046631087;1.0070000000000001;0.005053590572158385
54:09.9;0.025860942295230848;-0.22420848314034508;-0.9736861045089888;1.0;0.00564566829361234
54:09.9;0.028097831738969906;-0.22479100896750984;-0.9699456740376357;0.995;0.006126312617629279
54:09.9;0.029774199303252997;-0.22512186927164834;-0.9664976434705315;0.991;0.0064782630238063525
54:09.9;0.03083550028154228;-0.22521129553400437;-0.9634057816297263;0.988;0.006690374308803543
54:09.9;0.031255951572878506;-0.22507647060053118;-0.9607218169907427;0.988;0.0067586580622364355
54:09.9;0.03104085337017234;-0.22473980635600857;-0.9584837711995382;0.986;0.006686493373468542
54:10.0;0.030224476211682512;-0.2242283551997169;-0.9567150564062032;0.9840000000000001;0.006483834535114395
54:10.0;0.02886334192326029;-0.22357350980396337;-0.955423879249891;0.978;0.006165425444965932
54:10.0;0.02702634760857205;-0.22281008736122804;-0.9546028706956742;0.978;0.005748373031935942
54:10.0;0.024784721777274945;-0.22197439991938506;-0.9542295762043538;0.978;0.00524976438188831
54:10.0;0.02220497104994774;-0.221101496104698;-0.9542686589642336;0.978;0.0046850319086212955
54:10.0;0.019346581828777895;-0.22022220333224882;-0.9546761225045056;0.9790000000000001;0.004067442372551415
54:10.0;0.01626444063618994;-0.21936084132419753;-0.9554051495643953;0.985;0.003408676704521719
54:10.0;0.013014485736227613;-0.21853426343419916;-0.9564125541455167;0.988;0.0027201435177561495
54:10.0;0.009659950014444222;-0.21775220811470258;-0.9576641087935663;0.988;0.0020144229382888868
54:10.0;0.006274919493075739;-0.21701835568877825;-0.9591366261921557;0.985;0.0013061260831576343
54:10.1;0.0029424777166173308;-0.21633140496927497;-0.960815561458927;0.982;0.0006116074709083162
54:10.1;-0.0002531979158813694;-0.21568576145906565;-0.9626888132901021;0.9840000000000001;5.257357715603992e-05
54:10.1;-0.0032384475251150237;-0.21507183680475367;-0.9647389730133343;0.9840000000000001;0.0006719395926074952
54:10.1;-0.005961080932692163;-0.2144763821079778;-0.9669365596476286;0.987;0.0012362390973311632
54:10.1;-0.008396820656332385;-0.2138833953441145;-0.9692360717351053;0.9890000000000001;0.001740690326990566
54:10.1;-0.010549840649643878;-0.21327577786064317;-0.9715757517850074;0.9940000000000001;0.00218607018838489
54:10.1;-0.012448207306509272;-0.2126374422667764;-0.9738810705703309;0.997;0.002577819332594653
54:10.1;-0.014135928177420449;-0.21195541791034456;-0.9760710827007641;1.0;0.0029244910638832585
54:10.1;-0.01566342454010044;-0.2112216597718724;-0.9780662522493574;1.004;0.0032358877219863668
54:10.1;-0.01707796689167464;-0.2104344588849696;-0.9797963079108996;1.005;0.0035211848401236014
54:10.2;-0.018415009802552076;-0.2095993434818316;-0.9812069664051175;1.005;0.003787237103036773
54:10.2;-0.019690914321489745;-0.2087292809265374;-0.9822647726705341;1.0070000000000001;0.004037177354455099
54:10.2;-0.020897723251026474;-0.20784416286469026;-0.9829597439009733;1.0070000000000001;0.0042694559572243
54:10.2;-0.02200108318337446;-0.20696986040967558;-0.9833057654564819;1.0070000000000001;0.004477542898057199
54:10.2;-0.02294228022709831;-0.20613710604315183;-0.9833387737761127;1.0070000000000001;0.0046504600604202395
54:10.2;-0.023644478005570787;-0.20538010089462325;-0.983112854522801;1.0070000000000001;0.00477409952209615
54:10.2;-0.024022177146446454;-0.20473458697396027;-0.9826944583967913;1.004;0.004833058911811639
54:10.2;-0.023992185999385195;-0.2042354368029616;-0.9821550130768785;1.001;0.004812613177406845
54:10.2;-0.023484049855662638;-0.20391428515864068;-0.9815625413081812;0.9990000000000001;0.004700441167668094
54:10.2;-0.022447907039559626;-0.20379783963263445;-0.9809734620187938;0.998;0.004487791687832503
54:10.3;-0.020858268899980468;-0.20390711552540644;-0.9804260843073771;0.997;0.0041698986575593195
54:10.3;-0.01871328375681385;-0.20425732227242493;-0.9799370842340837;0.9990000000000001;0.0037456382419495484
54:10.3;-0.01603047073225353;-0.20485784185262057;-0.9795016447355392;0.9990000000000001;0.003216651702768474
54:10.3;-0.012841151286581483;-0.2057117265045408;-0.9790972076732576;1.002;0.0025863590994363514
54:10.3;-0.00918603315886185;-0.20681444513318445;-0.9786899937263563;1.003;0.001859319508092401
54:10.3;-0.0051136161262566775;-0.2081522030495041;-0.9782426661436447;1.004;0.0010412517284428674
54:10.3;-0.0006821113148413868;-0.20970061506170212;-0.9777211269613353;1.004;0.0001398524109271756
54:10.3;0.004035419193973343;-0.21142444066144325;-0.977098760140618;1.002;0.0008336472230577205
54:10.3;0.008944214461093588;-0.21327870402296542;-0.9763572973443733;0.998;0.001862509401669723
54:10.3;0.01392186366915332;-0.21521115809045935;-0.9754846118871136;0.995;0.0029226888581953404
54:10.4;0.018816240373027454;-0.21716573275479042;-0.974470992107298;0.9940000000000001;0.003981924907989444
54:10.4;0.023449520467344068;-0.21908637049587026;-0.9733062450597997;0.9940000000000001;0.005000331955082583
54:10.4;0.02762844671825669;-0.2209205869644379;-0.9719797087585684;0.9940000000000001;0.005932665419765895
54:10.4;0.03115884805882216;-0.2226221478561932;-0.9704841144555506;0.997;0.006731908321575347
54:10.4;0.03386164200258044;-0.22415249005206803;-0.9688229041510669;0.9990000000000001;0.0073535318717513724
54:10.4;0.03558797310856354;-0.22548093734619268;-0.9670193906106052;1.0;0.007759759618323221
54:10.4;0.036231696241627;-0.2265840115146602;-0.9651252902244473;0.998;0.007923218343653284
54:10.4;0.03573811510973651;-0.22744406701437897;-0.9632261013765641;0.996;0.007829508472270564
54:10.4;0.034108983893826356;-0.22804737366570707;-0.9614415779639599;0.9940000000000001;0.007478538890154812
54:10.4;0.031404602851673846;-0.22838186401430144;-0.9599206016857015;0.9890000000000001;0.006884782604474624
