Time;AccX;AccY;AccZ;Acc-old;Acc-trns
52:10.6;0.09870692043580818;-0.25643637381716167;-0.888266957926338;0.93;0.022483852986506448
52:10.7;0.0929589776326018;-0.2613268168709501;-0.9113720745795517;0.965;0.022139664449204628
52:10.7;0.08749515236541362;-0.26593495003332557;-0.9333405006693065;0.993;0.021716984477333588
52:10.7;0.08250546471903057;-0.2699863057627639;-0.9531930220573516;1.016;0.021232704013409456
52:10.7;0.07812021348748119;-0.2732813406896032;-0.9701067011879648;1.032;0.020710610718479412
52:10.7;0.07439846486162008;-0.27571192683063556;-0.9834736092271867;1.045;0.020173545780693494
52:10.7;0.07132992017963023;-0.2772615657609966;-0.9929426489462393;1.058;0.019637471802737547
52:10.7;0.06884636140934615;-0.27799254134016926;-0.9984419708960971;1.0659999999999998;0.01910895620179126
52:10.7;0.06683734569465907;-0.27802493020149105;-1.0001795659572361;1.065;0.018585785146740155
52:10.7;0.06516610019161088;-0.2775115731107077;-0.9986197543494956;1.055;0.018059386136405793
52:10.7;0.06368369033849182;-0.27661197890867956;-0.9944347763857871;1.042;0.017517636457120615
52:10.8;0.062240988409915904;-0.2754682724676546;-0.9884336936791218;1.022;0.016947108402530397
52:10.8;0.06069872706264985;-0.27418703084360013;-0.9814747035942841;0.981;0.01633449087681621
52:10.8;0.058936444371079956;-0.2728305126695945;-0.974371600785645;0.981;0.015667564378447508
52:10.8;0.05686123737528223;-0.27141884069142574;-0.9678090513746319;0.97;0.014936401422111303
52:10.8;0.05441653912258817;-0.26994195370758256;-0.9622810085713034;0.966;0.014135241044276924
52:10.8;0.05158992245028128;-0.2683775595861421;-0.9580614183508366;0.975;0.01326491360454973
52:10.8;0.04841813978683236;-0.26670961757791395;-0.9552098255390661;0.991;0.01233518188642183
52:10.8;0.04498777302868927;-0.26494177151635045;-0.9536081771738965;1.004;0.011366189638557461
52:10.8;0.041430575807143474;-0.2631019178682512;-0.953018786902758;1.013;0.01038834693339919
52:10.8;0.037913225663362735;-0.2612372847810076;-0.9531491031513621;1.0090000000000001;0.009440320537014239
52:10.9;0.0346218753873043;-0.2594029763511444;-0.9537091816800093;1.006;0.008565278871870557
52:10.9;0.031742958304668105;-0.25764918180651486;-0.9544525316252439;0.9940000000000001;0.007806035113764047
52:10.9;0.02944267221101299;-0.2560118511016318;-0.9551978078372831;0.9940000000000001;0.007199968739281681
52:10.9;0.027847510793726837;-0.2545092506831404;-0.9558344006021446;0.992;0.006774427667555787
52:10.9;0.02702741317675542;-0.2531442011711339;-0.9563171628232338;0.991;0.006542962244988922
52:10.9;0.026983120503653688;-0.2519098518188212;-0.9566547473343795;0.991;0.006502682599775567
52:10.9;0.02764059870556458;-0.25079577193748664;-0.9568944816863776;0.988;0.00663333157346108
52:10.9;0.028855992281830077;-0.2497914763993302;-0.9571057873364283;0.985;0.006898800248801062
52:10.9;0.030432682536548447;-0.24888638346761308;-0.9573638588728028;0.9840000000000001;0.007251342212113429
52:10.9;0.03214827772473059;-0.24806747094257886;-0.9577352526236053;0.988;0.0076378830434613
52:11.0;0.03378587840414715;-0.24731700156100667;-0.9582666469262456;0.988;0.008007105666344093
52:11.0;0.0351625710978296;-0.24661212395115928;-0.9589771304568353;0.987;0.008315785858379322
52:11.0;0.03614977862499181;-0.24592675538012043;-0.9598537173719185;0.987;0.00853328937286249
52:11.0;0.03668389273954772;-0.24523514476519787;-0.9608500556640127;0.987;0.008643979810220633
52:11.0;0.03676856350314302;-0.24451641627619758;-0.9618889891078642;0.986;0.008647879673639605
52:11.0;0.03647025805689573;-0.2437598244482491;-0.9628699658762931;0.9890000000000001;0.008559898303334191
52:11.0;0.03590764613254713;-0.24297057553820417;-0.9636820223826997;0.998;0.008407645198771184
52:11.0;0.03523530928878819;-0.24217516620717988;-0.9642219764391717;1.006;0.008227818826473023
52:11.0;0.034623532616823396;-0.24142355414487696;-0.9644153619211652;1.011;0.00806148657839506
52:11.0;0.03423713365173951;-0.24078485790793588;-0.9642353890814743;1.008;0.00794894765708812
52:11.1;0.03421610515330813;-0.24033544051689354;-0.9637145033248542;0.9990000000000001;0.00792495463041932
52:11.1;0.03465961132468122;-0.24014244049422076;-0.9629449152034704;0.993;0.008014825150853815
52:11.1;0.035614249890044726;-0.24024874270654267;-0.9620679602738826;0.993;0.00823172165274396
52:11.1;0.037068131407170364;-0.24066458713640068;-0.961255050824134;0.991;0.008575343370893924
52:11.1;0.03895285251082457;-0.241367624791364;-0.9606837130217203;0.986;0.009032307430575759
52:11.1;0.04115444523955421;-0.24230992571186835;-0.960511705971842;0.983;0.009578348144725149
52:11.1;0.04353200632979326;-0.24342860224252935;-0.9608523670834048;0.9790000000000001;0.01018209051449321
52:11.1;0.0459401605296632;-0.244656571746423;-0.961755252060222;0.9740000000000001;0.010809707958114636
52:11.1;0.0482503758864142;-0.24593125526784626;-0.9631967296411516;0.981;0.011429557763184956
52:11.1;0.05036711245880736;-0.24720065140763617;-0.965084368249503;1.0;0.012016056054779426
52:11.2;0.05223654931197064;-0.24842712733005715;-0.9672756150262681;1.013;0.012552312332479918
52:11.2;0.05384702742688257;-0.24958918152210993;-0.9696059372846827;1.018;0.013031150378528861
52:11.2;0.05522205929946412;-0.25068094871052576;-0.9719177171161654;1.018;0.013454371853232307
52:11.2;0.05640868363520929;-0.251709201560332;-0.9740817484768266;1.015;0.013830582228870675
52:11.2;0.057464433854002725;-0.2526884025292732;-0.9760072296640945;1.014;0.014172206668020907
52:11.2;0.05844517948848804;-0.25363537091881677;-0.9776405017434056;1.01;0.014492312835270088
52:11.2;0.05939497014235811;-0.25456545061882246;-0.9789555342965482;1.006;0.014801716967350555
52:11.2;0.060338262899898916;-0.25549140088673905;-0.9799404451349795;1.005;0.015106671076780842
52:11.2;0.06127454563954758;-0.25642492063962313;-0.9805847917512341;1.0090000000000001;0.01540726252821577
52:11.2;0.06217559140539192;-0.25737927744236927;-0.9808717143226685;1.015;0.015696604405116468
52:11.3;0.06298621703068934;-0.25837070250501626;-0.9807768157706853;1.016;0.015960959018667422
52:11.3;0.06362970751527984;-0.25941683727247666;-0.9802728698254887;1.016;0.01618098928841413
52:11.3;0.06401830212972885;-0.2605323395742088;-0.9793378194153842;1.016;0.016334216866121236
52:11.3;0.06406748444530445;-0.261723358132347;-0.9779636613647953;1.016;0.016398452793563462
52:11.3;0.06371125277903317;-0.2629829053943815;-0.9761646828933975;1.018;0.01635561033045253
52:11.3;0.06291500850456383;-0.2642884489312731;-0.9739839112694236;1.02;0.01619512203310615
52:11.3;0.06168349117179326;-0.26560225594100084;-0.9714962898116596;1.013;0.01591629030383937
52:11.3;0.06006274435676526;-0.26687470450382933;-0.968806827461866;1.01;0.015529224703698587
52:11.3;0.05813640099729641;-0.26805040030555516;-0.9660428695541307;1.005;0.015054315107699235
52:11.3;0.056017272468579446;-0.26907587973036357;-0.9633414960021004;0.9990000000000001;0.014520347019425117
52:11.4;0.05383564931540405;-0.2699066871844219;-0.9608345385559328;0.996;0.013961504036186189
52:11.4;0.051725971028279444;-0.270511975908227;-0.9586340824592586;0.991;0.013413682249634337
52:11.4;0.04981352984678859;-0.27087623054686016;-0.9568208246595683;0.991;0.012910671576905761
52:11.4;0.04820275043836209;-0.2709987541676651;-0.9554368166143234;0.99;0.012480761562356845
52:11.4;0.046968258696791346;-0.2708916299154712;-0.9544832224710806;0.991;0.012144184166048561
52:11.4;0.04614937914963826;-0.2705766980573221;-0.9539227917820974;0.992;0.011911582987933968
52:11.4;0.04574822556515455;-0.2700822806705031;-0.9536859181714964;0.991;0.011783538255215394
52:11.4;0.045731335145237195;-0.26944061935821995;-0.9536788198438265;0.992;0.011751115276286054
52:11.4;0.04603458918854033;-0.2686866443930801;-0.9537927193581579;0.99;0.011797347018269903
52:11.4;0.046570864212503074;-0.2678578209719523;-0.9539136508787835;0.99;0.011899472028234376
52:11.5;0.04723973366525753;-0.2669942612973467;-0.9539331544630311;0.993;0.012031708750091772
52:11.5;0.047938641542986764;-0.26613857435708405;-0.953759951276188;1.001;0.012168376299043838
52:11.5;0.048574768622502956;-0.2653354672766327;-0.9533313474592765;1.001;0.012287114918404415
52:11.5;0.04907609203683753;-0.26463107886838766;-0.9526214935908428;0.997;0.012371751715645408
52:11.5;0.04939968711836091;-0.26407151454551486;-0.9516435951287695;0.988;0.012414238466604867
52:11.5;0.04953571425876253;-0.2636998848153874;-0.9504454953427467;0.9790000000000001;0.01241525334766906
52:11.5;0.04950636575252551;-0.2635517857331478;-0.9491013325758487;0.98;0.01238339118905684
52:11.5;0.049360076118931756;-0.2636500611962503;-0.9477036542996149;0.9890000000000001;0.012333213580909044
52:11.5;0.04916245932150151;-0.2639999183651994;-0.9463587156182983;0.992;0.012282681172989742
52:11.5;0.04898587258042066;-0.26458511542985497;-0.9451837049879662;0.988;0.012250462437806092
52:11.6;0.04889870648246735;-0.2653661135530623;-0.9443018497736949;0.981;0.012253317174673931
52:11.6;0.048954554471162384;-0.2662818756448859;-0.9438323941895795;0.973;0.012303525932291006
52:11.6;0.04918173295935048;-0.26725675762420864;-0.9438763588205503;0.973;0.01240645289962373
52:11.6;0.049575186422089156;-0.26821162607750704;-0.944502440562014;0.981;0.0125587102189752
52:11.6;0.050093963730210966;-0.26907552584998584;-0.945737656825932;0.985;0.012747654273167864
52:11.6;0.05066630637136853;-0.2697936941995784;-0.9475644862819668;0.985;0.012952685336096672
52:11.6;0.051201153159131214;-0.2703302923917382;-0.9499232011032213;0.985;0.01314809857845325
52:11.6;0.0516022710529422;-0.2706676179725685;-0.952717342291476;0.99;0.013306663891599489
52:11.6;0.05178145113750738;-0.2708046903029707;-0.9558212980112119;0.997;0.013403156928625648
52:11.6;0.051669155912159676;-0.2707564166248855;-0.9590896126688985;0.9990000000000001;0.013417429188439729
52:11.7;0.05122201114603219;-0.27055243144541513;-0.9623674411801248;1.0;0.013336718639972791
52:11.7;0.05042619858469326;-0.27023440117594905;-0.965501450616236;1.006;0.013156785517062206
52:11.7;0.04929622495685747;-0.26985168826711303;-0.96835077252552;1.006;0.012881650315836799
52:11.7;0.047870546536885585;-0.2694559572441546;-0.9707976673505936;1.015;0.012522322936969267
52:11.7;0.04620680732627604;-0.26909513231031684;-0.9727571107225593;1.015;0.012095288112144852
52:11.7;0.044378119052996184;-0.26880717874755583;-0.9741838938067388;1.015;0.0116211925973477
52:11.7;0.04246956965739606;-0.268614953641704;-0.9750756054743075;1.0170000000000001;0.01112362495192588
52:11.7;0.04057368138273908;-0.26852382561364774;-0.9754703797329174;1.018;0.010627749927777203
52:11.7;0.038784865729475225;-0.2685229261159866;-0.9754390953941844;1.015;0.010158833007975328
52:11.7;0.037193952334864465;-0.26858940037204954;-0.9750723722212777;1.0090000000000001;0.009740876812562055
52:11.8;0.03588342527263295;-0.26869437448102806;-0.9744636345429464;1.006;0.009395461184015979
52:11.8;0.03492304817959355;-0.26880989542027167;-0.9736908493612143;1.0;0.009140679543389018
52:11.8;0.03436550073026038;-0.2689165432412313;-0.9728005823642732;1.0;0.008990089559789624
52:11.8;0.03424242778908977;-0.2690107756647202;-0.9717981541276671;0.9990000000000001;0.00895179844268449
52:11.8;0.0345618013323766;-0.26911019831607075;-0.9706468115932705;1.003;0.009027921165823936
52:11.8;0.03530731822223948;-0.2692550196597189;-0.9692770714665696;1.0070000000000001;0.009214599837273825
52:11.8;0.03644037844246203;-0.26950474176898975;-0.9676050388089803;1.012;0.00950270857257122
52:11.8;0.03790508077985962;-0.2699301540759155;-0.9655560888860636;1.014;0.009879303693002476
52:11.8;0.039635745314776434;-0.27060200396555145;-0.9630885858575464;1.013;0.010329618291433355
52:11.8;0.041564861917457736;-0.27157898439085865;-0.9602120450849257;1.0070000000000001;0.010839010861691969
52:11.9;0.0436287602898182;-0.27289796653201354;-0.9569957149030278;0.998;0.011394182347670253
52:11.9;0.045769732172910416;-0.2745682881708618;-0.9535666091971061;0.9940000000000001;0.01198339244391405
52:11.9;0.04793562287861342;-0.27657003823475823;-0.9500990619824823;0.9940000000000001;0.01259599251961229
52:11.9;0.05007894933840704;-0.27885494582372056;-0.9467989948230809;0.9890000000000001;0.01322182329172473
52:11.9;0.05215673666856805;-0.2813486732555563;-0.9438851027031451;0.983;0.013850785828703931
52:11.9;0.05413071546751246;-0.28395455768623135;-0.9415681065798739;0.9790000000000001;0.014472526404111837
52:11.9;0.05596699758468534;-0.28655947555307876;-0.9400295888033763;0.98;0.015076075609063844
52:11.9;0.057635327250827983;-0.2890418145140692;-0.939402753650083;0.977;0.015649528855939412
52:11.9;0.05910896050430276;-0.2912806916163358;-0.9397573893202166;0.977;0.01618008386204173
52:11.9;0.06036563179655997;-0.2931656439724984;-0.9410907007784258;0.98;0.016654603833003136
52:12.0;0.06138887372670236;-0.29460636861149925;-0.9433252624917481;0.987;0.0170605591836386
52:12.0;0.0621689520447651;-0.29554155015887085;-0.9463146678661157;0.997;0.017387120554972886
52:12.0;0.06270350508107375;-0.29594493578878167;-0.9498559232004149;0.997;0.017626271943540016
52:12.0;0.06299817219676028;-0.2958270841184806;-0.9537060624429743;1.001;0.017773805582256868
52:12.0;0.06306700317851147;-0.2952326240638774;-0.9576003587045686;1.004;0.017829979397087855
52:12.0;0.06293215110199978;-0.2942341017161076;-0.9612708095760485;1.0070000000000001;0.017799644858247143
52:12.0;0.0626225886532047;-0.29292390745786834;-0.9644647371848035;1.0090000000000001;0.017691806820163372
52:12.0;0.0621720602834901;-0.29140561473927296;-0.9669635597269487;1.0170000000000001;0.017518756761880992
52:12.0;0.06161673961497201;-0.28978562126435714;-0.9686011346816717;1.024;0.017294998171756386
52:12.0;0.060992856985353935;-0.28816548754376475;-0.9692796552570657;1.025;0.017036094473374827
52:12.1;0.06033420042577092;-0.2866351597938403;-0.9689796924330849;1.023;0.016757440984396077
52:12.1;0.05966944537328324;-0.28526744206795357;-0.9677611026791502;1.01;0.016472987599126576
52:12.1;0.05901978136181532;-0.2841142474500975;-0.9657537516107031;1.01;0.016194107318398036
52:12.1;0.05839767542981634;-0.28320493628101784;-0.9631400357856792;1.002;0.015928901064180132
52:12.1;0.05780737935536657;-0.28254661414650534;-0.9601329761182044;0.995;0.015682120073239887
52:12.1;0.05724713377022692;-0.2821260519326619;-0.95695371933682;0.993;0.015455671323422149
52:12.1;0.05671244426177805;-0.28191297802158627;-0.9538116154494529;0.992;0.015249515358989822
52:12.1;0.05619962713565571;-0.2818645416970174;-0.950888953817024;0.993;0.015062729673686187
52:12.1;0.05570894556947001;-0.28193061126648034;-0.9483307587018222;0.991;0.014894537024436019
52:12.1;0.05524671481742663;-0.2820595338685022;-0.9462385318700107;0.986;0.014745105056557335
52:12.2;0.05482576423299037;-0.2822041606279413;-0.9446665662419339;0.982;0.014615936636765095
52:12.2;0.054464096747196995;-0.2823279291176015;-0.9436205322811221;0.981;0.014509803474927266
52:12.2;0.05418248802908049;-0.2824103252739797;-0.9430593582874868;0.983;0.014430405788900251
52:12.2;0.05400227078491304;-0.2824505023767215;-0.942901646806553;0.988;0.01438204912929677
52:12.2;0.05394402758912713;-0.2824678254391415;-0.9430366138844308;0.991;0.014369475297236315
52:12.2;0.0540268289290401;-0.28249890276858247;-0.9433376616844851;0.991;0.014397709826822508
52:12.2;0.054266997373735706;-0.28259190135885287;-0.943675660069866;0.986;0.014471656899527334
52:12.2;0.054675658639151054;-0.28279973734265923;-0.9439297700097979;0.985;0.01459528932116435
52:12.2;0.055255348760156336;-0.2831735973101118;-0.9439956067236177;0.986;0.01477056320884976
52:12.2;0.05599703285104524;-0.2837576179216709;-0.9437919885731688;0.9890000000000001;0.014996462696779159
52:12.3;0.05687922838779907;-0.2845850347217665;-0.9432673504414743;0.99;0.015268647081601534
52:12.3;0.05787015897629463;-0.28567583171607325;-0.9424056541642862;0.991;0.01557994997842389
52:12.3;0.05893244074365876;-0.287035669826029;-0.9412306209449418;0.991;0.01592158667736681
52:12.3;0.0600285015735467;-0.28865557170871275;-0.9398069866002657;0.99;0.016284563302554976
52:12.3;0.061124470844976464;-0.29051182745224513;-0.9382379114686499;0.985;0.016660648744903705
52:12.3;0.06219093308522175;-0.2925659885033392;-0.9366583377703492;0.983;0.01704245332193431
52:12.3;0.06320044341713775;-0.29476514771802376;-0.9352249536486076;0.983;0.017422575043432382
52:12.3;0.06412358392780038;-0.2970426627392095;-0.9341040257897018;0.981;0.01779229049175122
52:12.3;0.06492655861266457;-0.2993194479728708;-0.933458178550809;0.983;0.01814062245190682
52:12.3;0.06557253963334753;-0.3015063176390911;-0.9334325787508592;0.982;0.018454461433884826
52:12.4;0.06602650401852025;-0.3035082480366629;-0.9341406508492887;0.981;0.018719794298926246
52:12.4;0.0662613141042649;-0.30523107183294174;-0.9356497718297886;0.98;0.018923527792978307
52:12.4;0.0662627011440031;-0.30659001205669273;-0.9379683607885804;0.98;0.01905527967156377
52:12.4;0.06603191776714168;-0.30751856723386833;-0.941036832147031;0.9840000000000001;0.0191087322546704
52:12.4;0.06558590733919267;-0.30797620530837766;-0.9447251416230581;0.991;0.019082407589951927
52:12.4;0.06495537147857483;-0.30795368035715653;-0.948838669356028;0.997;0.018979853038286688
52:12.4;0.0641810044132058;-0.3074750493205164;-0.953132396151296;1.002;0.018809169508275478
52:12.4;0.06330782919743541;-0.3065958657336336;-0.9573317449578239;1.008;0.01858173133904368
52:12.4;0.0623779283273023;-0.3053976876656935;-0.9611577473294983;1.013;0.018310127243175073
52:12.4;0.06142302921924577;-0.3039794834611605;-0.9643541656664201;1.018;0.01800578517749749
52:12.5;0.060459218541936297;-0.3024466384692246;-0.9667142615863351;1.023;0.01767703480455883
52:12.5;0.059485552618186194;-0.3008985720648109;-0.9681046512360836;1.0270000000000001;0.01732821923518375
52:12.5;0.05848688975802227;-0.2994166090287323;-0.9684831523686489;1.028;0.01696002486374493
52:12.5;0.057439970580548;-0.298054197366269;-0.9679071953025894;1.026;0.01657078831238889
52:12.5;0.05632129447763769;-0.2968313781346887;-0.9665299098252588;1.021;0.01615837691856854
52:12.5;0.05511559346098093;-0.29573463842761943;-0.9645826714447475;1.012;0.01572230216588085
52:12.5;0.05382403468230525;-0.29472230168363805;-0.9623453585256088;1.002;0.01526582241055696
52:12.5;0.05247121660548091;-0.293734700030784;-0.9601082764144585;0.9940000000000001;0.014797781209980525
52:12.5;0.051109774460787544;-0.292707406852932;-0.9581319581823441;0.9890000000000001;0.014333854868329951
52:12.5;0.04982137274200601;-0.29158480651309876;-0.9566119500162554;0.987;0.013896850389563294
52:12.6;0.048713073757106144;-0.2903309207446554;-0.9556546891556345;0.9890000000000001;0.013515739746998748
52:12.6;0.04790838359181249;-0.2889352928855427;-0.9552680359717205;0.992;0.013223224084016636
52:12.6;0.04753274774940376;-0.28741340106881114;-0.9553668661335493;0.9940000000000001;0.013051790961173147
52:12.6;0.047694251419388406;-0.2858024726344127;-0.9557914840347472;0.996;0.013028522737450659
52:12.6;0.04846196004615019;-0.2841542369200069;-0.9563353116945024;1.0;0.013169379207513137
52:12.6;0.04984620809699098;-0.2825263418618396;-0.9567780800670369;1.005;0.013474178286803125
52:12.6;0.0517860836491918;-0.2809740964027201;-0.9569205392000355;1.01;0.013923718294817214
52:12.6;0.05414836289150093;-0.2795439307627142;-0.9566160878642388;1.012;0.01448015060119661
52:12.6;0.056739373016391766;-0.2782695910730042;-0.9557943839353236;1.012;0.015090886633837593
52:12.6;0.05932814013767367;-0.2771714762809828;-0.9544727421007627;1.008;0.015695414853703488
52:12.7;0.06167700457674563;-0.2762585029413685;-0.9527531131501676;0.9990000000000001;0.01623376683871255
52:12.7;0.06357463775870736;-0.27553108412691685;-0.9508052637659742;0.991;0.01665505505676994
52:12.7;0.06486570926881587;-0.2749841676836811;-0.9488396472842365;0.985;0.01692449365939944
52:12.7;0.06547186101163963;-0.27461039107204077;-0.9470752817498332;0.982;0.01702770643837314
52:12.7;0.06540062983615554;-0.2744038301816495;-0.9457080981973357;0.976;0.01697185090061032
52:12.7;0.06474178148743329;-0.27436406884158243;-0.9448842635356935;0.976;0.016783807764512805
52:12.7;0.06365285728968012;-0.2744993552077434;-0.9446818273520214;0.978;0.016506112202439676
52:12.7;0.06233686313799933;-0.2748274210665415;-0.9451027179614538;0.98;0.016191385721967645
52:12.7;0.06101535480854454;-0.27537315675656093;-0.9460754022448975;0.982;0.015895950265410904
52:12.8;0.05990049883046574;-0.27616329138739887;-0.9474669332406706;0.986;0.01567330016896987
52:12.8;0.05916993041455415;-0.27721916962102466;-0.9491021540564735;0.992;0.015568159625247527
52:12.8;0.05894771261412882;-0.2785493003176662;-0.9507872655074222;0.997;0.01561177867569315
52:12.8;0.05929329024785552;-0.28014334256607226;-0.9523344728642104;1.001;0.015818866538551593
52:12.8;0.06019861327783309;-0.28196879062490965;-0.9535842173621523;1.004;0.01618626264619509
52:12.8;0.06159234980702006;-0.2839709827922479;-0.954421963065318;1.002;0.016693260181974357
52:12.8;0.063349638177663;-0.28607612571456886;-0.9547877957018568;1.002;0.017303446457699715
52:12.8;0.06530593583069896;-0.28819624868437443;-0.9546788271734706;1.002;0.01796793929577214
52:12.8;0.06727383418033779;-0.29023502483626706;-0.9541456176371098;1.005;0.018629905896017547
52:12.8;0.06906166768550662;-0.29209393160471;-0.9532839132983237;0.9990000000000001;0.0192301140569956
52:12.8;0.07049214005964544;-0.2936785947600821;-0.9522226842549557;0.996;0.01971294508461213
52:12.9;0.0714188517585261;-0.2949053133191241;-0.9511097778188345;0.997;0.02003208282919695
52:12.9;0.07173919919724459;-0.2957076787947878;-0.9500970954019015;0.9990000000000001;0.020155200235104417
52:12.9;0.07140286707919156;-0.29604266491219444;-0.9493268558183222;0.998;0.02006715117954514
52:12.9;0.07041522691707856;-0.2958951047748382;-0.9489193538758103;0.993;0.01977122907409815
52:12.9;0.06883498073781674;-0.29527989781908565;-0.9489620700940611;0.993;0.019288210241062434
52:12.9;0.06676639260311734;-0.2942421634233852;-0.9495005317050098;0.993;0.018653401115043062
52:12.9;0.06434802623305537;-0.2928557559298098;-0.9505319511945491;0.9940000000000001;0.017912479827103662
52:12.9;0.061740336697120306;-0.29122009016164274;-0.9520025712993225;0.992;0.01711703138343712
52:12.9;0.05911325456676791;-0.28945505787897596;-0.9538092578656625;0.992;0.016320277799839043
52:13.0;0.0566336642973696;-0.2876941927332626;-0.9558058686182325;0.995;0.015573113556135148
52:13.0;0.054452699711799335;-0.28607649401102375;-0.9578150331709591;1.0;0.01492049530502312
52:13.0;0.052693625771889144;-0.28473705676022026;-0.9596453877633216;1.006;0.014398354254844994
52:13.0;0.051441781323957984;-0.2837964114366912;-0.9611127567479538;1.01;0.014031278348048966
52:13.0;0.050738022759951686;-0.2833490912408027;-0.962062023397486;1.0090000000000001;0.013831154563932113
52:13.0;0.05057629115851941;-0.2834533360983483;-0.9623857365695784;1.01;0.01379677968160267
52:13.0;0.050905063172310736;-0.284124683470357;-0.9620364489172157;1.0090000000000001;0.013914303507079305
52:13.0;0.051632443909752246;-0.285335325990952;-0.9610315828313885;1.01;0.014158455662290634
52:13.0;0.05263528442796324;-0.2870190213928789;-0.9594509267047784;1.0090000000000001;0.01449473968388775
52:13.0;0.05377252495286201;-0.28907970282934436;-0.9574272422397789;1.004;0.014882771362255498
52:13.1;0.05490133991808972;-0.29140175954258674;-0.9551306522324164;0.9990000000000001;0.015280511655732533
52:13.1;0.0558930949602219;-0.2938606344936509;-0.9527482931164156;0.995;0.01564868144215477
52:13.1;0.056646307781109594;-0.296332799056786;-0.9504620012880003;0.987;0.015954606221009304
52:13.1;0.05709527459263662;-0.2987041379049079;-0.9484278019363689;0.987;0.01617505183597337
52:13.1;0.05721426276387237;-0.30087594749453783;-0.9467611155706918;0.988;0.016297920305710124
52:13.1;0.05701776066029567;-0.30276833997517233;-0.9455304288964002;0.993;0.01632285512895442
52:13.1;0.05655756612675888;-0.3043213219766857;-0.9447597501166929;0.996;0.016260896157947936
52:13.1;0.05591738099424914;-0.3054939298964261;-0.9444376488129066;0.998;0.01613328102419978
52:13.1;0.05520505124545428;-0.30626197772983865;-0.94452930474517;0.9990000000000001;0.015969353582818428
52:13.1;0.054542428719468704;-0.3066152919704641;-0.9449880021580058;0.9990000000000001;0.01580354721131225
52:13.2;0.05405345554906809;-0.30655518900069334;-0.9457635730111802;0.996;0.015671649766717827
52:13.2;0.05385173608298471;-0.306092362884269;-0.9468069954757474;0.995;0.015606792660110008
52:13.2;0.054028912752980544;-0.30524508331639233;-0.9480719844314603;0.998;0.015635660027650093
52:13.2;0.054645045952580316;-0.3040378086333678;-0.9495150468733419;1.0;0.015775394934037113
52:13.2;0.05572229830263083;-0.30250032816601824;-0.9510949108588663;0.9990000000000001;0.01603166867881827
52:13.2;0.05724295172833352;-0.3006673540234235;-0.9527714205792056;1.001;0.016398231651254664
52:13.2;0.05915179638008024;-0.2985785332507632;-0.9545037769733501;1.005;0.01685792703375787
52:13.2;0.06136197772079914;-0.296278789867187;-0.9562481106672454;1.003;0.01738483210742393
52:13.2;0.06376309794234152;-0.29381840632368944;-0.957954439477249;1.0;0.017947057837255816
52:13.2;0.06623046815383792;-0.29125209409962394;-0.9595635429291731;0.998;0.018509752888027132
52:13.3;0.06863472618442802;-0.2886370253196378;-0.9610052408789551;1.002;0.01903801661927474
52:13.3;0.07085173794352419;-0.286030553741748;-0.9621999444210282;1.004;0.019499714913741792
52:13.3;0.07277315838742138;-0.2834883745412384;-0.9630644204657096;1.008;0.019868350655760137
52:13.3;0.07431722650482207;-0.28106361805310526;-0.9635210361974368;1.011;0.020125900763817806
52:13.3;0.07543772343103108;-0.2788071750192538;-0.9635083613606762;1.013;0.020265065303236164
52:13.3;0.07612820721650598;-0.27676891953301874;-0.9629905035334734;1.011;0.020290134466172352
52:13.3;0.07641960861741467;-0.2749985395095953;-0.961963019763442;1.0070000000000001;0.020215922940762104
52:13.3;0.07637138324447382;-0.27354444327256255;-0.9604543869288494;1.003;0.020064821393670773
52:13.3;0.07605837600449565;-0.27245012538164487;-0.9585232780625513;0.998;0.019862628715148763
52:13.3;0.07555662371264259;-0.27174870170369786;-0.9562527903375558;0.995;0.019634178561435102
52:13.4;0.07493132159285368;-0.2714572390903253;-0.953743064343855;0.992;0.01939975355748781
52:13.4;0.07422921858100319;-0.27157276589781415;-0.9511034992997213;0.9890000000000001;0.0191729475291762
52:13.4;0.07347632429812757;-0.2720713664443366;-0.948445391436031;0.987;0.01896018588041773
52:13.4;0.07268056771893401;-0.27291061503113256;-0.9458756513245906;0.986;0.01876172582830192
52:13.4;0.07183810272639175;-0.27403439090064047;-0.9434921737424754;0.9840000000000001;0.01857369139960145
52:13.4;0.07094140204065844;-0.2753785417779413;-0.9413811435518369;0.983;0.018390577116019005
52:13.4;0.06998724490828453;-0.27687615023207146;-0.9396161229402213;0.982;0.018207692306941307
52:13.4;0.06898311174173972;-0.27846186462990424;-0.9382584556397146;0.982;0.018023162353583217
52:13.4;0.06795115745109377;-0.2800751978426237;-0.9373584266026451;0.982;0.017839274905329414
52:13.5;0.06692959519606485;-0.2816627266071998;-0.9369565929927638;0.9840000000000001;0.01766310493006637
52:13.5;0.06597167708243072;-0.283179122220731;-0.937084600400094;0.9840000000000001;0.0175064285942419
52:13.5;0.06514242614484542;-0.284587118357994;-0.9377646689879544;0.983;0.017384933498430358
52:13.5;0.06451321649536954;-0.28585678581832047;-0.9390070991027186;0.983;0.017316737645239343
52:13.5;0.06415463969822091;-0.28696467069984144;-0.9408058157494676;0.983;0.017320343312235646
52:13.5;0.0641286245739542;-0.2878933116594664;-0.9431328985678481;0.982;0.017412310181237373
52:13.5;0.06448083693175209;-0.2886313750609986;-0.9459338520926321;0.9840000000000001;0.017604957135300057
52:13.5;0.06523402119072612;-0.28917426700937077;-0.9491257904108712;0.99;0.017904309158888604
52:13.5;0.06638295397518218;-0.28952473125767375;-0.9526003089562787;1.0;0.018308508220220086
52:13.5;0.06789215534350328;-0.2896927703187068;-0.9562312536671912;1.006;0.01880702870180413
52:13.5;0.06969752466670437;-0.2896945089483984;-0.9598854169580459;1.0090000000000001;0.019381037030834953
52:13.6;0.07171208819802866;-0.28955039302132907;-0.9634328207763617;1.014;0.02000497278377265
52:13.6;0.07383460459728183;-0.28928371055424523;-0.9667536837902202;1.013;0.020649035384021016
52:13.6;0.07595893627805422;-0.28892016223283806;-0.969740994673396;1.01;0.02128200199815469
52:13.6;0.07798257928883144;-0.28848836918897397;-0.9722998015093611;1.012;0.021873893899387695
52:13.6;0.07981404940036095;-0.28802049985378714;-0.9743460018723678;1.016;0.02239834618070581
52:13.6;0.08137950525574808;-0.28755200736323294;-0.9758076269266666;1.021;0.022834718240721145
52:13.6;0.08262848547159402;-0.28711987615340995;-0.9766299415270889;1.028;0.023169842692476482
52:13.6;0.08353780838132131;-0.28675957881763003;-0.9767830431628719;1.03;0.023399098352693805
52:13.6;0.08411240014575841;-0.28650163918338006;-0.9762685973752914;1.028;0.023526453096002216
52:13.6;0.08438229083292989;-0.2863688909474881;-0.9751220673202148;1.022;0.023563301156646555
52:13.7;0.08439617939436361;-0.286375211292777;-0.9734085258298197;1.014;0.023526285066331448
52:13.7;0.08421335357637628;-0.28652589639038134;-0.9712129454932358;1.012;0.023434694956587468
52:13.7;0.08389632504140443;-0.28681919216888735;-0.9686280708126959;1.008;0.023308171052544728
52:13.7;0.08350556331525048;-0.28724817014843673;-0.9657434443590419;1.005;0.023165114416650215
52:13.7;0.08309598499408016;-0.287802373434756;-0.9626381727779021;1.0070000000000001;0.023021705322904835
52:13.7;0.08271403902809818;-0.28846912960056903;-0.9593784552750512;1.008;0.022891198635544736
52:13.7;0.08239467125922285;-0.2892345773148437;-0.956019119225327;1.005;0.022783262484087317
52:13.7;0.08215813632607738;-0.2900843415704171;-0.952606975841121;0.998;0.02270328094160138
52:13.7;0.08200702309457489;-0.29100395246736294;-0.9491838497460733;0.9940000000000001;0.022651672548192354
52:13.7;0.08192419605951157;-0.29197942279138617;-0.945788687083901;0.992;0.022623435143407762
52:13.8;0.08187261507448197;-0.2929981532584624;-0.9424595891904732;0.992;0.022608215434941098
52:13.8;0.08179786225839863;-0.29404958440209833;-0.9392366371385887;0.987;0.022591108875460373
52:13.8;0.08163358053508586;-0.2951248347242092;-0.9361654846180331;0.983;0.022554189629171023
52:13.8;0.08130924211056967;-0.29621538332264824;-0.9333012440563868;0.9840000000000001;0.02247860555970685
52:13.8;0.0807592858761976;-0.29731156815064436;-0.9307123339789478;0.985;0.022347026647764
52:13.8;0.07993279038025079;-0.29840125334885587;-0.9284836899015835;0.987;0.02214623459837016
52:13.8;0.07880280167056289;-0.2994682601828088;-0.9267177602979227;0.9840000000000001;0.02186955488889982
52:13.8;0.07737383951808056;-0.30049045983441847;-0.9255309891252721;0.98;0.021518688620335385
52:13.8;0.0756857808069914;-0.30143850586070436;-0.925044020658998;0.978;0.02110451734436718
52:13.8;0.07381312467114028;-0.3022765672780783;-0.925365554843336;0.973;0.020646735851338974
52:13.9;0.07185991487542505;-0.3029656624844536;-0.9265717576853616;0.9670000000000001;0.020172474085451406
52:13.9;0.06995103739419148;-0.3034690887778298;-0.9286849334006045;0.963;0.019714102942399312
52:13.9;0.06822052526732535;-0.30375865030582744;-0.931656683250939;0.968;0.019306325193258297
52:13.9;0.06679814704146425;-0.30381998607243255;-0.9353610299747522;0.981;0.018982789280350285
52:13.9;0.06579647474955302;-0.30365537089917943;-0.9396006309445245;0.993;0.01877270659204684
52:13.9;0.06530012563534024;-0.30328318228251244;-0.9441246785332875;0.9990000000000001;0.018697851018663652
52:13.9;0.06535710251372197;-0.30273461768904797;-0.9486532122135777;0.9990000000000001;0.01876991721946996
52:13.9;0.06597145687826646;-0.3020492299901931;-0.9529020738554879;1.003;0.018988124909266445
52:13.9;0.06709811853278289;-0.3012706169382138;-0.9566052763413907;1.0070000000000001;0.01933748061142451
52:13.9;0.06864268244264869;-0.3004425762855776;-0.9595342085847105;1.013;0.01978865087974421
52:14.0;0.07046830216195453;-0.2996053979030839;-0.961513809403815;1.016;0.020300136939573783
52:14.0;0.07240867410471967;-0.29879226490065725;-0.9624350507871942;1.0170000000000001;0.020822428358096084
52:14.0;0.07428345715967716;-0.29802636199260046;-0.9622623286980851;1.015;0.021302975755901926
52:14.0;0.07591257638313084;-0.29731935379766117;-0.9610346019073672;1.015;0.021690818281963467
52:14.0;0.07712787474267405;-0.2966713444323592;-0.9588601251606544;1.0070000000000001;0.02194028288674059
52:14.0;0.07778245203966178;-0.29607190071629114;-0.9559057357419488;0.9990000000000001;0.022013742857072773
52:14.0;0.07775889557520398;-0.2955016775344655;-0.952382642940937;0.9990000000000001;0.021883737974729558
52:14.0;0.07697748908185707;-0.29493455136646696;-0.9485311147589922;0.9990000000000001;0.02153480657384708
52:14.0;0.07540421609905364;-0.29434051034351866;-0.9446055595587435;0.9940000000000001;0.02096506268450571
52:14.0;0.07305645445025664;-0.293689479005665;-0.9408598270482612;0.9890000000000001;0.020187005696288982
52:14.1;0.07000360592676293;-0.29295579848660774;-0.937531916192997;0.981;0.01922686916534744
52:14.1;0.06636165325427;-0.2921225505734525;-0.9348283073664995;0.973;0.01812233421936466
52:14.1;0.06228315997816821;-0.2911846546042003;-0.9329098527116909;0.97;0.01691916019512125
52:14.1;0.05794519274969674;-0.29014995214007605;-0.9318822518328036;0.973;0.01566754517387781
52:14.1;0.05353690398276533;-0.28903814430164343;-0.9317935530044382;0.9790000000000001;0.014418766673451
52:14.1;0.04924749042370565;-0.2878778870500446;-0.9326387471870521;0.981;0.0132222652558381
52:14.1;0.04525476924283359;-0.2867025604668656;-0.9343687805607679;0.983;0.012123115574782942
52:14.1;0.04171473179582887;-0.2855457092413134;-0.9369000262167544;0.9840000000000001;0.011159849693846948
52:14.1;0.03875303624523767;-0.28443767444991813;-0.9401209606722772;0.9840000000000001;0.01036278742516252
52:14.1;0.036459904826587404;-0.28340468504406297;-0.9438946684521453;0.9840000000000001;0.009753176623667986
52:14.2;0.03488944252625271;-0.2824705733338248;-0.9480579273772077;0.983;0.009343339198589595
52:14.2;0.03406297894403516;-0.28166004676332485;-0.9524195038864917;0.985;0.009137684386545226
52:14.2;0.033974663322414375;-0.28100178061311604;-0.9567613628540685;0.991;0.009134144176362189
52:14.2;0.03459715918923002;-0.2805297283658522;-0.9608461273035445;0.998;0.009325522518142504
52:14.2;0.035885921447410936;-0.28028169495165145;-0.9644322366509899;1.008;0.009700420388578445
52:14.2;0.03778152054859894;-0.28029494371226593;-0.9672956142391109;1.015;0.010243630738420792
52:14.2;0.04021013577070281;-0.28059933515274704;-0.9692543094397197;1.0190000000000001;0.010936035662866756
52:14.2;0.04308260648187033;-0.2812093682442589;-0.9701913476499309;1.021;0.011754093795827302
52:14.2;0.046292874335361986;-0.28211727415455135;-0.970071238502237;1.023;0.012669149310893175
52:14.2;0.049717491848367365;-0.2832893424093989;-0.9689467788440773;1.022;0.013647068479295954
52:14.3;0.053218308654795196;-0.2846667364757626;-0.9669541669080534;1.015;0.014648854983805505
52:14.3;0.056649654601636436;-0.2861709013411001;-0.96429606124985;1.005;0.015632668931999272
52:14.3;0.05986966655597669;-0.2877128724846972;-0.9612146425024526;0.997;0.01655718533954062
52:14.3;0.06275394658611105;-0.28920501012638555;-0.9579595382061008;0.995;0.01738577368485981
52:14.3;0.06520900929130721;-0.2905727140309526;-0.9547569903127743;0.991;0.018090696125093977
52:14.3;0.06718258629628132;-0.29176341340258233;-0.9517857969260097;0.9890000000000001;0.018656353820895488
52:14.3;0.0686676816331312;-0.29275125361047233;-0.9491631894032589;0.988;0.019080600359831144
52:14.3;0.06969816261319511;-0.2935374807858272;-0.946941535957041;0.9890000000000001;0.019373498729024077
52:14.3;0.07033623222915084;-0.29414713945858684;-0.9451151997481326;0.99;0.01955367881822518
52:14.3;0.07065534324888514;-0.29462246592613117;-0.9436357320786918;0.991;0.019643336138793002
52:14.4;0.07072396448314754;-0.29501348948546324;-0.9424326653188452;0.996;0.01966340854211436
52:14.4;0.0705948904176271;-0.29536715073433595;-0.9414364173888129;1.0;0.0196302782709734
52:14.4;0.07030198196301436;-0.2957169369421405;-0.9405991118849136;0.9990000000000001;0.019554572789643766
52:14.4;0.06986297890899895;-0.29607513651167716;-0.9399089238785042;0.995;0.019441725675106408
52:14.4;0.06928505944893662;-0.2964294198068646;-0.9393948117056857;0.99;0.019293412739461252
52:14.4;0.0685700553656241;-0.2967445346402265;-0.9391211753905386;0.985;0.0191090396816726
52:14.4;0.0677181595963166;-0.2969685063294544;-0.9391747805118672;0.986;0.018886955767771232
52:14.4;0.06673072835661804;-0.29704157514174423;-0.939647784089486;0.985;0.018625511068153355
52:14.4;0.06561278216646224;-0.2969059417143212;-0.9406204688571923;0.9840000000000001;0.018324062630121273
52:14.4;0.06437467809993837;-0.29651494044983956;-0.9421461588092058;0.986;0.01798373660759032
52:14.5;0.06303219654704577;-0.29584056760558547;-0.9442398148524566;0.99;0.017607693821743847
52:14.5;0.06160538899200399;-0.2948781038491573;-0.9468710947445369;0.991;0.017200936334109823
52:14.5;0.06011731561118664;-0.29364678444319614;-0.9499619606534958;0.991;0.016769922079314794
52:14.5;0.05859328880859195;-0.29218677945451504;-0.9533885897906382;0.993;0.01632218841881717
52:14.5;0.057060398240425594;-0.29055422505515677;-0.956987598835656;0.998;0.01586603118038857
52:14.5;0.055546890664578574;-0.28881613814473955;-0.9605668023203827;1.005;0.01541021802784168
52:14.5;0.05408102187706539;-0.2870458014391333;-0.9639201985732201;1.012;0.014963637161900672
52:14.5;0.05268880038267602;-0.28531815613710576;-0.9668456881220875;1.014;0.01453466023743598
52:14.5;0.05139010918622985;-0.2837047952671475;-0.9691629733788713;1.015;0.014130028262867321
52:14.5;0.05019359067477263;-0.2822688455873687;-0.9707290211440202;1.016;0.013753373123700641
52:14.6;0.049091964642565024;-0.28106047693076686;-0.9714494739750618;1.013;0.013403876233981829
52:14.6;0.048060024948507855;-0.2801136976200901;-0.9712857669555051;1.012;0.013075712500737597
52:14.6;0.047056815288660535;-0.27944485380009726;-0.970258735761129;1.012;0.012758693642175457
52:14.6;0.046031878507035016;-0.27905301073834704;-0.968449746891166;1.016;0.012440060739297086
52:14.6;0.04493400183419003;-0.2789218560915948;-0.9659995795415993;1.016;0.012106945367009334
52:14.6;0.043720271289159916;-0.2790221490983544;-0.9631038461312258;1.011;0.011748830675324846
52:14.6;0.04236373117821009;-0.2793138658933895;-0.9600028823177372;1.005;0.011359500533716562
52:14.6;0.040859155649879776;-0.27974812347978795;-0.9569647245244745;0.997;0.010938367210577058
52:14.6;0.03922740742248911;-0.2802697272554517;-0.9542617117914303;0.99;0.010491396385508202
52:14.6;0.03751868335491054;-0.28082108964215896;-0.9521433344321403;0.9840000000000001;0.010031817916623229
52:14.7;0.03581382198431553;-0.28134757017833434;-0.9508094071814881;0.981;0.00958048089781801
52:14.7;0.03422211007496679;-0.2818035058911994;-0.9503880921643489;0.982;0.009165457794350981
52:14.7;0.03287460146104562;-0.2821576017395186;-0.9509224933383653;0.988;0.00882058465203608
52:14.7;0.03191313847958132;-0.28239620616991173;-0.9523674897591963;0.992;0.008582877942947268
52:14.7;0.03147590145075024;-0.2825235832836369;-0.9545958931144611;0.9940000000000001;0.008488920069002688
52:14.7;0.03168056590519212;-0.2825594027827006;-0.9574112949373401;0.996;0.008570402950309357
52:14.7;0.032606897148451726;-0.28253452819633906;-0.9605649755274627;1.0;0.008849276208738427
52:14.7;0.03428182034798351;-0.2824861460095488;-0.9637753337218793;1.005;0.009333334593659825
52:14.7;0.03667051409665085;-0.2824526100741944;-0.966749118926293;1.0070000000000001;0.010013280353036155
52:14.7;0.039675871264790684;-0.28246806651788686;-0.9692037956464277;1.012;0.010862028449397843
52:14.8;0.04314624058720287;-0.2825574224082527;-0.9708900405369643;1.0170000000000001;0.011836402553885461
52:14.8;0.046889448982297674;-0.2827327226836138;-0.9716129201048312;1.021;0.01288084890331961
52:14.8;0.050690708737334764;-0.28299156903460265;-0.9712497345053576;1.022;0.013932619400491977
52:14.8;0.054332311461478607;-0.2833172851839015;-0.9697622348889048;1.018;0.01492782450596322
52:14.8;0.05761285912209768;-0.2836802777162327;-0.9672014702418175;1.016;0.015807584779348217
52:14.8;0.060363523102606696;-0.2840404785132245;-0.9637047424299366;1.012;0.016523376970292363
52:14.8;0.062459525173773366;-0.28435090754327397;-0.9594852095565389;1.0070000000000001;0.01704086286530779
52:14.8;0.06382644554665806;-0.28456204582035727;-0.95481509392162;1.001;0.01734190927353341
52:14.8;0.06444184941813527;-0.28462649521852385;-0.9500035876221151;0.9940000000000001;0.017424830661674006
52:14.8;0.06433296751910507;-0.28450352332345485;-0.945370904214016;0.985;0.017303081992643184
52:14.9;0.0635715732535543;-0.28416313484886;-0.9412205861637555;0.9790000000000001;0.017002865210297115
52:14.9;0.06226762924616089;-0.2835891521166351;-0.9378128796634483;0.9740000000000001;0.016560297632657435
52:14.9;0.060562814664982575;-0.28278085827293936;-0.9353422355556961;0.9690000000000001;0.016018675531952378
52:14.9;0.05862375132306033;-0.28175333676638015;-0.9339215506120612;0.968;0.015425990887932409
52:14.9;0.05663387508629329;-0.28053718960785057;-0.9335749022610798;0.971;0.014832552301360128
52:14.9;0.054783144202470734;-0.27917798155116613;-0.9342394431180558;0.9740000000000001;0.014288489380793884
52:14.9;0.05325538850648716;-0.27773471087227214;-0.935775827881767;0.976;0.013840938553125848
52:14.9;0.052213451273476603;-0.2762760807049024;-0.9379854980278747;0.976;0.013530748166182053
52:14.9;0.05178293196177434;-0.2748739994327171;-0.940632867571414;0.983;0.013388762812844068
52:14.9;0.052036674343883725;-0.27359492344473463;-0.9434705481191807;0.9890000000000001;0.013432161826652756
52:15.0;0.0529832387332793;-0.27249051031247373;-0.9462653465035625;0.993;0.013661639474882562
52:15.0;0.054562370421968445;-0.2715894821908263;-0.9488219072306375;0.997;0.01406017998813168
52:15.0;0.05664902080099793;-0.27089271253575514;-0.9510005220393701;0.9990000000000001;0.014593870379935557
52:15.0;0.059065711775998106;-0.27037303011651986;-0.9527263392825454;0.998;0.015214825721616533
52:15.0;0.061601557660001964;-0.2699800619501207;-0.9539887421787632;0.996;0.015865970274030316
52:15.0;0.06403517016911746;-0.2696492178714588;-0.9548316194401767;0.993;0.016487109609735682
52:15.0;0.0661581916987925;-0.2693130554590127;-0.9553371460636828;0.992;0.01702149485696895
52:15.0;0.06779658297263123;-0.2689127660686204;-0.9556068583672939;0.99;0.01742201901500141
52:15.0;0.06882764449658971;-0.26840758335525167;-0.9557437908666512;0.991;0.01765627863925724
52:15.0;0.06919131511265438;-0.2677806741832196;-0.9558384535972914;0.991;0.01770986759269585
52:15.1;0.068894502156498;-0.26704101458171425;-0.9559601502018816;0.991;0.017587427670807114
52:15.1;0.0680076721654684;-0.26622128046864246;-0.956154126222323;0.992;0.017311256093756576
52:15.1;0.06665393207405233;-0.265372120702085;-0.9564442531932925;0.998;0.01691767710691221
52:15.1;0.06499212041803422;-0.264553841122222;-0.9568398750069268;0.998;0.01645182357446421
52:15.1;0.06319654406569909;-0.2638271866460586;-0.9573441430098532;1.0;0.01596176675511219
52:15.1;0.06143634002047484;-0.2632448227489927;-0.957960731761626;0.998;0.015492905827292925
52:15.1;0.05985712645009176;-0.26284442315908996;-0.9586968287911696;0.995;0.015083284460366513
52:15.1;0.0585673421766266;-0.2626437732481159;-0.9595620429278207;0.992;0.014760317020868673
52:15.1;0.05763126643461196;-0.2626382597560142;-0.9605645697887878;0.992;0.014539273930383404
52:15.1;0.05706949324382474;-0.26280111306077353;-0.961706990671158;0.998;0.014423610612799611
52:15.2;0.05686590603095014;-0.2630864168309072;-0.9629837683887441;1.002;0.01440686066618363
52:15.2;0.056978739766253256;-0.26343433882589457;-0.9643808545336209;1.005;0.014475507684712964
52:15.2;0.05735256396133007;-0.2637777506098598;-0.9658761112252604;1.004;0.014612092852464828
52:15.2;0.057928267780241106;-0.2640494700180838;-0.9674389062687322;1.004;0.014797876247889506
52:15.2;0.05864940043934404;-0.2641893391383506;-0.9690283978075357;1.003;0.015014655417444834
52:15.2;0.05946477475895579;-0.2641502196496054;-0.9705915062556856;1.005;0.01524569547793995
52:15.2;0.06032817317459414;-0.2639022199859685;-0.97206216847008;1.0070000000000001;0.015475947909251601
52:15.2;0.06119627217665142;-0.26343505549892887;-0.9733629345436758;1.011;0.01569182074264109
52:15.2;0.062026062935876675;-0.2627588271910292;-0.9744088896503772;1.012;0.015880814308762186
52:15.2;0.06277312806230893;-0.2619034501917803;-0.9751130556113577;1.011;0.016031345039022937
52:15.3;0.06339172914976147;-0.26091678848248273;-0.975392360330206;1.012;0.016132956853127323
52:15.3;0.06383684679827517;-0.25986154535910194;-0.975173825236592;1.01;0.016176906660299514
52:15.3;0.0640676622870234;-0.2588110914293459;-0.9744011152374632;1.012;0.01615695570104695
52:15.3;0.06405179373832787;-0.25784459028356815;-0.9730414898701877;1.012;0.016070177705680637
52:15.3;0.06376977496430347;-0.2570418627167505;-0.9710925619814004;1.013;0.015917665421218193
52:15.3;0.0632194024112356;-0.25647823433489514;-0.9685875387634628;1.0090000000000001;0.015705066472485586
52:15.3;0.06241927300165793;-0.2562193493938869;-0.9655973022983607;1.004;0.015442822295889575
52:15.3;0.06141024818925804;-0.25631607998477673;-0.9622281754293804;0.998;0.015145889171772248
52:15.3;0.06025357636703147;-0.2568001149388488;-0.9586154369591585;0.991;0.014832776805601902
52:15.3;0.059025543083973966;-0.25768092021526456;-0.9549140014296885;0.987;0.014524009209177388
52:15.4;0.05781002718994448;-0.25894439715969836;-0.9512884697449224;0.9840000000000001;0.014240391362788029
52:15.4;0.056690913240325436;-0.2605533557135217;-0.9479045413153137;0.985;0.01400150526273797
52:15.4;0.05574570738409617;-0.2624500346405863;-0.9449225281978614;0.986;0.013824653929827051
52:15.4;0.05504073808371406;-0.26456068625727586;-0.9424920689104973;0.983;0.013724207062285792
52:15.4;0.054627626561803984;-0.26680156667734123;-0.9407462432251789;0.98;0.01371112846778117
52:15.4;0.05454045311271521;-0.2690852884002435;-0.9397938607585474;0.976;0.01379244623557141
52:15.4;0.05479334026737266;-0.2713267165345159;-0.9397102982213849;0.975;0.013970576310009275
52:15.4;0.05537886590432936;-0.2734479554693027;-0.9405286751851397;0.977;0.014242649252255012
52:15.4;0.05626816002911434;-0.27538215970277463;-0.9422334767869455;0.9790000000000001;0.014600140860885541
52:15.4;0.057413187696552355;-0.27707605450484846;-0.9447580309670288;0.983;0.015029040250007366
52:15.5;0.058750841023257935;-0.27849130187624577;-0.9479862917463258;0.987;0.015510570807402414
52:15.5;0.06020791928657648;-0.27960495251862355;-0.9517587064056677;0.995;0.016022317616821092
52:15.5;0.06170633901386936;-0.28040892973908643;-0.9558815046708713;0.995;0.01653962578214763
52:15.5;0.06316854499471124;-0.28090823695108175;-0.9601385584133137;0.9990000000000001;0.01703724067973688
52:15.5;0.06452338379491124;-0.2811180129226971;-0.964305279484995;1.006;0.017491230132202388
52:15.5;0.06571247523948298;-0.2810602187129256;-0.9681644396853936;1.014;0.017881186521059318
52:15.5;0.06669651738033437;-0.2807606136803395;-0.9715233739304066;1.021;0.018192508822765536
52:15.5;0.06746005655052542;-0.28024598020643066;-0.9742307898630128;1.024;0.01841823219819946
52:15.5;0.06801257986378939;-0.27954133672685394;-0.9761904834919883;1.024;0.018559653164151823
52:15.5;0.06838440282969062;-0.27866725079676313;-0.9773694804168885;1.0270000000000001;0.018625235183823273
52:15.6;0.06861786155027785;-0.2776376189404721;-0.9777991306328325;1.026;0.018627953162092554
52:15.6;0.06875628339324683;-0.27645824264282465;-0.9775685704638706;1.021;0.018581859252725957
52:15.6;0.06883362025315097;-0.2751266063249926;-0.9768107076280343;1.012;0.018498802442029314
52:15.6;0.06886677920962503;-0.2736334316024242;-0.9756822703085336;1.012;0.018386003664962045
52:15.6;0.06885190396665286;-0.2719663143616012;-0.9743411782876353;1.008;0.01824492689548167
52:15.6;0.06876548663310635;-0.2701149453892771;-0.9729250998256426;1.003;0.01807168061386619
52:15.6;0.06857043535260958;-0.2680766974902286;-0.9715344005391282;0.9990000000000001;0.017858877338316877
52:15.6;0.06822572424989651;-0.26586129845207646;-0.9702220665093851;0.9990000000000001;0.017598450218868654
52:15.6;0.06769674949316722;-0.2634937285906882;-0.9689928285647808;1.001;0.017284573278677006
52:15.6;0.0669630869417739;-0.2610148543489891;-0.9678125695456328;1.006;0.016915776875521572
52:15.7;0.06602146292588491;-0.2584794888699759;-0.9666268045365803;1.01;0.016495673936830265
52:15.7;0.06488392554334582;-0.2559517913588915;-0.9653843966066831;1.014;0.016032290213940887
52:15.7;0.06357320344759454;-0.2534984619002937;-0.9640607323457113;1.014;0.015536522502354341
52:15.7;0.06211792410466699;-0.25118113252598884;-0.962674088979736;1.008;0.015020459916348844
52:15.7;0.060549652677495784;-0.24905016995428172;-0.9612903545608362;1.0;0.014496163657809449
52:15.7;0.058902437492175205;-0.2471419244024414;-0.9600144471274615;0.993;0.013975181594274315
52:15.7;0.05721448908290168;-0.24548008869141053;-0.9589705373855448;0.985;0.013468758319523698
52:15.7;0.055530955416616776;-0.2440801001615904;-0.958276019824898;0.98;0.012988474284456947
52:15.7;0.053906269055623866;-0.24295451837131646;-0.9580153887889575;0.978;0.012546908770363067
52:15.7;0.052404253456569135;-0.24211741235620832;-0.958219805375213;0.9790000000000001;0.01215787587583984
52:15.8;0.051094518188881076;-0.2415865270013115;-0.9588564811110037;0.981;0.011835882002052864
52:15.8;0.05004482798235707;-0.24138281277770557;-0.9598296415506331;0.986;0.0115947049661406
52:15.8;0.04931074199048428;-0.24152755992220026;-0.9609924307680038;0.995;0.011445326817648866
52:15.8;0.048925338061088966;-0.24203786314685932;-0.9621669671837069;0.995;0.011393773664848988
52:15.8;0.04889246917640191;-0.2429215366015137;-0.9631683274630977;0.998;0.011439582723131145
52:15.8;0.049186070386168075;-0.2441728528708932;-0.9638282935390241;1.002;0.011575484437139322
52:15.8;0.04975595052873539;-0.2457703370794961;-0.9640159356365645;1.003;0.011788504280281435
52:15.8;0.05053839088352403;-0.24767710948651578;-0.9636532199665596;1.004;0.012062242563607654
52:15.8;0.051468464655883506;-0.2498431933842221;-0.9627244277562472;1.002;0.012379717286145422
52:15.8;0.05249062894861621;-0.25220856480113196;-0.9612787285335456;1.002;0.012725971302842006
52:15.9;0.05356503320046488;-0.25470599163713387;-0.9594258297210373;0.998;0.013089767905059791
52:15.9;0.054668753737515396;-0.2572634535710428;-0.9573250950710845;0.993;0.013464080901845761
52:15.9;0.0557928151176727;-0.25980654033056405;-0.9551691361221998;0.9890000000000001;0.013845499734134332
52:15.9;0.056936697287468155;-0.26226143463322454;-0.9531637215814738;0.9890000000000001;0.014232926557693183
52:15.9;0.05810214621420417;-0.2645586872573133;-0.9515063182382313;0.987;0.014626010414434192
52:15.9;0.05928784832798541;-0.2666372042461081;-0.9503652309892298;0.983;0.01502370251563719
52:15.9;0.06048590377369663;-0.26844759105922444;-0.9498608555959445;0.978;0.015423171074275802
52:15.9;0.06168007453068955;-0.26995460316981174;-0.950050966634287;0.975;0.015819127677501606
52:15.9;0.06284515202510961;-0.27113902962562003;-0.9509229070110198;0.982;0.016203510986387917
52:15.9;0.06394714253443648;-0.2719990284484462;-0.9523955268967894;0.99;0.01656554935169744
52:16.0;0.06494481057985332;-0.27255019626634935;-0.95433168638084;0.9990000000000001;0.016892358798042625
52:16.0;0.06579317942684898;-0.2728235783729028;-0.956558796961939;1.006;0.01717016406214855
52:16.0;0.06644846127334887;-0.27286177336226963;-0.9588922699114253;1.005;0.017385910655422537
52:16.0;0.066872755627539;-0.27271446973144714;-0.9611564869607453;1.006;0.017528772413924667
52:16.0;0.06703722534335271;-0.2724349692105889;-0.9631999770175147;1.006;0.01759119513590037
52:16.0;0.06692417902258635;-0.2720781512760297;-0.9649042794554648;1.0070000000000001;0.01756956272471865
52:16.0;0.06652954047524665;-0.2716989491341202;-0.966187768657805;1.006;0.017464816128990354
52:16.0;0.0658661584093395;-0.2713500857580336;-0.9670061785731481;1.005;0.017283096166066294
52:16.0;0.0649664189024225;-0.2710785612349888;-0.9673514716481894;1.0070000000000001;0.017036030022003393
52:16.0;0.06388194095442157;-0.2709210369680117;-0.9672503782695809;1.01;0.016740165238352315
52:16.1;0.06267944100360476;-0.2708984462465411;-0.9667629694050804;1.012;0.01641540627118746
52:16.1;0.06143361641832402;-0.27101070444780107;-0.965980021078787;1.01;0.016082763329378597
52:16.1;0.06021855888317923;-0.2712334741635401;-0.965016903472236;1.0;0.015761899911577226
52:16.1;0.05909907934011688;-0.27151920341400476;-0.9640027015868593;1.0;0.01546890303802008
52:16.1;0.058123423974443686;-0.27180319514877777;-0.9630658193026743;0.997;0.015214641274373738
52:16.1;0.0573189955560946;-0.2720134143045838;-0.9623191828045246;0.996;0.015004033879752115
52:16.1;0.056692179147374046;-0.2720815902531223;-0.9618480913570019;0.9990000000000001;0.01483640894819114
52:16.1;0.056232285931793226;-0.2719531022561445;-0.9617025358192679;1.0;0.014706878926821137
52:16.1;0.05591835020931285;-0.2715937898049717;-0.961894367205121;1.001;0.014608363486822432
52:16.1;0.055726402957355065;-0.2709929904535143;-0.962398513589675;1.002;0.014533627069276198
52:16.2;0.05563456428894184;-0.2701632814747403;-0.9631569235377134;1.001;0.014476649669127274
52:16.2;0.0556243733102749;-0.26913797496140135;-0.9640841487064037;0.9990000000000001;0.014432948227589117
52:16.2;0.05567887129328818;-0.26796729969982785;-0.9650741953674151;1.0;0.014399019706665982
52:16.2;0.05577982526885682;-0.26671379789868976;-0.9660090003403978;1.003;0.01437155647640589
52:16.2;0.05590676783527792;-0.26544709047068715;-0.9667690105551772;1.005;0.014347131377046728
52:16.2;0.0560389677172917;-0.26423801111963585;-0.9672456266516649;1.0090000000000001;0.01432261088488568
52:16.2;0.056159233959546105;-0.26315234677497173;-0.9673541409661557;1.011;0.014295979529593685
52:16.2;0.056257172775092346;-0.2622448514361295;-0.9670449374468656;1.008;0.014266962806442506
52:16.2;0.05632982390087735;-0.26155438123093505;-0.966310720863511;1.004;0.014236957566743414
52:16.2;0.05637917454520569;-0.26110079930674546;-0.9651886173831056;1.005;0.01420820144419369
52:16.3;0.056407989003729224;-0.2608838518027898;-0.9637573657215035;1.004;0.014182589249874044
52:16.3;0.056416443373868225;-0.26088377415938047;-0.9621303528032786;0.9990000000000001;0.014160764104600343
52:16.3;0.056401432116217565;-0.26106339042948074;-0.9604450287916871;0.997;0.01414192788888983
52:16.3;0.056358717654255194;-0.2613718980575761;-0.9588492653055289;0.995;0.014124410609932804
52:16.3;0.056286682485769735;-0.2617505316034931;-0.9574857035386185;0.993;0.014106702996923355
52:16.3;0.056190008571944956;-0.2621395075010222;-0.9564755611910662;0.988;0.01408852267808188
52:16.3;0.05608188269311667;-0.2624850028409131;-0.9559036745501387;0.985;0.014071526426417545
52:16.3;0.05598394857154119;-0.2627451491164538;-0.9558069600948347;0.985;0.014059452912680773
52:16.3;0.05592413908107818;-0.26289457338522537;-0.9561686207111072;0.988;0.014057737054927853
52:16.3;0.055933337190686286;-0.262927173590556;-0.9569196609729513;0.992;0.01407283780657618
52:16.4;0.05604182912933007;-0.26285675650702367;-0.9579476802670475;0.995;0.014111501828846785
52:16.4;0.05627581201548062;-0.2627153690472553;-0.9591112694601133;1.0;0.014180000438114414
52:16.4;0.056653813882033936;-0.2625494923036547;-0.9602572776080892;1.004;0.014283279726712566
52:16.4;0.05718332853146942;-0.2624144454021373;-0.9612378421539615;1.001;0.014424076912051378
52:16.4;0.05785854647681065;-0.2623676955852756;-0.9619244408842056;1.001;0.014602218392180758
52:16.4;0.05865993220862164;-0.2624625104350277;-0.9622173777847691;1.001;0.01481433056834815
52:16.4;0.059555830988868984;-0.2627435788495576;-0.9620505402112349;1.001;0.015054082361497311
52:16.4;0.060505857255197706;-0.26324509823870584;-0.9613922200692745;0.998;0.015312930624419366
52:16.4;0.061465351248853495;-0.2639903837602165;-0.9602432395669868;0.996;0.015581158066436684
52:16.4;0.06238969545994151;-0.2649917149844606;-0.9586338777372115;0.997;0.015848856540281488
52:16.5;0.06323747598207925;-0.26624974456089423;-0.9566209059467888;0.997;0.01610658967624468
52:16.5;0.06397244621502415;-0.26775236281134723;-0.954285062060342;0.996;0.01634573280546718
52:16.5;0.06456491164146429;-0.26947330402900954;-0.9517281217755967;0.991;0.01655866082253451
52:16.5;0.06499273355576678;-0.2713713771915799;-0.9490684780306592;0.988;0.01673887982274218
52:16.5;0.06524145644459556;-0.2733915508076883;-0.9464350285991958;0.987;0.01688105332629949
52:16.5;0.06530344625204575;-0.27546839983981414;-0.9439601606441531;0.986;0.01698093316426378
52:16.5;0.06517712367947025;-0.2775311076503725;-0.9417726986754417;0.985;0.017035424346420615
52:16.5;0.06486757978112753;-0.2795087949617668;-0.9399910326455847;0.983;0.017043032925674183
52:16.5;0.06438836703744835;-0.28133575880356815;-0.9387161690166804;0.981;0.01700460881525532
52:16.5;0.06376271648099242;-0.2829568373088757;-0.9380246353665661;0.981;0.016923931078538932
52:16.6;0.06302256836676606;-0.28433251331977155;-0.9379617711112636;0.9790000000000001;0.016807679576074427
52:16.6;0.06220518644031921;-0.28544242031555167;-0.9385364936267082;0.977;0.01666465301762038
52:16.6;0.06134832588900812;-0.286286080804195;-0.9397189108991064;0.983;0.016504444659537678
52:16.6;0.06048557088688582;-0.28688084678094994;-0.9414419074721541;0.983;0.016336042883745242
52:16.6;0.05964366417123923;-0.2872577839983753;-0.9436069462714847;0.987;0.016166918587100017
52:16.6;0.05884288224681545;-0.28745623849857965;-0.9460934473185552;0.9890000000000001;0.016002937537425155
52:16.6;0.05809966803383998;-0.2875177403990681;-0.9487708064853936;0.995;0.015848917716675667
52:16.6;0.05742924966341013;-0.2874799543622331;-0.9515119479644051;1.002;0.01570923206378994
52:16.6;0.056846312706622965;-0.28737123908916806;-0.9542066428499956;1.008;0.015587915252056012
52:16.6;0.05636341284617484;-0.28720625278428674;-0.9567719166420775;1.006;0.015488151643783175
52:16.7;0.05598793060721702;-0.2869834553203612;-0.959156724127699;1.004;0.015411355962965298
52:16.7;0.05571842468626215;-0.2866859076040065;-0.9613395582270642;1.001;0.01535613734942895
52:16.7;0.05554125851993857;-0.2862862739082465;-0.9633202667418446;1.005;0.015317466517069478
52:16.7;0.055428902861025524;-0.2857550324408215;-0.9651093210571623;1.005;0.015286451403316656
52:16.7;0.055341478421955664;-0.28506895383424846;-0.9667179397882159;1.0070000000000001;0.015251075003949587
52:16.7;0.05523209676729389;-0.2842167551386332;-0.9681512798209932;1.008;0.015197929701960908
52:16.7;0.05505487797848624;-0.28320071303179384;-0.9694054991608583;1.01;0.015114564070594805
52:16.7;0.05477332844923493;-0.28203527133838036;-0.9704684258080528;1.014;0.01499180648157291
52:16.7;0.054366788177383864;-0.2807445143599794;-0.9713227837730299;1.016;0.014825472101426661
52:16.7;0.05383357388242598;-0.27935957374685616;-0.9719504406056739;1.012;0.01461708905400131
52:16.8;0.05319034478203793;-0.27791594581053425;-0.972336338529246;1.011;0.014373508424504598
52:16.8;0.05246800506588537;-0.27645046438563325;-0.9724716964561869;1.016;0.014105511708424976
52:16.8;0.05170555791518417;-0.2749980244531943;-0.9723566799893205;1.014;0.01382586795056162
52:16.8;0.05094409342127036;-0.27358851964228836;-0.9720021969710169;1.014;0.013547493589506686
52:16.8;0.05022252961409493;-0.2722448120914805;-0.9714297086794331;1.0090000000000001;0.013282186597333752
52:16.8;0.04957545586748035;-0.27098254694735363;-0.9706683330292474;1.0070000000000001;0.01304003923971965
52:16.8;0.049032764666150794;-0.2698118255002032;-0.9697499550325478;1.003;0.01282942315174086
52:16.8;0.048620558295680544;-0.2687396756994472;-0.96870437621994;1.003;0.012657355902541464
52:16.8;0.048362304863050376;-0.26777183186152376;-0.9675568037924637;1.004;0.012529921532511307
52:16.8;0.0482788786732039;-0.2669128832168109;-0.9663289680523764;1.0070000000000001;0.01245236121127749
52:16.9;0.048386817920831285;-0.26616494378298305;-0.9650432572803889;1.008;0.012428671163317523
52:16.9;0.04869532779586985;-0.2655258738190741;-0.9637274334040403;1.005;0.012460869912698045
52:16.9;0.04920317222856423;-0.2649883174645936;-0.9624169693003221;0.998;0.01254824827808021
52:16.9;0.0498966274003552;-0.2645404093051778;-0.9611534302828025;0.998;0.01268691217000668
52:16.9;0.05074953356457546;-0.26416813020949376;-0.9599796018012391;0.995;0.012869879548524107
52:16.9;0.05172599523557592;-0.2638585082033481;-0.9589333534918859;0.9940000000000001;0.013087852222261637
52:16.9;0.05278524286131085;-0.2636026966673224;-0.9580419620844027;0.9940000000000001;0.013330514277645866
52:16.9;0.05388710767474183;-0.26339821297450905;-0.957317802847832;0.995;0.013587946665593206
52:16.9;0.05499627222842743;-0.2632498448195664;-0.9567556984295029;0.993;0.013851679504670275
52:16.9;0.05608409550337735;-0.2631690114353847;-0.9563318542558279;0.99;0.014115071782890407
52:17.0;0.057127915443112756;-0.26317188177227896;-0.9560043551187435;0.991;0.014373010201363327
52:17.0;0.058108817192492584;-0.26327702364450867;-0.9557155369248301;0.99;0.014621220994748751
52:17.0;0.059009390521598724;-0.26350335065954955;-0.9553966423238652;0.992;0.014855626837057243
52:17.0;0.059812595208366015;-0.2638686360925675;-0.9549748601136122;0.992;0.015072051087964526
52:17.0;0.06050193847239201;-0.2643883508976956;-0.954382405853026;0.996;0.015266308349827786
52:17.0;0.06106258275987065;-0.2650744363135642;-0.9535667155214175;0.998;0.015434554539727148
52:17.0;0.06148285703742525;-0.26593376015699877;-0.9524999979584003;0.997;0.015573724874311797
52:17.0;0.0617555468323956;-0.26696630126562393;-0.9511858361376664;0.9940000000000001;0.0156818678897214
52:17.0;0.06187841580924915;-0.26816353911103663;-0.949660983025709;0.991;0.015758232739071912
52:17.0;0.0618539834696527;-0.26950775859586357;-0.9479918772288267;0.988;0.015803146358346058
52:17.1;0.0616891800452265;-0.27097267519636037;-0.9462668037611376;0.985;0.015817873625147052
52:17.1;0.06139532029173337;-0.2725252822657086;-0.9445853812499053;0.983;0.01580459194925841
52:17.1;0.060988045232924476;-0.27412860146452117;-0.9430471955677285;0.983;0.01576639823793535
52:17.1;0.06048655296156802;-0.27574491329702816;-0.9417411938982185;0.978;0.015707168871948184
52:17.1;0.05991205431845232;-0.27733879889536067;-0.9407372133083213;0.975;0.015631230443013483
52:17.1;0.059286208627246796;-0.27887932747374095;-0.9400810444548926;0.977;0.015543016075549409
52:17.1;0.058630516721447666;-0.2803413226778801;-0.9397943360968151;0.9840000000000001;0.015446982804172801
52:17.1;0.05796721217428654;-0.2817062688640601;-0.9398794500023125;0.988;0.015347974886026319
52:17.1;0.05732136639736356;-0.28296335294016717;-0.9403272314308692;0.99;0.015251962912480406
52:17.1;0.05672305722755101;-0.2841105106068434;-0.9411242830833759;0.99;0.01516679826226723
52:17.2;0.05620805043389793;-0.28515474845964445;-0.9422568866918136;0.988;0.015102486296843173
52:17.2;0.05581574888165886;-0.28611084778384804;-0.9437106102594035;0.985;0.015070578316292216
52:17.2;0.055583926296582;-0.28699800390133096;-0.9454666325599619;0.987;0.015082533666496393
52:17.2;0.05554085920899996;-0.2878348352006124;-0.9474970068229881;0.987;0.015147250018607637
52:17.2;0.0556968084518709;-0.28863389928619826;-0.9497610907131179;0.991;0.015268346948606588
52:17.2;0.05603757207141618;-0.2893969887202972;-0.9522044686760244;0.996;0.015441999481165675
52:17.2;0.05652229856874978;-0.29011231303611235;-0.9547604610561681;0.998;0.01565598519574977
52:17.2;0.05708635409717042;-0.29075450145398585;-0.9573533408051658;1.0;0.01589026029617379
52:17.2;0.05764878395436052;-0.2912878883957246;-0.9599022508347916;1.006;0.01611905540242784
52:17.2;0.05812327926249742;-0.2916724282795457;-0.9623253957138428;1.0090000000000001;0.016314262017855227
52:17.3;0.05843109143833105;-0.2918703840527564;-0.9645444621409778;1.011;0.016449635538640164
52:17.3;0.058513447688668625;-0.29185180503551894;-0.9664890670296598;1.013;0.016504980568215928
52:17.3;0.058340432394870065;-0.2915979079070542;-0.9681008129030704;1.015;0.01646928071955752
52:17.3;0.057914218784905096;-0.29110257035254183;-0.9693364879091794;1.016;0.016342022474090438
52:17.3;0.05726660153898284;-0.2903724098132651;-0.9701699793310823;1.016;0.01613260838325917
52:17.3;0.05645251949630668;-0.28942580186461914;-0.9705925548797207;1.018;0.01585833289580693
52:17.3;0.05554184439393508;-0.2882911950608277;-0.9706112407671937;1.015;0.015541645279831562
52:17.3;0.05461126829221152;-0.28700507162263933;-0.970245121408463;1.011;0.015207341600689284
52:17.3;0.05373720774621713;-0.28560978694544126;-0.9695199133822159;1.0070000000000001;0.014880067973599476
52:17.3;0.0529898875257818;-0.28415141596123333;-0.9684622351624587;1.006;0.014582282666674
52:17.4;0.05242850979939412;-0.2826775857582441;-0.9670957785116604;1.006;0.014332712016481588
52:17.4;0.05209748309672544;-0.281235040098427;-0.9654411467411862;1.008;0.01414529394880944
52:17.4;0.0520236947575764;-0.2798666662197078;-0.963519540495851;1.0070000000000001;0.014028553542360711
52:17.4;0.05221482956204542;-0.27860815572416553;-0.9613587215823148;1.0070000000000001;0.013985344242568847
52:17.4;0.052659067392646135;-0.2774850367055311;-0.9589986847080337;1.005;0.01401298779596401
52:17.4;0.05332673838453055;-0.2765109311840728;-0.9564945179095019;1.0;0.014103919217140088
52:17.4;0.054174025311214034;-0.2756875376412629;-0.9539149308382904;0.992;0.014246818357877618
52:17.4;0.055147893128135575;-0.27500646137784757;-0.9513366179909323;0.9890000000000001;0.014427996778992789
52:17.4;0.05619102518133929;-0.27445265212287717;-0.9488363506732865;0.985;0.014632741553068769
52:17.4;0.05724592529853015;-0.2740086270735772;-0.9464834891607751;0.9840000000000001;0.014846423968888545
52:17.5;0.058257911483472084;-0.27365824391595134;-0.9443351027776271;0.982;0.015055305779139666
52:17.5;0.05917701757722724;-0.27338910446509707;-0.9424346964394993;0.982;0.015247040105554931
52:17.5;0.059959101432966434;-0.2731934126927988;-0.9408144195930529;0.9840000000000001;0.015410946194308682
52:17.5;0.06056690759416051;-0.27306753957670016;-0.939499741195433;0.9840000000000001;0.015538251341766528
52:17.5;0.06097183774935241;-0.27301063253034685;-0.9385148538122866;0.983;0.015622480707038375
52:17.5;0.06115633876579192;-0.2730228422196713;-0.9378867797024457;0.983;0.015659968180876407
52:17.5;0.0611159225312156;-0.2731040173651588;-0.9376465855895292;0.9790000000000001;0.015650262880893526
52:17.5;0.06085993510244839;-0.2732533939971278;-0.9378271895727329;0.977;0.015596238558854881
52:17.5;0.060411132021163716;-0.27346992824017546;-0.9384585537276922;0.978;0.015503924602058934
52:17.5;0.059804767923488;-0.27375242272925915;-0.9395618907595399;0.98;0.015382225510126819
52:17.6;0.059087606123574846;-0.27409899692800305;-0.9411443201192782;0.981;0.015242635596276156
52:17.6;0.05831638968701773;-0.27450618225739276;-0.9431945791700792;0.983;0.015098856418862812
52:17.6;0.057554738708808714;-0.27496816264562335;-0.945679835244534;0.985;0.014966064995561948
52:17.6;0.0568676811324974;-0.2754763500165908;-0.9485436411626119;0.987;0.01485960128823982
52:17.6;0.056314032283065724;-0.27601916488363626;-0.9517052807313199;0.991;0.014793071014956109
52:17.6;0.055938048372724716;-0.2765819297280951;-0.9550608410922532;0.9940000000000001;0.01477617926288632
52:17.6;0.05576240227996465;-0.27714695357186386;-0.9584862395889917;0.997;0.014812810490618191
52:17.6;0.055784196102628615;-0.27769398197241857;-0.9618422271516458;1.001;0.014899835947063282
52:17.6;0.05597481523372494;-0.27820122039686507;-0.96498125548295;1.005;0.015026940848149546
52:17.6;0.05628349163556505;-0.27864704466194945;-0.9677560284595823;1.0090000000000001;0.015177539030623473
52:17.7;0.05664372486022443;-0.27901225611346786;-0.9700294031332171;1.012;0.015330629359630333
52:17.7;0.05698139009704673;-0.2792824940272562;-0.9716850396037453;1.014;0.015463303156996105
52:17.7;0.05722354913456237;-0.2794503575332792;-0.9726379651463584;1.0190000000000001;0.015553591100334824
52:17.7;0.05730727915099602;-0.2795169167525871;-0.9728439481541725;1.022;0.015583358724715501
52:17.7;0.0571876860581469;-0.2794924072633304;-0.9723060558152024;1.022;0.01554087721950971
52:17.7;0.056843848552068324;-0.2793957890581922;-0.9710764055397753;1.015;0.015422569361230497
52:17.7;0.056281418518920226;-0.2792527397487693;-0.9692518527732151;1.0090000000000001;0.015233479673121652
52:17.7;0.05553117329858995;-0.27909202388191584;-0.966964231252933;1.0070000000000001;0.0149863090404318
52:17.7;0.054643776307831717;-0.2789408856938383;-0.9643674005437118;1.003;0.014699257619902185
52:17.7;0.053682094476521086;-0.27882054146198687;-0.9616235224976148;1.0;0.014393264172842006
52:17.8;0.052712956187736186;-0.2787429391371519;-0.9588900791736499;0.995;0.014089321293754087
52:17.8;0.05179972511283208;-0.2787098793553851;-0.956308428336134;0.9940000000000001;0.013806315760050265
52:17.8;0.05099626726457572;-0.27871496922495825;-0.9539946039754369;0.992;0.013559528904437238
52:17.8;0.05034267347385574;-0.278747653405801;-0.9520330680444452;0.992;0.013359786836985426
52:17.8;0.04986308597034836;-0.2787977695093318;-0.9504737807434888;0.99;0.013213217657802727
52:17.8;0.04956568395593523;-0.2788593787035504;-0.9493324778113976;0.988;0.013121536645864032
52:17.8;0.04944472285457573;-0.27893329768865555;-0.9485938211483014;0.99;0.013082796910372438
52:17.8;0.04948455972784005;-0.27902799978377807;-0.9482170912366965;0.99;0.013092581183669263
52:17.8;0.049665092424400745;-0.2791586166462878;-0.9481439207547395;0.99;0.013145483075424342
52:17.8;0.04996697972624964;-0.2793442320420265;-0.9483072147752887;0.991;0.013236460324993694
52:17.9;0.050374584697253595;-0.2796043004722802;-0.9486402187246314;0.9940000000000001;0.013361550538088405
52:17.9;0.050875625556116785;-0.27995504679151045;-0.9490847112293407;0.9940000000000001;0.013517707370884546
52:17.9;0.051458363899825346;-0.2804060326212258;-0.9495973643283374;0.9940000000000001;0.013701964158018776
52:17.9;0.05210831088850663;-0.28095675351267985;-0.9501535226812842;0.993;0.013910420365324404
52:17.9;0.0528060847058343;-0.2815938014774251;-0.9507480925679501;0.993;0.014137496863122908
52:17.9;0.053526933521048384;-0.2822898369269629;-0.9513937243845503;0.996;0.014375663195947486
52:17.9;0.05424182387585345;-0.2830051055113227;-0.9521167358302572;0.995;0.014615670839072586
52:17.9;0.05491999160856162;-0.2836909232909756;-0.9529512748028074;0.993;0.014847269726274738
52:17.9;0.05553260440573124;-0.2842939885708263;-0.9539324720705347;0.995;0.015060290561561563
52:17.9;0.05605662542818673;-0.2847609282831883;-0.9550897334359586;1.0;0.015245845933363322
52:18.0;0.05647785292660288;-0.2850429429741529;-0.9564411030429923;1.0;0.015397375568337182
52:18.0;0.05679241185154643;-0.2851001413689861;-0.9579887631906076;0.9990000000000001;0.015511298671287746
52:18.0;0.057006032434933206;-0.2849049897949798;-0.9597153214088985;1.001;0.015587027414280788
52:18.0;0.05713068578408939;-0.28444468979679305;-0.9615810513096845;1.001;0.015626192294142544
52:18.0;0.05717937159120865;-0.2837224581748273;-0.9635229425528393;1.003;0.015631301940369716
52:18.0;0.057161113085981846;-0.2827573765334066;-0.9654565636480075;1.005;0.015604410266080285
52:18.0;0.057077999000988665;-0.2815825687033171;-0.967281280714574;1.008;0.015546308770506863
52:18.0;0.056924896324261655;-0.28024219022559355;-0.9688885368521806;1.012;0.01545644399334217
52:18.0;0.05669162748398219;-0.2787881263815951;-0.9701720084713573;1.016;0.015333522615287195
52:18.0;0.05636712985689079;-0.27727682329833286;-0.9710378340936527;1.014;0.015176640363064492
52:18.1;0.0559447413928723;-0.27576604166918156;-0.9714130825663242;1.013;0.014986630646759112
52:18.1;0.055427185319737705;-0.2743113375028878;-0.9712513830903565;1.013;0.014767202589507285
52:18.1;0.05482970642611934;-0.27296245944585507;-0.9705357483141377;1.008;0.014525476222433439
52:18.1;0.05418049281167303;-0.2717600720721431;-0.9692793296729095;1.008;0.014271760574368233
52:18.1;0.053518440144205294;-0.27073334578522473;-0.9675248918434924;1.0090000000000001;0.014018687168254874
52:18.1;0.0528888281147123;-0.2698989752434765;-0.9653432876956421;1.0070000000000001;0.01377992840058639
52:18.1;0.05233773417123787;-0.2692618068360108;-0.9628304384211299;1.003;0.013568738856995553
52:18.1;0.051906411684377186;-0.26881671367585513;-0.9601019834372029;0.9990000000000001;0.013396601574009199
52:18.1;0.05162705093423873;-0.2685511948781525;-0.9572853303916055;0.993;0.013272288414106923
52:18.2;0.05152083314890794;-0.26844835192332395;-0.9545098572197735;0.991;0.013201523015561751
52:18.2;0.051598386790903034;-0.2684899571568823;-0.9518967719076395;0.986;0.01318724343750553
52:18.2;0.051862190546059735;-0.26865925500983906;-0.9495503320871882;0.985;0.013230329262711012
52:18.2;0.05231003489114936;-0.2689432051035001;-0.9475517991776652;0.986;0.013330564682484168
52:18.2;0.052938218142876456;-0.26933394442028674;-0.9459567221290316;0.986;0.013487506852998246
52:18.2;0.05374295858904755;-0.2698291563917268;-0.9447951355202233;0.9840000000000001;0.013700868407997693
52:18.2;0.05471898871604342;-0.2704311858797703;-0.9440735474334551;0.9840000000000001;0.01397013696653976
52:18.2;0.05585559998492357;-0.2711452613301335;-0.9437775707084722;0.982;0.014293493616951671
52:18.2;0.05713192522056886;-0.2719774837272425;-0.9438745345879285;0.9840000000000001;0.01466648625880375
52:18.2;0.058514014351102;-0.27293298895557583;-0.9443159371885691;0.985;0.015081107806811258
52:18.2;0.059955624798451;-0.274014298905817;-0.945039857491471;0.983;0.01552577488411447
52:18.3;0.06140272754137484;-0.27521972696763836;-0.9459736253167702;0.983;0.015986237133767
52:18.3;0.06279974431844632;-0.2765416998455969;-0.9470375592745405;0.985;0.016446962679833983
52:18.3;0.06409501769339497;-0.2779648394564771;-0.9481510338258363;0.992;0.01689241175834648
52:18.3;0.06524414076637705;-0.27946373798750707;-0.949241428122275;0.998;0.017307871564511145
52:18.3;0.06621119340834089;-0.281000818270944;-0.9502544621159839;1.002;0.01767986391944977
52:18.3;0.06696852879878133;-0.2825254608579203;-0.9511624295857408;1.002;0.01799629227206195
52:18.3;0.06749567568921133;-0.28397600982063603;-0.9519665595377;0.9990000000000001;0.01824648837613018
52:18.3;0.06777785447007513;-0.28528549344639637;-0.9526915884530873;0.996;0.018421281382750013
52:18.3;0.0678047301134565;-0.2863900919033208;-0.9533735711343834;0.991;0.01851318278241432
52:18.4;0.06756993893320688;-0.2872379006052918;-0.95404453741797;0.99;0.01851671403369645
52:18.4;0.06707142953897276;-0.2877954452850171;-0.9547187929908265;0.992;0.01842879549595833
52:18.4;0.06631221414818403;-0.2880504850808775;-0.9553850322244085;0.995;0.018249063109549792
52:18.4;0.06530114955083294;-0.28801103554514346;-0.9560062921073567;0.9990000000000001;0.017980042167934262
52:18.4;0.06405356222718536;-0.2877016705788658;-0.9565271885841558;1.002;0.017627186115753292
52:18.4;0.06259155727389942;-0.28715873975333217;-0.9568859402962472;1.005;0.017198792983268117
52:18.4;0.060943932699990364;-0.28642596279353655;-0.9570279316269524;1.005;0.016705807414592443
52:18.4;0.059145876127606155;-0.2855510625545295;-0.9569179661592422;1.004;0.016161548076376684
52:18.4;0.05723869348542159;-0.2845833151025516;-0.9565494343538028;1.003;0.015581403183392628
52:18.4;0.05526957344829078;-0.2835716279814912;-0.9559496457221552;1.005;0.014982486875367932
52:18.5;0.05329105459789893;-0.28256280486752766;-0.9551810209592229;1.003;0.014383182544012368
52:18.5;0.05135959856387991;-0.281599702842064;-0.954337729471809;1.001;0.013802441229679609
52:18.5;0.049532676857787554;-0.2807190845823084;-0.9535373077005437;0.996;0.013258714761083092
52:18.5;0.04786435640278269;-0.2799492201958643;-0.9529074670504036;0.988;0.012768568651862856
52:18.5;0.046400427118457974;-0.2793076980397319;-0.9525697255197259;0.988;0.012345300295897962
52:18.5;0.04517484932181511;-0.2788002491721574;-0.9526228578060894;0.987;0.011998055547482313
52:18.5;0.044208916186516324;-0.27842124149963676;-0.9531293736417923;0.988;0.011731784789009905
52:18.5;0.04351322485094544;-0.27815579978986815;-0.9541071707268725;0.99;0.011547994026460114
52:18.5;0.043091171303632464;-0.27798287713175246;-0.9555271247528833;0.993;0.01144588464861756
52:18.5;0.04294188099839828;-0.277878521144776;-0.9573163520514718;0.998;0.011423298363205426
52:18.6;0.043060801979679465;-0.2778187988436945;-0.9593661380169884;0.9990000000000001;0.0114769933174426
52:18.6;0.04343775456466689;-0.2777820142044448;-0.9615431180102302;0.9990000000000001;0.011602197489402371
52:18.6;0.04405408257635182;-0.27775003213717686;-0.963702501925339;1.006;0.011791885835466977
52:18.6;0.0448813386178752;-0.2777088059880437;-0.9657024574917925;1.015;0.01203646034526879
52:18.6;0.04588302225195006;-0.2776484524223362;-0.9674181612804289;1.015;0.012324278669688311
52:18.6;0.04701882014740344;-0.27756328855139656;-0.968752858378875;1.014;0.012642901324512913
52:18.6;0.04824936295174737;-0.277452082110205;-0.969643375530423;1.012;0.012980505533915249
52:18.6;0.049539892308912946;-0.2773183863045895;-0.9700594125059112;1.0090000000000001;0.013326989531222575
52:18.6;0.05086234620354743;-0.27717052511452644;-0.9699980858354559;1.005;0.013674589924602897
52:18.6;0.05219586438988302;-0.2770208983793049;-0.9694764160511403;1.006;0.014017994206539383
52:18.7;0.053525812616755666;-0.2768846040547614;-0.9685245904786294;1.0090000000000001;0.014353992962492337
52:18.7;0.05484169858645074;-0.27677747418473964;-0.9671818613879694;1.0070000000000001;0.014680802034207251
52:18.7;0.05613462085309994;-0.2767135897058543;-0.965495269143563;1.004;0.014997243128355492
52:18.7;0.05739492288231017;-0.2767025899276247;-0.963520258199676;1.004;0.01530197721818693
52:18.7;0.05861072731691185;-0.27674745214339974;-0.9613222281936891;1.005;0.015593001704900947
52:18.7;0.05976790716929851;-0.2768433625247698;-0.958978195111148;1.004;0.015867587316464815
52:18.7;0.060851384838803146;-0.2769778744508814;-0.9565773905184046;1.0;0.016122621413041535
52:18.7;0.06184679833808445;-0.2771322696896326;-0.9542195048556983;0.998;0.016355077647977556
52:18.7;0.06274146687267036;-0.2772840207217858;-0.9520099314005754;0.9940000000000001;0.016562313081439472
52:18.7;0.06352442947278528;-0.27741011330558774;-0.9500522962649242;0.991;0.016742124800304566
52:18.8;0.06418634754635046;-0.27749064265839735;-0.9484392699852485;0.986;0.016892756953736154
52:18.8;0.06472016693676148;-0.27751198313882536;-0.9472431675312657;0.985;0.01701307635636611
52:18.8;0.06512242376036889;-0.2774691391783641;-0.9465080897563477;0.986;0.017102892776433183
52:18.8;0.06539421589820602;-0.2773671910804901;-0.946245076680647;0.985;0.01716319189015426
52:18.8;0.06554122462922927;-0.2772216643003252;-0.9464310225871398;0.987;0.017196128656121776
52:18.8;0.0655730831474677;-0.2770574355381099;-0.9470113761669148;0.9890000000000001;0.017204838890164036
52:18.8;0.065502670688123;-0.27690595791183487;-0.9479060588333383;0.99;0.017193195712124056
52:18.8;0.06534553531435722;-0.2768010711628996;-0.9490175490932133;0.991;0.017165558171002075
52:18.8;0.06511921883403644;-0.2767739801822722;-0.950239986820144;0.991;0.01712646546965118
52:18.8;0.0648420612741845;-0.27684807861012667;-0.9514685663308907;0.993;0.01708019289477943
52:18.9;0.06453121292993368;-0.2770343866671326;-0.9526088893844828;0.997;0.017030136812941594
52:18.9;0.0642000335137666;-0.2773284293857917;-0.9535857463813211;1.0;0.01697811213942806
52:18.9;0.06385536863334296;-0.2777093640370565;-0.9543500344910453;1.001;0.016923712301568174
52:18.9;0.06349510953289189;-0.2781420465915396;-0.9548819570801514;1.002;0.016863845311061967
52:18.9;0.06310646396882409;-0.27858214524263203;-0.9551890394701699;0.998;0.016792542453157616
52:18.9;0.0626658825512443;-0.27898330257175225;-0.9552988653672263;0.9940000000000001;0.016701236787425147
52:18.9;0.06214184550046886;-0.2793045727537379;-0.9552482123227408;0.9890000000000001;0.016579767132872257
52:18.9;0.0615008575881314;-0.2795166187919997;-0.9550717568665485;0.991;0.016418172273638544
52:18.9;0.06071555192900625;-0.27960589282684;-0.9547939589995657;0.9940000000000001;0.01620898909101428
52:18.9;0.05977277069334721;-0.279576392280676;-0.9544265307075691;0.997;0.01594947480842487
52:19.0;0.05867901420405887;-0.27944873833846057;-0.9539715177095831;0.9990000000000001;0.015643011721668418
52:19.0;0.0574609247885393;-0.2792567645318643;-0.9534279235879213;1.0;0.015299040014610531
52:19.0;0.05616018939871274;-0.2790422952011238;-0.9527989504922206;0.9990000000000001;0.01493137728521785
52:19.0;0.05482486929624403;-0.2788489409055002;-0.952097297736633;0.991;0.014555527088948828
52:19.0;0.053500691987384344;-0.27871588396062685;-0.9513472779128268;0.991;0.014186007951488385
52:19.0;0.05222519360651806;-0.2786730163501201;-0.9505842143327636;0.992;0.013834567130856831
52:19.0;0.05102581149148668;-0.2787385894836177;-0.9498524814377103;0.9940000000000001;0.013509621450013817
52:19.0;0.049921532788977416;-0.2789192162164451;-0.9492030354389172;0.991;0.013216774063774155
52:19.0;0.04892670523160687;-0.27921094852864575;-0.9486903762164193;0.987;0.012959937584711064
52:19.0;0.048054882032896186;-0.27960060250629104;-0.9483688864634976;0.988;0.012742449346037299
52:19.1;0.04732072856827039;-0.2800675577355984;-0.9482892427952592;0.99;0.01256767816962486
52:19.1;0.046739485749209636;-0.2805861899148192;-0.94849585795485;0.991;0.012439005511702345
52:19.1;0.04632498306530403;-0.28112828908434195;-0.949025603959141;0.991;0.012359410253328176
52:19.1;0.04608730194904783;-0.2816648586078764;-0.9499071534614544;0.996;0.012330909460726958
52:19.1;0.04603060151339125;-0.2821674663440781;-0.9511598340545903;0.996;0.012353985610121875
52:19.1;0.046151673860294416;-0.28260951612630747;-0.9527908788863992;0.995;0.01242715826759091
52:19.1;0.046440033602143264;-0.28296750255331693;-0.9547904786616382;0.993;0.012546921088014192
52:19.1;0.04687971869160821;-0.2832224370327688;-0.957125257949892;0.995;0.01270812358213501
52:19.1;0.04745198588337557;-0.28336184257869457;-0.9597320991736978;0.996;0.01290463665125468
52:19.1;0.04813790188582826;-0.2833821598721358;-0.9625147500842983;0.998;0.013130070472447929
52:19.2;0.04892047139871373;-0.28329053445856556;-0.9653452725639058;1.002;0.013378436792530556
52:19.2;0.04978640846587727;-0.2831048606601453;-0.9680714730838686;1.01;0.01364474885307398
52:19.2;0.05072742649565269;-0.2828517766392311;-0.9705300470472836;1.016;0.013925497724058551
52:19.2;0.05174048593653465;-0.2825631942480668;-0.9725634164551065;1.0190000000000001;0.014218835307119978
52:19.2;0.05282643169687906;-0.2822722532869678;-0.9740369905980583;1.022;0.014524290157507409
52:19.2;0.05398689501080174;-0.2820093834967961;-0.9748535976601959;1.023;0.014841961756479508
52:19.2;0.055219883443208446;-0.28179883854300836;-0.9749628431791887;1.02;0.015171298349770523
52:19.2;0.056514967158521424;-0.28165595139700406;-0.9743644127698705;1.02;0.015509715286430106
52:19.2;0.05784937355596995;-0.28158543169740297;-0.9731054435636141;1.0170000000000001;0.01585144085110956
52:19.2;0.059186448358857294;-0.28158096147234096;-0.9712728001735055;1.013;0.01618701592787127
52:19.3;0.060477489913923294;-0.28162605885668224;-0.9689814371154146;1.008;0.016503727819109304
52:19.3;0.06166684090180244;-0.2816959918551855;-0.9663604650892116;1.003;0.01678693939528083
52:19.3;0.06269890029421946;-0.2817605360724246;-0.9635391953254909;1.001;0.017021956420471406
52:19.3;0.0635251933873444;-0.28178727224091454;-0.9606357254277847;0.998;0.017195947185516182
52:19.3;0.0641099454989724;-0.28174491940239077;-0.957750013606399;0.998;0.01729950465045543
52:19.3;0.06443325622198824;-0.281606287214508;-0.9549620731419666;0.998;0.017327605429578414
52:19.3;0.06449165644022356;-0.2813507565333598;-0.9523345443977422;0.996;0.01727989729899753
52:19.3;0.0642964976327133;-0.2809663200663161;-0.949917973962107;0.996;0.0171604110036595
52:19.3;0.06387103391820594;-0.28045104358022394;-0.9477568535461403;0.9940000000000001;0.016976882405803292
52:19.3;0.06324705320989002;-0.27981368067379;-0.9458947032411054;0.991;0.01673986817202022
52:19.4;0.06246172975197989;-0.27907339865831626;-0.9443769604765464;0.9890000000000001;0.016461819355884397
52:19.4;0.061555223066728636;-0.2782589697798427;-0.9432510244693083;0.988;0.016156279877323907
52:19.4;0.06056938356895765;-0.27740780853543245;-0.942563314147995;0.988;0.01583734464339873
52:19.4;0.05954759091805894;-0.2765647918034573;-0.942353483276929;0.981;0.015519400027496752
52:19.4;0.05853517243422404;-0.2757803828027811;-0.9426463626479523;0.981;0.015217000966912695
52:19.4;0.057579296431507915;-0.27510753252038644;-0.9434431257798624;0.978;0.01494460910319972
52:19.4;0.056727326663121636;-0.27459708127240745;-0.9447140880186192;0.978;0.014715960925722804
52:19.4;0.05602353447119799;-0.27429187010912565;-0.9463956445574337;0.982;0.014543072628856742
52:19.4;0.05550492730089339;-0.2742205456685317;-0.9483929343987599;0.986;0.014435101390203384
52:19.4;0.055196928416438494;-0.27439284728036256;-0.950588109027172;0.9940000000000001;0.014397267520839018
52:19.5;0.05510931324143705;-0.27479820414356715;-0.9528521403931269;1.0;0.014429935938685799
52:19.5;0.05523309661838198;-0.27540822487105515;-0.9550568579901986;0.9990000000000001;0.014527989788374138
52:19.5;0.05553948739764629;-0.27618204618112513;-0.9570841752406348;0.997;0.01468072303937614
52:19.5;0.05598169886551826;-0.27707287755180243;-0.9588313031613316;1.0;0.01487244231029823
52:19.5;0.05649957652234229;-0.27803424463504856;-0.9602129852587936;1.0;0.015083810143837232
52:19.5;0.057026292076617524;-0.2790245635988196;-0.961162850732609;0.9990000000000001;0.015293769784090961
52:19.5;0.05749581697921525;-0.28000917557934607;-0.961635634170494;1.003;0.015481714716452818
52:19.5;0.05784953412844139;-0.28096021310522873;-0.9616110710776664;1.008;0.015629466150040103
52:19.5;0.058040592543942025;-0.2818555095467129;-0.9610990535130829;1.0090000000000001;0.015722677837658728
52:19.5;0.05803570961873954;-0.28267738296985856;-0.9601442674568996;1.008;0.015751533976085717
52:19.6;0.05781540618668464;-0.2834114962685447;-0.9588278801538054;1.0070000000000001;0.01571092291449839
52:19.6;0.05737413674291485;-0.2840459899023099;-0.9572643893214974;1.004;0.015600435771502646
52:19.6;0.056721210757144744;-0.28457124876831535;-0.9555929041354134;0.9990000000000001;0.015424440816368677
52:19.6;0.055882231114682095;-0.28498056228043767;-0.9539633654023294;0.9940000000000001;0.015192200142121297
52:19.6;0.054899758722159415;-0.28527169587276635;-0.9525195747927369;0.9890000000000001;0.014917739845803359
52:19.6;0.053831805390484155;-0.2854489684283442;-0.9513821906949359;0.987;0.014619160716189083
52:19.6;0.05274759189785096;-0.2855248744607829;-0.9506353595659215;0.987;0.01431728106830493
52:19.6;0.05172096360953571;-0.28552014378292184;-0.9503198752909789;0.99;0.014033731837070726
52:19.6;0.05082234602617675;-0.28546165371319193;-0.9504339110462494;0.993;0.013788734503208605
52:19.6;0.05011045673170968;-0.2853784278992215;-0.9509402528708276;0.997;0.01359886722816346
52:19.7;0.049625377267984015;-0.2852966995551697;-0.9517773640248649;0.9990000000000001;0.013475222373579034
52:19.7;0.049384456600026154;-0.2852355165663698;-0.9528709436047207;1.0;0.013422331627868232
52:19.7;0.04938166679430459;-0.28520435469824984;-0.9541430840521724;0.9990000000000001;0.013438023733718408
52:19.7;0.04959015485421302;-0.2852034280636568;-0.9555175612980484;0.997;0.013514154480785587
52:19.7;0.04996723805646343;-0.28522612132298886;-0.956921625567834;0.998;0.013638010170002468
52:19.7;0.05046081024144457;-0.28526209198425;-0.9582859942985196;1.0;0.013794101689430995
52:19.7;0.05101601251554242;-0.2852997429604315;-0.9595449016606994;1.002;0.01396603715679192
52:19.7;0.05158110613736419;-0.28532763892523083;-0.9606372076744427;1.004;0.014138192731884403
52:19.7;0.052111869182835495;-0.2853352100170633;-0.961508585486037;1.004;0.014297008779472521
52:19.7;0.052574581748692915;-0.28531329334921085;-0.9621143394454723;1.006;0.014431933554344757
52:19.8;0.052948216612003544;-0.2852548483306279;-0.9624224014484031;1.0070000000000001;0.014536173389822089
52:19.8;0.05322623594928495;-0.28515586242541335;-0.9624160897101064;1.0070000000000001;0.014607333148834783
52:19.8;0.053417704054448206;-0.2850161990355517;-0.9620961131590714;1.008;0.01464782766820421
52:19.8;0.0535468101107206;-0.28484000985133234;-0.9614812363966779;1.006;0.014664775185928859
52:19.8;0.05364958898099358;-0.2846353906269238;-0.9606071417048196;1.005;0.01466902024886143
52:19.8;0.05376699348403635;-0.2844131581424945;-0.9595233524737027;1.001;0.014673069890558308
52:19.8;0.05393491660679571;-0.28418489197419644;-0.9582885546736594;0.9990000000000001;0.014688156753086446
52:19.8;0.05417383823828925;-0.2839606104739872;-0.9569650958842758;0.997;0.014721220083959744
52:19.8;0.054481997431626274;-0.2837465593656921;-0.9556136309801474;0.996;0.014772906919252125
52:19.8;0.05483513140727972;-0.28354372618325596;-0.9542886706614698;0.996;0.014837430537565848
52:19.9;0.05519316337998899;-0.28334785294534054;-0.9530352563114702;0.996;0.014904389085627402
52:19.9;0.055511355033757814;-0.2831513787960458;-0.9518865256933363;0.9940000000000001;0.014961863511849886
52:19.9;0.055751926708360384;-0.28294669438017267;-0.9508619537710294;0.992;0.014999679367572325
52:19.9;0.055892402447420456;-0.2827291788902681;-0.9499665109901058;0.992;0.01501176319048843
52:19.9;0.05592841694918827;-0.2824986321148746;-0.9491913453084279;0.991;0.014996939717702103
52:19.9;0.055870863676868734;-0.2822587178097644;-0.9485164090646421;0.99;0.014958140141201318
52:19.9;0.05573943235617304;-0.28201503505021697;-0.9479148775296999;0.991;0.014900613284603957
52:19.9;0.0555557049755929;-0.28177291310162145;-0.9473587194802783;0.99;0.014830041338420885
52:19.9;0.055338512579959746;-0.281535985722809;-0.9468245923259524;0.991;0.014751321391745079
52:19.9;0.05510280895587399;-0.2813062338661241;-0.9462992444865678;0.992;0.014668360943092776
52:20.0;0.05486166863104906;-0.2810857285042024;-0.9457835780859611;0.9940000000000001;0.014584769755034506
52:20.0;0.054629764903345195;-0.2808797728951332;-0.9452943336702062;0.9940000000000001;0.014504970553980798
52:20.0;0.05442645854659654;-0.2807003302900171;-0.944862314657539;0.99;0.014435157530319057
52:20.0;0.0542772391531527;-0.28056790875977666;-0.9445266902361139;0.985;0.014383678876143825
52:20.0;0.05421271566289774;-0.2805103626404669;-0.9443262465151122;0.982;0.014360585037938356
52:20.0;0.05426449620551754;-0.28055834989609;-0.9442898295797963;0.98;0.0143762059617551
52:20.0;0.05445804991792645;-0.280738373755443;-0.9444288419976006;0.98;0.014438866702629201
52:20.0;0.05480414992692249;-0.2810648563129955;-0.9447342312335153;0.982;0.014552233121065846
52:20.0;0.0552914301622671;-0.2815330002980428;-0.9451791252283271;0.986;0.014713000630201013
52:20.0;0.05588208952349017;-0.2821145564067641;-0.9457264756959257;0.993;0.014909520596636644
52:20.1;0.05651177824793989;-0.28275838446378726;-0.9463392835148455;0.995;0.015121724920109231
52:20.1;0.057094272204499114;-0.2833963548103981;-0.9469899776950078;0.995;0.015322590102284482
52:20.1;0.05753126298775847;-0.2839533402031018;-0.947666001664665;0.993;0.015481255926621229
52:20.1;0.05772655782780113;-0.2843589469183422;-0.9483704696808712;0.9940000000000001;0.01556756119031397
52:20.1;0.05760233290505272;-0.2845584965772023;-0.9491186834641999;0.995;0.015557225723355158
52:20.1;0.05711383360093684;-0.28452114963186953;-0.9499321725170277;0.995;0.015436486713274073
52:20.1;0.05625887408423417;-0.28424383548920396;-0.9508316907202988;0.993;0.015204976006882002
52:20.1;0.0550797843086016;-0.28375082095791626;-0.951830082213677;0.993;0.014876089549124085
52:20.1;0.053657593744233886;-0.2830897767006468;-0.9529257423191438;0.992;0.01447486220052404
52:20.1;0.05210019220489621;-0.28232557885989856;-0.9540975592366114;0.9890000000000001;0.014034027964477325
52:20.2;0.05052707702792862;-0.2815329455494205;-0.9553025482618196;0.992;0.013589213928685747
52:20.2;0.04905330675555121;-0.28078874044983065;-0.9564775532103006;0.995;0.013174154739806347
52:20.2;0.04777516929009914;-0.28016458420492824;-0.9575457878438399;0.9990000000000001;0.012816664611991766
52:20.2;0.046759769426773956;-0.2797203556974067;-0.9584275095385666;1.003;0.012535905323385232
52:20.2;0.04603988037596974;-0.27949911568854907;-0.9590526252498658;1.003;0.012341190698864767
52:20.2;0.045614270156455736;-0.27952376645374255;-0.9593725254232986;1.003;0.012232261222342845
52:20.2;0.04545273866456031;-0.27979547261211984;-0.9593690811179467;1.005;0.012200747984051205
52:20.2;0.0455044277306595;-0.2802937629713928;-0.9590597432165565;1.004;0.012232430383251258
52:20.2;0.0457076899391377;-0.2809783391949874;-0.9584982490508465;1.003;0.012309869181811735
52:20.2;0.04599994293106157;-0.28179272434333796;-0.9577707095239161;1.001;0.012415054204021234
52:20.3;0.04632634837567558;-0.2826697512900569;-0.956987340911484;1.0;0.012531804134976596
52:20.3;0.04664657537223355;-0.2835384516446411;-0.9562707269326044;0.998;0.012647730115198841
52:20.3;0.04693901924494233;-0.2843314292460999;-0.9557419306240943;0.995;0.012755559683012212
52:20.3;0.04720171805989358;-0.28499165756933603;-0.9555060911975497;0.9940000000000001;0.012853559543167511
52:20.3;0.04744954802825654;-0.28547777664846014;-0.9556394124746291;0.9940000000000001;0.012944892205794608
52:20.3;0.047708385900648874;-0.2857670856260732;-0.9561793906555763;0.997;0.013036058717270227
52:20.3;0.04800788734401513;-0.28585568322470023;-0.9571194882374113;0.995;0.013134864133318129
52:20.3;0.04837453912972688;-0.28575594595026144;-0.9584085898334135;0.995;0.01324838114181277
52:20.3;0.04882615183507641;-0.28549243799457663;-0.9599551489372141;1.0;0.013381292039016992
52:20.3;0.049368651415633964;-0.2850976138614873;-0.9616358955908695;1.004;0.013534914371282939
52:20.4;0.04999578977008341;-0.2846080516392698;-0.963308587365841;1.0070000000000001;0.013707114709592749
52:20.4;0.05069171405972779;-0.284061164005146;-0.9648274494373862;1.01;0.013893078495691312
52:20.4;0.05143518635112258;-0.28349217301784246;-0.9660592819213747;1.016;0.01408656709253765
52:20.4;0.052203518593564924;-0.28293145016538773;-0.9668979335861532;1.015;0.014281099128482432
52:20.4;0.05297484268208351;-0.28240250042256276;-0.9672748527165014;1.013;0.014470652367140504
52:20.4;0.053728660676365406;-0.2819208747600223;-0.9671640397019046;1.012;0.014649857141246492
52:20.4;0.05444556126699402;-0.28149433044615646;-0.9665810452508286;1.01;0.014813934010309447
52:20.4;0.05510724506513245;-0.2811243164251759;-0.9655769750332724;1.006;0.014958705557528075
52:20.4;0.05569766875964412;-0.28080817704061284;-0.9642292306594731;1.003;0.015080893090161899
52:20.4;0.05620511897367843;-0.2805409816434131;-0.9626310554862559;1.003;0.015178611740215947
52:20.5;0.05662400978356397;-0.2803160836339773;-0.9608818479583687;1.001;0.015251713073818344
52:20.5;0.05695517645456415;-0.2801240543310386;-0.9590795070320648;0.998;0.015301648327036135
52:20.5;0.057204163580135164;-0.27995031635588424;-0.957315163233143;0.997;0.015330754898444985
52:20.5;0.057377599636455126;-0.2797726782771099;-0.9556700378209181;0.9990000000000001;0.015341069816741607
52:20.5;0.057478359139647134;-0.27956042778078977;-0.9542137352493039;0.9990000000000001;0.015332950076620017
52:20.5;0.05750110991073146;-0.2792760537553001;-0.9530027053869341;0.997;0.01530396840343651
52:20.5;0.05743017429577549;-0.2788796474541084;-0.9520773763374977;0.99;0.015248572903995969
52:20.5;0.05724081202258074;-0.27833545654957936;-0.9514573812134164;0.987;0.01515875938272019
52:20.5;0.056903841324829375;-0.277619707459105;-0.9511361950876864;0.987;0.015025695579886431
52:20.5;0.0563927036898698;-0.2767281174301711;-0.9510779551077189;0.987;0.014841996363460024
52:20.6;0.05569143408426586;-0.2756809513466149;-0.951219115389229;0.99;0.014604131314595271
52:20.6;0.05480144109245824;-0.27452393486039944;-0.9514760850297768;0.9940000000000001;0.014314298559193217
52:20.6;0.0537451331808551;-0.2733246279572044;-0.9517579859506968;0.997;0.01398119968710462
52:20.6;0.05256547910744903;-0.2721650187956168;-0.9519818970081013;0.998;0.01361951435785907
52:20.6;0.05132188309835728;-0.2711318391806929;-0.9520870366548635;0.998;0.013248287834802325
52:20.6;0.05008361258848852;-0.27030662332931543;-0.9520445884614909;0.997;0.012888715092756083
52:20.6;0.0489223930709491;-0.26975746473380346;-0.9518610940744772;0.992;0.012561882882197698
52:20.6;0.04790571152720543;-0.26953355550810143;-0.9515750881994799;0.9890000000000001;0.012286924767960892
52:20.6;0.04709169847394201;-0.26966262486423753;-0.9512484209598502;0.986;0.012079781005556043
52:20.6;0.04652555484239737;-0.27015088497005524;-0.9509548724094402;0.987;0.011952475538423896
52:20.7;0.046237123975944934;-0.2709847738046748;-0.9507687512126163;0.987;0.011912710864716094
52:20.7;0.04623940421270943;-0.2721335254062822;-0.9507553481420941;0.987;0.011963632243331059
52:20.7;0.04652792598569159;-0.27355181968899905;-0.9509640599991478;0.988;0.012103679240473262
52:20.7;0.04708088541230225;-0.27518251062776;-0.9514242808794988;0.9890000000000001;0.012326497187667724
52:20.7;0.04786006488831994;-0.276959912360913;-0.9521438786725946;0.991;0.01262097120471477
52:20.7;0.04881280005382919;-0.27881375477680675;-0.9531100318417319;0.9940000000000001;0.012971522599324126
52:20.7;0.049875286418964895;-0.280673291719528;-0.9542921240473979;0.996;0.013358811762645879
52:20.7;0.05097727899593367;-0.28247095293466307;-0.955646167353464;0.9990000000000001;0.013760923101872808
52:20.7;0.052047789786317245;-0.2841451813088209;-0.9571200186450107;1.003;0.014154971104120909
52:20.7;0.05302098900257653;-0.2856422470393955;-0.9586585463464342;1.005;0.01451891669960765
52:20.8;0.053841413215225224;-0.28691700901432526;-0.9602077879118924;1.004;0.014833306462429464
52:20.8;0.0544676818784244;-0.287932932510131;-0.9617172729360746;1.006;0.015082649854538294
52:20.8;0.0548740855244638;-0.2886619417095085;-0.9631403998565811;1.005;0.015256201796338464
52:20.8;0.05504978578276098;-0.28908464108038073;-0.9644336355708217;1.008;0.015348042749336838
52:20.8;0.05499616139489486;-0.2891910583355461;-0.965555632918081;1.0090000000000001;0.015356581191182501
52:20.8;0.0547237124376235;-0.2889816048411417;-0.9664669760962349;1.011;0.015283850099102426
52:20.8;0.05424996363548831;-0.28846782070063076;-0.9671306294619176;1.01;0.015134983881801671
52:20.8;0.05359871480298204;-0.28767274411530136;-0.9675128516757092;1.011;0.014917973622519341
52:20.8;0.05279985534124517;-0.2866309548009326;-0.9675844577295665;1.012;0.014643493768383762
52:20.8;0.05188874541102171;-0.2853881055631547;-0.9673224583671278;1.01;0.014324527640454917
52:20.9;0.05090460727077124;-0.28399940165348714;-0.9667120466030956;1.0070000000000001;0.013975638124966178
52:20.9;0.0498878881188033;-0.28252659375865363;-0.9657489234981071;1.0070000000000001;0.013611897989919781
52:20.9;0.04887704498187978;-0.2810336120414461;-0.9644421455091344;1.0070000000000001;0.013247666518882475
52:20.9;0.04790565017888007;-0.2795815048062344;-0.9628175212225465;1.0070000000000001;0.012895528980732892
52:20.9;0.04700080781419903;-0.27822356185025626;-0.960920844488331;1.005;0.01256570451024441
52:20.9;0.04618333750307208;-0.27700149581729655;-0.9588195691331828;1.0;0.012266038348149655
52:20.9;0.04546934857057557;-0.27594344841118496;-0.9566016819543866;0.9990000000000001;0.01200245149727974
52:20.9;0.04487241711640035;-0.2750641856593177;-0.95437142412064;0.9940000000000001;0.011779610720276076
52:20.9;0.04440577366134204;-0.2743670740054964;-0.9522424086148876;0.992;0.011601628424410744
52:20.9;0.04408405908301021;-0.2738468903260633;-0.9503290963113677;0.992;0.011472641311829332
52:21.0;0.043923945598348675;-0.2734927226869692;-0.9487374612803245;0.988;0.0113970687737351
52:21.0;0.043942973105929505;-0.27329072771356566;-0.9475552735271259;0.9840000000000001;0.011379387516605513
52:21.0;0.044156888145577715;-0.2732267480076024;-0.9468424177909613;0.981;0.01142350506918982
52:21.0;0.044576725694527565;-0.2732888006650087;-0.9466223571128736;0.98;0.01153205638133117
52:21.0;0.04520670630277798;-0.27346928570264994;-0.9468766530907077;0.98;0.011705900566330397
52:21.0;0.046043062150603054;-0.273766367501276;-0.9475446019572118;0.9840000000000001;0.011943839384780067
52:21.0;0.04707333514106425;-0.27418374978401244;-0.9485292024524323;0.9890000000000001;0.012242423159874364
52:21.0;0.048275833344397064;-0.27472845673684454;-0.9497089729452736;0.993;0.012595748115100811
52:21.0;0.04961932349887595;-0.2754070648841868;-0.9509532851247323;0.995;0.01299526376359247
52:21.0;0.05106346303565908;-0.2762215381932684;-0.9521379049242827;0.998;0.013429741671815428
52:21.1;0.05256081565900953;-0.27716594710622544;-0.953157811073081;0.998;0.013885668047406954
52:21.1;0.05406106727247057;-0.2782247895553336;-0.953935646754901;0.997;0.014348269182563654
52:21.1;0.05551705072689383;-0.27937280063940817;-0.9544255814093284;0.998;0.014803096811409502
52:21.1;0.05689094530950991;-0.28057569363643936;-0.9546133815787038;0.997;0.015237745415044161
52:21.1;0.0581583118537447;-0.2817914149942133;-0.9545138681863223;0.997;0.015643062928805313
52:21.1;0.05930799674168047;-0.28297183187298974;-0.954166780709198;0.998;0.01601329682450432
52:21.1;0.06033749048653805;-0.2840648993914325;-0.9536316746636205;0.998;0.01634502104998575
52:21.1;0.06124531195963493;-0.2850172526676431;-0.952982049376329;0.997;0.016635226591934806
52:21.1;0.06202317089726783;-0.2857770828351534;-0.9522986203939849;0.995;0.01687930339355373
52:21.1;0.0626504616960659;-0.2862973038112599;-0.9516617396953182;0.993;0.017069631409850728
52:21.2;0.06309253510445041;-0.28653928610714585;-0.9511434721430172;0.991;0.017195237718808973
52:21.2;0.06330309152914777;-0.28647736943490654;-0.9508004651460682;0.992;0.017242674339338585
52:21.2;0.06323041988756274;-0.28610368832044186;-0.9506689946256228;0.9940000000000001;0.017198035944756943
52:21.2;0.06282674233912047;-0.28543194225148794;-0.9507631737818484;0.993;0.0170498069482041
52:21.2;0.06205910371344838;-0.2844983534186035;-0.9510766051427386;0.995;0.01679193541127681
52:21.2;0.06091923540089303;-0.28335856103514484;-0.9515871804239155;0.997;0.01642628542608827
52:21.2;0.059429515870586876;-0.28208041607992207;-0.9522641880176601;0.998;0.015963664063308396
52:21.2;0.05764323678685392;-0.2807340630499142;-0.953076166583059;1.0;0.015423078886849656
52:21.2;0.05563941350505403;-0.2793817744118761;-0.9539973151205671;1.0;0.014829542985474255
52:21.2;0.05351406830849893;-0.2780703231557742;-0.9550101846420364;0.998;0.01421119548020855
52:21.3;0.05137042326768044;-0.27682803614747226;-0.9561031637374413;0.995;0.01359652642826125
52:21.3;0.049309900979143256;-0.2756671544192537;-0.957262996187843;0.992;0.013012190862612058
52:21.3;0.0474248302370851;-0.2745902762471583;-0.9584646855784053;0.9890000000000001;0.01248150787206493
52:21.3;0.04579286591169716;-0.2735983123412359;-0.9596626734056996;0.99;0.012023470482899276
52:21.3;0.044472767705340185;-0.2726971104005876;-0.9607873307805992;0.996;0.011652039864003174
52:21.3;0.04350133307303641;-0.2719006842250462;-0.9617492371208786;1.002;0.011375610588701067
52:21.3;0.04289160014668565;-0.2712304133046839;-0.9624508256066533;1.006;0.011196677873147669
52:21.3;0.04263265625615165;-0.2707111756360681;-0.9628021248699212;1.0070000000000001;0.011111830741368992
52:21.3;0.04269140647804241;-0.2703665450582884;-0.9627360515158787;1.008;0.011112215354442768
52:21.3;0.0430164991392171;-0.27021526697451576;-0.9622193979193479;1.005;0.011184563855684539
52:21.4;0.043544374904880986;-0.27027003633135255;-0.9612575324509006;1.001;0.011312789768254564
52:21.4;0.044207066383687266;-0.2705379752710911;-0.9598929421134774;0.9990000000000001;0.011480022243673053
52:21.4;0.04494076710683189;-0.27102145177703413;-0.9581993568414184;0.996;0.011670783792340102
52:21.4;0.045693506384880116;-0.27171835301721414;-0.9562737193752308;0.9940000000000001;0.011872869104594804
52:21.4;0.04643020051489319;-0.27262173863866657;-0.9542277547168448;0.9940000000000001;0.01207850231051376
52:21.4;0.04713422034235305;-0.27371910823318474;-0.9521799784096203;0.992;0.012284584992992908
52:21.4;0.047805704239622424;-0.2749914133659571;-0.9502482387732952;0.988;0.01249211365319737
52:21.4;0.04845737945530673;-0.2764119121183511;-0.9485427561145698;0.985;0.012704968454362033
52:21.4;0.04910883923331635;-0.27794510773269065;-0.9471601880010984;0.985;0.012928321341921317
52:21.4;0.049780467843211613;-0.2795461049433985;-0.946179819140288;0.9840000000000001;0.013166977701514745
52:21.5;0.05048826971793457;-0.28116068709812453;-0.9456627353188233;0.99;0.013423981928729513
52:21.5;0.051240433216375184;-0.28272638197080485;-0.9456537021642464;0.995;0.01369970626554587
52:21.5;0.05203567181088693;-0.28417476686263937;-0.9461839050565398;0.995;0.013991434205940324
52:21.5;0.05286267450198918;-0.2854352239322842;-0.9472716468932489;0.993;0.014293258103902848
52:21.5;0.05369997196738282;-0.28644019256569647;-0.9489186977498668;0.99;0.014596106387827585
52:21.5;0.054516318700267775;-0.2871314668222895;-0.9511023243413413;0.9890000000000001;0.014887938095790733
52:21.5;0.055272410484141714;-0.2874664250493631;-0.9537656451539626;0.988;0.01515434632713245
52:21.5;0.05592447564301125;-0.28742292242368955;-0.9568103399943134;0.993;0.015379746656258577
52:21.5;0.05642933597861922;-0.2870020769051461;-0.9600954069259036;0.9990000000000001;0.015549068306553613
52:21.5;0.05674993258614708;-0.28622862352665834;-0.9634439196539818;1.006;0.01564965804001982
52:21.6;0.05686027032215506;-0.2851485729738172;-0.9666573776516134;1.012;0.01567302016795292
52:21.6;0.056748779936560384;-0.2838241937935839;-0.9695352325148777;1.0170000000000001;0.015615990553205684
52:21.6;0.056419250311126455;-0.28232713355457434;-0.9718961335101489;1.02;0.015481027574922986
52:21.6;0.05588924425540854;-0.2807311120935591;-0.9735973923190485;1.022;0.01527559674784854
52:21.6;0.05518704019344015;-0.2791054906613827;-0.9745498050952018;1.022;0.015010996428267207
52:21.6;0.05434861075479793;-0.27751043760806127;-0.9747259284162161;1.021;0.014701115453406131
52:21.6;0.05341556020470409;-0.2759938504590047;-0.9741609361151532;1.0190000000000001;0.0143614371949367
52:21.6;0.05243396957918693;-0.27458981039563585;-0.972946161929972;1.014;0.014008317101800918
52:21.6;0.0514534284622896;-0.2733182407390107;-0.9712163680195792;1.008;0.013658371709628374
52:21.6;0.050525361239882646;-0.27218568372000373;-0.969132713773635;1.004;0.013327784431429152
52:21.7;0.04970016695260141;-0.2711873866627027;-0.9668641325710726;1.0;0.013031451236480257
52:21.7;0.0490234992005882;-0.27031069692750803;-0.964569970745459;0.998;0.012782072501070647
52:21.7;0.048532522433026505;-0.2695391709254478;-0.9623861548351517;0.997;0.012589373508841734
52:21.7;0.04825281292235717;-0.26885647450640493;-0.9604160441546262;0.997;0.01245955529521632
52:21.7;0.04819619552312671;-0.26824936669315363;-0.9587259464021285;0.9940000000000001;0.012394983241076988
52:21.7;0.04835965480688743;-0.2677094016874982;-0.9573446355374846;0.991;0.01239410364810079
52:21.7;0.04872537824257628;-0.2672332337863294;-0.9562663681858218;0.993;0.012451583008743371
52:21.7;0.04926190351626042;-0.26682174216520854;-0.9554571815219997;0.995;0.012558669568340406
52:21.7;0.049926411353040545;-0.2664785165460083;-0.9548638316464365;0.995;0.012703810185492336
52:21.7;0.05066819420810795;-0.2662083912331697;-0.9544238327762475;0.995;0.012873553520342085
52:21.8;0.05143294285418963;-0.2660167981967436;-0.9540746677927924;0.9940000000000001;0.013053675154772442
52:21.8;0.05216725328825361;-0.26591051158151446;-0.9537607988923457;0.992;0.013230399088285891
52:21.8;0.05282322642489974;-0.26589953077078077;-0.9534381929758741;0.992;0.013391679291957411
52:21.8;0.053363467395626786;-0.2659989983142386;-0.9530769465350997;0.993;0.013528573544250994
52:21.8;0.05376614909969301;-0.2662299640173636;-0.9526627651010809;0.992;0.01363656718869526
52:21.8;0.054028581073581265;-0.26661815904006037;-0.9521977382567886;0.99;0.013716409201709868
52:21.8;0.05416741410936247;-0.2671902331904459;-0.9517006502198854;0.991;0.013773967324291059
52:21.8;0.054214796203503314;-0.2679674865404887;-0.9512070090608686;0.992;0.013818947727819296
52:21.8;0.054211530398586755;-0.26895828010521267;-0.9507685284029241;0.993;0.013862813614937389
52:21.8;0.05419919749331981;-0.27015148634177466;-0.950450970522009;0.992;0.013916497180853957
52:21.9;0.054212915340433446;-0.27151363263340633;-0.9503288647721174;0.993;0.013988409040744734
52:21.9;0.05427570875040914;-0.2729913139058785;-0.9504762019940036;0.987;0.014083012980997182
52:21.9;0.054395213470705646;-0.2745184290033153;-0.9509536438857802;0.985;0.014200104396316778
52:21.9;0.05456348688136498;-0.2760260102229305;-0.9517945455655328;0.986;0.014334922054267646
52:21.9;0.05476021560796742;-0.27745185998017463;-0.9529932354926854;0.986;0.01447913468534957
52:21.9;0.05495842505302694;-0.2787478877657671;-0.9544988050012314;0.99;0.014622487298747053
52:21.9;0.05513073117426737;-0.2798842252780534;-0.9562163881741051;0.997;0.014754631133999756
52:21.9;0.05525394606087778;-0.2808501670174854;-0.9580161260398484;1.002;0.014866570865606723
52:21.9;0.05531048118706159;-0.2816524024099732;-0.9597481087513374;1.004;0.014951272663624228
52:21.9;0.05528627889202775;-0.2823110318438531;-0.9612603416675165;1.0070000000000001;0.015003280703219666
52:22.0;0.055166677335603764;-0.2828539837653374;-0.9624167075643417;1.01;0.015017660458692968
52:22.0;0.05493296986651674;-0.28331089432117684;-0.9631124586201212;1.011;0.014989023999981636
52:22.0;0.054562432561080156;-0.2837078927279697;-0.9632853033232085;1.011;0.01491145686806557
52:22.0;0.05403286890279311;-0.28406454120923985;-0.9629207798113405;1.0070000000000001;0.014779699760248904
52:22.0;0.05333014042891236;-0.28439326827169037;-0.9620516883594058;1.0070000000000001;0.014591181026018767
52:22.0;0.052455373111274274;-0.2847004166532845;-0.9607526464017743;1.003;0.014347943988739608
52:22.0;0.05142870612807887;-0.28498742888700723;-0.9591315843550691;1.001;0.014057545377149226
52:22.0;0.05028825893655598;-0.28525126051060345;-0.9573199164948764;1.0;0.013732552447459927
52:22.0;0.049085058118747985;-0.2854841587639785;-0.9554625380911412;1.0;0.013388902780579914
52:22.0;0.04787589827655789;-0.28567348906053586;-0.9537079399007959;0.9990000000000001;0.013043744187612448
52:22.1;0.04671628984039153;-0.28580226454009416;-0.9521978068205513;0.995;0.012713384640568858
52:22.1;0.04565509826410904;-0.2858508413286389;-0.9510552345106474;0.9890000000000001;0.01241179222614638
52:22.1;0.04473160415609443;-0.2857999266671182;-0.9503718065499541;0.9840000000000001;0.012149828010595056
52:22.1;0.04397476484224428;-0.285634510535961;-0.9501957438700881;0.9840000000000001;0.011935133592136956
52:22.1;0.0434037926988641;-0.28534777722536975;-0.9505246330792111;0.9890000000000001;0.01177241465418369
52:22.1;0.04302912349000783;-0.284943750801323;-0.9513055513502305;0.9940000000000001;0.011663843057120685
52:22.1;0.04285318265924537;-0.28443752392531585;-0.9524429607099842;0.998;0.01160937788750041
52:22.1;0.04287061755552361;-0.28385260977608884;-0.9538121711639448;0.997;0.011606879911547126
52:22.1;0.04306791887739937;-0.28321615642709125;-0.95527503470219;0.9990000000000001;0.011651996323685836
52:22.1;0.04342283354547077;-0.28255370765285165;-0.956695091746741;1.001;0.011737962457086675
52:22.2;0.0439044287334412;-0.28188514887867605;-0.9579506258206757;1.003;0.011855603104740212
52:22.2;0.04447465257364188;-0.281222634607624;-0.9589448881088927;1.004;0.011993791232450918
52:22.2;0.045091679614229836;-0.28057044259200775;-0.9596130051216868;1.003;0.012140440782214643
52:22.2;0.04571453642894079;-0.27992630947790154;-0.9599253451863928;1.001;0.012283878077801444
52:22.2;0.046307879321179295;-0.2792837714974311;-0.9598876998955991;1.002;0.012414265237741274
52:22.2;0.046845686161613234;-0.2786350868054415;-0.959539154118644;1.003;0.01252472240389166
52:22.2;0.047313092152991544;-0.27797430534024736;-0.9589483745723222;1.003;0.012611920175278273
52:22.2;0.047706318167775034;-0.2772999422547632;-0.9582083394027577;1.001;0.012676099097114764
52:22.2;0.048031160596562573;-0.2766166271049504;-0.9574290813758722;0.9990000000000001;0.012720611150175748
52:22.2;0.04830065386768507;-0.27593526560022436;-0.9567283115339643;0.996;0.012751135018095607
52:22.3;0.04853243316503285;-0.27527163600891824;-0.9562204412183759;0.996;0.012774724783654386
52:22.3;0.04874607177290723;-0.2746437323855248;-0.9560049124767394;0.993;0.01279880552211806
52:22.3;0.048960157232961786;-0.274068472155817;-0.9561548235406785;0.991;0.012830101817507992
52:22.3;0.04918861280495564;-0.27355846821499524;-0.9567069880916823;0.992;0.012873412467946146
52:22.3;0.049436572395711045;-0.2731192694718133;-0.9576548427031462;0.9890000000000001;0.012930332813694548
52:22.3;0.04969747157997745;-0.2727471764858035;-0.9589457065236139;0.988;0.012998360465133753
52:22.3;0.049953309580137745;-0.27242798896744125;-0.9604837664660046;0.995;0.013070915907209064
52:22.3;0.05017867510033897;-0.2721375012750655;-0.962139611474529;1.005;0.013138496751640801
52:22.3;0.05034705023179123;-0.2718444485653545;-0.9637655128278123;1.01;0.013190640403112538
52:22.3;0.050436491362949545;-0.2715159264162509;-0.9652133154254807;1.012;0.01321793101158946
52:22.4;0.05043227523438609;-0.2711244941799605;-0.9663506161400406;1.01;0.013213322782950732
52:22.4;0.050326522048649895;-0.27065542684990784;-0.9670720268195394;1.006;0.0131726295666663
52:22.4;0.050117037503036414;-0.270112374908146;-0.9673048816332686;1.006;0.013094630619945894
52:22.4;0.0498075418127343;-0.26952037935241185;-0.9670109484069169;1.005;0.01298129766739799
52:22.4;0.04940968242317338;-0.268925960765071;-0.966186349346504;1.008;0.012838245867552249
52:22.4;0.04894580107335355;-0.268393973764545;-0.9648610024703536;1.0090000000000001;0.012675145540529073
52:22.4;0.048450999464192714;-0.26800080546227256;-0.9630972837362712;1.006;0.01250572854748372
52:22.4;0.04797295069403199;-0.2678245649861254;-0.9609863256345762;1.0;0.012347073906528389
52:22.4;0.047568161888595396;-0.26793465573012243;-0.9586403914092054;0.9940000000000001;0.012218024288386808
52:22.4;0.04729472869354493;-0.26838357915762684;-0.9561812997252999;0.9890000000000001;0.012136932166053249
52:22.5;0.04720349225684998;-0.26920235862530845;-0.9537268596345438;0.986;0.012119285169923449
52:22.5;0.047330247272797075;-0.2703992124215415;-0.9513783238454625;0.983;0.012175798380427155
52:22.5;0.047690672028575895;-0.2719605952083064;-0.9492115459118445;0.983;0.01231125813668293
52:22.5;0.04827810387393244;-0.2738540681130424;-0.9472733831904965;0.988;0.012524048365463471
52:22.5;0.049063605036888475;-0.27603234995995996;-0.9455834922475164;0.986;0.012806171693546758
52:22.5;0.049998141160064936;-0.2784372775768471;-0.9441403579456504;0.9840000000000001;0.013143704886803298
52:22.5;0.051017160386600216;-0.2810024747873519;-0.9429297719351734;0.988;0.013517792484809877
52:22.5;0.05204769886620289;-0.2836547403535642;-0.9419341799549291;0.987;0.013906317331164311
52:22.5;0.05301742538287242;-0.28631539798089656;-0.9411415572013978;0.99;0.014286251435355857
52:22.5;0.05386415418674037;-0.2889029450976687;-0.9405523560488304;0.992;0.014636417508672405
52:22.6;0.054543656932666044;-0.2913373635006675;-0.9401830388607757;0.991;0.014940077492334987
52:22.6;0.055033487408294425;-0.2935453565648554;-0.940065096156139;0.987;0.015186586820208797
52:22.6;0.05533152636324609;-0.2954652631321619;-0.9402394407230146;0.985;0.015371545863830159
52:22.6;0.055449994606958715;-0.2970505168843148;-0.9407475164893178;0.986;0.01549547526582427
52:22.6;0.05540752610968299;-0.2982710733137672;-0.9416214476194349;0.986;0.01556167133837745
52:22.6;0.05522227787648925;-0.29911295672517124;-0.942875391028081;0.988;0.015574131726942254
52:22.6;0.054907961386213906;-0.2995766693630471;-0.9444993702965784;0.99;0.01553620633276976
52:22.6;0.0544730182765985;-0.2996754323535294;-0.9464559783434872;0.992;0.015450160630457394
52:22.6;0.053921942457395206;-0.29943395122141375;-0.9486798025722833;0.992;0.015317441285914595
52:22.6;0.05325756948642216;-0.2988876948911516;-0.9510794640790895;0.996;0.015139313514284295
52:22.7;0.05248375553555483;-0.2980820645797912;-0.9535425252004924;1.0;0.014917663812378601
52:22.7;0.05160823913592527;-0.2970708090942871;-0.9559433916521161;1.005;0.014655856216734304
52:22.7;0.050645017932559946;-0.2959135002515794;-0.9581534400858861;1.0070000000000001;0.01435940919328457
52:22.7;0.049615054512182864;-0.294672289261662;-0.9600517565780795;1.0070000000000001;0.014036131117724624
52:22.7;0.04854467428213969;-0.2934082140230853;-0.9615349012619162;1.0090000000000001;0.013695532156318706
52:22.7;0.04746237116687639;-0.29217721316086764;-0.9625247954368558;1.0090000000000001;0.013347738811206454
52:22.7;0.0463955414686619;-0.29102607483261117;-0.9629743463114088;1.0090000000000001;0.01300238038327845
52:22.7;0.04536826394839996;-0.28998880550638634;-0.9628705448155629;1.0070000000000001;0.012667802839717721
52:22.7;0.044400315894086134;-0.2890841514847253;-0.962234880670635;1.0070000000000001;0.012350696189204974
52:22.7;0.04350715470723183;-0.28831506138308105;-0.9611211876174429;1.005;0.012056081178153273
52:22.8;0.04270075771255246;-0.28767046067058855;-0.9596113033956323;1.003;0.011787622125858307
52:22.8;0.041991348659366615;-0.2871289477971046;-0.9578090946197892;1.001;0.011548238890203918
52:22.8;0.04138967045527912;-0.28666354825082824;-0.9558334082333928;1.0;0.011340877166439346
52:22.8;0.04090890286696165;-0.2862466547500827;-0.9538103168642812;0.998;0.011169153715325552
52:22.8;0.040565232802210666;-0.28585441331034533;-0.9518647254931096;0.9940000000000001;0.011037586174472109
52:22.8;0.04037670038555467;-0.28547000174701076;-0.9501113316495525;0.992;0.010951303139204087
52:22.8;0.040360873255196744;-0.28508555139728897;-0.9486452928945429;0.987;0.010915399047676914
52:22.8;0.040532499009058594;-0.28470279276336674;-0.947533562593235;0.985;0.010934267895898546
52:22.8;0.04090217373718533;-0.2843327254551001;-0.9468083659995068;0.9840000000000001;0.011011217059154043
52:22.8;0.041476321513426166;-0.283994572501132;-0.9464643843793159;0.986;0.011148451493394943
52:22.9;0.042257813806437276;-0.2837139877537741;-0.9464606632189263;0.986;0.011347242646406115
52:22.9;0.043245981292625774;-0.2835202830161318;-0.94672729748151;0.988;0.011607930237704477
52:22.9;0.0444350848357085;-0.28344257316925814;-0.9471761535253557;0.99;0.011929489278734119
52:22.9;0.04581141873078782;-0.283505082461092;-0.9477143416491043;0.997;0.012308695937622323
52:22.9;0.047350308055664724;-0.28372225831518055;-0.9482583711856043;0.997;0.01273922188953839
52:22.9;0.04901450628559737;-0.2840946892629934;-0.948746043008995;0.996;0.013211061834637043
52:22.9;0.05075498584522056;-0.284606926442079;-0.949143262840399;0.995;0.013710583739667777
52:22.9;0.05251446432845545;-0.28522804377989214;-0.9494445426601406;0.993;0.01422134806186523
52:22.9;0.05423325906171855;-0.2859152226083265;-0.9496679729218191;0.991;0.0147256601706986
52:22.9;0.055856060468503214;-0.2866200030176073;-0.9498467824921495;0.993;0.01520653807882253
52:23.0;0.05733760078948171;-0.2872961880111953;-0.9500199497614353;0.993;0.015649559059608683
