Time;AccX;AccY;AccZ;Acc-old;Acc-trns
59:23.4;0.12461840162740657;-0.3519380436488281;-0.8453383067629445;0.925;0.03707481066161063
59:23.4;0.1280860004706487;-0.351666196242711;-0.8650584518387332;0.9490000000000001;0.03896527471586564
59:23.4;0.13107810020690155;-0.3511271411962635;-0.8838560663444186;0.977;0.04067954492378145
59:23.5;0.13324710359101635;-0.3501255318435873;-0.9009251294788305;1.0070000000000001;0.04203105197291898
59:23.5;0.13433975383727537;-0.3485513129916444;-0.9156189600340651;1.035;0.042873214660894804
59:23.5;0.1342293994072427;-0.34639937219044337;-0.9275084454597178;1.05;0.043126341345435804
59:23.5;0.13293496145815917;-0.343768192117886;-0.9364171093084196;1.053;0.04279314884167539
59:23.5;0.13062021170754415;-0.3408383563598567;-0.9424238803696834;1.005;0.0419570676407586
59:23.5;0.12757099018505041;-0.33783736118079116;-0.945830855964797;1.005;0.04076365155486692
59:23.5;0.12415518944985526;-0.3350007552575773;-0.9471034877717343;1.005;0.039392006148314375
59:23.5;0.12077442608356538;-0.33253885729855825;-0.9467970224432947;0.992;0.03802544156663475
59:23.5;0.11781434433086319;-0.33061391127142736;-0.9454817867241511;0.9840000000000001;0.03682751892220421
59:23.5;0.11559764165948976;-0.32932823615716944;-0.9436759869928546;0.9790000000000001;0.035925336620451734
59:23.6;0.11434441920011587;-0.3287217771345681;-0.9417928738055424;0.978;0.03539964028918293
59:23.6;0.1141457227786207;-0.3287767010612573;-0.9401079713393797;0.978;0.03528079892234543
59:23.6;0.11495501642128866;-0.32942666339293863;-0.9387496532711446;0.982;0.035549742960213085
59:23.6;0.11659965731893403;-0.3305688749391496;-0.9377134059630502;0.991;0.03614342950793601
59:23.6;0.11881164903588788;-0.33207744468362005;-0.936897087371333;1.024;0.03696496429174373
59:23.6;0.12127310876435773;-0.3338164172522281;-0.9361503978707317;1.024;0.037898134127629504
59:23.6;0.1236670389887232;-0.3356509455766717;-0.9353273605376321;1.024;0.03882446466096706
59:23.6;0.12572225710229235;-0.3374556382593995;-0.9343295475912093;1.025;0.039639570618088156
59:23.6;0.12724499798069883;-0.33912012776364736;-0.933131618715687;1.02;0.040265879718289516
59:23.6;0.12813467275606477;-0.34055260861508474;-0.9317861388233645;1.01;0.0406599762869702
59:23.7;0.1283838693909064;-0.341682170375676;-0.9304088747287625;0.996;0.04081376149004033
59:23.7;0.1280642309471666;-0.3424604644727403;-0.9291493962955403;0.985;0.040749645619396695
59:23.7;0.1273020068109598;-0.342862835832238;-0.9281550503580092;0.98;0.040511301416529116
59:23.7;0.12624900880587123;-0.34288863492190347;-0.9275378045238454;0.978;0.040152508926961414
59:23.7;0.12505506974786304;-0.34256023079026937;-0.9273519971900182;0.991;0.03972673349501036
59:23.7;0.1238467273115734;-0.3419204994947315;-0.9275868846245722;0.991;0.03927934827885763
59:23.7;0.122714667617915;-0.3410290988265075;-0.9281728487344791;0.991;0.03884335848356597
59:23.7;0.12171045756010972;-0.33995805021098924;-0.9289971873843582;0.9990000000000001;0.03843860552756024
59:23.7;0.1208514920770369;-0.3387867677730248;-0.9299254282874004;1.006;0.03807383115347755
59:23.7;0.12013160029037663;-0.3375963032612232;-0.9308245884552547;1.0070000000000001;0.03775050726781622
59:23.8;0.11953362743440955;-0.33646285727983505;-0.9315842681570061;1.006;0.03746703910788961
59:23.8;0.11904031247837493;-0.33545129642763893;-0.9321315424581833;1.005;0.037222088485276396
59:23.8;0.11864103403674311;-0.3346097875472303;-0.9324373522527929;1.0;0.03701631871932772
59:23.8;0.11833365075422074;-0.33396648850978883;-0.9325143663065775;1.0;0.0368524770812996
59:23.8;0.11812197195606564;-0.33352879331712476;-0.9324079182853708;0.993;0.03673414820315589
59:23.8;0.11801033163678647;-0.33328507604696483;-0.9321825614956979;0.993;0.036663749095051074
59:23.8;0.11799735661462678;-0.3332083369913659;-0.9319072872138874;0.993;0.03664045391139962
59:23.8;0.11807099032609722;-0.3332609375680249;-0.9316423287927915;0.9890000000000001;0.03665868060080285
59:23.8;0.11820615718813271;-0.3333997477631337;-0.9314296942347056;0.99;0.03670755389232861
59:23.8;0.11836573944034576;-0.33358115901088864;-0.9312887715973138;0.993;0.036771546517157284
59:23.9;0.11850498519107416;-0.3337653840398966;-0.9312176545729433;0.998;0.03683232328359218
59:23.9;0.11857866762128973;-0.333919457100776;-0.9311996094804447;1.001;0.036871523020000366
59:23.9;0.11854934016386334;-0.33401856732954793;-0.9312124888458455;1.002;0.03687385485248121
59:23.9;0.11839449082710322;-0.3340458550745543;-0.9312379620566843;1.002;0.036829706095005355
59:23.9;0.11811062243244341;-0.33399128160289815;-0.9312678619306005;0.997;0.03673657839980171
59:23.9;0.11771324988273045;-0.3338502749986522;-0.9313064319733335;0.997;0.03659903973388152
59:23.9;0.11723312895290403;-0.3336226613361524;-0.9313689047447744;0.997;0.03642735457836936
59:23.9;0.11670983004462127;-0.333312153838022;-0.9314777073965276;0.998;0.036235232495427865
59:23.9;0.11618368250216814;-0.33292632047202814;-0.9316573544998202;0.996;0.03603707097660149
59:23.9;0.11568700628193714;-0.33247653446202213;-0.9319284703944951;0.993;0.03584496505701267
59:24.0;0.11523608867920083;-0.33197731556966087;-0.9323014157286164;0.9890000000000001;0.035665906084866174
59:24.0;0.11482590753244626;-0.3314447913268065;-0.9327708665157355;0.99;0.0354998124155995
59:24.0;0.11442921002751397;-0.330894402807361;-0.9333135050258856;0.993;0.03533896866264943
59:24.0;0.11400022950614828;-0.33033823059988876;-0.9338905524621219;0.998;0.03516904260745904
59:24.0;0.1134818955292221;-0.3297824402645576;-0.9344550480097253;1.001;0.034971360098674485
59:24.0;0.11281466652830133;-0.32922538913084437;-0.9349617581730729;1.001;0.034725837718764585
59:24.0;0.111945231368383;-0.3286569734513071;-0.9353767611281503;1.001;0.03441398981067861
59:24.0;0.11083384963907643;-0.3280596949127139;-0.9356844181978571;1.0;0.034021596697238664
59:24.0;0.1094596017627248;-0.3274114287692761;-0.9358908308100811;1.0;0.033540759390022865
59:24.0;0.10782319390971802;-0.32668921185931205;-0.9360239542365631;1.001;0.03297113886743387
59:24.1;0.105947158295968;-0.325873083711564;-0.9361308256688609;1.002;0.032320223043605247
59:24.1;0.10387326075918434;-0.3249491512442888;-0.9362720884744193;0.998;0.031602486079668736
59:24.1;0.10165701016636401;-0.32391121176935544;-0.9365138554449673;0.9940000000000001;0.030837383398198137
59:24.1;0.09935977280466465;-0.32276041525232435;-0.9369175843729518;0.9890000000000001;0.030046386213595986
59:24.1;0.09703986264859105;-0.3215029747721149;-0.9375297986375467;0.99;0.029249621406844842
59:24.1;0.0947445176311134;-0.32014692918626236;-0.9383740570579066;0.99;0.02846291802238575
59:24.1;0.09250468279633793;-0.3186997198919406;-0.9394469091248628;0.99;0.027696037714300757
59:24.1;0.09033387477537044;-0.31716803214270656;-0.9407184080875278;0.995;0.026952539382973147
59:24.1;0.0882311681508616;-0.3155601151160361;-0.942136943095699;1.001;0.026231200601159934
59:24.1;0.08618720395685867;-0.31388959767313174;-0.9436373371808016;1.003;0.025528472621216446
59:24.2;0.0841915011159595;-0.31217929085200136;-0.9451500640642228;1.006;0.024841230853124736
59:24.2;0.08223917748141354;-0.31046356884217124;-0.9466089280279862;1.003;0.024169073352321845
59:24.2;0.08033556126591146;-0.3087884003671397;-0.9479553563727788;0.9990000000000001;0.02351563414359384
59:24.2;0.07849796820028893;-0.3072088124760381;-0.9491392521889419;0.997;0.02288874704916953
59:24.2;0.07675469696494518;-0.3057843135329789;-0.9501180897300247;1.001;0.022299634816876666
59:24.2;0.07514204780345862;-0.30457324430114413;-0.9508563323347857;1.001;0.0217615426609181
59:24.2;0.07370076483044934;-0.30362699948807426;-0.9513260841037607;1.001;0.021288339484013992
59:24.2;0.07247307228207961;-0.3029846653773506;-0.9515086114179551;1.0;0.020893444512365338
59:24.2;0.07150044221793808;-0.3026681508077372;-0.9513962911257952;0.998;0.020589078302515735
59:24.2;0.07082128474763824;-0.3026779418642405;-0.9509951935932094;0.9990000000000001;0.020385571682592623
59:24.3;0.07046739875809792;-0.30299042574653734;-0.9503286533919473;1.005;0.020290416854621202
59:24.3;0.07045837097711789;-0.3035583582558942;-0.9494412142586821;1.008;0.020306864611724807
59:24.3;0.07079436528167693;-0.30431522473399314;-0.9484007618694624;1.0070000000000001;0.02043215935004102
59:24.3;0.07144946821707902;-0.3051823702057491;-0.9472959003546053;1.001;0.020655898945392097
59:24.3;0.07236850094571079;-0.3060768187241211;-0.9462268428574302;0.9890000000000001;0.020959227877856174
59:24.3;0.07346897447653462;-0.3069184046810895;-0.9452910562299379;0.9890000000000001;0.021315349536935316
59:24.3;0.07464768777092502;-0.3076358466846671;-0.9445678736678821;0.9890000000000001;0.021691344395056225
59:24.3;0.07579042067987866;-0.3081717398431724;-0.9441069702256111;0.991;0.02205100216573634
59:24.3;0.07678367338748432;-0.30848644277567905;-0.9439235708446247;0.9940000000000001;0.022358455463451114
59:24.3;0.07752785399386845;-0.30856070476069397;-0.94400054944163;0.997;0.02258242765175377
59:24.4;0.0779506173120129;-0.3083966608739139;-0.9442958287094599;1.0;0.02270059796334065
59:24.4;0.07801790716937604;-0.3080168987876746;-0.9447526736720204;1.002;0.022703194498437964
59:24.4;0.07773986520845289;-0.3074617210611098;-0.9453102589384412;1.003;0.022594836769995127
59:24.4;0.07716962488884124;-0.30678497472995214;-0.9459122411789419;1.002;0.022393981780106414
59:24.4;0.07639479776380481;-0.3060487257154808;-0.9465119069150949;0.996;0.022129950514776564
59:24.4;0.07552347777974633;-0.30531715675749005;-0.9470736752903554;0.996;0.021838205838474806
59:24.4;0.07466797678583328;-0.3046505822871614;-0.947572002498207;0.996;0.021555029256288875
59:24.4;0.07392947069568771;-0.3041006677464475;-0.9479893873889883;0.997;0.021312698738919982
59:24.4;0.07338552079092349;-0.3037072640725515;-0.9483148154094811;1.0;0.021135771039726983
59:24.4;0.07308140084550654;-0.3034963487298228;-0.9485429887152386;0.9990000000000001;0.021038624980415525
59:24.5;0.07302593026658527;-0.3034783422797775;-0.9486737926909388;0.9990000000000001;0.02102430772213157
59:24.5;0.0731923391008144;-0.3036466118246182;-0.9487111711478549;0.997;0.021084731777350627
59:24.5;0.07352400656955796;-0.30397668201589667;-0.9486611036919734;0.992;0.021202180612330937
59:24.5;0.07394403492401211;-0.30442714058730586;-0.9485294672634528;0.993;0.021351940027891068
59:24.5;0.07436698601229513;-0.30494322672127655;-0.9483214497326489;1.004;0.02150575756835783
59:24.5;0.07471078636998185;-0.305463247164414;-0.9480436690735384;1.004;0.02163568322320563
59:24.5;0.0749068105476253;-0.3059265299962449;-0.9477081117060743;1.004;0.021717660724989277
59:24.5;0.07490667849600006;-0.3062808979814156;-0.9473353807943323;1.002;0.02173422753132935
59:24.5;0.07468535326078425;-0.30648824797491564;-0.9469551681180292;0.9990000000000001;0.021675977157574595
59:24.5;0.07424125348476908;-0.3065278135040078;-0.9466035472643243;0.998;0.021541865541536986
59:24.6;0.07359464032884244;-0.3063971719318664;-0.9463180438135755;0.997;0.02133870505440524
59:24.6;0.07278519031482725;-0.30611115857658255;-0.9461318928527215;0.995;0.021080158172125954
59:24.6;0.0718689517515419;-0.30569900987264875;-0.9460687029743451;0.9940000000000001;0.020785382374632743
59:24.6;0.07091450295956649;-0.30520041938867665;-0.9461383833138968;0.9940000000000001;0.02047740174651217
59:24.6;0.06999802560524762;-0.30466140733147307;-0.9463349046283012;0.996;0.02018125142841213
59:24.6;0.06919706571574746;-0.30413056360816343;-0.9466361375987785;0.996;0.019921903175218237
59:24.6;0.06858329016379888;-0.30365555795310356;-0.9470055500041015;0.996;0.01972205086988281
59:24.6;0.06821520128589033;-0.3032794402715748;-0.9473952818411495;0.993;0.019599967553296287
59:24.6;0.06813190033153216;-0.30303649866331367;-0.9477504494053012;0.992;0.019567684658004885
59:24.6;0.0683488698411518;-0.3029482058052873;-0.948015142398477;0.997;0.019629760318900877
59:24.7;0.06885656851009686;-0.30302052490049436;-0.9481404989423153;1.003;0.01978290745297484
59:24.7;0.06962195527948122;-0.3032437662750184;-0.9480939609462177;1.006;0.02001656163312281
59:24.7;0.07059219195502114;-0.30359513091911594;-0.9478671951589068;1.005;0.020314164379264157
59:24.7;0.07169962376070517;-0.3040429021327557;-0.9474797208309755;1.002;0.02065483212025283
59:24.7;0.07286761961963095;-0.3045508841320909;-0.9469764706295671;1.0;0.021015205225444072
59:24.7;0.07401701828266712;-0.30508218808176457;-0.9464194962578409;0.991;0.021371357862639377
59:24.7;0.07507252161438478;-0.3056021439977116;-0.9458759382379115;0.991;0.021700591823306983
59:24.7;0.0759681988125924;-0.3060804454750318;-0.9454056480217693;0.991;0.021982931509099878
59:24.7;0.07665181761627493;-0.3064926908670104;-0.9450518001058781;0.992;0.02220231159117993
59:24.7;0.07708837252641658;-0.30682147626828493;-0.9448363880782864;0.996;0.022347618197858153
59:24.8;0.07726304460179036;-0.3070570948145261;-0.9447606349041855;0.9990000000000001;0.02241365814402303
59:24.8;0.07718297884864418;-0.3071977563688959;-0.9448089190051338;0.997;0.02240183323183322
59:24.8;0.07687671495303608;-0.30724925780336043;-0.9449542163073879;0.997;0.02232011493786059
59:24.8;0.07639053752921696;-0.30722418264410617;-0.9451635659317766;0.996;0.022182063061377398
59:24.8;0.07578203322576217;-0.3071408080088629;-0.9454031626342192;0.9990000000000001;0.022004972311717746
59:24.8;0.07511207881821527;-0.3070218433428891;-0.9456431829970489;0.9990000000000001;0.021807523681344237
59:24.8;0.07443702129846466;-0.30689291029819243;-0.9458620428041038;0.9990000000000001;0.021607456097842207
59:24.8;0.07380264255131253;-0.30678045964498735;-0.9460492797652705;1.001;0.021419699093686906
59:24.8;0.07324058356632583;-0.30670883460596554;-0.9462062779533711;0.9990000000000001;0.021255136925613736
59:24.8;0.07276695904240425;-0.30669649612635086;-0.9463444158285128;0.997;0.021119919773934355
59:24.9;0.07238263988666255;-0.30675197722573433;-0.9464807645729544;0.993;0.021015202600143494
59:24.9;0.07207497952218082;-0.30687070705247743;-0.9466322924809489;0.992;0.02093732898607876
59:24.9;0.07182104321214218;-0.30703400830669775;-0.9468103528005375;0.9940000000000001;0.02087859112520253
59:24.9;0.07159236937290603;-0.30721107817759225;-0.9470173726696061;0.996;0.020828670722125422
59:24.9;0.07136090398903895;-0.3073638063919387;-0.9472467882506005;1.002;0.020776682840557604
59:24.9;0.0711051049567262;-0.30745331002483434;-0.9474857763355805;1.002;0.020713460184343786
59:24.9;0.07081471809655715;-0.3074465366863911;-0.947719092760169;1.002;0.020633493514958082
59:24.9;0.07049285472990333;-0.3073214519688519;-0.947932125049597;1.001;0.020535969771984415
59:24.9;0.07015485242003473;-0.3070699934834203;-0.9481121426577587;0.997;0.020424658499133053
59:24.9;0.06982463796098888;-0.3066987369339379;-0.9482480012621612;0.996;0.020306852578330717
59:25.0;0.06953022008196645;-0.3062277891085667;-0.948329501185036;0.9990000000000001;0.02019191288961999
59:25.0;0.06929986622757223;-0.30568852675688324;-0.948347662509832;1.002;0.020089961906060324
59:25.0;0.0691596290427569;-0.3051204051646275;-0.9482961885552781;1.001;0.02001095947981449
59:25.0;0.069131961841461;-0.304566715299373;-0.948173183194425;0.9990000000000001;0.019964065647330134
59:25.0;0.06923472042816001;-0.30406937367075676;-0.947981983517465;0.996;0.019957066571025497
59:25.0;0.06947996860733344;-0.3036634182828249;-0.947730817758401;0.996;0.01999572213328107
59:25.0;0.0698724780136636;-0.3033723395576636;-0.9474318612735405;0.996;0.02008307046431584
59:25.0;0.07040822437612455;-0.3032052849084245;-0.9471004190624667;0.996;0.020218837768850386
59:25.0;0.07107325761847691;-0.303156549188542;-0.9467545426654416;0.9990000000000001;0.02039907966954725
59:25.0;0.07184318123198566;-0.30320704798099923;-0.9464148382772549;0.997;0.02061609408945138
59:25.1;0.07268336108479069;-0.3033271115267946;-0.9461039080592847;0.996;0.020858595783049123
59:25.1;0.07354994881324212;-0.30348004674465323;-0.9458450433508795;0.995;0.021112152262735807
59:25.1;0.07439182437908874;-0.30362621240049187;-0.9456603328238004;0.995;0.021359921077734798
59:25.1;0.07515367390933336;-0.30372741754360644;-0.9455687096196776;0.997;0.021583770071468028
59:25.1;0.07578045610750106;-0.30375126335596636;-0.9455843079680996;0.997;0.02176584660988132
59:25.1;0.07622310377030474;-0.30367493230525155;-0.9457150829933633;0.997;0.021890510413132197
59:25.1;0.07644456350472623;-0.3034880136425736;-0.9459614379392507;0.995;0.0219463136201584
59:25.1;0.0764248449284819;-0.30319410421424153;-0.946314832980089;0.996;0.021927593200365022
59:25.1;0.07616390503004859;-0.30281100516466863;-0.9467568077264336;0.995;0.02183530659279007
59:25.1;0.07568167701136927;-0.30236934423058126;-0.9472591016862362;0.996;0.02167690587474678
59:25.2;0.07501523945026026;-0.3019095451323229;-0.9477853894105004;0.998;0.021465269884439787
59:25.2;0.07421390282920226;-0.30147734794977227;-0.9482946453315404;0.9990000000000001;0.02121696479328441
59:25.2;0.07333341095546819;-0.3011183638656236;-0.948745576987319;0.9990000000000001;0.020950234672383234
59:25.2;0.07243023042760678;-0.3008722278969674;-0.9491012546942688;1.0;0.020683046878340917
59:25.2;0.07155639103006511;-0.3007669567356007;-0.949333143076434;0.998;0.020431356106859946
59:25.2;0.07075513432624743;-0.3008142672288912;-0.949424047210992;0.998;0.020207687522988533
59:25.2;0.07005786995655992;-0.30100666906568235;-0.9493698696584542;0.998;0.02002020365673133
59:25.2;0.06948307288512391;-0.30131697559540344;-0.9491803368186602;1.0;0.019872447087670594
59:25.2;0.06903717233252146;-0.30170060632454665;-0.9488787203428107;1.001;0.019763774277097003
59:25.2;0.0687165526610431;-0.30210072902402263;-0.9485001588819842;0.998;0.019690218939472502
59:25.3;0.06850960135315487;-0.3024557486203445;-0.9480881060572771;0.997;0.01964545003760161
59:25.3;0.06839854066238522;-0.3027079417543429;-0.9476890836779607;0.996;0.019621695372338894
59:25.3;0.06836140515334822;-0.3028115913570272;-0.9473467946555156;0.997;0.019610671576569465
59:25.3;0.06837416395505526;-0.30273905915325144;-0.9470969183685781;0.996;0.01960446113732232
59:25.3;0.06841248040515442;-0.3024836755587435;-0.9469634488013876;0.995;0.01959613824708558
59:25.3;0.068452880040222;-0.30205907349078465;-0.946956792710283;0.995;0.019580049016948542
59:25.3;0.06847366890280933;-0.3014956295900742;-0.9470734563279921;0.995;0.019551869254675013
59:25.3;0.06845606528170271;-0.30083534312475846;-0.9472970672932787;0.9940000000000001;0.019508639486921105
59:25.3;0.06838582205985996;-0.3001262769140702;-0.9476006279091779;0.995;0.01944891743035062
59:25.3;0.06825537832186687;-0.2994172531166094;-0.9479500424735507;0.997;0.019373101343545484
59:25.4;0.06806607002939195;-0.2987534508876297;-0.9483087301540161;0.9990000000000001;0.019283832716980438
59:25.4;0.06782926579958617;-0.29817345701336323;-0.948642547454737;0.9990000000000001;0.01918618801274581
59:25.4;0.06756527110983022;-0.297707765665524;-0.9489238625939045;0.9990000000000001;0.019087324416328096
59:25.4;0.06729973914071187;-0.29737816450528287;-0.949133856174876;0.998;0.018995464706512453
59:25.4;0.06705831089547833;-0.2971974125711035;-0.949262796604665;0.995;0.018918386528336956
59:25.4;0.06686068864316237;-0.2971689295483538;-0.9493087654945547;0.995;0.018861739226719246
59:25.4;0.06671559764457374;-0.2972864571794531;-0.9492757953346485;0.995;0.018827597861975732
59:25.4;0.06661807956849884;-0.2975337653048469;-0.9491723845848627;0.998;0.018813667377702938
59:25.4;0.06654985542893992;-0.29788455839608624;-0.9490108340592179;0.996;0.018813356182966985
59:25.5;0.06648246568843712;-0.2983028626562461;-0.9488072197431632;0.995;0.018816659229238978
59:25.5;0.06638241271934692;-0.2987443604931196;-0.9485816227265675;0.997;0.01881167449749446
59:25.5;0.06621758464917371;-0.29915920499736276;-0.9483584178995176;0.9990000000000001;0.01878660089672207
59:25.5;0.06596406323428361;-0.2994965461377802;-0.9481663520331548;1.001;0.018731983086554327
59:25.5;0.06561189715149775;-0.2997103411401002;-0.9480376334946797;1.0;0.018642746792329693
59:25.5;0.0651683153066573;-0.2997653468294991;-0.9480050245927265;0.9940000000000001;0.018519470259341277
59:25.5;0.06465759613899857;-0.2996420065860431;-0.9480967032132808;0.9940000000000001;0.018368550532821548
59:25.5;0.06411787402569362;-0.2993393644503391;-0.9483300820317687;0.9940000000000001;0.018201302736042705
59:25.5;0.06359573111075491;-0.2988756688136375;-0.9487065931902542;0.993;0.01803227177247363
59:25.5;0.06313942827703997;-0.2982865878274822;-0.9492090903345838;0.995;0.017877066675665982
59:25.5;0.06279170053924124;-0.29762110734121117;-0.9498026095568758;0.996;0.017750039814673456
59:25.6;0.06258329788139184;-0.2969354584513119;-0.9504383358444817;0.997;0.017662185918189594
59:25.6;0.0625284203182909;-0.29628585730712725;-0.9510598677799715;0.998;0.017619607703333078
59:25.6;0.06262279177037806;-0.29572128884379256;-0.9516105131204974;0.9990000000000001;0.01762277297832571
59:25.6;0.0628446461830948;-0.2952777035971777;-0.9520405112654071;0.9990000000000001;0.01766665666579359
59:25.6;0.0631585042476511;-0.29497461751858306;-0.9523134587047681;1.002;0.01774174794754335
59:25.6;0.06352112569179677;-0.2948144076646751;-0.9524113996059879;1.002;0.017835754035849537
59:25.6;0.06388833582539281;-0.29478394918303924;-0.9523379158846497;1.002;0.0179356237124994
59:25.6;0.06422111760518105;-0.29485791061605404;-0.9521184376055178;1.002;0.018029414282757245
59:25.6;0.06448992985272327;-0.2950030469606256;-0.9517972755574213;1.0;0.01810768218926452
59:25.6;0.06467696242652463;-0.2951829203794251;-0.9514314783303868;1.0;0.018164287035961072
59:25.7;0.06477613744580168;-0.2953624201785016;-0.9510822243851969;0.995;0.018196520479089793
59:25.7;0.06479068842716207;-0.2955114284005446;-0.9508050132974227;0.991;0.018204482537606412
59:25.7;0.06472903797031652;-0.2956072343316644;-0.9506405411907923;0.991;0.018189909653945745
59:25.7;0.0646008439333512;-0.2956357464063195;-0.9506085683606421;0.993;0.018155025411489955
59:25.7;0.06441506564949791;-0.295591840300702;-0.9507065651293861;1.0;0.01810199280975442
59:25.7;0.06418054737267656;-0.2954791504070247;-0.9509131897028057;1.0;0.018033130671772285
59:25.7;0.06390809651094967;-0.29530942429093954;-0.9511947174622666;1.0;0.017951577529039822
59:25.7;0.06361240791520038;-0.2951014141905783;-0.9515118694261864;1.001;0.017861886940547394
59:25.7;0.06331251657801498;-0.29487921618161483;-0.9518252984423573;1.0;0.017770145491748116
59:25.7;0.06303021475824756;-0.2946699941424297;-0.9520991837177694;0.998;0.01768344573935491
59:25.8;0.06278676458089866;-0.294501148770424;-0.952303240765272;0.996;0.017608824286961675
59:25.8;0.06259905557280793;-0.2943971376491659;-0.9524140365521603;0.9990000000000001;0.01755202187921741
59:25.8;0.06247657908161951;-0.29437622873480246;-0.9524165742516598;1.0;0.017516483462280085
59:25.8;0.06242007509724738;-0.2944474608219824;-0.9523063678782913;1.002;0.01750285071887523
59:25.8;0.06242190555942944;-0.2946080822569452;-0.9520912237402797;0.9990000000000001;0.017508955593469693
59:25.8;0.06246762059621591;-0.2948418793684985;-0.9517916389524668;0.9990000000000001;0.017530165656270344
59:25.8;0.06253811837873129;-0.29511903249175153;-0.9514392854242875;0.9990000000000001;0.017559943264097405
59:25.8;0.06261212153332653;-0.29539817050146083;-0.9510737402875307;0.997;0.017590590214645634
59:25.8;0.0626688444294789;-0.2956309483645005;-0.9507379096376356;0.996;0.017614178557119275
59:25.9;0.06269051229275437;-0.29576881314985753;-0.9504727343274977;0.997;0.01762356888763378
59:25.9;0.0626642549010457;-0.29577091068396644;-0.9503119924067921;0.997;0.017613333101995948
59:25.9;0.06258308754922569;-0.29561162781353545;-0.9502779782048891;0.9990000000000001;0.01758041664177735
59:25.9;0.06244592846189112;-0.2952861593230928;-0.9503784305881829;0.996;0.017524425501776242
59:25.9;0.06225679448625595;-0.2948126467142217;-0.9506048642422661;0.993;0.017447487573471795
59:25.9;0.0620236446100825;-0.2942300142966485;-0.9509327803249088;0.998;0.017353779459683537
59:25.9;0.06175750908533389;-0.29359186591171194;-0.9513243725395946;0.998;0.017248940073884254
59:25.9;0.061472176740689576;-0.2929581549552294;-0.9517335289050682;0.998;0.017139555437920267
59:25.9;0.06118415007878744;-0.2923866986260028;-0.9521119489056848;0.998;0.017032741632881886
59:25.9;0.06091224662799615;-0.2919259245644533;-0.952415190813319;1.0;0.016935717312836197
59:26.0;0.06067614446728787;-0.29160957811686844;-0.9526079694226471;1.0;0.01685520239101566
59:26.0;0.06049353176105719;-0.29145387467399037;-0.9526681856061051;0.998;0.01679656349171642
59:26.0;0.06037653135861351;-0.2914572722503948;-0.9525892892747455;0.998;0.0167628843680429
59:26.0;0.060329053220370514;-0.29160258850810244;-0.9523810121393088;1.001;0.016754389700135576
59:26.0;0.060346524851539955;-0.2918608937003527;-0.952068652575917;1.003;0.016768585885935623
59:26.0;0.06041799495086862;-0.29219641294066095;-0.9516905875422621;0.996;0.016801070831219043
59:26.0;0.06052924897200322;-0.29257144278997116;-0.9512934883011718;0.996;0.01684657976969016
59:26.0;0.060665431051099214;-0.29295031719452785;-0.9509256155669531;0.996;0.016899809406007722
59:26.0;0.06081242913027445;-0.29330194462238585;-0.9506295984857329;0.992;0.016955813307838234
59:26.0;0.060957156257986825;-0.2936010635334956;-0.9504362258140867;0.992;0.01701003878282599
59:26.1;0.06108750225536765;-0.2938287650850343;-0.9503604715995143;0.9940000000000001;0.017058272282723486
59:26.1;0.06119282051135199;-0.29397290344227983;-0.950400615483652;0.998;0.017096786244168004
59:26.1;0.061265150189534136;-0.2940287290116262;-0.9505404470884126;0.9990000000000001;0.017122763990202447
59:26.1;0.061300571530469534;-0.2939995709063081;-0.9507534351629162;0.998;0.01713480330593068
59:26.1;0.06129997398914303;-0.2938970162022536;-0.9510073908521175;0.998;0.017133234508400107
59:26.1;0.06126894437332802;-0.29374004506111906;-0.9512687368153309;0.9990000000000001;0.01712011899425163
59:26.1;0.06121677985004413;-0.29355294301392443;-0.9515061633547062;0.998;0.01709891389904455
59:26.1;0.0611547397673099;-0.2933622796507342;-0.9516936192270137;0.998;0.017073853541465824
59:26.1;0.06109392210015281;-0.2931935233402172;-0.9518125465118786;0.9990000000000001;0.017049192114966256
59:26.1;0.06104343033319425;-0.2930678486089968;-0.9518533433026786;0.9990000000000001;0.017028529524307893
59:26.2;0.061009360256461496;-0.29299956212379724;-0.9518160403904317;0.998;0.01701439307054081
59:26.2;0.060994615080316714;-0.29299449749807915;-0.9517100523667761;0.9990000000000001;0.01700809275969842
59:26.2;0.060999028849610386;-0.2930496413599158;-0.9515528391176663;0.998;0.017009714505104558
59:26.2;0.06101919764953665;-0.29315400497078153;-0.9513674626863092;0.997;0.017018082265362902
59:26.2;0.06104801933437292;-0.2932904342192758;-0.9511792767036258;0.996;0.017030674807504326
59:26.2;0.06107466974441962;-0.2934379321285905;-0.9510122694245027;0.995;0.017043685068294758
59:26.2;0.06108574078819974;-0.29357417631530347;-0.9508857756339046;0.995;0.017052421022767755
59:26.2;0.06106759309559648;-0.2936780065043067;-0.950812268883623;0.995;0.017052065952139376
59:26.2;0.06100945107622493;-0.29373168316400816;-0.9507967268009931;0.996;0.01703866598579386
59:26.2;0.06090675244246927;-0.29372280251137795;-0.9508376720100506;0.998;0.017010202620955036
59:26.3;0.060764300099792605;-0.29364584920549447;-0.9509294710683699;1.001;0.016967610002736278
59:26.3;0.060598381270372766;-0.2935033213512887;-0.9510649278515606;1.0;0.01691547548445073
59:26.3;0.060436538582139696;-0.2933061780796509;-0.9512369618537708;1.0;0.01686201653365346
59:26.3;0.06031391431651329;-0.2930732339928227;-0.9514385276212461;0.997;0.016818002208234224
59:26.3;0.06026625715571339;-0.29282925416035827;-0.9516607805032338;0.9940000000000001;0.016794645971754032
59:26.3;0.06032112657366488;-0.2926018958958161;-0.9518904303762116;0.993;0.016800938437933656
59:26.3;0.06048978536476483;-0.2924180694686672;-0.9521078531985939;0.995;0.016841175298917255
59:26.3;0.060762308898371274;-0.2923004544876404;-0.9522874216379762;0.995;0.01691343453513462
59:26.3;0.06110756856504268;-0.2922647670847844;-0.9524006666439205;0.997;0.017009484749382405
59:26.3;0.06147836279606885;-0.29231811400658203;-0.9524218867190942;1.003;0.01711620141673791
59:26.4;0.06182043288824996;-0.2924585000295016;-0.9523349450297027;1.006;0.017218131118487388
59:26.4;0.06208282106945552;-0.2926753000722532;-0.9521391247056767;1.002;0.017300470999082204
59:26.4;0.06222673321835616;-0.29295035382120066;-0.9518516689113978;1.0;0.017351631046441208
59:26.4;0.062230973244052364;-0.2932593590565853;-0.951505796954009;0.996;0.01736480507699804
59:26.4;0.06209336496624301;-0.293573437708019;-0.9511449268856255;0.995;0.01733838531079024
59:26.4;0.061828654188598;-0.2938610081243644;-0.9508151114879674;0.9940000000000001;0.017275388903901137
59:26.4;0.06146409296592532;-0.2940901437222551;-0.9505577691889758;0.9940000000000001;0.01718226696430054
59:26.4;0.0610342349404175;-0.29423138033782315;-0.9504041311196351;0.9940000000000001;0.017067535296960416
59:26.4;0.060576209457067036;-0.29426076557062525;-0.9503720486037852;0.996;0.016940573523123736
59:26.4;0.06012595231044779;-0.2941629336412954;-0.950465208295981;0.997;0.016810713252063552
59:26.5;0.059715096750789995;-0.29393388887273053;-0.9506743605390704;0.9990000000000001;0.016686512653911786
59:26.5;0.05936807284874353;-0.2935829322722092;-0.9509798053814467;0.9990000000000001;0.016575057736527208
59:26.5;0.0590995994003339;-0.29313301404152015;-0.951354213510876;0.997;0.0164813019698657
59:26.5;0.05891360786889048;-0.29261895620606665;-0.9517651423469206;0.995;0.016407706228682577
59:26.5;0.058804679477817284;-0.2920835393492747;-0.9521773462227878;0.997;0.016354482801644
59:26.5;0.05876201161398508;-0.2915721611504803;-0.9525555662991465;1.0;0.01632048383842743
59:26.5;0.05877466458885484;-0.29112718897324685;-0.9528681734172858;1.0;0.01630443477716817
59:26.5;0.05883629815842228;-0.29078309331024466;-0.9530910439982577;1.0;0.016306054176310047
59:26.5;0.05894787916999123;-0.29056313951592877;-0.9532104808182454;1.001;0.016326666172454735
59:26.5;0.05911754793744891;-0.2904779557116154;-0.9532243243651984;0.998;0.016369096456663117
59:26.6;0.059357611604259994;-0.2905258360080653;-0.953141106694171;0.998;0.016436841880850518
59:26.6;0.05967931956235923;-0.29069435970853785;-0.9529776981684626;0.998;0.016532677931362504
59:26.6;0.060086595224356054;-0.29096281321127226;-0.9527562090512113;0.996;0.01665700324940362
59:26.6;0.06057020536448126;-0.29130488572434066;-0.9525008633847669;0.997;0.016806303140183432
59:26.6;0.06110398840822669;-0.29169114663126555;-0.952235343464226;0.997;0.016972159447753352
59:26.6;0.06164465048634817;-0.29209098795674404;-0.951980856785692;0.997;0.017141221523605657
59:26.6;0.0621359610813526;-0.29247402409109097;-0.9517549376473431;0.997;0.017296389602459404
59:26.6;0.06251684522402465;-0.2928112055907954;-0.9515709204205418;0.997;0.017419107871198356
59:26.6;0.06273144631088673;-0.29307601242572207;-0.9514380773583646;0.998;0.01749226720192335
59:26.6;0.06273867529135267;-0.29324606030592276;-0.9513623291103924;0.9990000000000001;0.01750303984309723
59:26.7;0.06251934886315466;-0.2933052357378148;-0.9513472071095915;0.9990000000000001;0.017445093815403177
59:26.7;0.062080014451809905;-0.2932460424851855;-0.9513946225578632;1.0;0.01731987133880249
59:26.7;0.06145320288457101;-0.29307145122387346;-0.9515050210014996;1.001;0.017136776082314672
59:26.7;0.06069409739926718;-0.29279553331528146;-0.9516765298232793;0.997;0.01691220613171557
59:26.7;0.05987389373547236;-0.292442505538104;-0.9519029099370558;0.9940000000000001;0.01666750725320009
59:26.7;0.05907071092532275;-0.29204425666093287;-0.9521708476480236;0.9940000000000001;0.016426148630727697
59:26.7;0.05835954815578541;-0.2916368211425043;-0.9524579860538892;0.9940000000000001;0.016210637866191077
59:26.7;0.057803057923943184;-0.29125649289493616;-0.9527332245112509;0.9940000000000001;0.016039755377852162
59:26.7;0.05744460496691926;-0.2909361820713284;-0.9529601082966366;1.0;0.015926549790705347
59:26.7;0.05730435939150395;-0.2907023088594274;-0.9531030546918124;1.002;0.015877276369999156
59:26.8;0.057378509553704514;-0.2905723163925964;-0.9531348990581615;1.003;0.015891243048767233
59:26.8;0.05764129502731916;-0.2905528775806611;-0.9530432809129674;1.001;0.015961420325177767
59:26.8;0.0580492892328608;-0.2906389828952962;-0.9528336113160445;0.9990000000000001;0.01607562401277681
59:26.8;0.05854718282993329;-0.29081424046300075;-0.9525277766862923;0.996;0.016218075602611366
59:26.8;0.05907430702105572;-0.291052680814167;-0.9521593743745931;0.995;0.01637117636611339
59:26.8;0.059571163254774136;-0.291322014912917;-0.9517672887074319;0.996;0.01651734196436944
59:26.8;0.05998518629292142;-0.29158785623342115;-0.9513894696942442;0.996;0.016640707430626046
59:26.8;0.06027501366721842;-0.2918181137914556;-0.9510580543952318;0.996;0.016728484236605418
59:26.8;0.060412840454132394;-0.2919867295503269;-0.9507961414605818;0.9940000000000001;0.016771804056199196
59:26.8;0.06038489947060235;-0.29207620007476687;-0.9506161923745726;0.995;0.016766010160274843
59:26.9;0.06019049659652146;-0.2920786853552408;-0.9505201206393933;0.996;0.016710486969616356
59:26.9;0.05984031395456334;-0.2919958305338973;-0.9505011136813116;0.996;0.0166082220845192
59:26.9;0.05935486747917113;-0.29183770067929315;-0.9505468653896562;0.9990000000000001;0.016465361442527353
59:26.9;0.058763751156996315;-0.29162128997001957;-0.9506433915024571;0.9990000000000001;0.016290948516439387
59:26.9;0.05810540847431547;-0.29136884464827467;-0.9507782476292646;0.9990000000000001;0.016096776262879944
59:26.9;0.057426299966170435;-0.2911059788309616;-0.9509420968897401;0.995;0.0158970314640822
59:26.9;0.056778456601163124;-0.2908594915373052;-0.9511283524720138;0.995;0.015707459603144156
59:26.9;0.05621538848394876;-0.29065488567149417;-0.95133159252577;0.995;0.015544070706687903
59:26.9;0.055787027459064095;-0.2905136747302893;-0.9515458863941577;0.995;0.015421603649407955
59:26.9;0.055534398939178685;-0.29045061010357953;-0.9517639105378394;0.996;0.015351951928008957
59:27.0;0.055484674878003855;-0.29047115897538106;-0.9519771495468179;0.996;0.01534272804811214
59:27.0;0.05564737344333213;-0.2905698743876162;-0.9521769354312244;0.9990000000000001;0.015396177645144673
59:27.0;0.05601233827199348;-0.2907302763981319;-0.9523557498932044;0.997;0.015508620626262655
59:27.0;0.056549769625870897;-0.2909263714486208;-0.9525082251680479;0.997;0.015670493186521625
59:27.0;0.05721222734231228;-0.29112553439127936;-0.9526315977582398;0.998;0.015866974980855018
59:27.0;0.05793816279365632;-0.29129246985047447;-0.9527256812355411;0.9990000000000001;0.01607910419922153
59:27.0;0.058656398300064944;-0.29139389033223645;-0.9527924942754368;0.998;0.01628523992520274
59:27.0;0.05929137240065277;-0.29140318662016534;-0.9528356841452266;0.998;0.016462804199172502
59:27.0;0.05976951574697242;-0.29130422445154114;-0.9528599999848323;0.9990000000000001;0.016590352590277368
59:27.0;0.060027111495844505;-0.29109370325703254;-0.9528710754835457;1.0;0.01665000625026764
59:27.1;0.060019264507346085;-0.290781853568456;-0.9528754734279274;1.0;0.016630071571432387
59:27.1;0.059728553056783616;-0.2903913865279258;-0.952880578947125;0.998;0.01652738712536427
59:27.1;0.059171175623695456;-0.28995477451074547;-0.9528939155801633;0.998;0.016348767449219592
59:27.1;0.05839836270296687;-0.28951029065847866;-0.9529217993569064;0.998;0.016110979260428766
59:27.1;0.05749150955760429;-0.2890974943643477;-0.9529675625059003;0.996;0.015838941614111528
59:27.1;0.056550836190896105;-0.28875280742214166;-0.9530296962264214;0.995;0.015562224630715915
59:27.1;0.055679442235610825;-0.2885056922976529;-0.9531003691012688;0.995;0.015310448048357421
59:27.1;0.05496669672915829;-0.28837587901486966;-0.9531649342709722;0.995;0.015108683604571259
59:27.1;0.05447531264820658;-0.28837194566446034;-0.9532030188533694;0.996;0.01497401101379404
59:27.1;0.054234653574616064;-0.2884912701306433;-0.9531914771280592;0.997;0.01491384745643376
59:27.2;0.05424043531619162;-0.28872108629623316;-0.95310898947156;1.0;0.014926027421682942
59:27.2;0.05445954311303961;-0.28904022851977945;-0.9529414921767391;1.001;0.01500025087193644
59:27.2;0.05483817188835882;-0.2894211230759964;-0.9526870853153044;0.9990000000000001;0.015120406635730766
59:27.2;0.055311472189835786;-0.2898317063518612;-0.9523589837364702;1.0;0.015267284358936479
59:27.2;0.055813131963185;-0.2902373191241478;-0.9519855991353219;1.0;0.015421265930475492
59:27.2;0.056283650736667294;-0.29060301674099753;-0.9516075377585358;0.996;0.015564681969400555
59:27.2;0.05667640967034964;-0.29089660527383837;-0.951271929390144;0.996;0.015683596681879467
59:27.2;0.056961084765409786;-0.29109207715106294;-0.951025176630287;0.996;0.01576887282926977
59:27.2;0.05712440191462548;-0.2911727027449564;-0.9509055606986235;0.9940000000000001;0.01581647542458046
59:27.2;0.05716851305598714;-0.2911331713747766;-0.950936835007412;0.995;0.015827060337779114
59:27.3;0.05710746011462719;-0.29098043020910647;-0.9511235006058634;0.992;0.015804965028502524
59:27.3;0.056962492579133585;-0.2907329513605885;-0.95144840170742;0.992;0.015756816702743762
59:27.3;0.05675735071807236;-0.29041828185427615;-0.951873417811205;0.9940000000000001;0.01569008390745058
59:27.3;0.056514715083722765;-0.2900690987703511;-0.9523438859466937;0.9940000000000001;0.015611937574596602
59:27.3;0.05625464033637319;-0.2897185026208215;-0.9527967375228803;0.9990000000000001;0.01552869091211374
59:27.3;0.05599500402723499;-0.2893955967508401;-0.9531713658948268;1.003;0.015445863282286806
59:27.3;0.055753124812050504;-0.2891222239831041;-0.9534212231438958;1.005;0.01536864236275611
59:27.3;0.05554716457029794;-0.28891120653672275;-0.9535234026007007;1.005;0.015302332682666302
59:27.3;0.05539605517428789;-0.28876600020694554;-0.9534835369573696;1.003;0.015252396805389336
59:27.3;0.055317419338480084;-0.2886815278330702;-0.9533344483322991;0.998;0.015223909469878104
59:27.4;0.05532382814968117;-0.28864596584807106;-0.9531287206798983;0.995;0.015220512360088511
59:27.4;0.05541839187056424;-0.28864322319082625;-0.9529270720946764;0.993;0.015243157955433323
59:27.4;0.05559108139030285;-0.28865568723306406;-0.9527854607910073;0.991;0.015289045115597037
59:27.4;0.055817303947597416;-0.2886666523828872;-0.9527439808896248;0.991;0.015351177212586007
59:27.4;0.056059910055732236;-0.2886619736900586;-0.9528199735410655;0.993;0.015418879906602012
59:27.4;0.05627488256581486;-0.28863094570047715;-0.953006644374315;0.9940000000000001;0.015479374885565637
59:27.4;0.05641969380525368;-0.2885668333181079;-0.9532770477361598;1.002;0.015520162889679959
59:27.4;0.05646225511043431;-0.288467483953935;-0.9535918998965294;1.002;0.015531651594745736
59:27.4;0.05638808802636969;-0.2883360793441475;-0.9539087071997336;1.004;0.015509334788869317
59:27.4;0.056203898801462086;-0.28818175555175063;-0.9541895812024135;1.001;0.015454949702111394
59:27.5;0.055936689061973986;-0.28801975650929645;-0.9544060233154815;1.002;0.015376312861129476
59:27.5;0.05562855365537362;-0.2878708374294385;-0.9545403239849228;0.998;0.01528585442371394
59:27.5;0.05532832510015594;-0.28775971045840076;-0.9545842650880633;0.997;0.01519818695968289
59:27.5;0.055082019291007346;-0.28771252641030487;-0.9545363408843498;0.997;0.015127288547274038
59:27.5;0.05492436372446145;-0.2877535918873744;-0.95439882621772;0.997;0.0150839708503464
59:27.5;0.05487336405596964;-0.2879015760050768;-0.9541757134232631;0.996;0.015074190047913646
59:27.5;0.0549288062557067;-0.28816560298217625;-0.9538719760154395;0.996;0.015098450877790047
59:27.5;0.05507424849860668;-0.28854194851850873;-0.9534941651859962;0.996;0.015152196012266899
59:27.5;0.05528131485968717;-0.289012174574205;-0.9530521175763826;0.998;0.015226887970048066
59:27.5;0.055515198566315226;-0.2895432660693052;-0.9525613622337306;0.9990000000000001;0.015311520783411775
59:27.6;0.055740538324595565;-0.2900899147813344;-0.9520455372204332;0.998;0.015394355474140482
59:27.6;0.055926809763506474;-0.29059875369783916;-0.9515379078988565;1.0;0.015464642635690275
59:27.6;0.056052337477223955;-0.2910141292612082;-0.951081098821798;1.0;0.015514055982754483
59:27.6;0.05610623314039053;-0.2912848194095063;-0.9507243222236798;0.9990000000000001;0.01553758680995878
59:27.6;0.05608792667064002;-0.29137084455433865;-0.9505176851598721;0.995;0.015533727446160616
59:27.6;0.056004408923012894;-0.2912493012929089;-0.9505039077247229;0.991;0.015503902082081664
59:27.6;0.055865997159363676;-0.29091824760103574;-0.9507090068633849;0.991;0.015451339184466738
59:27.6;0.05568226685992212;-0.2903980309883153;-0.9511344355070441;0.991;0.015379863469815977
59:27.6;0.05546001426598224;-0.2897297619471077;-0.9517530650769447;0.991;0.015293164874535595
59:27.6;0.05520425330015755;-0.2889709132927397;-0.9525104186774702;0.9940000000000001;0.015194849580990481
59:27.7;0.054921861352559775;-0.2881885604506176;-0.9533313118956209;0.9990000000000001;0.015089187064623758
59:27.7;0.05462632782099252;-0.28745141364770543;-0.9541307497040283;1.002;0.01498215714355301
59:27.7;0.05434144296453927;-0.2868220242254364;-0.9548267113960963;1.003;0.014882237218155792
59:27.7;0.0541018530379059;-0.2863503195933051;-0.9553519127197605;1.003;0.014800391038165538
59:27.7;0.053949301430763937;-0.2860692837275098;-0.9556621357092111;1.003;0.014748961205093145
59:27.7;0.053924893407824914;-0.2859932262391788;-0.9557399013804756;0.9990000000000001;0.014739568172706137
59:27.7;0.05405930370931277;-0.2861185196153631;-0.9555935884467311;0.9990000000000001;0.014780517641968027
59:27.7;0.05436370686695566;-0.28642610544574015;-0.955253166318093;0.9990000000000001;0.014874423617431779
59:27.7;0.05482393713181234;-0.2868849012002525;-0.9547640630537939;0.997;0.015016681743043044
59:27.7;0.05539944194560331;-0.2874554783900822;-0.9541803680444584;0.996;0.015195201263231158
59:27.8;0.05602765708347977;-0.2880936212049543;-0.9535582583852639;0.996;0.015391584683994214
59:27.8;0.05663343344730496;-0.2887535369308223;-0.9529504574351193;0.996;0.01558369814354605
59:27.8;0.057141793886314754;-0.28939075655782054;-0.9524022666159542;0.998;0.01574921623381047
59:27.8;0.05749109564911875;-0.2899649572890214;-0.9519491652123808;0.997;0.015869376309463935
59:27.8;0.057643477957703776;-0.2904428195693054;-0.9516154768981223;0.998;0.01593207408556068
59:27.8;0.057590427261566934;-0.2908007746761209;-0.9514134652644157;0.996;0.015933645603092024
59:27.8;0.057352838264917;-0.2910272984529441;-0.9513425451205266;0.996;0.015879088244842278
59:27.8;0.05697638127037521;-0.2911242378038028;-0.9513888183115278;0.996;0.015780881906481914
59:27.8;0.05652365268624616;-0.291106639083413;-0.9515254398102964;0.9940000000000001;0.015656790247027243
59:27.8;0.05606448041005615;-0.2910008350222324;-0.9517143160645326;0.9940000000000001;0.015527038825619332
59:27.9;0.05566567533419756;-0.29084094652483516;-0.9519095569888297;0.996;0.015411280273910274
59:27.9;0.055381748475778904;-0.2906641955109054;-0.9520629335001193;0.996;0.015325824852572851
59:27.9;0.05524807304663229;-0.2905055467507884;-0.9521311188115299;0.9990000000000001;0.015281582267405346
59:27.9;0.055277407245071894;-0.29039238102261256;-0.9520837705231793;1.002;0.01528297998312428
59:27.9;0.055459880141861276;-0.2903401041859384;-0.9519107933122626;1.003;0.015327884037988699
59:27.9;0.055765794319490476;-0.2903495937002911;-0.9516266825512434;1.001;0.015408335490591962
59:27.9;0.05615025762626653;-0.2904070740439333;-0.9512701576906963;0.996;0.01551182216289743
59:27.9;0.05655884380901576;-0.2904864635756212;-0.9508986374031801;0.996;0.01562286382968492
59:27.9;0.056933847767137676;-0.29055367148329453;-0.9505788447993294;0.992;0.015724797022001892
59:27.9;0.05722083656470274;-0.2905720630537927;-0.9503758289875528;0.993;0.01580168652834573
59:28.0;0.05737502984448013;-0.2905082962128279;-0.9503426177034021;0.993;0.015840236782228827
59:28.0;0.05736679079689697;-0.2903375918288651;-0.9505121038205989;0.992;0.015831478562359926
59:28.0;0.05718544284490583;-0.29004743755545653;-0.9508921201073094;0.992;0.015771963746782906
59:28.0;0.05684080413743189;-0.2896392638394649;-0.9514641820418995;0.9940000000000001;0.01566426754327178
59:28.0;0.05636210800067665;-0.2891283998413621;-0.9521859966898526;0.996;0.015516714546093862
59:28.0;0.055794322798006835;-0.2885427591513162;-0.9529973345197075;0.998;0.015342349684700862
59:28.0;0.055192365345536905;-0.28792032786954075;-0.953828295702299;1.002;0.015157289191909161
59:28.0;0.05461413063532106;-0.2873054647502557;-0.9546085249310539;1.002;0.014978703354719597
59:28.0;0.054113335786726176;-0.2867444285577985;-0.9552756490146072;1.001;0.01482272332027155
59:28.0;0.053732970192985126;-0.2862807994497923;-0.9557814518356452;1.001;0.014702516221750436
59:28.1;0.05350000688314915;-0.28595128083195215;-0.9560951396698424;1.0;0.014626721575369844
59:28.1;0.05342205311019683;-0.28578215218619357;-0.9562039403023919;0.9990000000000001;0.014598431833039683
59:28.1;0.05348652285735901;-0.28578667355376547;-0.9561117763297519;0.9990000000000001;0.01461487167108401
59:28.1;0.05366252773282338;-0.28596374384130446;-0.9558368879533328;0.998;0.014667830649747665
59:28.1;0.0539052562380156;-0.2862978097317344;-0.9554091491656429;0.9990000000000001;0.014744788119638705
59:28.1;0.0541623630192323;-0.2867596816165955;-0.9548674869032564;0.998;0.0148306026480978
59:28.1;0.054381597570993374;-0.28730798179977535;-0.9542574475282471;0.998;0.014909573190023319
59:28.1;0.054518490207480105;-0.2878913512081617;-0.9536287758858707;0.998;0.014967586816690566
59:28.1;0.05454280143704193;-0.28845180295601286;-0.9530329199681243;0.997;0.014994037779237157
59:28.1;0.05444277135927357;-0.2889295174346579;-0.9525204345877244;0.998;0.014983264221541686
59:28.2;0.054226606468751735;-0.2892690411951748;-0.9521381767683513;0.997;0.014935314146010428
59:28.2;0.05392098300300056;-0.28942638559653977;-0.9519260759181462;1.0;0.014855906097193316
59:28.2;0.05356681900639023;-0.2893759517018455;-0.9519132484842507;0.998;0.014755558935751952
59:28.2;0.053213094879814134;-0.2891157138556466;-0.9521133687714121;0.993;0.01464801845012785
59:28.2;0.05290981688450232;-0.2886691449286313;-0.9525197184873199;0.993;0.01454824476642401
59:28.2;0.05270128547788587;-0.2880831838640104;-0.953101253319031;0.9890000000000001;0.014470320734573073
59:28.2;0.052620721134421754;-0.287422568310642;-0.953801714109008;0.995;0.014425662253610017
59:28.2;0.05268695254603778;-0.2867615206422894;-0.9545434639661049;0.995;0.014421806435710971
59:28.2;0.0529033125761013;-0.2861741371933921;-0.9552362970077644;0.9990000000000001;0.01446185707142387
59:28.2;0.05325837468799426;-0.2857249514939335;-0.9557898328273707;1.002;0.01454448951162326
59:28.3;0.053727904828896125;-0.28546101549600467;-0.9561271491107809;1.005;0.01466433460709434
59:28.3;0.05427741818388242;-0.2854066260965592;-0.9561970187110259;1.005;0.014812576909431833
59:28.3;0.05486493969143045;-0.28556149333591635;-0.9559823024150383;1.004;0.01497767501560421
59:28.3;0.05544381720990713;-0.2859025594785962;-0.9555028118938106;1.002;0.015146180768875745
59:28.3;0.0559656060862286;-0.2863889247732077;-0.9548122116052187;0.9990000000000001;0.015303663053307015
59:28.3;0.05638315767982085;-0.2869686464060277;-0.9539898463998567;0.9990000000000001;0.015435745023994734
59:28.3;0.05665408170119877;-0.2875857995973;-0.9531292911663508;0.995;0.015529249174582808
59:28.3;0.056744553521931244;-0.28818632827075413;-0.9523256664189965;0.995;0.015573385935888662
59:28.3;0.056633051815557056;-0.2887218721095307;-0.951663530649381;0.99;0.015560841429881438
59:28.3;0.05631342286555316;-0.28915171127121775;-0.9512068545916134;0.991;0.015488617820921174
59:28.4;0.05579687362854546;-0.28944377808845934;-0.950992348305809;0.993;0.015358581495746284
59:28.4;0.05511279240055646;-0.28957579868839356;-0.9510270032333064;0.992;0.01517775461788426
59:28.4;0.05430828802669625;-0.2895369589397737;-0.9512899834916382;0.996;0.014958327763832506
59:28.4;0.05344605845676217;-0.2893297102213776;-0.9517382133257787;0.9990000000000001;0.014717234893920279
59:28.4;0.05260007487102873;-0.28897105122550165;-0.9523143391582365;1.0;0.014475081704815188
59:28.4;0.05184888356418522;-0.28849266456079925;-0.9529552801480818;1.0;0.014254326592405012
59:28.4;0.051266972144755195;-0.2879393327994758;-0.9535996944787277;1.0;0.014076826756186933
59:28.4;0.05091534493455446;-0.28736532688601163;-0.9541934131474409;1.0;0.013961094609264247
59:28.4;0.05083289229854795;-0.2868290430025659;-0.9546926224737913;0.9990000000000001;0.013919752435879512
59:28.4;0.05103014173341584;-0.28638656871586676;-0.9550649797210942;0.997;0.013957651204676555
59:28.5;0.051486689736468194;-0.2860848886248574;-0.9552891971198038;0.9940000000000001;0.014070993270924223
59:28.5;0.05215312267749074;-0.285955523381391;-0.9553541108072834;0.996;0.014247648206248423
59:28.5;0.0529573898541499;-0.2860096733552852;-0.9552584628290874;0.998;0.014468655876316693
59:28.5;0.05381452248132738;-0.2862359900987249;-0.9550120404656276;1.0;0.014710674200702836
59:28.5;0.05463785650275315;-0.28660164229157736;-0.9546376694220083;1.002;0.014948957088752114
59:28.5;0.0553498890036269;-0.28705661197498866;-0.9541726775578123;1.001;0.015160421832775757
59:28.5;0.05589131314654104;-0.28754060477263715;-0.9536683190680673;1.0;0.015326424520894704
59:28.5;0.05622715944743753;-0.28799165981380465;-0.9531862407453012;1.0;0.015434899973647338
59:28.5;0.05634932980161185;-0.28835521740206604;-0.9527920322878312;0.998;0.015481558763868253
59:28.5;0.05627539801654875;-0.28859209910665284;-0.9525466910594327;0.996;0.015469963360144702
59:28.6;0.056044199238912344;-0.28868392179596836;-0.9524972672537252;0.9940000000000001;0.015410509703505316
59:28.6;0.055709054574731215;-0.28863495820955914;-0.9526682457814699;0.993;0.015318505880326022
59:28.6;0.055329499959901496;-0.2884701646557822;-0.9530553138156328;0.993;0.015211630054289466
59:28.6;0.054962445363025525;-0.2882298345563511;-0.9536228706321651;0.992;0.015107118558987907
59:28.6;0.05465392149813382;-0.287962046029435;-0.9543061117779863;0.9940000000000001;0.015019112990698786
59:28.6;0.05443287177762342;-0.2877146131212555;-0.9550179731181654;0.995;0.014956663154959452
59:28.6;0.05430849936766347;-0.2875282429297429;-0.9556605447816608;1.004;0.014922856723338318
59:28.6;0.054271920964889746;-0.28743197326857;-0.9561395450521586;1.004;0.014915284812224374
59:28.6;0.05430131136725345;-0.2874412076009414;-0.956379265764471;1.0090000000000001;0.014927583139962503
59:28.6;0.05436848148987125;-0.2875581174338963;-0.9563347495050304;1.0090000000000001;0.01495143137145748
59:28.7;0.054444848496824114;-0.28777375834854607;-0.9559983281538671;1.005;0.014978389338815115
59:28.7;0.05450562353680155;-0.28807094807441624;-0.9553989956373705;0.9990000000000001;0.015001184573162763
59:28.7;0.05453193256766248;-0.28842699237940794;-0.9545951638681507;0.9940000000000001;0.015014332183137828
59:28.7;0.054511181625407294;-0.28881570639462073;-0.953663529341233;0.992;0.015014178609673065
59:28.7;0.05443632937565348;-0.28920858858761855;-0.9526878914109231;0.995;0.014998597982041196
59:28.7;0.054304841592689446;-0.2895753296226339;-0.9517508759077361;1.001;0.014966608407249171
59:28.7;0.05411780623072409;-0.289884153626296;-0.950928947679301;0.995;0.01491807296568745
59:28.7;0.053879194519587;-0.29010266583702454;-0.9502888092523333;0.995;0.014853487297549975
59:28.7;0.05359516749636757;-0.29019971111255843;-0.9498832384963786;0.99;0.014773820991308965
59:28.7;0.0532735733974617;-0.29014845218212454;-0.9497462002961068;0.99;0.014680459576140744
59:28.8;0.05292377828106672;-0.28993066016483277;-0.9498886609893872;0.993;0.014575306265735843
59:28.8;0.05255680141658502;-0.28954172756983676;-0.9502967887688013;0.995;0.014461034073392892
59:28.8;0.05218569023022518;-0.2889950446454429;-0.9509333093843888;0.997;0.014341411201675975
59:28.8;0.051825931897432495;-0.2883238430198438;-0.9517415509737344;0.997;0.014221542649999157
59:28.8;0.05149541448928379;-0.28757909806680704;-0.952651078966091;0.995;0.014107814452009988
59:28.8;0.05121347973905817;-0.28682338868325247;-0.9535840857205053;0.995;0.01400741005205174
59:28.8;0.05099904884413584;-0.28612199974447555;-0.9544623363573138;1.0;0.01392746653662951
59:28.8;0.050868180487045986;-0.2855334494379712;-0.9552145848795618;1.0;0.01387407827671926
59:28.8;0.05083143734491768;-0.2851017408315122;-0.9557837193540982;1.0;0.013851343132346927
59:28.8;0.050891329702277215;-0.28485186622114234;-0.956132387040603;1.002;0.013860563817043703
59:28.9;0.051040248203080237;-0.2847888072265996;-0.9562461597072087;1.0;0.013899699085968055
59:28.9;0.051259639447827646;-0.2848992974885683;-0.9561339339770311;1.0;0.013963222466139827
59:28.9;0.05152120519695854;-0.285155357662622;-0.9558257502532901;1.0;0.014042559598096882
59:28.9;0.05179029337802649;-0.28551877187162134;-0.9553685619441085;0.9990000000000001;0.014127131379635265
59:28.9;0.052030781930666486;-0.2859458865085391;-0.9548205897362788;0.998;0.01420580933821418
59:28.9;0.052210352583589276;-0.2863922200865487;-0.9542448365242284;0.996;0.014268478355780365
59:28.9;0.05230523186788208;-0.28681641399424274;-0.9537024490175162;0.996;0.014307443222206269
59:28.9;0.05230368735266547;-0.28718327548350275;-0.9532467765051582;0.996;0.01431847604064659
59:28.9;0.052207622285644795;-0.2874660489155642;-0.9529187900491541;0.996;0.014301327920992826
59:28.9;0.052031913891521;-0.28764815973933483;-0.9527440324893082;0.996;0.014259609681405196
59:29.0;0.051801700307273345;-0.2877243714631111;-0.9527308903580016;0.996;0.014200083938825644
59:29.0;0.05154816131069659;-0.28770101330523046;-0.9528699385044113;0.9940000000000001;0.014131497834103402
59:29.0;0.051303407099826365;-0.28759500078594596;-0.9531343765329057;0.9940000000000001;0.014063119717602034
59:29.0;0.051095259730892226;-0.2874316361515299;-0.9534820103093191;0.9940000000000001;0.014003212574512827
59:29.0;0.05094292573620049;-0.28724139844121466;-0.9538594831819224;0.996;0.013957746865643892
59:29.0;0.05085446952021051;-0.28705606088590957;-0.9542091349923097;0.9990000000000001;0.01392962481888624
59:29.0;0.05082666484347703;-0.2869045770420853;-0.9544779169325216;1.004;0.013918581428731347
59:29.0;0.05084729757896448;-0.28680930871406346;-0.9546266020309018;1.004;0.013921776305346143
59:29.0;0.05089919690828559;-0.2867832347422912;-0.9546367803185996;1.003;0.013934867769174497
59:29.0;0.0509646165340985;-0.28682863547950144;-0.954513466522687;0.9990000000000001;0.01395318420381194
59:29.1;0.05102868009198711;-0.2869374188697756;-0.9542826203734103;0.995;0.013972642155423178
59:29.1;0.05108125158924323;-0.28709290571339363;-0.9539847297568744;0.995;0.01399024801959886
59:29.1;0.05111722290216245;-0.28727262481644267;-0.9536667974666508;0.996;0.014004195232939404
59:29.1;0.05113559115810824;-0.2874515054367893;-0.9533749585848342;0.997;0.014013661052023656
59:29.1;0.0511378486620424;-0.2876048815238243;-0.9531488035836604;0.996;0.014018431173204608
59:29.1;0.051126225808827704;-0.2877109815218096;-0.9530173566107334;0.995;0.014018481816737462
59:29.1;0.05110229571426806;-0.287752876809516;-0.9529963801973891;0.995;0.014013652242402277
59:29.1;0.05106635471674309;-0.2877199960352351;-0.9530870361774026;0.995;0.014003528048070896
59:29.1;0.051017804876588094;-0.287609300002137;-0.9532762079335995;0.996;0.013987607829146848
59:29.1;0.05095648302029394;-0.28742613585772697;-0.9535386689434054;0.997;0.013965741902437866
59:29.2;0.050884489370750935;-0.28718464050780124;-0.9538409271055328;0.9990000000000001;0.01393871000215667
59:29.2;0.05080767761720303;-0.28690734874855217;-0.9541461756272811;1.0;0.013908680477650237
59:29.2;0.05073590966653553;-0.2866235633310164;-0.9544194545855099;1.0;0.01387927003901502
59:29.2;0.050681643736410625;-0.2863663228809133;-0.9546320071471119;1.0;0.013855066866268865
59:29.2;0.05065716426320271;-0.2861684353206412;-0.9547639923528893;0.998;0.013840718489932404
59:29.2;0.050671352998866014;-0.2860585772694589;-0.9548051778351542;0.996;0.013839877323113745
59:29.2;0.05072712335768306;-0.28605843919558605;-0.9547538754588871;0.997;0.013854358760662083
59:29.2;0.05082043091981007;-0.28618129010037785;-0.9546149240928875;0.997;0.013883782453575876
59:29.2;0.050941129028784185;-0.28643155117882096;-0.9543976119237243;0.997;0.013925755476486985
59:29.2;0.05107518619056311;-0.28680463054543454;-0.9541140738485965;0.997;0.013976435331942002
59:29.3;0.05120745245431885;-0.2872865939414578;-0.953778314449725;0.998;0.014031237464715648
59:29.3;0.05132434465247157;-0.2878537312906702;-0.9534058196539595;0.997;0.014085526161547252
59:29.3;0.05141613295238179;-0.2884723380361639;-0.9530135600815823;0.998;0.01413522300245201
59:29.3;0.05147866833800096;-0.28909918019103165;-0.9526199954471485;0.997;0.014177310700324713
59:29.3;0.05151439370724396;-0.28968319064572284;-0.9522446849583729;0.996;0.014210208342389721
59:29.3;0.05153242842811561;-0.2901688472108781;-0.9519073896847045;0.996;0.014233971482315947
59:29.3;0.05154753882016075;-0.29050135406446753;-0.9516268995854561;0.997;0.014250260553706226
59:29.3;0.05157794265252181;-0.29063310208225795;-0.9514199153626044;0.997;0.01426202949539112
59:29.3;0.051641992439124686;-0.29053018507212514;-0.9513000846176125;0.996;0.014272885634262879
59:29.3;0.05175387647805539;-0.29017763123044665;-0.9512770319023803;0.997;0.014286104651000497
59:29.4;0.051918823463104946;-0.28958254261916466;-0.9513552310593255;0.995;0.014303421270307329
59:29.4;0.05212880083015031;-0.2887748542836774;-0.9515328110843612;0.9940000000000001;0.014323886672047002
59:29.4;0.05236002278814555;-0.2878055202058654;-0.9518007331901879;0.9940000000000001;0.014343164571992471
59:29.4;0.052573564744153686;-0.28674192607029925;-0.9521430163845696;0.996;0.014353599023258327
59:29.4;0.052719736165403396;-0.2856606503779159;-0.9525384525391852;0.996;0.014345185393501063
59:29.4;0.05274542228104963;-0.2846383176066673;-0.9529635646898937;0.997;0.014307192934604949
59:29.4;0.05260222194153313;-0.2837418930892915;-0.9533959706859094;0.996;0.014229867737048681
59:29.4;0.05225321737508059;-0.2830200828567966;-0.9538171927148978;0.996;0.014105725771213155
59:29.4;0.05167759286788746;-0.282497348915367;-0.9542142680925192;0.996;0.013930367019647592
59:29.4;0.050873562043822214;-0.28217140654728207;-0.9545800951144098;0.995;0.01370305889112597
59:29.5;0.04986008837979798;-0.2820142186058775;-0.954913040290153;0.996;0.013427274677610426
59:29.5;0.04867711630099654;-0.28197595712950857;-0.9552165973384368;0.998;0.013111089485259455
59:29.5;0.04738346757616355;-0.28199137724898415;-0.9554995451776954;1.001;0.012767126250434186
59:29.5;0.04605172466962335;-0.28198817123245074;-0.9557761862278087;1.002;0.012411749335371995
59:29.5;0.044760354449977786;-0.28189664784582136;-0.9560654471353285;1.001;0.01206343674376593
59:29.5;0.0435846602987438;-0.2816594683149913;-0.9563876229689336;0.9990000000000001;0.011740645299656693
59:29.5;0.04258898466122184;-0.2812396955465807;-0.9567585845170794;0.992;0.011459779811942907
59:29.5;0.041822070188738104;-0.2806257277339611;-0.9571828760484646;0.992;0.011233832177234
59:29.5;0.04131590764451902;-0.27983272337454346;-0.9576483603512983;0.996;0.011071892653849792
59:29.5;0.04108702239979056;-0.27890096910538154;-0.9581249194310737;0.998;0.010979355007667294
59:29.6;0.0411388492887416;-0.2778917020573856;-0.958568087901323;0.9990000000000001;0.010958489229025571
59:29.6;0.04146433431839258;-0.276880720315163;-0.9589265990939208;1.001;0.011009124396643888
59:29.6;0.04204837721645968;-0.27595041657452;-0.9591517830745818;1.003;0.011129294433161059
59:29.6;0.042869814997021034;-0.27518133924736815;-0.9592065119882919;1.004;0.01131573342326787
59:29.6;0.04390260129683926;-0.2746442621480278;-0.9590715728778834;1.002;0.011564099037384203
59:29.6;0.04511595063960158;-0.27439319265061596;-0.9587480583504825;0.996;0.011868830922210723
59:29.6;0.04647342116262264;-0.27445960392891205;-0.9582557373484858;0.996;0.012222625490875048
59:29.6;0.047931134865873165;-0.27484854089058447;-0.9576288488475164;0.996;0.01261561330493477
59:29.6;0.04943567028499066;-0.2755374269404519;-0.9569112474717315;0.997;0.01303444922997675
59:29.6;0.050922491838974626;-0.276477989566463;-0.9561520388546431;0.996;0.013461614995144679
59:29.7;0.0523157795336555;-0.27760095478688074;-0.9554017983866933;0.997;0.013875214665207703
59:29.7;0.0535301356192147;-0.2788224816295294;-0.9547090321307298;0.997;0.014249419205460412
59:29.7;0.05447427140822127;-0.28005107291470677;-0.9541166241000555;0.993;0.014555600727102862
59:29.7;0.05505681815571279;-0.2811939982426359;-0.9536584320291863;0.991;0.014764203038955587
59:29.7;0.05519466307999351;-0.28216289550809315;-0.9533568948439068;0.992;0.014847471551131712
59:29.7;0.054823907436963054;-0.28287883898011673;-0.9532229097246624;0.997;0.01478307969042297
59:29.7;0.053912190449741965;-0.28327742594295213;-0.9532585273597545;1.002;0.014558265787665345
59:29.7;0.05246947286968353;-0.2833140757867478;-0.9534613959735426;1.002;0.014173528031196553
59:29.7;0.05055388369796843;-0.28296892260660284;-0.9538286268529093;1.002;0.013644688292054152
59:29.7;0.0482703283913932;-0.28225010830977;-0.9543578746448623;0.9990000000000001;0.013002463160916895
59:29.8;0.04576128139625112;-0.2811944727166203;-0.9550447461459419;0.9940000000000001;0.012289343305692728
59:29.8;0.04319068378538503;-0.2798654403152691;-0.9558773325702795;0.992;0.011554243474431656
59:29.8;0.0407232744546992;-0.2783486836422965;-0.9568300216397257;0.991;0.01084592648445215
59:29.8;0.03850316005656569;-0.27674621734453825;-0.9578593097049157;0.992;0.010206569397547107
59:29.8;0.03663609329411172;-0.27516900159068675;-0.9589038556530162;0.996;0.009666822165721694
59:29.8;0.03517891347773983;-0.2737278138621092;-0.9598896588160045;0.9990000000000001;0.009243206672501713
59:29.8;0.03413750479363208;-0.2725226363168279;-0.9607394767202752;1.003;0.008937992622969765
59:29.8;0.03347265995530962;-0.2716317466210263;-0.9613841212266447;1.003;0.008741132362554728
59:29.8;0.0331119405617672;-0.2711024134341792;-0.9617727839281273;1.002;0.008633571717145216
59:29.8;0.032965065337141435;-0.270945067457121;-0.9618802626658441;1.001;0.008591246960579259
59:29.9;0.03294028713538591;-0.2711321348931258;-0.961710314134407;1.001;0.008589198666938535
59:29.9;0.03295919779934349;-0.2716019218140219;-0.9612953805005857;1.002;0.008605306168353812
59:29.9;0.032967551462113526;-0.27226710193431414;-0.9606931802913332;1.004;0.008623162478901216
59:29.9;0.032940445257774634;-0.273026309870983;-0.9599804104436306;1.0;0.008633687704872758
59:29.9;0.03288136283355271;-0.2737765984443261;-0.9592437353629332;0.995;0.008635253756092845
59:29.9;0.0328158120109605;-0.2744247844436274;-0.9585688843940131;0.9940000000000001;0.008632365380237234
59:29.9;0.032781488152606154;-0.2748966533344243;-0.9580296954223793;0.9940000000000001;0.008633305087259414
59:29.9;0.03281768361973473;-0.27514363860634944;-0.9576792489671266;0.9940000000000001;0.008647438406620406
59:29.9;0.03295644525359347;-0.2751467074212232;-0.9575444700833446;0.996;0.008682876708715422
59:29.9;0.03321689407300752;-0.27491723021124786;-0.9576244344746909;0.997;0.008744927235639596
59:30.0;0.033603019546428824;-0.27449465906055576;-0.9578918238230894;0.996;0.008835449918498658
59:30.0;0.034104629113350236;-0.27394083671041636;-0.9582967780721751;0.996;0.00895303200218365
59:30.0;0.03470070896950884;-0.27333115938930985;-0.9587726529615808;0.9940000000000001;0.009093752490898896
59:30.0;0.035364047865415846;-0.27274379035560387;-0.9592435531859541;0.996;0.009252215303889264
59:30.0;0.036065910734016556;-0.2722489455162442;-0.9596336223699765;1.0;0.009422552492191563
59:30.0;0.036779908090595455;-0.2719002497361637;-0.9598775835040322;1.004;0.009599223325272162
59:30.0;0.0374845263763681;-0.27172942161679936;-0.9599309136804743;1.004;0.00977751903597824
59:30.0;0.03816395115355741;-0.27174461573364067;-0.9597771739339598;1.004;0.00995370341614179
59:30.0;0.03880720956345182;-0.271931999038515;-0.9594303719369133;1.001;0.010124793950187446
59:30.0;0.039406110787480124;-0.27225976385777145;-0.958931625890534;0.997;0.010288088217232837
59:30.1;0.03995247281135531;-0.2726837622250655;-0.9583409945931117;0.9940000000000001;0.010440541119635034
59:30.1;0.040435010293574374;-0.2731539648645478;-0.9577266471562287;0.992;0.010578074901408828
59:30.1;0.040836592339362314;-0.2736207966224635;-0.9571541954923426;0.993;0.010694993007855239
59:30.1;0.04113296563594185;-0.2740403192426341;-0.956678641885039;0.995;0.01078376874186976
59:30.1;0.041293748760502756;-0.2743775791292656;-0.9563400898549037;0.997;0.010835408594944675
59:30.1;0.04128572211431189;-0.2746081328582913;-0.9561627755410446;0.996;0.010840395131338184
59:30.1;0.04107790120084441;-0.2747183217452408;-0.9561559747978768;0.996;0.010790078739771473
59:30.1;0.040647694803561236;-0.27470496504236896;-0.9563154048096325;0.996;0.010678335991624408
59:30.1;0.0399871704605586;-0.2745748837280492;-0.9566245221397643;0.995;0.0105032328056809
59:30.1;0.03910806471979287;-0.2743443637148217;-0.9570558967811774;0.995;0.01026832653588451
59:30.2;0.0380441512826577;-0.27403843954382906;-0.9575732056672491;0.998;0.00998323676765531
59:30.2;0.036850182741465294;-0.2736895794050703;-0.9581342480503829;0.998;0.009663273513051077
59:30.2;0.03559758501765513;-0.2733351310719386;-0.9586948233162125;0.9990000000000001;0.009328168282744239
59:30.2;0.03436779620890019;-0.27301324378540637;-0.959212778664891;0.998;0.009000162593406628
59:30.2;0.033244306497451186;-0.2727578409750225;-0.959651513647387;0.998;0.008701779503733256
59:30.2;0.032304388091673374;-0.2725938607261523;-0.9599826241805404;0.9990000000000001;0.008453585742491372
59:30.2;0.031611512927071164;-0.27253396328975454;-0.9601876927350668;1.0;0.008272219479953687
59:30.2;0.03120944816407575;-0.27257738147611366;-0.9602592047603181;1.0;0.00816891512377844
59:30.2;0.031118831761414927;-0.2727109628569899;-0.960200375357321;0.998;0.008148689184498917
59:30.2;0.03133663408262258;-0.27291204293549476;-0.9600237403595485;0.998;0.008210262064155243
59:30.3;0.03183836743688982;-0.2731525996331077;-0.9597488230366444;0.998;0.008346679101177893
59:30.3;0.03258239760242098;-0.27340397099083263;-0.959399583786299;0.998;0.008546482011517628
59:30.3;0.03351543881376447;-0.2736412612152423;-0.9590022779836209;0.998;0.008795208354205589
59:30.3;0.03457828784844066;-0.27384659954054485;-0.9585839671451614;0.9990000000000001;0.009076972060805105
59:30.3;0.03571094678634769;-0.27401068252234984;-0.9581715869699949;1.0;0.009375882314085598
59:30.3;0.03685647037863774;-0.2741324158092066;-0.9577911438192281;0.997;0.009677093836499623
59:30.3;0.03796322527631744;-0.2742169346650362;-0.9574664004660588;0.995;0.009967377719996447
59:30.3;0.03898565242545796;-0.2742727203382051;-0.9572167802256943;0.995;0.010235232770383941
59:30.3;0.03988389325664361;-0.2743087121441436;-0.9570550067383062;0.9940000000000001;0.010470659721746987
59:30.3;0.04062287388284388;-0.27433215377340053;-0.95698538112844;0.995;0.010664798668850943
59:30.4;0.04117172362437255;-0.27434756806614913;-0.9570033219074255;0.995;0.010809699194860115
59:30.4;0.0415044086905858;-0.2743569019112914;-0.9570963072874743;0.997;0.010898475734800187
59:30.4;0.04160192548567023;-0.2743605526813222;-0.9572460041925271;0.997;0.010925936270256214
59:30.4;0.041455609990507444;-0.274358740923595;-0.9574311983479453;0.998;0.010889543800397061
59:30.4;0.04107052794155064;-0.2743526709904892;-0.9576311008944922;0.9990000000000001;0.010790404375408473
59:30.4;0.04046768078088853;-0.2743450732386306;-0.957828567439198;1.0;0.01063391701307986
59:30.4;0.03968398398504672;-0.2743398901866356;-0.9580126595480746;0.9990000000000001;0.010429787839895144
59:30.4;0.038769739341556926;-0.27434110250822374;-0.958179933037514;0.9990000000000001;0.010191329239176955
59:30.4;0.037784250930181396;-0.2743510214630245;-0.9583340130713223;0.998;0.00993423205759538
59:30.4;0.036790582589998164;-0.27436859774388417;-0.9584834183572828;0.996;0.00967510468425383
59:30.5;0.035850155766425466;-0.274388301919017;-0.9586381372924456;0.995;0.009429992372335345
59:30.5;0.03501764382153398;-0.2744000117148553;-0.9588059857844281;0.995;0.009213015106067571
59:30.5;0.034336704156385615;-0.27439015648150217;-0.9589899780479362;0.997;0.00903527140448097
59:30.5;0.033837090971784854;-0.27434411550878574;-0.9591875351446344;0.9990000000000001;0.008904144405510569
59:30.5;0.03353342935115585;-0.27424954068135765;-0.9593914661869204;1.0;0.00882307009513853
59:30.5;0.0334256638211391;-0.27409993582581693;-0.9595918170709465;1.001;0.008791753655284465
59:30.5;0.03350101929784215;-0.2738976482368709;-0.9597774078243657;0.9990000000000001;0.008806773910744657
59:30.5;0.03373708901889164;-0.27365552523463116;-0.9599363259592664;0.9990000000000001;0.008862459322293063
59:30.5;0.03410545789684766;-0.2733967393958262;-0.9600555067266392;0.9990000000000001;0.008951865707751779
59:30.6;0.03457528968111233;-0.27315252463879547;-0.9601201943415171;0.996;0.009067689714597933
59:30.6;0.035116495702469226;-0.2729578956097207;-0.9601141924814113;0.997;0.009203006349428854
59:30.6;0.03570223472589859;-0.27284602737700037;-0.9600215342857178;0.9990000000000001;0.00935177416696703
59:30.6;0.03631054902870745;-0.27284258965486485;-0.9598296252554027;1.0;0.009509093746093492
59:30.6;0.03692507937485375;-0.27296144161801417;-0.9595330995268787;1.001;0.009671252034849162
59:30.6;0.037535023725136445;-0.2732026506053077;-0.9591370399698346;1.001;0.00983563188476811
59:30.6;0.03813465772116039;-0.27355318866554795;-0.958658212358093;1.0;0.010000585592463333
59:30.6;0.038722729602785784;-0.2739900799077998;-0.9581235287338017;0.995;0.010165349335296552
59:30.6;0.0393018361865671;-0.2744851753945549;-0.9575660310418067;0.995;0.010330003442324773
59:30.6;0.03987756377420444;-0.27501029880830524;-0.9570198726154263;0.995;0.010495388815752684
59:30.7;0.0404570269730043;-0.27554154215834253;-0.956516117776015;0.997;0.010662851042925012
59:30.7;0.041046589367254235;-0.2760618651453118;-0.9560803210792103;0.997;0.010833726655878312
59:30.7;0.04164886329575945;-0.27656151656553757;-0.9557316416440123;0.996;0.011008568914845418
59:30.7;0.04225949950463329;-0.2770362491296708;-0.9554826555038247;0.995;0.011186230284814443
59:30.7;0.042864710997288925;-0.27748401931479594;-0.9553392191555058;0.995;0.011363064806054625
59:30.7;0.043440530469428536;-0.27790147832198525;-0.9553002941115197;0.993;0.011532564399761306
59:30.7;0.0439541866745089;-0.2782815682381316;-0.9553580851838871;0.995;0.01168559616754337
59:30.7;0.044367088235713024;-0.27861297274421054;-0.9554989309168578;0.997;0.01181115766778824
59:30.7;0.04463842534025416;-0.27888144402893483;-0.9557050747531399;0.997;0.011897408589449082
59:30.7;0.04472860102157397;-0.279072450204238;-0.9559569548598739;0.9990000000000001;0.011932752077086663
59:30.8;0.04460229482632107;-0.27917431535066134;-0.9562353683618855;0.998;0.011906866019201021
59:30.8;0.04423149829939132;-0.2791810395474455;-0.956522961883166;0.997;0.011811715311071828
59:30.8;0.04359902922309246;-0.27909406794409625;-0.9568049255230705;0.998;0.011642622804856914
59:30.8;0.04270277110128397;-0.27892239719313616;-0.957069253256061;0.9990000000000001;0.01139942149208089
59:30.8;0.04156037733701906;-0.2786808377166035;-0.9573069754365243;0.997;0.011087606713199248
59:30.8;0.0402135793815368;-0.27838698187883976;-0.9575124024352856;0.997;0.010719291016783497
59:30.8;0.03873068658400959;-0.2780579623924413;-0.9576832924148106;0.997;0.01031365126727676
59:30.8;0.03720577677367836;-0.2777080483147731;-0.9578210528498443;1.0;0.009896536276940206
59:30.8;0.035753742066654465;-0.2773477098801638;-0.957931008031404;1.0;0.009499053166161626
59:30.8;0.034501340675203315;-0.2769843355491488;-0.9580222748717427;1.0;0.009155177889777648
59:30.9;0.03357500951603544;-0.2766243189621924;-0.9581064903818887;0.998;0.008898571294479775
59:30.9;0.03308643228324059;-0.27627569992781503;-0.9581950034162233;0.997;0.008758838714994421
59:30.9;0.03311735861855047;-0.27595025570449794;-0.9582949469065035;0.995;0.008757611792874572
59:30.9;0.03370604065061194;-0.27566422752583897;-0.9584053096392557;0.9940000000000001;0.008905070527871815
59:30.9;0.03483819936438663;-0.2754374970751396;-0.9585144435048502;0.9940000000000001;0.009197661554667003
59:30.9;0.036445026205911;-0.2752915277093934;-0.9586002741458683;0.996;0.009617643204757866
59:30.9;0.038409292862376654;-0.27524666437563444;-0.9586337439524684;1.0;0.010134704452171331
59:30.9;0.040578451995906664;-0.2753194629360699;-0.9585848554186596;1.0;0.010709346057391779
59:30.9;0.04278159324206795;-0.2755204846444637;-0.958429691562775;1.0;0.011297207543820156
59:30.9;0.044846822428413674;-0.2758526172926031;-0.9581565946095421;1.002;0.011853463833344602
59:31.0;0.0466171038373902;-0.2763097990392438;-0.9577701894655745;1.002;0.01233681042925528
59:31.0;0.04796377525211537;-0.2768760500248334;-0.9572924872690414;0.9990000000000001;0.012712863985701588
59:31.0;0.04879680121897648;-0.27752490576241434;-0.9567607178780804;0.998;0.012956767133533983
59:31.0;0.04907063178109528;-0.27821968620536824;-0.9562221486249821;0.995;0.013054742347282268
59:31.0;0.04878516050215222;-0.2789152630927419;-0.9557269336339885;0.993;0.013004505544112652
59:31.0;0.04798208391188642;-0.2795617958056531;-0.9553206378484391;0.9940000000000001;0.012814630477870053
59:31.0;0.04673739606572526;-0.2801102990978833;-0.9550381541005349;0.996;0.01250300232064457
59:31.0;0.04515122810404723;-0.28051908275408655;-0.954900077545687;0.996;0.012094555347851707
59:31.0;0.04333697656775204;-0.28075945461012775;-0.9549115473818961;0.996;0.011618662713336803
59:31.0;0.04141170980083895;-0.2808191267937527;-0.9550628911807487;0.997;0.011106617551099845
59:31.1;0.03948862302202171;-0.2807025015450788;-0.9553314311803845;0.995;0.010589424045169209
59:31.1;0.03767101190649147;-0.2804278649914771;-0.9556842045599364;0.995;0.01009584931411776
59:31.1;0.036047135496442076;-0.2800221834237441;-0.9560817655062237;0.9940000000000001;0.009650687034840903
59:31.1;0.034686028728355585;-0.2795147389548006;-0.9564834108468623;0.997;0.009273351781749881
59:31.1;0.033634657011267846;-0.27893120910637914;-0.9568537778936868;1.001;0.008976968239408798
59:31.1;0.03291654469486016;-0.2782897906006182;-0.9571697657980422;1.003;0.0087679988943671
59:31.1;0.03253168999671017;-0.2776004046711982;-0.9574256980544705;1.004;0.00864632986287084
59:31.1;0.03245752707316964;-0.2768669762849316;-0.9576344948553118;0.997;0.008605703266756389
59:31.1;0.032650904486323074;-0.27609172094931234;-0.957823875986706;0.997;0.008634441649601038
59:31.1;0.033051416472423926;-0.2752797834192518;-0.9580286512300273;0.9940000000000001;0.008716515203934934
59:31.2;0.03358667461602395;-0.27444265318114375;-0.9582815704286415;0.9940000000000001;0.008833071625355345
59:31.2;0.034179907326035125;-0.2735994517075041;-0.9586052697950449;0.9940000000000001;0.008964496783234422
59:31.2;0.034759512176942564;-0.27277606942770605;-0.9590070285563277;0.996;0.009092885661170363
59:31.2;0.035269103815118046;-0.27200275752388603;-0.9594769865008179;0.996;0.009204544331385473
59:31.2;0.035675810250915305;-0.2713109835862473;-0.9599895231919089;0.998;0.009291968195104422
59:31.2;0.03597466250562561;-0.27073030441895185;-0.9605069346378755;0.9990000000000001;0.009354791333351547
59:31.2;0.03618789503647437;-0.2702858240048486;-0.9609844111666482;0.9990000000000001;0.009399460627257375
59:31.2;0.03635934293935694;-0.2699964910213012;-0.9613754806540669;1.0;0.009437722158256365
59:31.2;0.03654529555407895;-0.2698742046674088;-0.9616373966102509;1.0;0.00948427631025428
59:31.2;0.03680360045289921;-0.269923625434495;-0.9617362089520375;1.002;0.009554042592473918
59:31.3;0.03718247874194408;-0.2701425337705448;-0.9616512338984816;1.003;0.009659372191309638
59:31.3;0.03771011794031538;-0.2705223009616503;-0.9613783418407978;1.003;0.009807431814635002
59:31.3;0.03838622201313956;-0.2710478575419152;-0.9609312165742067;1.001;0.009998011952217743
59:31.3;0.039177057725471635;-0.2716969476247879;-0.9603399446259365;0.997;0.010222133989056421
59:31.3;0.040015586928381176;-0.27243924650741097;-0.9596471110888067;0.996;0.010461896567164926
59:31.3;0.040807752772517775;-0.273236392236652;-0.958902519339104;0.997;0.01069191952871896
59:31.3;0.041444864140504314;-0.27404373760750633;-0.9581579418238912;0.996;0.010882475700521485
59:31.3;0.04182050439439358;-0.27481386500831984;-0.9574627857363335;0.998;0.011003980437013089
59:31.3;0.04184896004717139;-0.275501120834893;-0.9568608437432438;0.998;0.011032065283550642
59:31.3;0.04148141044138965;-0.2760660557217911;-0.9563878879114255;0.998;0.010952180495052158
59:31.4;0.0407164704918755;-0.27647888892378036;-0.9560697055938832;0.997;0.010762710456416923
59:31.4;0.039602996446360283;-0.2767217305690404;-0.9559202326471173;0.993;0.010475939113817724
59:31.4;0.03823476701438861;-0.27678979468067;-0.955939862062277;0.993;0.010116705166473844
59:31.4;0.03673830790553873;-0.2766919435913688;-0.9561146113219768;0.995;0.009719090336923133
59:31.4;0.035256371274925716;-0.27645071085917605;-0.9564169763604774;0.996;0.009321860471798149
59:31.4;0.033930011205529735;-0.2761016255892754;-0.9568086867485925;0.998;0.00896350935870533
59:31.4;0.03288190518261344;-0.2756913615880302;-0.9572447132338134;1.001;0.008677669539720422
59:31.4;0.032203016828392654;-0.27527417846956614;-0.9576773841109187;0.995;0.008489483443761723
59:31.4;0.03194401816588174;-0.2749065419399822;-0.9580596783563663;0.995;0.008413315620347351
59:31.4;0.032112074206654156;-0.2746405749675381;-0.9583477374703583;0.995;0.008451935619132237
59:31.5;0.03267286270052502;-0.27451747538386867;-0.9585036294657963;0.996;0.008597079556819405
59:31.5;0.03355716274040447;-0.2745619401452625;-0.958499365776989;0.998;0.008831152796476859
59:31.5;0.034670831200407634;-0.2747783838148838;-0.9583221341993537;1.002;0.009129738480798195
59:31.5;0.035906567653068176;-0.2751495868515769;-0.9579794801592526;1.003;0.009464528080886
59:31.5;0.037155829418160105;-0.2756381216590462;-0.957502386839224;1.002;0.009806321045715948
59:31.5;0.03831951176399106;-0.276190446569238;-0.956944329112061;0.998;0.010127804102656356
59:31.5;0.03931624093987526;-0.2767432101070595;-0.9563755521576239;0.996;0.010405846803328928
59:31.5;0.04008744802362295;-0.27723109890820324;-0.9558734740190703;0.993;0.0106230876833437
59:31.5;0.040599107248317966;-0.27759522531085057;-0.9555113044366477;0.993;0.010768725460936095
59:31.5;0.040840864984297676;-0.2777906392555002;-0.9553472349326557;0.992;0.010838614995334967
59:31.6;0.040823612540531136;-0.2777915987901417;-0.9554160669056578;0.992;0.010834854437887023
59:31.6;0.040576216645911926;-0.27759397103738204;-0.9557243751048758;0.9940000000000001;0.01076500517189748
59:31.6;0.04014156478013377;-0.27721500514991093;-0.9562495871251213;0.995;0.010640996314025788
59:31.6;0.039571850116218624;-0.27669105914430864;-0.9569427691182228;0.995;0.010477735873693873
59:31.6;0.03892330396020854;-0.276073677679642;-0.9577344970278481;0.998;0.010291527270323678
59:31.6;0.0382509854257059;-0.2754242014446843;-0.9585429977486947;0.9990000000000001;0.010098487351968295
59:31.6;0.037604183625876385;-0.27480714300601305;-0.9592836624238854;0.998;0.00991313977697195
59:31.6;0.037022544161532264;-0.2742828398443296;-0.9598790298423512;1.003;0.009747234199415618
59:31.6;0.03653287714019632;-0.27390022823291077;-0.9602682896388486;1.003;0.00960879345485568
59:31.6;0.03614704879473188;-0.273690690155705;-0.9604150392060833;1.003;0.009501492331277017
59:31.7;0.035861888675358486;-0.2736636634399276;-0.9603118621442565;0.9990000000000001;0.009424592644432865
59:31.7;0.03566193693298625;-0.27380448816526204;-0.9599809424069814;0.9990000000000001;0.009373636367430861
59:31.7;0.03552484522180666;-0.2740751999999633;-0.9594709989824262;1.0;0.009341869289439158
59:31.7;0.035427822157005344;-0.27441916359495744;-0.9588513371322593;0.9990000000000001;0.009322023006718562
59:31.7;0.035352790225681635;-0.27476969199810447;-0.958203633249706;0.9990000000000001;0.009307870587748434
59:31.7;0.03528858386002826;-0.2750612741052471;-0.9576118731226732;0.998;0.009295081516318266
59:31.7;0.035230014220574354;-0.2752408677144846;-0.957151061501575;0.993;0.009281244681323937
59:31.7;0.035174884435370694;-0.27527664435434684;-0.9568759097250046;0.9890000000000001;0.009265261170033326
59:31.7;0.03512063821417338;-0.2751624055030762;-0.9568115787589802;0.9890000000000001;0.009246511604051549
59:31.7;0.035062395794746265;-0.27491711797989066;-0.9569491143364509;0.992;0.009224274431128407
59:31.8;0.0349935505490052;-0.2745801523919402;-0.957247508708405;0.996;0.009197745657403757
59:31.8;0.034908773139843446;-0.2742035434605774;-0.9576422860440759;0.9990000000000001;0.009166656625426959
59:31.8;0.03480792338915227;-0.2738429471360067;-0.9580583214627191;1.001;0.009132120257540573
59:31.8;0.03469896578609994;-0.27354904399743574;-0.9584235336690258;1.002;0.00909723054997986
59:31.8;0.034598603665663995;-0.2733608959889769;-0.9586804174341352;1.001;0.009067108599152015
59:31.8;0.034530315312381675;-0.27330216065152857;-0.9587935421566298;1.0;0.009048335795776323
59:31.8;0.034520199354808795;-0.2733802420940989;-0.9587524119383085;1.002;0.009047881174713666
59:31.8;0.03459138173262367;-0.27358774857475354;-0.9585699835511835;0.996;0.009071693759822586
59:31.8;0.03475796007265874;-0.27390525605437477;-0.9582777060998562;0.996;0.009123175529384613
59:31.8;0.035019801897546526;-0.2743043464884287;-0.9579184862611299;0.995;0.009201845323154543
59:31.9;0.03535971484001032;-0.27475023232717555;-0.9575392958628964;0.9940000000000001;0.009302580310794055
59:31.9;0.035744119492754176;-0.2752039196743367;-0.9571848309723867;0.9940000000000001;0.009415752320575803
59:31.9;0.036127381821673285;-0.2756243820838497;-0.9568929832144831;0.995;0.009528345408413668
59:31.9;0.03645887681939063;-0.27597126106767306;-0.9566923257466929;0.996;0.00962585762185304
59:31.9;0.03669121259697362;-0.2762082685294295;-0.9566013629331029;0.997;0.009694596446694893
59:31.9;0.036788007822791166;-0.27630703875079576;-0.9566289704239114;0.997;0.009723928290368875
59:31.9;0.036729865421610636;-0.2762508538019883;-0.9567753792114863;0.998;0.009708071295368869
59:31.9;0.03651753528332713;-0.2760374980752755;-0.9570332082273643;0.997;0.00964709483111421
59:31.9;0.03617186030014589;-0.27568052450030245;-0.9573883211617018;0.997;0.009546958981672926
59:31.9;0.035730810633617764;-0.27520847957811956;-0.9578205394907545;0.998;0.00941865363075959
59:32.0;0.035244275170139824;-0.2746620554476811;-0.9583043511228222;0.997;0.009276640127973043
59:32.0;0.03476729903210516;-0.2740895555887385;-0.9588097372778651;0.996;0.009136836964815686
59:32.0;0.03435257361191207;-0.2735413796208769;-0.9593032983122036;0.996;0.009014429562637701
59:32.0;0.034043306492261394;-0.27306439988813186;-0.9597500184720331;0.998;0.008921850623168337
59:32.0;0.03386778021258688;-0.27269707774145574;-0.9601159184115021;1.0;0.008867289487081922
59:32.0;0.03383664914149991;-0.2724659526783645;-0.9603713103576322;1.0;0.00885398468454902
59:32.0;0.033943345940273366;-0.27238380865830436;-0.9604938665748887;0.998;0.008880359233603573
59:32.0;0.03416719163337123;-0.2724495135409744;-0.9604708385665617;0.9990000000000001;0.008940864308395453
59:32.0;0.03447822626478921;-0.27264932357866134;-0.9603003686031794;0.9990000000000001;0.009027270071077438
59:32.0;0.03484249555778994;-0.2729593325641512;-0.9599921658517121;1.001;0.009130086451702832
59:32.1;0.035226624621703145;-0.27334869583566795;-0.9595675699192214;1.0;0.00923982188814025
59:32.1;0.035601020908714684;-0.27378321362662716;-0.959058647513384;1.0;0.009347908109432044
59:32.1;0.03594173404164759;-0.274228759172799;-0.9585059163287156;0.998;0.009447280770773317
59:32.1;0.03623141746915839;-0.2746540672324454;-0.9579545751994577;0.996;0.009532707683369057
59:32.1;0.0364597364585201;-0.27503279152985055;-0.9574496087923918;0.9940000000000001;0.009600943810985422
59:32.1;0.03662322207714435;-0.2753451632494158;-0.9570306940671662;0.995;0.009650723417708165
59:32.1;0.03672439817467033;-0.2755794080491836;-0.9567280579452984;0.9990000000000001;0.009682554743534017
59:32.1;0.036770046162259915;-0.2757324686272389;-0.9565598629729998;0.9940000000000001;0.009698269273724606
59:32.1;0.03676871120130667;-0.2758094714037893;-0.9565307675051348;0.9940000000000001;0.009700330410959003
59:32.1;0.03672804606574636;-0.27582206106055734;-0.9566311629160751;0.993;0.00969106146473061
59:32.2;0.03665297616435418;-0.275786329456604;-0.9568373790952676;0.993;0.009672085164858282
59:32.2;0.03654549492977;-0.2757209303133735;-0.9571137845574449;0.997;0.009644221006704356
59:32.2;0.03640621004619338;-0.27564551472951415;-0.9574173860113969;1.0;0.009607883097362324
59:32.2;0.0362369508060794;-0.27557935475876577;-0.9577043834323341;1.002;0.009563784916639327
59:32.2;0.03604323970036339;-0.2755399299562475;-0.9579370026258786;0.9990000000000001;0.009513609320170873
59:32.2;0.03583549483275563;-0.2755412729570771;-0.9580887963262443;1.0;0.009460320021950162
59:32.2;0.03562840190442014;-0.2755920359621245;-0.9581474764076398;1.0;0.009407957915183684
59:32.2;0.03543866249174041;-0.27569348536121013;-0.9581151927857562;0.997;0.009360985084494807
59:32.2;0.0352819297553042;-0.27583784247219356;-0.9580065294030297;0.997;0.00932340708866329
59:32.2;0.035169918400436484;-0.2760075117055499;-0.9578447987830024;0.995;0.009297954311374918
59:32.3;0.035108408326470754;-0.2761757819881092;-0.9576576232126381;0.9940000000000001;0.009285536537844875
59:32.3;0.0350964341300573;-0.27630948139360545;-0.9574729409308268;0.996;0.009285072314213392
59:32.3;0.03512666202508177;-0.276373610373258;-0.957316320209623;0.998;0.00929370572351219
59:32.3;0.03518681244199525;-0.2763372310865371;-0.9572098075399014;0.9990000000000001;0.009307359037335861
59:32.3;0.03526187412568722;-0.2761793648803609;-0.957171684683619;1.0;0.009321514083304368
59:32.3;0.03533681565944708;-0.2758936616871746;-0.9572160458326865;0.997;0.009332093990450166
59:32.3;0.03539959174382852;-0.2754908897526262;-0.9573514537939788;0.995;0.009336345100795807
59:32.3;0.03544427245140304;-0.27499868719733095;-0.9575788523318292;0.996;0.009333644019908754
59:32.3;0.0354738259022119;-0.27445864217149774;-0.9578896696162527;0.996;0.009326107782541275
59:32.3;0.03550160349115057;-0.2739214201056717;-0.9582650708296647;0.997;0.009318792080212232
59:32.4;0.0355504860811535;-0.27344092370717227;-0.9586767251193308;0.998;0.009319255942969175
59:32.4;0.03564921002623156;-0.2730683665648731;-0.9590888027006663;0.997;0.009336414482716156
59:32.4;0.035826249244199804;-0.27284694129109727;-0.9594606446913363;0.996;0.009378806980591846
59:32.4;0.03610244417377029;-0.2728075659341025;-0.959749800337732;0.995;0.009452594901087885
59:32.4;0.036484202465739184;-0.2729660114205342;-0.9599156756559568;0.998;0.009559749556162492
59:32.4;0.03695926442424607;-0.2733215564996421;-0.959924248198122;1.0;0.009696927905535245
59:32.4;0.037496500275293554;-0.2738571263164621;-0.9597537313463466;1.002;0.009855407604886417
59:32.4;0.03805013142142608;-0.274540663730124;-0.9594001312522422;1.003;0.01002218958813861
59:32.4;0.038567427875822576;-0.27532738531568823;-0.9588811267775134;1.003;0.01018204136789864
59:32.4;0.038997707748472075;-0.27616269732751153;-0.9582368507443263;1.001;0.010319935064970517
59:32.5;0.03930004996932298;-0.2769858289567466;-0.9575267867698128;0.997;0.010423212338653192
59:32.5;0.039447932708518776;-0.2777343845265563;-0.9568230291019445;0.996;0.010482998375712834
59:32.5;0.03943046012917512;-0.27834980827255273;-0.9562011926868954;0.996;0.010494748914795972
59:32.5;0.03925099980894441;-0.2787833157597847;-0.955730629572864;0.9940000000000001;0.010458105230854952
59:32.5;0.03892450834364816;-0.2790014579123151;-0.9554653009359808;0.993;0.01037634798610115
59:32.5;0.038474792433721455;-0.2789903564593485;-0.9554363532871082;0.9940000000000001;0.010255745591371216
59:32.5;0.03793263999936464;-0.2787578086891054;-0.955647367905291;0.993;0.01010503400275645
59:32.5;0.037335014310119694;-0.2783328245471829;-0.9560730010982106;0.9940000000000001;0.009935089943288728
59:32.5;0.036724627363803046;-0.27776265382940263;-0.9566612568672506;0.9940000000000001;0.00975864314207268
59:32.5;0.03614896224622635;-0.27710780032496807;-0.9573392864565846;0.996;0.009589820243884538
59:32.6;0.03565818864036365;-0.2764356860817962;-0.95802239612778;0.9990000000000001;0.009443414378918862
59:32.6;0.03530176925240239;-0.2758136025719219;-0.9586254937284502;1.002;0.009333856662058252
59:32.6;0.03512381279929041;-0.27530161558927363;-0.9590754027748811;1.005;0.009273916188388331
59:32.6;0.035157645710927735;-0.27494619945628207;-0.959321688445652;1.004;0.009273245755014566
59:32.6;0.03542049039130863;-0.27477542132611543;-0.9593434730739173;1.002;0.009336983197420361
59:32.6;0.03590931003878343;-0.2747964239456544;-0.9591506065414089;0.998;0.009464658383324654
59:32.6;0.03659882943861754;-0.2749957526196571;-0.9587792669413812;0.996;0.009649655645098483
59:32.6;0.03744243662886095;-0.27534262767677914;-0.9582836935043276;0.996;0.009879424672582763
59:32.6;0.03837602988050042;-0.2757944952682685;-0.9577264559522356;0.996;0.01013647892181536
59:32.6;0.03932420913203617;-0.27630340961997946;-0.9571692923168355;0.9940000000000001;0.010400039732998669
59:32.7;0.0402079750164159;-0.2768216875823857;-0.9566657019881394;0.993;0.010648109716091701
59:32.7;0.040953149685217176;-0.2773060569898805;-0.9562559287838502;0.993;0.010859774445944556
59:32.7;0.04149865106282886;-0.2777204934989569;-0.955964789464929;0.996;0.011017518912863627
59:32.7;0.04180361177875264;-0.2780382846426319;-0.9558024372985501;0.9990000000000001;0.011109296040184223
59:32.7;0.0418523299989738;-0.2782435467709241;-0.9557673340994656;0.9990000000000001;0.011130045119844771
59:32.7;0.041656120917013845;-0.2783320569036932;-0.9558499293109458;0.9990000000000001;0.01108234757483508
59:32.7;0.04125148143139394;-0.27831125088623004;-0.9560354924284502;0.998;0.01097600581631331
59:32.7;0.04069473596169841;-0.27819940259286075;-0.9563052830684647;0.996;0.01082657236527242
59:32.7;0.0400540810676846;-0.2780240475090049;-0.9566362416948592;0.996;0.01065309902330763
59:32.7;0.03940027143429625;-0.27781964321911806;-0.9570001161819668;0.996;0.010475485342197737
59:32.8;0.03879726585636188;-0.27762437421887165;-0.9573631631884516;0.9940000000000001;0.010311822443529682
59:32.8;0.03829438473879633;-0.277475996749469;-0.9576873687081924;0.996;0.010176168178135676
59:32.8;0.03792171769697112;-0.27740684522672254;-0.9579337511017382;0.997;0.010077217899420777
59:32.8;0.037689818735324294;-0.2774386357472612;-0.9580677063526891;1.001;0.010018142171100019
59:32.8;0.037593061595186474;-0.2775781400421544;-0.9580654316683734;1.002;0.009997424387458816
59:32.8;0.03761467718066263;-0.27781479647947;-0.9579196149072605;1.001;0.010010177485095296
59:32.8;0.037731498960455086;-0.2781209895130098;-0.9576425191319557;0.998;0.010049425733686057
59:32.8;0.037917454318215624;-0.2784552095038663;-0.9572655867835106;0.998;0.010107109388838218
59:32.8;0.03814586994272652;-0.27876761708845954;-0.9568360410396977;0.998;0.010174834923028784
59:32.8;0.0383911004117248;-0.2790070912852845;-0.9564115694218792;0.9990000000000001;0.010244496610087568
59:32.9;0.038629853164660874;-0.27912889439097066;-0.9560537697148527;1.0;0.010308848826491974
59:32.9;0.038842216234492806;-0.2791020796106521;-0.9558204244932915;0.996;0.01036199505342202
59:32.9;0.03901219281465938;-0.27891535116937705;-0.9557567099887152;0.993;0.01039968381979137
59:32.9;0.039127763669978555;-0.27857986741734936;-0.9558862828300551;0.99;0.010419358557320763
59:32.9;0.03918097977871089;-0.2781280519866049;-0.9562042357501671;0.988;0.010420072703506872
59:32.9;0.039168784583896304;-0.2776086272312765;-0.9566744002943153;0.9890000000000001;0.010402487601827149
59:32.9;0.03909478725524361;-0.27707913326697226;-0.9572330175750613;0.996;0.010369082855793313
59:32.9;0.03897134414732529;-0.2765976585746061;-0.9577992452487885;1.004;0.010324484463603265
59:32.9;0.03882077107160237;-0.2762153358542553;-0.9582904983120573;1.004;0.01027564582435716
59:32.9;0.03867459510014784;-0.2759706262521057;-0.9586384885628777;1.0070000000000001;0.01023159865796112
59:33.0;0.038570169642258845;-0.2758858745715445;-0.9588015657047408;1.005;0.01020257388739069
59:33.0;0.03854457127326174;-0.2759661881339529;-0.9587705076636152;1.002;0.010198440363213719
59:33.0;0.0386265891733072;-0.27620028248092715;-0.9585670077660728;0.997;0.010226639719111119
59:33.0;0.03882859103963046;-0.2765626597987566;-0.9582360423784609;0.9940000000000001;0.010290054550912189
59:33.0;0.03914056469176411;-0.27701654582937124;-0.9578348178740479;0.993;0.010385404502267813
59:33.0;0.03952838398578641;-0.2775172347062056;-0.957421580525862;0.9940000000000001;0.010502730737394198
59:33.0;0.03993739503273814;-0.27801565965284036;-0.9570469166462198;0.993;0.010626303638076632
59:33.0;0.0403010760008544;-0.2784621886867926;-0.9567487745149328;0.997;0.010736946484706435
59:33.0;0.04055316504427048;-0.2788107516405962;-0.9565511594934081;0.997;0.010815397228723666
59:33.0;0.04064059050324154;-0.27902324429590863;-0.9564656471361277;0.9990000000000001;0.010846004242760528
59:33.1;0.040534192130902556;-0.2790738689506196;-0.9564944370145376;1.001;0.010819897422789024
59:33.1;0.04023482931971224;-0.2789528514944265;-0.9566335413978508;1.001;0.010736891700064744
59:33.1;0.03977369659469198;-0.27866883101359424;-0.9568748249029031;1.0;0.010605703483207753
59:33.1;0.03920702374172871;-0.2782492241599248;-0.9572060691016313;0.997;0.010442471083015525
59:33.1;0.03860650674500625;-0.2777380855457685;-0.9576091491156908;0.995;0.010267961489962044
59:33.1;0.03804757025113663;-0.2771913554446386;-0.9580575193373788;0.992;0.010104112976628665
59:33.1;0.03759786161512697;-0.27666989265714115;-0.9585148915808749;0.997;0.009970660094349658
59:33.1;0.03730815582262158;-0.27623131689776237;-0.958936676518001;0.997;0.00988249550073321
59:33.1;0.0372069873338671;-0.27592220512301324;-0.9592745194567095;0.997;0.009848136678485404
59:33.1;0.037299207622200084;-0.2757721777896101;-0.9594830809346963;1.002;0.009869323294388896
59:33.2;0.03756792869001458;-0.2757907763786871;-0.9595277479861157;1.004;0.009941559741216249
59:33.2;0.03797893350271221;-0.27596729953972404;-0.9593916743689533;1.004;0.010055330142715249
59:33.2;0.038486324284273794;-0.2762733271856472;-0.959080235988604;1.002;0.010197655450649957
59:33.2;0.039038171395142575;-0.27666735960377875;-0.958621435020853;1.0;0.010353674979407385
59:33.2;0.03958150243330696;-0.2771007505181821;-0.9580621194055439;0.997;0.010508086671226099
59:33.2;0.04006677427130691;-0.2775240605649765;-0.9574611759036276;0.997;0.010646483694906722
59:33.2;0.040452283137296964;-0.2778930254337942;-0.9568813827598927;0.997;0.01075669340610422
59:33.2;0.04070848824032733;-0.27817338780590234;-0.9563813732522499;0.995;0.010830079968078868
59:33.2;0.04082144553263062;-0.2783440093906111;-0.9560086013706188;0.995;0.010862556738906216
59:33.2;0.04079425123370426;-0.2783980421574334;-0.9557938246273078;0.993;0.010854988387165473
59:33.3;0.04064582806576491;-0.27834231572157364;-0.9557475967065325;0.993;0.01081280638325618
59:33.3;0.04040723358601103;-0.2781953289702177;-0.9558593631550184;0.993;0.010744914166716277
59:33.3;0.040116471320368385;-0.2779843157603338;-0.9560996297580457;0.996;0.010662183884297766
59:33.3;0.0398130822793971;-0.277741831224737;-0.9564251019497353;0.998;0.010575917684952326
59:33.3;0.039533424401767894;-0.27750223533484525;-0.9567858291167435;1.0;0.010496527669315086
59:33.3;0.03930692775065704;-0.2772983739072489;-0.9571327496591762;1.0;0.010432504958878472
59:33.3;0.03915328257696923;-0.27715866370447145;-0.9574240348585673;0.9990000000000001;0.01038965109207395
59:33.3;0.03908056783939976;-0.27710471119619107;-0.9576292497631534;0.9990000000000001;0.010370559260886304
59:33.3;0.03908451635664621;-0.2771496116093244;-0.9577311770955824;0.9990000000000001;0.010374391710800158
59:33.3;0.039149225146878436;-0.277297103104771;-0.9577256704780489;0.9990000000000001;0.010397038007539588
59:33.4;0.03924953433073797;-0.27754159447919513;-0.9576199680302488;0.997;0.010431716618380662
59:33.4;0.03935495648289816;-0.27786883043932037;-0.9574298657995117;0.996;0.010469989357720155
59:33.4;0.039434540461773894;-0.27825694469373785;-0.9571763345040639;0.996;0.010503033457296371
59:33.4;0.039461659623446534;-0.27867786890797075;-0.956882368159897;0.996;0.010522922677439631
59:33.4;0.03941768755322048;-0.2790991434678371;-0.9565707560689996;0.996;0.010523658489173866
59:33.4;0.039293880281935756;-0.2794860750161001;-0.9562630915435246;0.998;0.01050176960340944
59:33.4;0.03909122604701479;-0.2798041524689701;-0.9559798321626374;0.9990000000000001;0.010456399735109723
59:33.4;0.03881840095421045;-0.2800216319293435;-0.9557407500193773;0.997;0.010388894291574585
59:33.4;0.03848847934733071;-0.2801121505997499;-0.9555649715392648;0.997;0.010302032650167488
59:33.4;0.03811562086221833;-0.2800572728396541;-0.9554702093849708;0.995;0.010199221050658715
59:33.5;0.03771304643766332;-0.2798489475894857;-0.955471401261398;0.998;0.010084003468293622
59:33.5;0.0372930064138094;-0.2794916235973381;-0.9555792226455821;0.9990000000000001;0.009960081466066638
59:33.5;0.03686854767109237;-0.27900321934509237;-0.9557986413196181;0.997;0.009831768714441481
59:33.5;0.03645608281374127;-0.2784139830069457;-0.9561272859308927;0.9940000000000001;0.009704580296614794
59:33.5;0.036077258134327383;-0.27776310001063187;-0.956553567319796;0.9940000000000001;0.00958555735261482
59:33.5;0.03575874133988298;-0.2770940451624122;-0.9570551825920302;0.993;0.009483014092015036
59:33.5;0.035529418172906405;-0.27644995983046927;-0.9575991457995986;0.9940000000000001;0.009405640532640763
59:33.5;0.03541566098001106;-0.27586975470325326;-0.9581443431151694;1.0;0.009361175347577126
59:33.5;0.03543618384500609;-0.2753850518557305;-0.9586467159117288;1.0;0.00935504536091897
59:33.5;0.035598150180515487;-0.27501788102806496;-0.959065870443244;1.001;0.009389377470146119
59:33.6;0.03589561526616118;-0.27477908839476023;-0.9593711859352929;1.001;0.009462627640311284
59:33.6;0.03631036117382975;-0.27466755281630945;-0.9595459259006148;1.001;0.009569818316426044
59:33.6;0.03681432040472505;-0.2746703992034791;-0.9595887749845853;1.0;0.009703173691902312
59:33.6;0.03737264409385435;-0.27476429844;-0.9595128764092011;0.998;0.00985291949129166
59:33.6;0.037946944874433564;-0.2749177316664864;-0.9593428926808888;0.997;0.010008141355404883
59:33.6;0.03849861367829715;-0.27509399933012524;-0.9591109947194438;0.998;0.010157692879554887
59:33.6;0.03899195678434484;-0.27525480976045347;-0.9588527467670726;0.998;0.010291101549086176
59:33.6;0.03939659963994216;-0.27536435415082755;-0.9586034651086763;0.9990000000000001;0.010399332251017463
59:33.6;0.03968867790283398;-0.2753936704902963;-0.9583951109375545;0.9990000000000001;0.010475268802585746
59:33.6;0.03985080197374579;-0.2753247537963321;-0.9582534826238127;0.998;0.010513873116946957
59:33.7;0.03987134361500282;-0.2751535391890433;-0.9581955423614976;0.995;0.010512115417621813
59:33.7;0.03974397367833669;-0.27489087452547367;-0.9582271908942436;0.995;0.010468877061538186
59:33.7;0.03946825308204641;-0.2745610311971212;-0.9583423542005487;0.996;0.010385023508807278
59:33.7;0.03905129310735764;-0.2741980616364896;-0.9585241961480012;0.998;0.010263674723391153
59:33.7;0.03850961435169905;-0.2738409240474825;-0.9587484531462634;1.0;0.010110489845797687
59:33.7;0.03787012640740628;-0.2735283446845491;-0.9589879373396318;0.9990000000000001;0.009933727364948144
59:33.7;0.037169598694955786;-0.27329410562304585;-0.9592169063951619;0.9990000000000001;0.009743948095740146
59:33.7;0.036452553272857756;-0.2731632938967459;-0.959414354281446;0.9990000000000001;0.009553367975078886
59:33.7;0.03576789239011886;-0.27315004197341775;-0.9595658304446764;0.9990000000000001;0.009374959418231932
59:33.7;0.03516467537548223;-0.27325715715994553;-0.9596637189885477;0.9990000000000001;0.009221407932555737
59:33.8;0.03468739856821408;-0.2734776447038522;-0.9597060875161723;0.9990000000000001;0.009103990818033739
59:33.8;0.034371291029924436;-0.27379754530932515;-0.9596944421217607;0.998;0.00903146857210536
59:33.8;0.034238422829897405;-0.27419902233590965;-0.9596309749190416;0.997;0.009009151923744045
59:33.8;0.03429529048715704;-0.2746626643293411;-0.9595160737047548;0.996;0.009038292015301331
59:33.8;0.03453211319956854;-0.27516857105043996;-0.959346904071476;0.996;0.009115860337755135
59:33.8;0.03492393141805343;-0.2756964720446861;-0.9591177102584998;0.997;0.009234773451934545
59:33.8;0.0354336369493858;-0.27622542584374865;-0.958822079648458;1.001;0.00938463549991372
59:33.8;0.03601666613986816;-0.2767335797269594;-0.9584567434788948;1.001;0.00955295844260964
59:33.8;0.03662631978903428;-0.2771982864724894;-0.9580257466738787;1.001;0.009726598855353213
59:33.8;0.03721837657133284;-0.2775967644642895;-0.9575435182346456;1.001;0.009893053243320552
59:33.9;0.03775419687695177;-0.27790743443432736;-0.9570357031954453;0.9990000000000001;0.010041383201561787
59:33.9;0.03820225286007841;-0.2781118643866076;-0.9565372686426084;0.997;0.01016272998751892
59:33.9;0.03853841708099005;-0.27819690420861315;-0.9560881418345367;0.996;0.010250477510989103
59:33.9;0.03874546411481759;-0.2781564420363342;-0.9557273611645408;0.9940000000000001;0.010300160913080031
59:33.9;0.03881228257856077;-0.2779924109733691;-0.9554871125352199;0.9940000000000001;0.01030924731941666
59:33.9;0.03873328187393439;-0.2777149382052968;-0.9553879149711967;0.993;0.010276927215935464
59:33.9;0.03850835216282963;-0.2773416760541368;-0.9554357984173216;0.993;0.010204026553459354
59:33.9;0.03814350398548191;-0.27689648830851765;-0.9556218301014937;0.995;0.010093088848220104
59:33.9;0.03765202881095703;-0.27640777714098147;-0.955923909505929;0.995;0.009948599892958591
59:33.9;0.03705572124635959;-0.2759066595702403;-0.9563104003053414;0.997;0.009777241283271577
59:34.0;0.03638550465111563;-0.27542499109105656;-0.9567449344893493;0.998;0.009587997637495339
59:34.0;0.035680838161792974;-0.2749931290043123;-0.9571916131198863;0.998;0.009391950067470452
59:34.0;0.034987499631518;-0.2746373948873655;-0.957619783656361;1.0;0.00920164951921594
59:34.0;0.034353633562278274;-0.27437735617970876;-0.9580075594506248;1.0;0.009030044321917933
59:34.0;0.03382441213914084;-0.2742232677373038;-0.9583433261662555;0.997;0.00888905681293196
59:34.0;0.033436286118899636;-0.27417422811270886;-0.9586248620973465;0.996;0.00878806682498222
59:34.0;0.033212238954923874;-0.27421767929423435;-0.9588564394134064;0.996;0.008732672922420227
59:34.0;0.03315933583770056;-0.27433070911454716;-0.9590449221452837;0.996;0.008724071165314781
59:34.0;0.03326915543603809;-0.27448316065905454;-0.9591960003167949;0.996;0.008759208036331392
59:34.0;0.03352069397716263;-0.2746419601334606;-0.959311461705666;0.997;0.00883160272122547
59:34.1;0.03388459312649264;-0.2747757134565486;-0.9593881374757411;0.997;0.008932539875536605
59:34.1;0.034327477238495566;-0.2748586595137248;-0.9594188964827545;0.9990000000000001;0.009052313372680221
59:34.1;0.03481562236337877;-0.2748732965802746;-0.9593956606173754;1.001;0.00918130603752809
59:34.1;0.03531763704449512;-0.274811308649;-0.9593137402892177;1.003;0.009310797991099814
59:34.1;0.03580597743627866;-0.27467287816486113;-0.9591760003382628;1.002;0.009433429663094964
59:34.1;0.03625707182941126;-0.2744649302594017;-0.9589950620614689;1.0;0.00954324246985414
59:34.1;0.036650130489227;-0.27419901919405626;-0.958792419276601;0.996;0.009635317142392949
59:34.1;0.036965479190208185;-0.2738893850264256;-0.9585947333161261;0.995;0.009705246712511075
59:34.1;0.037183708593682405;-0.27355142080922407;-0.9584288130832683;0.995;0.009748808490761277
59:34.1;0.03728643196257195;-0.273200639464635;-0.958317115340097;0.996;0.009762066970755956
59:34.2;0.037258402732153716;-0.27285215469780166;-0.9582749268025278;0.998;0.009741856892116874
59:34.2;0.03709001491171543;-0.2725205040152001;-0.9583092979002591;0.998;0.009686388714336202
59:34.2;0.036779173976901454;-0.2722194392901611;-0.9584190268502657;0.996;0.009595697159998685
59:34.2;0.03633199784613545;-0.27196139112713147;-0.9585949937320191;0.995;0.009471781922212416
59:34.2;0.035762334223628005;-0.27175669271331865;-0.9588207679386155;0.996;0.009318446977424722
59:34.2;0.03509040047035584;-0.27161294706951394;-0.9590739245839334;0.996;0.009140940370826361
59:34.2;0.03434098848034872;-0.2715348056469574;-0.9593284090989901;0.9990000000000001;0.008945520254300735
59:34.2;0.03354160539045884;-0.27152400453621567;-0.959557814278974;1.0;0.00873902983304842
59:34.2;0.032720742147909286;-0.2715792640077305;-0.9597389381803068;1.0;0.008528504200363144
59:34.2;0.03190646469504379;-0.2716959105867107;-0.9598546766675177;0.9990000000000001;0.008320841952726086
59:34.3;0.031125614927366343;-0.2718655096492098;-0.9598954550240482;0.998;0.008122617261141125
59:34.3;0.030403760381589002;-0.27207590805848975;-0.9598590532048001;0.997;0.007940079555331377
59:34.3;0.029765690178656205;-0.27231187724141653;-0.9597493763938589;0.996;0.0077792974887249695
59:34.3;0.029235956143931263;-0.2725562979592152;-0.9595750310423315;0.9990000000000001;0.0076463198736025405
59:34.3;0.028838780254540702;-0.2727916775835144;-0.9593483668976952;0.9990000000000001;0.0075471736912032985
59:34.3;0.028596702340881665;-0.2730017362220088;-0.9590850699915361;0.9990000000000001;0.007487528601442475
59:34.3;0.028527814021889066;-0.2731727905206302;-0.9588038713526578;0.998;0.007471980203722517
59:34.3;0.028642157119857767;-0.2732946715016352;-0.9585258859034294;0.998;0.007503099969293848
59:34.3;0.02893830212582342;-0.2733609680255754;-0.9582733927369674;0.998;0.0075805196874911
59:34.3;0.029401007044585;-0.2733685242431684;-0.9580681041684291;0.996;0.007700290265253094
59:34.4;0.03000049684823354;-0.2733163250098514;-0.9579291012762282;0.9940000000000001;0.00785465993106692
59:34.4;0.03069358790997546;-0.27320414936886167;-0.9578708441345248;0.995;0.008032336670392983
59:34.4;0.03142659738915155;-0.27303155123531486;-0.9579018369416199;0.996;0.00821923134105606
59:34.4;0.03213967968197434;-0.27279766670499295;-0.9580242603280872;0.997;0.008399601887172425
59:34.4;0.032771955848755745;-0.27250205000640565;-0.9582342973512398;0.998;0.008557439670100574
59:34.4;0.03326666408952644;-0.2721463632193303;-0.9585225547486018;0.996;0.00867788967719313
59:34.4;0.03357571207789388;-0.2717363835015129;-0.958874226734825;0.998;0.008748521605125927
59:34.4;0.03366339113319189;-0.2712835887756843;-0.9592691433160018;0.997;0.00876035811351921
59:34.4;0.0335093374372483;-0.2708057461859539;-0.9596820305047885;0.997;0.008708654862832668
59:34.4;0.03311088396092762;-0.27032633471422707;-0.9600831488556544;0.997;0.008593458388405993
59:34.5;0.03248468726361848;-0.2698729103620678;-0.9604394377030887;0.995;0.008419920045085127
59:34.5;0.03166709293573257;-0.2694746116292031;-0.9607165441492869;0.998;0.008198253080897175
59:34.5;0.030712502506734365;-0.26915906750669744;-0.9608822278992796;1.001;0.007943179573838116
59:34.5;0.029689294250241253;-0.268948918612465;-0.9609111134397403;1.0;0.007672782592620348
59:34.5;0.028673475266226538;-0.2688579955655692;-0.9607898462366816;1.0;0.0074068183606997165
59:34.5;0.027740776997571003;-0.2688874205373392;-0.9605212392459682;1.0;0.0071646681313765545
59:34.5;0.026958158224763818;-0.269022613378634;-0.9601262613961751;0.9990000000000001;0.006963175702764658
59:34.5;0.026375907736020568;-0.26923248415755335;-0.9596433375871618;0.996;0.006814668365838582
59:34.5;0.026021821537989633;-0.2694714620897485;-0.9591251781707333;0.996;0.006725518392586101
59:34.5;0.025898737349443125;-0.26968423748103515;-0.9586339671354985;0.9990000000000001;0.006695560953547055
59:34.6;0.02598574274589179;-0.26981281099241977;-0.9582356125186174;0.998;0.006718464218386104
59:34.6;0.026242259573429537;-0.26980511970299387;-0.9579930077961363;0.996;0.006782874047222827
59:34.6;0.026613775945301253;-0.2696237234884851;-0.9579580460694415;0.992;0.006874024692024412
59:34.6;0.027038226377062196;-0.26925254422624434;-0.9581631357689194;0.9890000000000001;0.00697553421771231
59:34.6;0.0274523077335803;-0.2687001864039695;-0.9586143468602115;0.991;0.007071161409492031
59:34.6;0.027797208044192813;-0.26799934436781786;-0.9592887486655837;0.9940000000000001;0.007146349628065619
59:34.6;0.02802346711027876;-0.2672023854096099;-0.9601374135118479;0.9990000000000001;0.007189448712696962
59:34.6;0.028094806882903563;-0.266373663827106;-0.961093436010244;1.002;0.007192550943426374
59:34.6;0.027990659224744575;-0.2655799799020904;-0.9620823302165753;1.002;0.0071518879061733985
59:34.6;0.027707071691444263;-0.26488136182648153;-0.9630314615607886;1.001;0.00706777156635319
59:34.7;0.02725590591784325;-0.26432419213980163;-0.9638761254378487;1.0;0.0069441446401976165
59:34.7;0.026662614898057078;-0.2639377364129049;-0.9645617653344226;0.998;0.006787881789472931
59:34.7;0.02596314210092158;-0.2637341290063398;-0.9650434144648236;0.9990000000000001;0.006608006109624834
59:34.7;0.025200531408609637;-0.26371113307575156;-0.9652841358249677;0.998;0.006414950837943012
59:34.7;0.02442166959487357;-0.26385639427291374;-0.9652541767018713;0.9990000000000001;0.006219918069886836
59:34.7;0.023674275963822045;-0.26415157655735266;-0.9649321170033601;0.998;0.006034296900582182
59:34.7;0.023004098220833477;-0.2645750222531288;-0.9643087216649097;1.0;0.005869081621631539
59:34.7;0.022452399975396754;-0.2651024224812654;-0.96339340400485;1.0070000000000001;0.005734296369570223
59:34.7;0.022053871416455456;-0.2657059693507248;-0.9622218322511649;1.0070000000000001;0.005638471064575536
59:34.7;0.021834837882969124;-0.2663530621729941;-0.9608615795224833;1.006;0.005588155648343049
59:34.8;0.021811455890084923;-0.26700569489848597;-0.9594122053374098;1.0;0.005587408430686344
59:34.8;0.021987766154681804;-0.26762133074434447;-0.9579976890189145;0.995;0.005637237039672028
59:34.8;0.02235372571202394;-0.2681555576422115;-0.9567518564232294;0.988;0.005735034483957087
59:34.8;0.022883466557194726;-0.2685662523269536;-0.9557998154430163;0.985;0.00587408459235279
59:34.8;0.023534329875016465;-0.2688185161415489;-0.9552396416343287;0.9840000000000001;0.006043288855880311
59:34.8;0.024247720412675266;-0.2688893284688378;-0.9551284666022547;0.987;0.006227392958266485
59:34.8;0.024952852352694458;-0.268770728527485;-0.9554757571749118;0.992;0.006407990183228859
59:34.8;0.025573526989574446;-0.26847067430136945;-0.9562443191111243;0.992;0.006565326817599726
59:34.8;0.026036763610213308;-0.2680115969173959;-0.9573575153964013;0.992;0.006680588743909178
59:34.8;0.02628157193400643;-0.2674273888666094;-0.9587105920887702;0.996;0.006738213181077032
59:34.9;0.026266624126795757;-0.2667596443873386;-0.9601845906246562;1.001;0.006727893702357732
59:34.9;0.025976097243235248;-0.2660537866341339;-0.9616614476502042;1.006;0.0066460798017604
59:34.9;0.025423019188774695;-0.2653555640751828;-0.9630379944311361;1.006;0.006496788747966605
59:34.9;0.024649460288864784;-0.26470817505585564;-0.9642360117213286;1.005;0.006291556713908665
59:34.9;0.023723081623729537;-0.26415009924745025;-0.9652063934334293;1.004;0.0060484218176076925
59:34.9;0.02272989143637316;-0.2637136416840221;-0.9659272674746107;1.003;0.005789944270585381
59:34.9;0.021763804018169138;-0.2634240535718255;-0.9663974044342494;0.997;0.00554046211656584
59:34.9;0.020914654138399328;-0.2632989744992382;-0.9666270606810058;0.997;0.0053230286512400155
59:34.9;0.020256968666927153;-0.2633480424787492;-0.9666288127390121;0.997;0.005156610006675655
59:34.9;0.019841442601460573;-0.2635727082619469;-0.9664107899062466;0.997;0.005054002521048864
59:35.0;0.019690116082854474;-0.2639663558337477;-0.9659738556584866;0.997;0.005020676343979206
59:35.0;0.019795604175554395;-0.2645147797826904;-0.965313297757507;0.9990000000000001;0.005054602332470338
59:35.0;0.020124449741657065;-0.26519700481499053;-0.9644248709090851;1.003;0.005147081330577856
59:35.0;0.020624094258720967;-0.26598642407094764;-0.963314132430457;1.008;0.005284480350970141
59:35.0;0.021231986277904482;-0.2668522737030749;-0.9620065550956126;1.011;0.005450540408464348
59:35.0;0.02188461163256979;-0.2677614185046303;-0.9605545736347507;1.0070000000000001;0.005628710188888096
59:35.0;0.02252439448335015;-0.2686802286466213;-0.9590379217120618;0.992;0.005803962718928649
59:35.0;0.023103568417819718;-0.2695761662260289;-0.9575562148926515;0.992;0.005963824231694073
59:35.0;0.02358552357072414;-0.27041877521321617;-0.9562164129430175;0.992;0.006098718062211541
59:35.0;0.02394484009661629;-0.27118004723410444;-0.9551194800659151;0.9890000000000001;0.006201937366758405
59:35.1;0.024167007433312328;-0.27183442970038446;-0.9543492447627487;0.9890000000000001;0.006269525484937116
59:35.1;0.02424824961440268;-0.27235886435859613;-0.9539644375294962;0.991;0.006300196481607367
59:35.1;0.024195413970623792;-0.2727331640186132;-0.953993838891848;0.993;0.006295302127342651
59:35.1;0.02402559227689992;-0.2729408976100911;-0.9544338978918787;0.99;0.006258763966850651
59:35.1;0.0237650248068143;-0.272970903629291;-0.9552479326525007;0.9890000000000001;0.006196846461815084
59:35.1;0.02344702564782667;-0.27281959275478135;-0.9563666873008014;0.99;0.0061176940653098096
59:35.1;0.023109108705745667;-0.2724940836258975;-0.9576911831135012;0.99;0.006030672743980242
59:35.1;0.02278984937081376;-0.2720156790242799;-0.9590992816282249;1.0;0.005945644767360441
59:35.1;0.022526056643445876;-0.2714224937380594;-0.9604565584667638;1.0;0.005872306763810042
59:35.1;0.022350590248328757;-0.27076978526019363;-0.9616304307459062;1.004;0.0058196570870861055
59:35.2;0.022290796026994415;-0.270126933038264;-0.9625051990974532;1.0070000000000001;0.005795575257593922
59:35.2;0.02236728612216836;-0.26957082399069715;-0.9629954261048849;1.0070000000000001;0.005806446165013752
59:35.2;0.022592828233786996;-0.2691762990680205;-0.9630554368800016;1.005;0.00585677723237011
59:35.2;0.022971267370594878;-0.269005120045696;-0.9626833946878326;1.001;0.005948794733536752
59:35.2;0.02349639319779035;-0.2690955224932026;-0.961919560608168;0.9990000000000001;0.006082000184391369
59:35.2;0.02415060467836615;-0.26945451117175323;-0.9608396801787908;0.997;0.006252654012831444
59:35.2;0.02490346524212749;-0.2700544573538047;-0.9595452341902323;0.993;0.006453221687736592
59:35.2;0.02571072856576283;-0.2708346623724983;-0.9581523790624987;0.993;0.006671956587593893
59:35.2;0.02651474105178909;-0.27170769272144263;-0.9567811968947635;0.993;0.006892899658108606
59:35.2;0.027247074481318162;-0.2725695009895157;-0.9555465118131299;0.993;0.007096577818560924
59:35.3;0.02783387709803932;-0.2733118306813106;-0.9545508489923135;0.993;0.007261581309921499
59:35.3;0.028203867924432944;-0.2738352478059534;-0.9538793733003882;0.993;0.007367013730999345
59:35.3;0.0282982389877788;-0.27406108034929905;-0.9535963156735826;0.993;0.007395564683346563
59:35.3;0.028081080245800624;-0.2739405903739912;-0.9537425450140892;0.992;0.007336710021873892
59:35.3;0.02754835362879574;-0.27346017634005176;-0.9543342395068802;0.996;0.007189360222140933
59:35.3;0.02673310229319529;-0.2726422611290985;-0.9553625599548875;0.997;0.006963230195546179
59:35.3;0.025704984471947263;-0.27154227063581665;-0.9567936957511513;0.995;0.006678410285050606
59:35.3;0.024563602857320486;-0.2702424968785512;-0.9585683748996615;0.992;0.006363100881132354
59:35.3;0.023426830660032663;-0.2688439544663715;-0.9606007146942943;0.992;0.006050018721784382
59:35.3;0.02241640507495085;-0.2674575951990659;-0.9627777349082525;0.993;0.005772274019431947
59:35.4;0.021643115640478407;-0.2661958999318995;-0.9649617349213988;0.996;0.005559442385735506
59:35.4;0.021193543614347343;-0.26516496954541907;-0.9669974398077065;1.0;0.005434318042873876
59:35.4;0.021120080838329423;-0.2644566979002086;-0.9687245911244509;1.0070000000000001;0.005410662831823301
59:35.4;0.021435625904434732;-0.2641409202253199;-0.9699948690527996;1.013;0.005492136121886795
59:35.4;0.022113568216069735;-0.26425820528963756;-0.9706901274714673;1.014;0.0056724139861287146
59:35.4;0.02309269555276474;-0.26481463218960716;-0.9707378159960287;1.014;0.005936337122818484
59:35.4;0.024285872362841812;-0.2657801094698308;-0.9701199709375683;1.011;0.006261835137339931
59:35.4;0.025590839966215792;-0.26709136968767144;-0.9688740248210725;1.006;0.006622343578595082
59:35.4;0.026901396030953956;-0.268659642624388;-0.9670859112040374;1.006;0.006989438809844081
59:35.4;0.02811762078218242;-0.27038155236342803;-0.9648775828814634;1.003;0.007335468272973394
59:35.5;0.02915451127354444;-0.27215091433322525;-0.9623915835005427;0.995;0.007636025668492487
59:35.5;0.029948868747328695;-0.2738692466772977;-0.9597752178088003;0.992;0.00787214747756777
59:35.5;0.030464294494295465;-0.2754534999022033;-0.9571670092543396;0.991;0.008032063646843413
59:35.5;0.030693921456270864;-0.27684041446923124;-0.9546879834501804;0.993;0.00811228732662063
59:35.5;0.030660457305558258;-0.2779878068892225;-0.9524389156536605;0.9940000000000001;0.008117859067440733
59:35.5;0.030413359954601194;-0.278873500566227;-0.950502640084;0.993;0.008061669278691636
59:35.5;0.030023204729468733;-0.27949259164683304;-0.9489491984736621;0.993;0.007962882582130643
59:35.5;0.02957337209772658;-0.27985373399006136;-0.9478413667206469;0.997;0.007844542356900045
59:35.5;0.02914947387301434;-0.2799752389601914;-0.9472381839004248;0.997;0.007730534824756283
59:35.5;0.028827574089582;-0.27988179499540505;-0.9471939994224987;0.992;0.007642257831030573
59:35.6;0.028662691285899673;-0.27960232715520683;-0.9477511111521254;0.987;0.007595424482542289
59:35.6;0.02867913531628221;-0.2791689798448477;-0.9489262299780126;0.982;0.0075974117499082935
59:35.6;0.028864413979789373;-0.2786167553739723;-0.9506938971573254;0.978;0.0076455842972089644
59:35.6;0.029168628160109327;-0.27798318719818205;-0.9529718943634601;0.9790000000000001;0.007727066084292685
59:35.6;0.029510735922911993;-0.27730749440478036;-0.9556139634477386;0.98;0.00782031296565701
59:35.6;0.029791709847660143;-0.2766289561641706;-0.9584140839742863;0.9840000000000001;0.007898529683795317
59:35.6;0.029913004815485585;-0.27598473212303487;-0.9611245947520052;0.998;0.007934595444817548
59:35.6;0.029797232074157742;-0.2754077225416597;-0.9634874714083602;1.025;0.007906751853546197
59:35.6;0.029406722015303213;-0.27492497857262516;-0.9652735299105644;1.025;0.00780389132676826
59:35.6;0.028755433470480672;-0.2745566836735109;-0.9663198088732404;1.025;0.007629091461826279
59:35.7;0.02791098793011655;-0.2743154118583239;-0.9665548801262176;1.018;0.007400344460391866
59:35.7;0.026986050446132347;-0.2742057111616419;-0.9660064327005774;1.011;0.007148185963030794
59:35.7;0.026120816764684487;-0.27422454948861386;-0.9647914716020316;1.004;0.0069107716047413096
59:35.7;0.02546016103883398;-0.27436291935429025;-0.9630934293025575;0.9990000000000001;0.006727519751740311
59:35.7;0.02512967895637403;-0.274608015094424;-0.9611319557744948;0.9940000000000001;0.006632590220995574
59:35.7;0.025214656406110942;-0.2749447322590534;-0.9591310020334932;0.986;0.006649307028982849
59:35.7;0.025745428697370128;-0.2753554671641537;-0.9572901459844798;0.9790000000000001;0.00678636821763812
59:35.7;0.02669165247459407;-0.27581835802673405;-0.9557635313593097;0.988;0.007036376763759822
