Time;AccX;AccY;AccZ;Acc-old;Acc-trns
57:54.1;0.016820637130205453;-0.2724185599066536;-0.7859488300860814;0.831;0.003601416969036624
57:54.1;0.018658038405919005;-0.2685607683202838;-0.8369017385320286;0.831;0.004193561567264272
57:54.1;0.020337465451232307;-0.26484605896121705;-0.8854222879748349;0.8909999999999999;0.004769147921701016
57:54.1;0.02171359082987179;-0.2613697873655649;-0.9294091803219079;0.977;0.0052746541897716
57:54.1;0.022677320027634822;-0.2582340213112168;-0.9670379446005292;1.058;0.005663027916056983
57:54.1;0.023173980309504516;-0.25554465442808455;-0.9969171237198842;1.126;0.005903730037309777
57:54.1;0.023215645384618816;-0.2534023008763733;-1.0182308248755696;1.155;0.005990148039203492
57:54.1;0.0228804004931015;-0.25188680193578855;-1.0308312012335314;1.141;0.005940959472321152
57:54.1;0.022295364705850345;-0.2510386521277425;-1.0352523581156947;1.114;0.00579430569305463
57:54.1;0.021607530860954863;-0.2508434462799681;-1.0326363562720058;1.079;0.005597000066385963
57:54.2;0.020952357430474154;-0.2512248848380088;-1.0245828705866955;1.035;0.005393151755675889
57:54.2;0.020430440328541317;-0.2520487676233001;-1.0129484722857538;0.997;0.005216145041518835
57:54.2;0.020097382609076106;-0.2531376428252767;-0.9996274696843579;0.9690000000000001;0.005085508848378733
57:54.2;0.01996557982104466;-0.2542940928824184;-0.9863457706707738;0.9520000000000001;0.005007804725634779
57:54.2;0.02001339487794222;-0.2553285921110582;-0.9744941909478853;0.9390000000000001;0.004979657458930714
57:54.2;0.0201975452037463;-0.2560857880258956;-0.9650197459382692;0.938;0.004991375761901885
57:54.2;0.020466123843515885;-0.2564632901138508;-0.9583845785411463;0.95;0.005030378039084263
57:54.2;0.020770520231268016;-0.25642004521403616;-0.9545929878510538;0.9740000000000001;0.005084141001019959
57:54.2;0.021074495230206082;-0.25597475172456235;-0.9532773576447303;1.004;0.005142491582655545
57:54.2;0.021358878610171782;-0.25519643070052317;-0.9538244607153616;1.0270000000000001;0.0051990201305065
57:54.3;0.021621427973204755;-0.25418950627414577;-0.9555170578194754;1.0390000000000001;0.005251464515690453
57:54.3;0.021872883647269817;-0.2530759786007982;-0.9576645079602742;1.0390000000000001;0.005301153256965381
57:54.3;0.022131272493889926;-0.25197781480692316;-0.959701112435092;1.03;0.005351859321320154
57:54.3;0.02241654838088039;-0.2510026078884625;-0.9612405321418093;1.012;0.005408527612484349
57:54.3;0.02274698842121255;-0.2502345150031425;-0.9620857404021385;0.996;0.005476270555347085
57:54.3;0.02313798355870197;-0.24973103988579262;-0.9622034766560501;0.9840000000000001;0.005559874076171685
57:54.3;0.023603114897407955;-0.24952473726907068;-0.9616777996041774;0.976;0.005663860104954687
57:54.3;0.02415642493495586;-0.24962776534033465;-0.9606582568321905;0.973;0.005792879164105903
57:54.3;0.02481381099578405;-0.2500368771551509;-0.959315299182062;0.976;0.0059519449635203675
57:54.4;0.02559159060452044;-0.2507367583697826;-0.9578106120389287;0.9890000000000001;0.006146033610309534
57:54.4;0.026502020279963765;-0.2517004085707791;-0.9562841406808587;0.9890000000000001;0.006378959661903391
57:54.4;0.027547564271515126;-0.25288676278355254;-0.954854062892849;0.9890000000000001;0.006651909047033896
57:54.4;0.02871634903253828;-0.2542373286174416;-0.9536232114496214;0.993;0.00696218169811661
57:54.4;0.029980387295451452;-0.25567421745370567;-0.9526861853217653;0.9940000000000001;0.007302541637813124
57:54.4;0.03129679786561665;-0.2571017339136302;-0.9521332266373692;0.993;0.007661302872270487
57:54.4;0.032611302435988435;-0.2584130661964777;-0.9520482083355382;0.99;0.008023087956339414
57:54.4;0.033863176670914916;-0.2595021159289946;-0.9524996801584851;0.983;0.008370153802637826
57:54.4;0.0349913035916791;-0.2602781686546222;-0.9535266546886381;0.976;0.008684217707099588
57:54.4;0.035941191704063874;-0.26067937957678006;-0.9551239274105683;0.9740000000000001;0.008948677906422672
57:54.5;0.03667220439382254;-0.260681341188656;-0.957233396742148;0.996;0.00915092098712564
57:54.5;0.037163290474184464;-0.26029916680863285;-0.9597459205983626;0.996;0.009284172748667182
57:54.5;0.037415288545521966;-0.25958395086629865;-0.9625131326362214;0.996;0.009348320657096476
57:54.5;0.037448665423837034;-0.25861554463805386;-0.9653648439232888;1.003;0.009349372202378322
57:54.5;0.03729669562547459;-0.2574933824585073;-0.9681279553934913;1.011;0.009297564276283164
57:54.5;0.036995297906537335;-0.2563268573058437;-0.9706441683538127;1.016;0.009204510370692488
57:54.5;0.0365721116840824;-0.25522662989885536;-0.9727834212265042;1.015;0.009080132454884912
57:54.5;0.036038284237442264;-0.25429753951363065;-0.9744497437383831;1.0090000000000001;0.008930293040276127
57:54.5;0.035385825052480314;-0.2536329360665892;-0.9755781687980974;1.0070000000000001;0.008755824506770449
57:54.5;0.0345915126838144;-0.25331011062836645;-0.9761244585865437;1.003;0.00855317334044352
57:54.6;0.03362663583017233;-0.253386602794032;-0.9760516293834552;0.9990000000000001;0.008316485990181978
57:54.6;0.0324708359892176;-0.25389703967840244;-0.9753178521333833;0.9990000000000001;0.008040763357381887
57:54.6;0.031127383039283477;-0.25485036545598555;-0.9738696602193152;0.9990000000000001;0.007725537532062031
57:54.6;0.02963654420685855;-0.25622799067301416;-0.9716428836974116;1.002;0.00737837639336809
57:54.6;0.028084036690596063;-0.2579838412708753;-0.9685715702004929;1.006;0.007017521534817976
57:54.6;0.026602638847129084;-0.2600471616966829;-0.9646028456923403;1.005;0.00667306531047411
57:54.6;0.025366418783522426;-0.2623282771673037;-0.9597139657957594;1.004;0.006386252414207979
57:54.6;0.024578558220559765;-0.2647264791568667;-0.9539274075019575;0.997;0.006206819472180828
57:54.6;0.024454435504138602;-0.26713843720311115;-0.9473209559307767;0.985;0.006188582255173533
57:54.6;0.02520060603302391;-0.26946595713371263;-0.9400319070251378;0.976;0.006383479770744797
57:54.7;0.02698898018084256;-0.2716230481120685;-0.9322568455398714;0.968;0.006834215576678183
57:54.7;0.029926556446030796;-0.27354235749299327;-0.924249820525374;0.968;0.00756607613693916
57:54.7;0.034024666576275904;-0.2751797565327406;-0.9163211112686788;0.968;0.008579422442069207
57:54.7;0.03917458746416789;-0.27651508591356533;-0.908835961324425;0.9740000000000001;0.009844842329506602
57:54.7;0.04513651721419959;-0.27754769913954414;-0.9022088987945007;0.965;0.011302454910249027
57:54.7;0.05154761312047992;-0.2782867528517964;-0.8968870287851276;0.9490000000000001;0.012865860457589005
57:54.7;0.05795250426421964;-0.27873844331637204;-0.8933171619066548;0.9309999999999999;0.014430279910295682
57:54.7;0.06385499235129338;-0.27889535712163527;-0.8918969672196955;0.914;0.015883669022613272
57:54.7;0.06878386964995015;-0.2787338475878118;-0.8929172733962183;0.9079999999999999;0.017119360560152206
57:54.7;0.07236200699065519;-0.278222128792053;-0.8965078460451883;0.9159999999999999;0.018049133937210037
57:54.7;0.07436568761438654;-0.27733700348195023;-0.9025998767478798;0.925;0.01861554205447675
57:54.8;0.0747598853440986;-0.2760837523534591;-0.9109146726385909;0.9520000000000001;0.01880126943470808
57:54.8;0.0736990946946453;-0.2745122288324934;-0.9209814726603659;0.9520000000000001;0.018632654998289266
57:54.8;0.07149432171044377;-0.2727222575423205;-0.9321811815475637;0.971;0.018175755201314144
57:54.8;0.06855736883257985;-0.2708536676362929;-0.9438097397522324;0.995;0.017525617018102534
57:54.8;0.0653363431897803;-0.2690615781553098;-0.9551534621813189;1.0190000000000001;0.016791119915466522
57:54.8;0.06225334226399831;-0.26748454217797857;-0.9655657355848635;1.031;0.01607841403775919
57:54.8;0.05965182802259658;-0.2662173496505816;-0.9745315597555011;1.037;0.015475903773271705
57:54.8;0.05775994854795143;-0.2652975760051632;-0.9817082622421204;1.034;0.01504327953661464
57:54.8;0.056675959644445946;-0.2647072256394321;-0.9869375425979537;1.033;0.014806566050015528
57:54.9;0.056378702880190465;-0.2643847773377219;-0.99023155366554;1.022;0.014760065562205877
57:54.9;0.056758116240258026;-0.26424195509937737;-0.9917407795803274;1.022;0.014874004842650805
57:54.9;0.05765328999144736;-0.2641811588476714;-0.9917134012930285;1.022;0.01510470049767014
57:54.9;0.058885156874185475;-0.26411095556226627;-0.990454730322336;1.022;0.015403764963733269
57:54.9;0.060277248724305676;-0.26395791581267386;-0.9882919520668775;1.02;0.015724374210039836
57:54.9;0.06166540269203073;-0.2636736411147105;-0.9855460174660357;1.0170000000000001;0.016024526133250352
57:54.9;0.06290160264752838;-0.2632365569313203;-0.9825106642658088;1.013;0.016268412862462635
57:54.9;0.06385764296879808;-0.2626491959722852;-0.9794381217055464;1.0070000000000001;0.01642729149893266
57:54.9;0.06443213161317647;-0.26193251472366486;-0.9765314068760972;1.008;0.01648079386105123
57:54.9;0.064561022650148;-0.261118570523626;-0.9739434298426481;1.014;0.016418818151007052
57:55.0;0.06422887532690362;-0.2602421010819362;-0.9717823090928714;1.01;0.016243397140155134
57:55.0;0.06347654306487532;-0.25933144167468747;-0.9701205036836593;1.01;0.015969603189754517
57:55.0;0.06240121319457536;-0.258400318647204;-0.9690042838583959;1.01;0.015624703153919737
57:55.0;0.061146093288991295;-0.25744296875592587;-0.9684606240780301;1.004;0.015245150541679344
57:55.0;0.0598795608469133;-0.25643416800660424;-0.9685001442341721;1.002;0.01487147987207767
57:55.0;0.058767435645731295;-0.2553337458383663;-0.9691164919982262;1.0;0.014541892881445723
57:55.0;0.05794545370932312;-0.25409377826849006;-0.9702839929162994;1.001;0.014286053280703544
57:55.0;0.05749924520172118;-0.2526667802486385;-0.9719557025051397;1.006;0.014120717414981799
57:55.0;0.05745598540866828;-0.2510143189930806;-0.9740629841879437;1.0090000000000001;0.014048204273430268
57:55.0;0.05778797775409495;-0.24911591356053928;-0.9765163204171423;1.012;0.014057836053730975
57:55.0;0.05842575022467423;-0.24697697252783776;-0.9792064367119917;1.01;0.014129767638630657
57:55.1;0.05927679847768551;-0.24463331268210614;-0.9820054636548237;1.006;0.014240139373297066
57:55.1;0.06024517875431809;-0.24215059825752794;-0.9847693489586214;1.006;0.014366215155273664
57:55.1;0.061246971776044386;-0.2396193766924217;-0.9873440147764093;1.016;0.014490222453168784
57:55.1;0.06221824009105144;-0.23714760681795333;-0.9895774276736353;1.025;0.014601122655371931
57:55.1;0.06311535326974016;-0.23485179025226874;-0.9913370861680458;1.033;0.014694345469679885
57:55.1;0.06391047591854047;-0.23284699137667494;-0.9925287533583671;1.037;0.014770179708956045
57:55.1;0.06458581800317412;-0.23123652383051158;-0.9931100854183534;1.033;0.014831701925191192
57:55.1;0.06512907874067103;-0.23010292110651057;-0.9930936663815323;1.022;0.014882890249376137
57:55.1;0.06553090462324988;-0.2295017784634735;-0.9925377959210869;1.0070000000000001;0.014927231641902362
57:55.1;0.06578448156541244;-0.2294592052386129;-0.9915287825222154;1.004;0.014966983058744195
57:55.2;0.06588743979412105;-0.22997258899889528;-0.9901625963138132;1.012;0.015003245769800208
57:55.2;0.06584576226897143;-0.23101359473269478;-0.988533527633438;1.012;0.015036846675671943
57:55.2;0.06567802583702854;-0.23253209174885717;-0.9867329753449138;1.025;0.015069631429382606
57:55.2;0.0654172587227365;-0.23446003811050076;-0.9848559507873617;1.03;0.01510545759026058
57:55.2;0.06510793978791277;-0.2367149321233688;-0.9830092386272765;1.023;0.015150159567201811
57:55.2;0.06479737888377246;-0.23920297231209042;-0.981314480518517;1.0170000000000001;0.015210105201869524
57:55.2;0.06452353592760102;-0.24182232790613895;-0.9799020302805849;1.01;0.015289638385264944
57:55.2;0.06430373563947443;-0.24446678583548756;-0.9788958896207719;1.004;0.015388368261605542
57:55.2;0.06412880563622322;-0.24703001719525555;-0.9783935701415268;1.003;0.015499456515766527
57:55.3;0.0639646938235959;-0.24941110397489027;-0.9784458435001566;1.005;0.015609640560581058
57:55.3;0.06376038919107485;-0.2515216450600892;-0.9790405480227077;1.005;0.015700988774875434
57:55.3;0.06345904028069974;-0.2532931357864668;-0.9800931369410656;1.005;0.015753761579474692
57:55.3;0.06300916428638112;-0.25468230415787685;-0.9814454624054133;1.008;0.01574956855717702
57:55.3;0.06237367875993383;-0.2556731384597628;-0.9828735844044902;1.013;0.015674154560168675
57:55.3;0.061534930245373015;-0.25627597444773814;-0.9841046340873224;1.018;0.015519255495454243
57:55.3;0.060494369923536066;-0.2565244807973286;-0.9848414686104604;1.024;0.015283052397684316
57:55.3;0.059267278466615704;-0.25647091968791497;-0.984792269619599;1.026;0.014969170843454026
57:55.3;0.057875371014104816;-0.25617966895607996;-0.9837011053012358;1.028;0.01458483793263535
57:55.3;0.056340898117587974;-0.2557192479062104;-0.9813753123518139;1.024;0.01413911779795188
57:55.4;0.05468411235404734;-0.2551539449805647;-0.977706444218992;1.013;0.013641807976239923
57:55.4;0.05292357895615463;-0.2545367766592291;-0.9726833832974682;1.013;0.013103015129744764
57:55.4;0.05107790604994834;-0.25390501736217685;-0.9663981238398042;1.013;0.012533156020119257
57:55.4;0.04916786645447126;-0.2532783368477423;-0.9590449316774515;1.002;0.011943135609984397
57:55.4;0.04721826766268693;-0.25265898103013607;-0.950912137684042;0.988;0.011344495335453649
57:55.4;0.04525915792399692;-0.25203381488952725;-0.9423654436708355;0.976;0.010749410169752213
57:55.4;0.04332646255765124;-0.2513785120200955;-0.9338235937341849;0.966;0.01017059183645648
57:55.4;0.04146272418980103;-0.250663824213745;-0.9257295172249898;0.9570000000000001;0.009621296654231126
57:55.4;0.03971886805251026;-0.24986285598012356;-0.9185205389201653;0.951;0.009115645652339506
57:55.4;0.03815744021516086;-0.2489576666076585;-0.912600185761118;0.945;0.00866932511609693
57:55.4;0.03685631164199658;-0.24794393761823086;-0.908312705187149;0.94;0.008300433116927797
57:55.5;0.035910108193451876;-0.24683323096530485;-0.9059206690252639;0.9279999999999999;0.008029906900380404
57:55.5;0.035426143369322045;-0.24565266255263668;-0.9055865998965289;0.9279999999999999;0.007880891331704878
57:55.5;0.03551308921057452;-0.2444417017475215;-0.9073610352024133;0.927;0.007876692227830377
57:55.5;0.036263102977286896;-0.24324598919296891;-0.911180194922059;0.9359999999999999;0.008037387790492043
57:55.5;0.0377303936668151;-0.24210896640374208;-0.9168751636442038;0.945;0.00837553232036794
57:55.5;0.03991069166303009;-0.24106328394986168;-0.9241918071866406;0.956;0.008891651592230801
57:55.5;0.04272655248885907;-0.24012436338751728;-0.9328181332518849;0.971;0.009570421343881065
57:55.5;0.04602295470772136;-0.23928757665656328;-0.9424143066625765;0.992;0.01037854611084422
57:55.5;0.049576345597373575;-0.23852888165081065;-0.9526396305584702;0.998;0.01126533541961878
57:55.5;0.05311754318833768;-0.23780797774428167;-0.9631706067677973;0.9990000000000001;0.012166554900208128
57:55.6;0.05636457197857518;-0.23707406540673456;-0.9737063027035349;1.0;0.013011226636952521
57:55.6;0.05905790050015213;-0.2362753872266845;-0.9839621133679288;1.005;0.013730136789169145
57:55.6;0.060990464209751044;-0.23537233783015288;-0.993657845656272;1.015;0.014264423551734462
57:55.6;0.062027701686085325;-0.23435094915559282;-1.0025077573562786;1.0190000000000001;0.01457270415386038
57:55.6;0.06211594142600543;-0.2332323489859018;-1.0102186570548906;1.03;0.01463548918001873
57:55.6;0.061279949486277414;-0.23207544035247976;-1.016499313602448;1.042;0.014456217425973639
57:55.6;0.05961239707178276;-0.2309727020006846;-1.021081339850257;1.052;0.01405910194441289
57:55.6;0.057258669127397015;-0.23004073885632842;-1.023748626540139;1.062;0.013484639341631301
57:55.6;0.05439970965047133;-0.2294074497578054;-1.0243699026687394;1.069;0.012783827700122048
57:55.6;0.05123476729187579;-0.22919704170271923;-1.0229276541965777;1.069;0.012012093262393492
57:55.6;0.04796552263222025;-0.22951385852860423;-1.0195365932723732;1.063;0.011223825689354226
57:55.7;0.044782471698358535;-0.23042671691535402;-1.0144463917943793;1.053;0.010468151371523801
57:55.7;0.04185350195843175;-0.23195637583976278;-1.0080263624252457;1.041;0.009786108054868401
57:55.7;0.03931416786742334;-0.2340687825780285;-1.0007332200871548;1.025;0.009208966662914429
57:55.7;0.03725966954112886;-0.23667555294197032;-0.9930661320632327;1.01;0.008757306903328398
57:55.7;0.03573946526370064;-0.2396414216337739;-0.9855156948850688;0.997;0.008440603169688574
57:55.7;0.034756048909308675;-0.2427970847306389;-0.9785147878052649;0.991;0.008257360793238527
57:55.7;0.03426909001151796;-0.24595529516384637;-0.9723987424167283;0.9890000000000001;0.008196022418525975
57:55.7;0.03420471351880666;-0.24892801502814976;-0.967379960125718;0.986;0.008236767738132731
57:55.7;0.034467949680468644;-0.25154267006108744;-0.9635390097081493;0.9890000000000001;0.008354037471134465
57:55.7;0.034955503646986685;-0.2536559480950664;-0.9608314734335445;0.993;0.008519376963696913
57:55.8;0.03556632645970362;-0.25516394386736224;-0.9591077751561916;0.9940000000000001;0.008704137204923888
57:55.8;0.03620845640272242;-0.2560078384641851;-0.9581419062068955;0.996;0.008881638834838933
57:55.8;0.036801806073745745;-0.25617485024804115;-0.9576645954812206;0.998;0.009028571786858619
57:55.8;0.03727782202158566;-0.2556947840433529;-0.9573970123846943;0.9990000000000001;0.009125663852079363
57:55.8;0.03757783629708529;-0.25463306820989035;-0.9570818874152645;0.9990000000000001;0.00915789522826211
57:55.8;0.037652030549390016;-0.25308170094184823;-0.9565094999657544;1.001;0.009114617223719213
57:55.8;0.0374602382655808;-0.2511497524309219;-0.9555363680515857;0.998;0.008989809956040385
57:55.8;0.036974692804942554;-0.24895478607893848;-0.9540949348743639;0.9940000000000001;0.008782469385716698
57:55.9;0.036183803305087435;-0.24661596984340386;-0.952193456530588;0.986;0.0084969018750363
57:55.9;0.03509562353088241;-0.24424900267563934;-0.9499067929713856;0.986;0.0081426685161416
57:55.9;0.033740041390013846;-0.24196236953699923;-0.9473601865501965;0.978;0.007734078382057932
57:55.9;0.03216937016646267;-0.23985410133001858;-0.9447085650893438;0.97;0.007289329127425627
57:55.9;0.030457322499984493;-0.23800854535520832;-0.9421138545034522;0.965;0.006829480391290122
57:55.9;0.028696189380386136;-0.2364934197480704;-0.9397230664571724;0.961;0.006377392964287367
57:55.9;0.02699181341761206;-0.2353576899610526;-0.9376502047573239;0.958;0.005956639385860855
57:55.9;0.025456211130986332;-0.23463019008577476;-0.9359646075096367;0.958;0.0055903253423964985
57:55.9;0.024198606413383474;-0.23431825283070817;-0.9346872929704062;0.9590000000000001;0.00529984068566358
57:55.9;0.023316346287321866;-0.23440591688505943;-0.9337955241226826;0.96;0.005103649660149951
57:55.9;0.022886928002858253;-0.23485251314960653;-0.9332343477819501;0.9640000000000001;0.005016183669887668
57:56.0;0.022961754570434683;-0.235593354539974;-0.9329326502790014;0.9670000000000001;0.005046826783224145
57:56.0;0.023562095165476082;-0.23654361335881585;-0.9328206905573867;0.9670000000000001;0.005199041724552976
57:56.0;0.024677801918499366;-0.2376047630500583;-0.9328463304182341;0.9670000000000001;0.005469803486536245
57:56.0;0.026269032427134506;-0.2386720912523348;-0.9329881076239952;0.968;0.005849541454503779
57:56.0;0.028270598412933143;-0.23964238713045155;-0.9332642439690779;0.97;0.006322710041043681
57:56.0;0.03059800194475875;-0.24042159744074074;-0.9337370471430331;0.975;0.0068689623608651235
57:56.0;0.03315403495829516;-0.24093193743317062;-0.9345119170874994;0.975;0.0074647558534326934
57:56.0;0.035835091558230565;-0.24111715689481847;-0.9357297989423735;0.9740000000000001;0.008085131588210835
57:56.0;0.03853678839752228;-0.24094457527645932;-0.9375522021450216;0.9690000000000001;0.00870538793982872
57:56.0;0.041158667080588414;-0.24040358574316076;-0.9401393252171791;0.963;0.009302388261540975
57:56.1;0.043607799157167705;-0.23950181634742782;-0.9436240399232205;0.965;0.009855348284824877
57:56.1;0.04580151676578858;-0.23826078585035332;-0.9480863603785497;0.965;0.010346187123479088
57:56.1;0.04766993783331133;-0.23671243850732118;-0.9535334589619133;0.971;0.01075973565508842
57:56.1;0.04915867743795282;-0.23489713051696032;-0.959889185449824;0.98;0.0110840633780268
57:56.1;0.05023127294677735;-0.23286294315606693;-0.9669950122621804;0.9940000000000001;0.011310942647406307
57:56.1;0.05087045463967349;-0.23066559381737153;-0.9746218212572251;1.004;0.011436274463109268
57:56.1;0.05107811254994996;-0.22836796820276664;-0.9824896163136596;1.0090000000000001;0.011460353077370335
57:56.1;0.050874651228728966;-0.22603883924453216;-0.9902913731602667;1.015;0.011388001328125785
57:56.1;0.05029795329386643;-0.22375123644382172;-0.9977183421748567;1.028;0.011228550939884587
57:56.1;0.0494010717858352;-0.2215808008259349;-1.0044856218388307;1.04;0.01099543014059744
57:56.2;0.04824781100931756;-0.21960305869276708;-1.0103566104801502;1.052;0.01070509896047337
57:56.2;0.046906362956708164;-0.21788802277299354;-1.0151630992199339;1.052;0.010375306628924962
57:56.2;0.04544173473406333;-0.2164923205084064;-1.0188166015731026;1.0490000000000002;0.010022900311327727
57:56.2;0.043907699060607305;-0.2154511809739091;-1.0213079803653766;1.045;0.009661538378067401
57:56.2;0.0423393440147245;-0.21477281981933727;-1.0226959460130722;1.042;0.009299722263946535
57:56.2;0.04074819146110041;-0.21443647407028107;-1.0230881240812635;1.043;0.008939640186474898
57:56.2;0.0391221802431671;-0.2143939563584742;-1.022619412859379;1.04;0.008577280663689063
57:56.2;0.03743141677519022;-0.21457390148574898;-1.0214314786598206;1.0390000000000001;0.00820393859595495
57:56.2;0.0356380773998607;-0.21488809299774136;-1.0196557777647828;1.035;0.00780872633817105
57:56.2;0.03370726765596041;-0.21523977393240576;-1.0174015194588544;1.035;0.0073813952113023955
57:56.3;0.03161620380634285;-0.21553361625748915;-1.014749535288522;1.033;0.00691486330440205
57:56.3;0.0293607483151031;-0.21568601636877335;-1.011752536405353;1.033;0.006407128162382015
57:56.3;0.026959274220714785;-0.21563382316040314;-1.0084413897573807;1.035;0.005862403965724075
57:56.3;0.02445377978408969;-0.2153401709978702;-1.0048358483606403;1.035;0.005291346122832824
57:56.3;0.02190824624660875;-0.2147970512293816;-1.0009569225605446;1.032;0.004710329803105721
57:56.3;0.019404732840605465;-0.21402490514202055;-0.9968374379630336;1.025;0.004139961681437655
57:56.3;0.017037803765377384;-0.21306993007293593;-0.9925279760711897;1.0170000000000001;0.003603118389413704
57:56.3;0.014907412753726762;-0.2119999856982163;-0.988097272478325;1.01;0.0031227542522482936
57:56.3;0.013110233055197137;-0.21089969645021073;-0.9836282216382695;1.006;0.00271967711857043
57:56.3;0.011730178114348176;-0.20986462503674833;-0.9792116737678637;1.001;0.00241057378129645
57:56.4;0.010829852309271039;-0.20899394110670105;-0.9749399236035352;0.993;0.002206653202500432
57:56.4;0.010444682548249824;-0.20838157054668308;-0.9709009844291162;0.993;0.002113145946675441
57:56.4;0.010580292893710201;-0.2081070632071639;-0.9671740531217388;0.99;0.00212955640650216
57:56.4;0.011212491519028853;-0.20822802093261306;-0.9638259259191533;0.986;0.002250297321340287
57:56.4;0.012289058878308666;-0.20877527833105114;-0.9609077218722107;0.98;0.002465354518389185
57:56.4;0.013733077234816855;-0.20975102790710143;-0.9584516873424628;0.976;0.0027608460271600537
57:56.4;0.015447975105326724;-0.2111295927569747;-0.9564688729975179;0.975;0.0031195468472788265
57:56.4;0.017324306649982694;-0.2128603754287383;-0.9549490844206081;0.978;0.003521526029502869
57:56.4;0.019247695537597444;-0.21487229230841404;-0.9538640115814164;0.98;0.00394498740415394
57:56.4;0.02110695814487658;-0.21707890188845524;-0.9531730264495534;0.9840000000000001;0.004367319942984326
57:56.5;0.022801596133123714;-0.21938360208851027;-0.9528297298276635;0.9790000000000001;0.00476633662542678
57:56.5;0.024248150870798974;-0.22168454421154493;-0.9527870323217132;0.9790000000000001;0.005121649785863979
57:56.5;0.025384823690197723;-0.22387925793244123;-0.9529996740451163;0.978;0.005416026270007709
57:56.5;0.02617384902044408;-0.22586940830295615;-0.9534246376874111;0.9790000000000001;0.005636524220635169
57:56.5;0.026601898894115454;-0.22756616465944232;-0.9540207036458973;0.98;0.005775347600706169
57:56.5;0.026679528194066895;-0.22889605208034866;-0.9547482765589137;0.982;0.005830493700168368
57:56.5;0.026440384464245494;-0.22980648306716914;-0.9555700707624379;0.9840000000000001;0.005806207883132421
57:56.5;0.02593984907148549;-0.23027010328281428;-0.9564526429228959;0.987;0.005713055882847475
57:56.5;0.02525201362491273;-0.23028736158082166;-0.9573683265658495;0.985;0.005567307049677982
57:56.5;0.02446409683206044;-0.2298867831453592;-0.958297142470392;0.983;0.005389436798390216
57:56.6;0.023668387908399344;-0.2291224989331035;-0.9592287666955135;0.991;0.00520185940845663
57:56.6;0.022952964741549706;-0.22806918050482772;-0.9601648035848829;0.991;0.005026332028741286
57:56.6;0.02239304789271409;-0.2268153416435292;-0.961120684556917;0.993;0.004881615390046043
57:56.6;0.022044351197516274;-0.22545618425823222;-0.9621254202469941;0.992;0.0047817973068892536
57:56.6;0.021938488065814984;-0.22408671080617037;-0.9632176059612273;0.988;0.00473529683420011
57:56.6;0.022079609187317644;-0.22279526490702048;-0.9644375308022517;0.986;0.004744292328015147
57:56.6;0.02244200580874298;-0.22165723961954747;-0.9658170489970604;0.9840000000000001;0.0048043922575654804
57:56.6;0.022969916157713734;-0.22072855112361786;-0.967370113573705;0.9840000000000001;0.004904678993464345
57:56.6;0.023581363001131717;-0.22003920755323528;-0.9690869163941425;0.988;0.005028421864441687
57:56.6;0.024176615318931075;-0.2195888637629383;-0.9709334008565506;0.996;0.005154603369155594
57:56.7;0.024650089372762796;-0.21934693443009406;-0.9728559407735701;1.003;0.005260155738901052
57:56.7;0.02490351836105894;-0.21925828950362894;-0.9747889800219398;1.003;0.005322643034521124
57:56.7;0.02485783620937816;-0.21925318665811622;-0.9766625971304834;1.001;0.0053229672273214105
57:56.7;0.02446129274615603;-0.21925911999239178;-0.9784080055143981;1.004;0.005247555849004122
57:56.7;0.02369245087229313;-0.21921248730164022;-0.9799609486946703;1.008;0.005089604644241673
57:56.7;0.022558707097462435;-0.2190679658101057;-0.9812639005937468;1.01;0.004849298331444357
57:56.7;0.021092365165943483;-0.21880339320985767;-0.9822673968677953;1.0090000000000001;0.004533243668108007
57:56.7;0.01934593773668662;-0.21841893685511984;-0.9829300338368313;1.006;0.0041533896839503984
57:56.7;0.017386927666877147;-0.21793133532891323;-0.9832169300208649;1.001;0.003725562687295737
57:56.8;0.015291688116517288;-0.21736564358033583;-0.9830975851173878;1.002;0.0032677059011501004
57:56.8;0.013138793942922417;-0.21674718266546172;-0.9825450103992049;1.002;0.002798088311222838
57:56.8;0.011003443171101699;-0.216095523723414;-0.9815378652466239;1.002;0.0023338956465329586
57:56.8;0.00895422420922544;-0.21542119982354224;-0.9800662169359683;1.006;0.0018904788560034772
57:56.8;0.0070521349182589834;-0.21472505599285377;-0.9781401293146681;1.0070000000000001;0.0014811683173845463
57:56.8;0.005350395160821462;-0.21399991840690943;-0.975799015018006;1.004;0.0011172743841775421
57:56.8;0.0038935495833630493;-0.21323443914929424;-0.973118963511433;1.004;0.0008079211805725786
57:56.8;0.0027157155561719323;-0.21241894523539617;-0.9702155145652953;1.0;0.0005596876747466581
57:56.8;0.0018396055144826507;-0.2115523781337388;-0.9672403751572997;0.995;0.0003764237625121946
57:56.8;0.0012785399124875972;-0.2106485340586239;-0.9643718427423771;0.988;0.00025972709184078196
57:56.8;0.0010421885337092525;-0.20973991324900979;-0.9617999348970153;0.983;0.0002102384364713225
57:56.9;0.001144218999847078;-0.20887845597800145;-0.9597082455326534;0.976;0.0002293728599643546
57:56.9;0.0016083265593021647;-0.20813314513097594;-0.9582551847912111;0.976;0.0003207721525522135
57:56.9;0.0024692448041437223;-0.20758452764674054;-0.9575573965757768;0.972;0.0004908219132846265
57:56.9;0.0037669957558493;-0.2073163776014955;-0.9576776669953033;0.973;0.0007479078689762809
57:56.9;0.0055352365363683185;-0.2074054649503125;-0.9586187517244158;0.975;0.0011005310492055616
57:56.9;0.007787300019481208;-0.20791121041987942;-0.9603236792402314;0.977;0.0015548283524026542
57:56.9;0.01050494169562752;-0.20886726929479557;-0.9626823220806598;0.982;0.0021122583327332915
57:56.9;0.013633718380896671;-0.21027680353104755;-0.9655432506394008;0.991;0.002768072226789688
57:56.9;0.017086012268100807;-0.21211238821671563;-0.9687290378300448;0.996;0.0035108240575339746
57:56.9;0.02074998516503989;-0.2143200525588716;-0.972052470934659;1.0;0.004322851395137231
57:57.0;0.02450146577738413;-0.21682563905444727;-0.9753311097339556;1.005;0.005181491361262577
57:57.0;0.028215750440961807;-0.21954145960926305;-0.9783985030237885;1.005;0.006060715978747012
57:57.0;0.03177699158858487;-0.22237196692394925;-0.9811115911457334;1.006;0.006932840730018158
57:57.0;0.03508404083261746;-0.22521809726564226;-0.9833548617680434;1.011;0.007770038346938723
57:57.0;0.03805287648480376;-0.22798052581508838;-0.9850423875811938;1.014;0.008545552793545474
57:57.0;0.04061651681084359;-0.2305620151294116;-0.9861186791580324;1.013;0.009234632585882111
57:57.0;0.04272359695147409;-0.2328688474528813;-0.9865586916755213;1.013;0.009815267274759391
57:57.0;0.04433675833511746;-0.23481183254522905;-0.9863671329148725;1.014;0.010268866482839348
57:57.0;0.04543168075729746;-0.23630807072557913;-0.9855774146652662;1.0170000000000001;0.01058103378754995
57:57.0;0.045996931539281076;-0.23728432955140702;-0.984250442874564;1.015;0.010742454866186652
57:57.1;0.04603384360280644;-0.23768183541987387;-0.9824728728758314;1.014;0.010749636982319588
57:57.1;0.04555530991422746;-0.23746156924372275;-0.980354124995818;1.014;0.010605113467107808
57:57.1;0.04458368729519641;-0.23660878313361886;-0.9780215953535095;1.0090000000000001;0.010317044181610472
57:57.1;0.043149608551338606;-0.23513539027390487;-0.9756138002723608;1.003;0.009898577663305246
57:57.1;0.04129319366757519;-0.23307985265129544;-0.9732716821488545;0.998;0.009367361820293253
57:57.1;0.03906714387295007;-0.23050568734437893;-0.9711290754627422;0.996;0.008745210434545412
57:57.1;0.03653963764645742;-0.22749995738495382;-0.969303857132469;0.996;0.00805759615444227
57:57.1;0.0337951619879729;-0.2241718336420671;-0.9678909876455437;0.995;0.007332668012029783
57:57.1;0.03093273930325782;-0.22065017659709635;-0.9669576236822514;0.995;0.006599789783337899
57:57.1;0.028062027814497962;-0.2170791883730872;-0.9665394605906514;0.993;0.005887851249013273
57:57.2;0.02529810154525251;-0.21361186875313123;-0.966637211602036;0.982;0.005223683080996169
57:57.2;0.022755636145452795;-0.21040145605403093;-0.9672132069875353;0.982;0.004630841748611774
57:57.2;0.020542685702766256;-0.20759132167903857;-0.9681901374561152;0.98;0.004128830649048078
57:57.2;0.018753601236456526;-0.20530398651859882;-0.969455169043898;0.988;0.0037325857203558753
57:57.2;0.017460923283121974;-0.20362997406238756;-0.9708714059821226;0.996;0.0034519986772532448
57:57.2;0.01670727157341976;-0.20261758788123008;-0.97229550564938;1.0;0.003291402170329327
57:57.2;0.01649902960096986;-0.20226569464191618;-0.9735972875194346;1.003;0.0032490768762656087
57:57.2;0.01680346963084608;-0.2025223241289922;-0.9746762212303948;1.004;0.003316898935675094
57:57.2;0.017550771095583843;-0.20329106171653485;-0.9754709117767746;1.001;0.003480397190856197
57:57.3;0.018642165700587236;-0.20444482380713067;-0.9759601074165941;0.996;0.003719671176895904
57:57.3;0.019963770859924332;-0.20584406358438448;-0.9761564161156487;0.996;0.004011440329131329
57:57.3;0.021402752953044113;-0.20735503927257543;-0.9760959945906196;0.996;0.004331883451807354
57:57.3;0.022861172533222597;-0.20886418823830283;-0.9758279006431678;0.997;0.00465946136366864
57:57.3;0.024264627838892674;-0.21028665422843498;-0.9754055110188684;0.996;0.004977033350316946
57:57.3;0.025565404520498766;-0.21156916276530782;-0.9748807686109259;0.997;0.005272985044558914
57:57.3;0.026741075691770647;-0.21268856360103486;-0.9743010275023279;1.0;0.005541357532834943
57:57.3;0.027789744397249936;-0.21364751567377901;-0.973707697411348;0.998;0.005781106933729026
57:57.3;0.028723398460561128;-0.21446849724129763;-0.9731355299775374;0.997;0.005994771873160631
57:57.3;0.029561162710989533;-0.21518702045090973;-0.9726115188122464;0.9990000000000001;0.006186955506482788
57:57.4;0.03032402105545843;-0.21584473500754617;-0.9721529820580647;0.992;0.006363013751433705
57:57.4;0.03103155473833299;-0.2164829444888719;-0.9717651219353939;0.992;0.006528126011838463
57:57.4;0.03169986934708653;-0.21713705478705764;-0.9714391073634298;0.992;0.006686625466360221
57:57.4;0.032339301441294634;-0.21783257049803975;-0.9711521774706363;0.992;0.0068413331416790095
57:57.4;0.032951431651560094;-0.21858293125610218;-0.970870930306522;0.9940000000000001;0.006992814884395412
57:57.4;0.03352652874926327;-0.21938863645920967;-0.9705580979901544;0.995;0.007138784244837416
57:57.4;0.03404303440393681;-0.22023674510648003;-0.9701822102212755;0.998;0.007273967404021042
57:57.4;0.034469557531264294;-0.22110076718230423;-0.969728604257601;1.004;0.007390539872547616
57:57.4;0.03476863304215442;-0.22194209808606807;-0.9692092808036014;1.003;0.007479022981785481
57:57.4;0.034901575567571196;-0.22271383317350635;-0.9686686436213632;1.002;0.007529523050185266
57:57.4;0.03483429488122508;-0.22336646498418392;-0.9681827488183398;1.001;0.007533249216422879
57:57.5;0.03454363658605815;-0.22385424227168557;-0.9678511621847598;0.9940000000000001;0.00748414100222866
57:57.5;0.034023000122614604;-0.2241410556552471;-0.9677821973576592;0.9940000000000001;0.007380259774478223
57:57.5;0.03328563415258372;-0.22420486550297575;-0.9680737528697706;0.9890000000000001;0.007224541895253471
57:57.5;0.03236439567159281;-0.22403993857507523;-0.9687929171559909;0.985;0.007024637243957073
57:57.5;0.031307756772501485;-0.22365677226668387;-0.9699579414485726;0.982;0.006791831569803606
57:57.5;0.030173106291361898;-0.22308020857846245;-0.9715263797607184;0.9840000000000001;0.006539366256628462
57:57.5;0.029019229443581724;-0.22234649439064127;-0.9733928809589273;0.991;0.006280646185622787
57:57.5;0.027899781505473745;-0.22149985057942267;-0.975398550929496;1.0;0.006027765462806132
57:57.5;0.02685887835763058;-0.22058857836913912;-0.9773510708242218;1.005;0.0057905722832550435
57:57.6;0.02592914605029766;-0.21966045220392033;-0.9790519416371825;1.016;0.00557629601899131
57:57.6;0.025131936545740755;-0.21875768452416122;-0.9803253844846221;1.016;0.00538963706162856
57:57.6;0.024479045834489843;-0.21791247137489958;-0.9810430837372374;1.016;0.00523316769769572
57:57.6;0.023975201033014183;-0.21714402770886887;-0.9811403167570112;1.012;0.00510788685390736
57:57.6;0.023620567789197196;-0.21645737653265165;-0.9806215843173972;1.0090000000000001;0.005013767278119371
57:57.6;0.02341241719685588;-0.21584387317561632;-0.9795562925501906;1.008;0.004950116028887471
57:57.6;0.02334523838999086;-0.2152834973120542;-0.9780663237480218;1.004;0.0049156093185734875
57:57.6;0.02340941006550937;-0.21474878118697815;-0.9763076269197911;0.997;0.004908037349452242
57:57.6;0.023589731697132618;-0.21420992921677565;-0.9744481400231969;0.988;0.0049240372542913415
57:57.6;0.023865680721202594;-0.21364059031726132;-0.9726451989771218;0.981;0.004959204792214326
57:57.7;0.02421450674532505;-0.21302376859614622;-0.9710267468130308;0.99;0.005008813749782352
57:57.7;0.02461647753560463;-0.2123571670683573;-0.9696803735299284;0.99;0.005068990026966778
57:57.7;0.025060013518727962;-0.21165684057337553;-0.9686515383047706;0.99;0.005137847180438958
57:57.7;0.025544333994325968;-0.21095782326838183;-0.9679491997040476;0.993;0.005216062477731149
57:57.7;0.026078465843376857;-0.21031099056431485;-0.9675558084194349;0.9940000000000001;0.005306644960627528
57:57.7;0.026676935778763122;-0.20977684731177232;-0.9674387531723291;0.9940000000000001;0.00541398412067993
57:57.7;0.02735374652906318;-0.20941814655094493;-0.9675606762758346;0.9940000000000001;0.005542546421324951
57:57.7;0.0281174123462175;-0.2092929714248901;-0.9678867862985941;0.992;0.005695797684438684
57:57.7;0.028969909820193953;-0.20944848143686992;-0.9683886279851263;0.99;0.005875895182820077
57:57.7;0.029910028830986837;-0.20991478246525216;-0.9690450857793695;0.992;0.0060842049961673346
57:57.7;0.030938013878593445;-0.2106992075144085;-0.9698418762388992;0.997;0.006322025808178765
57:57.8;0.03205714755630045;-0.21178241838261705;-0.9707700202676054;0.998;0.006590693804425336
57:57.8;0.03327046386742733;-0.21311776714932854;-0.971822463373542;0.9940000000000001;0.006890733388009647
57:57.8;0.034574342237324376;-0.2146346320877059;-0.9729877787364504;0.991;0.007220397550507827
57:57.8;0.03595216622347023;-0.21624580893003695;-0.9742414738301589;0.992;0.007574245470383755
57:57.8;0.037370547520011926;-0.21785813913975638;-0.9755375006690373;0.993;0.007942317042650469
57:57.8;0.03877949822558616;-0.2193840233557075;-0.9768033843097708;0.995;0.008310254762415236
57:57.8;0.04011674996938621;-0.22075059614816858;-0.9779416685661235;0.998;0.008660452377594824
57:57.8;0.04131472696088344;-0.22190447977861338;-0.9788389179174422;1.003;0.008973919822459321
57:57.8;0.04230731985750377;-0.2228122624517681;-0.9793817774988847;1.011;0.009232230132772662
57:57.8;0.04303411494100388;-0.22345810453452128;-0.9794776063692036;1.0190000000000001;0.009418971814700179
57:57.9;0.04344208725393089;-0.22383966012933418;-0.97907523594232;1.018;0.009520588342229193
57:57.9;0.04348685169976739;-0.22396306052081846;-0.978180368539258;1.016;0.009526937224395697
57:57.9;0.04313523993731196;-0.22383806708357626;-0.9768610358340295;1.008;0.00943189488802189
57:57.9;0.04236885593780328;-0.22347506156989994;-0.9752413583959695;1.0;0.009233958395771465
57:57.9;0.04118721019971148;-0.22288492088730388;-0.9734853099783782;0.997;0.00893660301811048
57:57.9;0.039609985100818534;-0.22208110540213508;-0.971774675079358;0.993;0.008548341556626062
57:57.9;0.03767884112427501;-0.2210822608121403;-0.9702859032708148;0.9890000000000001;0.008082601288640866
57:57.9;0.0354585956934494;-0.21991414816380506;-0.9691695236905858;0.987;0.00755743553391191
57:57.9;0.03303679698921012;-0.21861056219673686;-0.9685345467226468;0.986;0.0069949431940467665
57:58.0;0.03052083259690519;-0.2172130694404177;-0.9684394276622983;0.99;0.006420292166997837
57:58.0;0.028032321536494008;-0.2157695007045711;-0.9688901397704324;0.99;0.0058603514090541
57:58.0;0.02569890163570205;-0.2143316959848661;-0.9698444907436705;0.9940000000000001;0.005341989938501405
57:58.0;0.023643755085481756;-0.21295325683410726;-0.9712207606254304;0.997;0.004890110757396345
57:58.0;0.02197387834046634;-0.2116874652140893;-0.9729085287998456;0.998;0.004525576065490747
57:58.0;0.02076901335094342;-0.21058495093794657;-0.9747798475768635;0.9990000000000001;0.0042633377482906906
57:58.0;0.02007341033418549;-0.20969098629703256;-0.9766994191888893;0.9990000000000001;0.004111136098738836
57:58.0;0.019892061603454858;-0.20904288757400594;-0.9785331447099013;1.002;0.004069028501890638
57:58.0;0.020192258404268915;-0.20866797463161324;-0.9801550823532664;1.003;0.004129861547199465
57:58.0;0.02091015092189679;-0.20858211309274405;-0.9814531545444359;1.002;0.004280591704606616
57:58.0;0.02196051027425263;-0.20878880462711152;-0.9823340202396779;1.004;0.004504108251860984
57:58.1;0.023247281360008684;-0.2092789320004287;-0.9827276410615674;1.005;0.00478113331777658
57:58.1;0.024673221331698955;-0.2100310747429345;-0.9825920093332225;1.005;0.00509193249331777
57:58.1;0.026147814295919395;-0.21101213961016907;-0.9819180549074052;1.008;0.005417738995818727
57:58.1;0.027593111478319013;-0.21217831132230866;-0.9807340556749936;1.012;0.005741864247895565
57:58.1;0.028947543983194515;-0.2134765850052284;-0.979108019483607;1.011;0.006050518273978166
57:58.1;0.030168003007831137;-0.21484706508746929;-0.9771457840086218;1.006;0.006333377147008104
57:58.1;0.031230322779763075;-0.2162260956667357;-0.9749829317777935;0.9990000000000001;0.006583875233578495
57:58.1;0.03212817600848968;-0.21755021053919102;-0.9727704874644894;0.992;0.006799171009699422
57:58.1;0.03287068078473781;-0.2187606298292734;-0.9706568246534821;0.986;0.0069798096082772315
57:58.2;0.03347932916532081;-0.21980767595761216;-0.9687698487954003;0.987;0.00712919043098907
57:58.2;0.03398458258733344;-0.22065436659213866;-0.967203518364258;0.987;0.007252910761713578
57:58.2;0.03442177909337755;-0.2212786498262509;-0.966011209565073;0.987;0.007357918820187534
57:58.2;0.034825742486070725;-0.2216740962935883;-0.9652063139451701;0.991;0.007451358955019952
57:58.2;0.035224250766383226;-0.2218490819708791;-0.9647687953302557;0.9940000000000001;0.007539154584864162
57:58.2;0.035631856830702996;-0.22182445591806327;-0.964655376235354;0.993;0.007624652738720099
57:58.2;0.036046273298202515;-0.22162976687742283;-0.9648105539955485;0.993;0.007707801227376658
57:58.2;0.036448871052445306;-0.22129876155771738;-0.9651760952966748;0.992;0.00778519727375597
57:58.2;0.036809338587563745;-0.22086560360550725;-0.9656978439304371;0.993;0.007851043111054288
57:58.2;0.03709312376320858;-0.22036314112322114;-0.9663297662815428;0.993;0.00789873821496419
57:58.3;0.037269248979623;-0.21982345060569822;-0.9670356740973244;0.9940000000000001;0.007922589565650248
57:58.3;0.03731602928996182;-0.21927959741693723;-0.9677891802665658;0.9940000000000001;0.007919074212943071
57:58.3;0.03722364750804693;-0.2187668353136601;-0.9685724354804001;0.9940000000000001;0.00788737549171136
57:58.3;0.036994237688849095;-0.2183216042027934;-0.969374180875324;0.993;0.007829287562334046
57:58.3;0.036640464003458155;-0.21797766110964556;-0.9701876904018202;0.993;0.007748697612280373
57:58.3;0.03618294503861771;-0.21776019501907412;-0.9710091643322468;0.996;0.007650780425756592
57:58.3;0.03564671129549906;-0.21767999446956734;-0.9718367944367358;0.9990000000000001;0.007541041386009616
57:58.3;0.03505744267188784;-0.217729801059059;-0.9726699936272888;1.0;0.007424438712938231
57:58.3;0.0344385100693249;-0.21788412055245204;-0.9735076767891586;0.997;0.007304816564471962
57:58.3;0.033809308579117174;-0.2181028470442948;-0.9743447706383691;0.995;0.007184727196240935
57:58.3;0.03318482523651735;-0.21833822670251185;-0.9751674929847293;0.993;0.007065591571267865
57:58.4;0.032576477874138844;-0.21854372508603295;-0.975949442758831;0.9990000000000001;0.006948159652546343
57:58.4;0.03199423234499037;-0.2186826797078971;-0.9766508508477286;0.9990000000000001;0.006833220170183839
57:58.4;0.03144921837211999;-0.21873471615564477;-0.9772221501104893;1.004;0.006722346207876889
57:58.4;0.030955384978958087;-0.21869862490653444;-0.9776113464449574;1.005;0.006618331179774647
57:58.4;0.030529110825682826;-0.21859131917008603;-0.9777735112269703;1.0070000000000001;0.006525072389226525
57:58.4;0.030186829186916064;-0.21844339880857636;-0.9776802194674283;1.008;0.00644693439922507
57:58.4;0.029941885525165683;-0.21829260611477058;-0.9773267530426227;1.006;0.006387897790163955
57:58.4;0.029802339999017595;-0.2181769497704229;-0.9767352867272667;1.005;0.006350912199045108
57:58.4;0.02977065748088689;-0.21812933234245951;-0.9759530757674347;1.001;0.006337696433250625
57:58.5;0.029844617428322194;-0.21817486701777433;-0.9750458726451443;0.996;0.006348860495293749
57:58.5;0.030017978608318098;-0.2183307280039438;-0.9740881727515974;0.996;0.006384024968303481
57:58.5;0.030280265226656958;-0.21860716364733732;-0.9731527670731016;0.996;0.006441768096532404
57:58.5;0.030616296938747976;-0.21900815284334565;-0.9723018496998617;0.992;0.006519496485787559
57:58.5;0.031006498116089753;-0.2195310649950096;-0.9715809761302253;0.992;0.006613444396499889
57:58.5;0.03142874508278456;-0.22016573205185083;-0.9710165045643275;0.995;0.006718980425104269
57:58.5;0.03186183954521068;-0.22089382496705437;-0.9706167522031411;0.996;0.006831281852970191
57:58.5;0.03228951820820869;-0.22168922871223876;-0.9703762531449659;1.0;0.006946184545161096
57:58.5;0.032702915637381404;-0.22251952230350014;-0.9702814496424252;1.001;0.007060774170103084
57:58.5;0.0330996644148085;-0.2233480643928719;-0.9703156732764182;0.9990000000000001;0.007173297292073016
57:58.6;0.033479236904624655;-0.22413601152632398;-0.9704617113897424;0.995;0.0072822501871962686
57:58.6;0.033835875013775;-0.22484399129509067;-0.9707015351264634;0.995;0.007384896525602824
57:58.6;0.03415190658112028;-0.22543354376245903;-0.9710142524593761;0.995;0.007475824481824034
57:58.6;0.034394588870515344;-0.2258684820210538;-0.9713740299112368;0.9940000000000001;0.007546268332969988
57:58.6;0.034518230485827264;-0.2261164004821541;-0.971749393022438;0.996;0.0075846381416207285
57:58.6;0.03447104991744084;-0.22615074153945025;-0.9721046280358112;0.9990000000000001;0.007578190846373037
57:58.6;0.034204725136355224;-0.2259535990780188;-0.9724033089801463;1.001;0.007515394735384064
57:58.6;0.033684543208797095;-0.22551879511465042;-0.9726132453121376;1.001;0.007388454182220018
57:58.6;0.03289859943919989;-0.2248543988164604;-0.9727117142246272;1.0;0.007195532575541791
57:58.6;0.031864710505938365;-0.22398401092457165;-0.9726900404359512;1.002;0.0069422694141289204
57:58.6;0.030633813725155487;-0.22294638064641994;-0.972557040400805;1.003;0.00664227077200132
57:58.7;0.029289119886069876;-0.22179315937437982;-0.9723408404119889;1.003;0.006316449037061652
57:58.7;0.02794096071045354;-0.22058509319502684;-0.9720880591799209;1.003;0.005991328098826589
57:58.7;0.026717649108638712;-0.21938742811900297;-0.9718590419109249;1.0;0.0056965676381369535
57:58.7;0.025752733091196255;-0.2182652866372285;-0.9717183619922974;0.9940000000000001;0.00546195862821604
57:58.7;0.025169333577089725;-0.21727948540691555;-0.9717211997100461;0.9890000000000001;0.005314129314523212
57:58.7;0.025063301499179052;-0.21648302178759862;-0.9718980492885475;0.9840000000000001;0.0052733042636153235
57:58.7;0.025488224446824963;-0.2159182617468129;-0.9722417239152852;0.9840000000000001;0.005350608967176333
57:58.7;0.02644582030561996;-0.21561488310659957;-0.9727009287930634;0.988;0.005546450079946654
57:58.7;0.027884570029320443;-0.2155888588411764;-0.9731833210585713;0.993;0.005850391414195005
57:58.8;0.029707619779376554;-0.2158426740879542;-0.9735683655022914;1.004;0.006242687904844646
57:58.8;0.031788056617512966;-0.2163664193594222;-0.973727367305433;1.004;0.006697168289336351
57:58.8;0.03398678418261079;-0.2171390095806229;-0.9735460142068795;1.004;0.007184630033102982
57:58.8;0.03616778566294084;-0.2181290045791201;-0.9729446880251986;1.005;0.0076757971515923834
57:58.8;0.038208069142189986;-0.21929511812805144;-0.9718934819224877;1.004;0.008143342932721863
57:58.8;0.040002600139662954;-0.22058701452016258;-0.970420577653621;1.004;0.00856304371370125
57:58.8;0.041466111597983114;-0.22194710917613522;-0.9686133226173558;1.002;0.00891442310479761
57:58.8;0.04253389971594067;-0.22331370853830856;-0.9666115818740758;0.997;0.009181266237138294
57:58.8;0.04316288063874985;-0.22462509388027385;-0.964593646869707;0.99;0.009352185018569728
57:58.8;0.043332822311542514;-0.2258235250308731;-0.9627563407543195;0.985;0.009421120223852225
57:58.9;0.04304688774863767;-0.2268580360442659;-0.961292401916306;0.981;0.009387532108778587
57:58.9;0.04233083127212417;-0.22768545751735322;-0.9603688875452712;0.981;0.009256145478339431
57:58.9;0.041230674361025454;-0.22827011176379156;-0.9601097608838276;0.981;0.009036294458582152
57:58.9;0.039808843880325746;-0.22858341427875917;-0.9605843689531015;0.985;0.008740973342498036
57:58.9;0.03813884112490649;-0.22860455343678163;-0.9618019482045302;0.988;0.008385674902972172
57:58.9;0.0362990813806935;-0.2283226439335815;-0.963711190056684;0.987;0.007987144124230796
57:58.9;0.034367363562077965;-0.2277398974027685;-0.9662036478163432;0.9890000000000001;0.0075623018914475135
57:58.9;0.03241756146504879;-0.22687484516298906;-0.9691204561904642;0.992;0.00712761855423424
57:58.9;0.03051910415590363;-0.22576446231146408;-0.9722627433141198;0.997;0.006699015859430521
57:58.9;0.028738107453319128;-0.22446408210765179;-0.9754061933625312;1.003;0.006292026308765152
57:58.9;0.027137734226709356;-0.2230443651674767;-0.9783192909655805;1.006;0.005921687133478289
57:59.0;0.025775631461143353;-0.22158531644515744;-0.9807836302410914;1.012;0.005601747130074689
57:59.0;0.024698239138856794;-0.22016821976117681;-0.98261397277406;1.012;0.0053432261713739675
57:59.0;0.023933995930435607;-0.21886709821527794;-0.983675610741976;1.013;0.00515285114109444
57:59.0;0.023488314386722352;-0.21774147518730447;-0.9838970308654357;1.015;0.00503202351733494
57:59.0;0.02334244655465971;-0.21683166366334017;-0.9832766135588106;1.014;0.004976738081327199
57:59.0;0.023456876753884554;-0.21615706582594751;-0.9818825873178004;1.012;0.004978507673113821
57:59.0;0.02377817778496895;-0.21571749671753673;-0.9798457346422447;1.008;0.005025990324570448
57:59.0;0.02424688131559064;-0.2154971960313506;-0.9773449991604083;1.001;0.005106759499652334
57:59.0;0.024804007964176082;-0.2154705313583965;-0.9745873813729893;0.993;0.005208714202686457
57:59.1;0.02539570119832046;-0.2156076750113146;-0.971784995967766;0.985;0.005321016607795655
57:59.1;0.02597701044620963;-0.21587873480705388;-0.9691332469814861;0.985;0.005434786974207644
57:59.1;0.02651555143086528;-0.21625603746732952;-0.9667939952874461;0.985;0.005543739935410278
57:59.1;0.026994518904437305;-0.21671526507392272;-0.9648860520229576;0.986;0.005644703358889312
57:59.1;0.027414146995330128;-0.21723617127455214;-0.9634831075662468;0.987;0.005737873663644828
57:59.1;0.02779115427261225;-0.21780309807001338;-0.9626175484625724;0.99;0.005826723539069884
57:59.1;0.028156120777551023;-0.21840504730917024;-0.9622878807694553;0.991;0.005917530517825624
57:59.1;0.02854887006912067;-0.21903490571736225;-0.9624672632904476;0.99;0.0060184993898682775
57:59.1;0.029011817463129173;-0.2196877405183461;-0.9631109664165807;0.9890000000000001;0.006138426872578026
57:59.1;0.029581413748383214;-0.22035861023878103;-0.9641615994732917;0.99;0.006284905919755376
57:59.1;0.030278901022084564;-0.22104045976021783;-0.9655521917589923;0.9890000000000001;0.006462307769204795
57:59.2;0.031102894895688547;-0.22172236039307575;-0.967207955731018;0.992;0.00667006653720029
57:59.2;0.032026230244431464;-0.22238824614114847;-0.9690476960500153;0.992;0.006901806905694414
57:59.2;0.032997962980431186;-0.2230165581589095;-0.9709856605100555;0.995;0.007145572932748898
57:59.2;0.03394996673437427;-0.22358126888023352;-0.9729343868566395;1.0;0.007385133030015134
57:59.2;0.034806983523188076;-0.2240542478389696;-0.9748087137978427;1.003;0.007602194425389406
57:59.2;0.035498550422064554;-0.22440825865375394;-0.9765304491455687;1.005;0.007779205502657265
57:59.2;0.0359704573191022;-0.22461973198566323;-0.9780325850969754;1.006;0.007902184920781808
57:59.2;0.03619295110767793;-0.22467095132853024;-0.9792620227706578;1.005;0.007962873796263233
57:59.2;0.036163709180159154;-0.22455178663043418;-0.9801804903869666;1.0070000000000001;0.007959678692276685
57:59.2;0.03590564236225783;-0.22426106580287083;-0.9807641065660808;1.0070000000000001;0.007897345639647238
57:59.3;0.03546142325726263;-0.22380736008161478;-0.9810022966313522;1.008;0.007785751728267715
57:59.3;0.034886857938582296;-0.22320899895917526;-0.9808964348330033;1.008;0.0076383000169578585
57:59.3;0.03424419739212393;-0.22249340633600104;-0.9804581150517957;1.006;0.007470216390629064
57:59.3;0.033595565016961065;-0.2216957710670436;-0.9797068966872948;1.002;0.007296851765133912
57:59.3;0.03299648656061639;-0.22085679940533706;-0.978667853365564;1.001;0.007132040428646108
57:59.3;0.03248994515301939;-0.22001951562556193;-0.9773698220307556;1.0;0.006986651933316215
57:59.3;0.0321020361968614;-0.2192257243936002;-0.9758452381070636;1.001;0.006867600777330854
57:59.3;0.03184049560026853;-0.21851311882251326;-0.9741316653952111;1.0;0.006777585353185886
57:59.3;0.031696682546571944;-0.217913750690769;-0.9722741603667654;0.9990000000000001;0.006715636639641338
57:59.4;0.03165034696933843;-0.21745394156938264;-0.9703272120215268;0.9940000000000001;0.0066782699538552506
57:59.4;0.031675585792702854;-0.21715512859993408;-0.9683554603705906;0.9940000000000001;0.006660848437104433
57:59.4;0.031746423436900706;-0.2170347911028973;-0.9664332368592423;0.9940000000000001;0.006658800749926349
57:59.4;0.031841177672608606;-0.21710655207380683;-0.9646432502318096;0.992;0.006668509622455106
57:59.4;0.03194534909965359;-0.2173788975644956;-0.9630742182994434;0.99;0.006687823103158329
57:59.4;0.032052837355311344;-0.21785263924472478;-0.9618167813097833;0.987;0.006716169616444292
57:59.4;0.032165332233123185;-0.2185178300501377;-0.9609573440976931;0.9840000000000001;0.006754279541448369
57:59.4;0.03229018544421323;-0.2193508816959973;-0.9605703657377439;0.983;0.006803605253868571
57:59.4;0.03243740923281372;-0.2203123703936403;-0.9607104003191477;0.981;0.006865584795022538
57:59.4;0.03261596786382549;-0.22134624768565572;-0.9614053960384399;0.9840000000000001;0.006940791364462941
57:59.5;0.03282889512757784;-0.22238174162232607;-0.9626523066898147;0.9890000000000001;0.007027888288360392
57:59.5;0.033067424046363904;-0.22333876708242367;-0.964415224739154;0.9890000000000001;0.007122435692695441
57:59.5;0.033306094230562897;-0.22413594282727278;-0.9666255357295188;0.9890000000000001;0.007215949358255079
57:59.5;0.03350177548040928;-0.22469917132936743;-0.9691836848447528;0.991;0.007295841478332999
57:59.5;0.033598549861138;-0.22496924135774138;-0.9719630221884796;0.9940000000000001;0.007346718843361645
57:59.5;0.03353804596160056;-0.22490790954001208;-0.9748168590931351;1.0;0.0073530160854011735
57:59.5;0.03327228849839388;-0.22450222848587384;-0.9775894415358437;1.008;0.00730230270083425
57:59.5;0.03277476220803842;-0.22376659264069576;-0.9801300824141912;1.013;0.007188172937633253
57:59.5;0.032046263719858144;-0.2227417358810329;-0.9823080427200368;1.013;0.0070117545034757076
57:59.5;0.031114606683723584;-0.22149043956257708;-0.9840250578692846;1.015;0.0067814951931245634
57:59.5;0.030029667117328178;-0.22009083226284912;-0.9852231171733241;1.016;0.006511590250168487
57:59.6;0.028856573446234473;-0.21862878632580876;-0.9858864350739466;1.011;0.006219836876029259
57:59.6;0.027669498955993743;-0.21719076214119826;-0.9860376477368646;1.011;0.005925651978706152
57:59.6;0.026546571536948196;-0.21585822826969106;-0.9857291170262855;1.01;0.005648519516426567
57:59.6;0.02556464446293316;-0.21470440745843788;-0.9850308799968777;1.005;0.005406678709099126
57:59.6;0.024792897585523378;-0.21379299868809573;-0.9840171705708581;1.001;0.005215830167673942
57:59.6;0.024285880583361497;-0.2131773789759676;-0.9827538411629541;0.997;0.005087913548991355
57:59.6;0.024077788341968758;-0.21289885158828337;-0.9812893951673936;0.996;0.00503022042880037
57:59.6;0.024179565378666366;-0.21298370719581988;-0.9796520799692422;0.997;0.005045064666098789
57:59.6;0.024579220671853204;-0.2134399117221761;-0.9778542629787426;1.002;0.00513000601959021
57:59.7;0.025244503765576916;-0.21425431117929702;-0.9759033437388729;1.006;0.005278411126038534
57:59.7;0.026126647198803348;-0.21539079202865555;-0.9738162648396982;1.006;0.0054800918546906155
57:59.7;0.027164118754642936;-0.21678975294978414;-0.9716331930771168;1.006;0.005721853231048312
57:59.7;0.028285851249966326;-0.2183696517881924;-0.9694259525478768;1.003;0.0059879225834130936
57:59.7;0.02941413207772001;-0.22003147844855325;-0.9672982016875312;0.996;0.006260387786135792
57:59.7;0.030467973733994652;-0.22166619593246376;-0.9653765765062374;0.9890000000000001;0.006519882933366065
57:59.7;0.03136780360313953;-0.22316403579850397;-0.9637945776598965;0.985;0.006746721692539703
57:59.7;0.03204147898158803;-0.22442402575441894;-0.9626730328496167;0.982;0.0069224640483274745
57:59.7;0.03243042281857411;-0.22536243070535839;-0.9621015892949932;0.981;0.0070316146318301015
57:59.7;0.032494146829929745;-0.22591924084561696;-0.9621249197075384;0.981;0.00706301001255323
57:59.7;0.03221231517005129;-0.22606208635733246;-0.9627360311663893;0.982;0.007010627579708556
57:59.8;0.03158505863345906;-0.22578728231815853;-0.9638777265566246;0.992;0.006873898393265047
57:59.8;0.03063286711314613;-0.22511827367996176;-0.9654516530242931;0.992;0.006657772134154479
57:59.8;0.02939662811566674;-0.22410220564763447;-0.967332624340291;0.9990000000000001;0.006372641454740345
57:59.8;0.02793730363673139;-0.22280532189954044;-0.9693848786652446;1.003;0.006034013659978823
57:59.8;0.02633425114827111;-0.22130757569773435;-0.9714769079179961;1.004;0.005661737575030624
57:59.8;0.024681285507849024;-0.21969670783797562;-0.9734920494634763;1.001;0.005278660535277798
57:59.8;0.023080045536551293;-0.21806221397927408;-0.9753332482076867;0.9990000000000001;0.004908740882913588
57:59.8;0.021631088784177084;-0.21648977413584744;-0.9769224208126455;0.9940000000000001;0.004574839309803964
57:59.8;0.02042429283334576;-0.2150565568827332;-0.97819699998749;0.993;0.0042966110738764055
57:59.9;0.019531013693884686;-0.2138274527172176;-0.979107369395736;1.006;0.004089013705352592
57:59.9;0.01900002962597595;-0.21285218957602053;-0.9796178676979377;1.006;0.0039617685310837335
57:59.9;0.018857335770844388;-0.2121635728955401;-0.9797110176429055;1.006;0.003919666765688319
57:59.9;0.019107976826163928;-0.21177724018800123;-0.9793921955357476;1.006;0.0039632423432911
57:59.9;0.019737996357720607;-0.21169293257841815;-0.9786921345816828;1.004;0.00408936166809309
57:59.9;0.020715794462877437;-0.21189674174176018;-0.9776662872932853;1.001;0.004291573075174293
57:59.9;0.02199342085145147;-0.21236359484761355;-0.9763913163226424;0.9990000000000001;0.004560335151816348
57:59.9;0.023509063410634436;-0.21305944024784776;-0.974959594845189;0.998;0.00488340481127905
57:59.9;0.02519195265508986;-0.21394311601374796;-0.9734727577568322;0.996;0.005246672434973388
57:59.9;0.02696994821960102;-0.21496861591644242;-0.972035057615316;0.995;0.005635560305054076
58:00.0;0.02877871332431725;-0.21608877242082802;-0.9707468752868286;0.995;0.0060368387648737495
58:00.0;0.030570304256247686;-0.21726042601319479;-0.9696985868687573;0.995;0.006440463905467315
58:00.0;0.032318598637987445;-0.21844943008286305;-0.9689650352376041;0.995;0.006840873239981139
58:00.0;0.03401959747375492;-0.2196331499002752;-0.968600792943771;0.993;0.007237221771805258
58:00.0;0.035686149665556804;-0.22079915137183484;-0.9686362550532922;0.992;0.007632341825501487
58:00.0;0.03733816671899052;-0.22194034784578137;-0.9690746980984578;0.993;0.008030572504157616
58:00.0;0.038990322454148386;-0.22304799579447668;-0.9698906384215029;0.996;0.00843486079412293
58:00.0;0.040639849850608374;-0.22410461054140116;-0.9710295752705456;0.9940000000000001;0.008843727328333073
58:00.0;0.042257486324200934;-0.22507911523744453;-0.9724087371555399;0.9940000000000001;0.009248849472822967
58:00.0;0.04378438524506063;-0.2259262120411557;-0.9739186832792995;0.993;0.009634042868759431
58:00.1;0.04513655856841964;-0.22659095621636619;-0.9754266115304288;1.002;0.009976210751946981
58:00.1;0.04621621529418181;-0.22701770039934413;-0.9767828262181503;1.002;0.010248306676782847
58:00.1;0.04692686731223406;-0.2271606256508496;-0.9778312865198285;1.002;0.010423619459643086
58:00.1;0.04718792494721262;-0.22699249678193267;-0.9784242427228893;1.0070000000000001;0.01048020038704547
58:00.1;0.04694546141208936;-0.22650953001320992;-0.978440320651838;1.014;0.010404337515108018
58:00.1;0.046177484539573314;-0.2257318977720275;-0.9778042897836937;1.0190000000000001;0.010192369101936627
58:00.1;0.04489354502182772;-0.22470015579525426;-0.9765048109480154;1.0170000000000001;0.009850576807286255
58:00.1;0.04313023488354491;-0.2234683663143758;-0.9746051692956312;1.01;0.00939348157565338
58:00.1;0.04094534280907016;-0.22209587634185463;-0.9722428861656319;1.004;0.008841374379305475
58:00.1;0.03841305818018787;-0.22064072623215109;-0.9696168816872689;0.997;0.008217973388530947
58:00.2;0.03562124779808731;-0.21915683443646594;-0.96696392256246;0.988;0.0075487391456406485
58:00.2;0.03267051632525222;-0.21769478342463228;-0.9645283502311645;0.977;0.006859919473697664
58:00.2;0.02967378975056468;-0.21630428822509626;-0.9625305347225218;0.977;0.00617806766121889
58:00.2;0.026754656144472422;-0.21503620835005965;-0.9611399355643353;0.972;0.005529649320370593
58:00.2;0.024042799091551516;-0.21394260086334366;-0.9604575116233189;0.973;0.004940381149560526
58:00.2;0.021665609563986124;-0.21307419024369034;-0.9605099277526782;0.9790000000000001;0.004434080946830884
58:00.2;0.019736501915424205;-0.21247557568440462;-0.9612555389586098;0.985;0.004031048755734387
58:00.2;0.018342087502371283;-0.21217925540125396;-0.9625997632402404;0.992;0.0037462558358021328
58:00.2;0.017531112988425322;-0.2122000069728536;-0.9644153840906956;0.997;0.0035877238869543608
58:00.2;0.0173075875115325;-0.21253137885889903;-0.9665623272541557;0.998;0.0035554081212663922
58:00.3;0.01762950393443068;-0.21314569338918024;-0.968902209950342;0.9940000000000001;0.0036407981411071097
58:00.3;0.018413411096908187;-0.21399770359205444;-0.9713054943222049;0.9940000000000001;0.00382735906531016
58:00.3;0.019543727808200434;-0.2150305765952121;-0.9736523635360105;0.9940000000000001;0.004091773141959437
58:00.3;0.020884868046307146;-0.2161824389377182;-0.9758306442755046;0.9940000000000001;0.004405818478851117
58:00.3;0.02229472135156857;-0.2173923768415899;-0.9777342965256516;0.9990000000000001;0.004738787225710137
58:00.3;0.02363877793218532;-0.2186053895306505;-0.9792648669706686;1.003;0.005060414125568869
58:00.3;0.024803906801225715;-0.21977586707232183;-0.9803367164382973;1.008;0.005344109663901883
58:00.3;0.02570989162678245;-0.22086924288071605;-0.9808851716219494;1.0090000000000001;0.005569980280752922
58:00.3;0.026316462548499765;-0.22186178083680505;-0.9808755637509912;1.011;0.005726956983025341
58:00.3;0.026624068552932895;-0.2227387535352272;-0.9803108431260306;1.013;0.0058134509722338416
58:00.4;0.026667680958465733;-0.22349141918029988;-0.9792358834978651;1.006;0.005836243773661559
58:00.4;0.02650455573823297;-0.2241132198778464;-0.9777373961616516;1.006;0.005807780986312257
58:00.4;0.026198989111936653;-0.22459565377604856;-0.9759393750048335;1.006;0.005742602061429422
58:00.4;0.0258081764881729;-0.22492444945163004;-0.9739945667807349;1.002;0.005653931211626449
58:00.4;0.02537230797849619;-0.22507691617811837;-0.9720722972714045;0.997;0.005551233522244197
58:00.4;0.02491029079188295;-0.22502156184402616;-0.9703430024140328;0.992;0.005439114613231732
58:00.4;0.02442123846806689;-0.2247210511910714;-0.968960687427719;0.99;0.0053176236760789485
58:00.4;0.023890764452863006;-0.22413891926551466;-0.9680455547380794;0.987;0.0051837388596900486
58:00.4;0.0233000508981885;-0.22324910467447912;-0.9676694608417159;0.983;0.005033541235166254
58:00.4;0.0226352950377462;-0.22204595255426263;-0.9678469351559372;0.981;0.00486447191178172
58:00.5;0.021895548157998095;-0.22055182380496555;-0.9685343620168285;0.996;0.004677152270174355
58:00.5;0.02109767834961418;-0.21882036684472414;-0.9696385353383097;0.996;0.004476434926176086
58:00.5;0.020277959289847804;-0.2169351694790038;-0.9710327920882486;0.996;0.004271575714189101
58:00.5;0.019490355856601332;-0.21500443709487616;-0.972576662989019;1.005;0.004075595139761205
58:00.5;0.01880170638047312;-0.21315223604930075;-0.9741351384191362;1.0070000000000001;0.0039039690710794325
58:00.5;0.018284118374585233;-0.21150703530905485;-0.9755944983460602;1.004;0.0037728382345801805
58:00.5;0.018005615069585753;-0.21018931837379615;-0.9768720781336726;1.003;0.0036970583037795905
58:00.5;0.018021168258941553;-0.20930060939309106;-0.9779186820743008;1.0;0.0036885542672765847
58:00.5;0.01836662798862914;-0.20891548198898632;-0.9787146464490496;0.9990000000000001;0.0037553994846546393
58:00.5;0.019056792134149535;-0.20907676300614925;-0.9792621151337588;0.9990000000000001;0.003901705785845853
58:00.6;0.020086569119492404;-0.20979315204763777;-0.9795763052986851;0.998;0.0041279586964978725
58:00.6;0.021432847412331327;-0.21103817352015558;-0.9796779723418888;0.998;0.0044312294127394096
58:00.6;0.02305541341557332;-0.21274985699737128;-0.9795884897453035;0.998;0.00480491671645947
58:00.6;0.0248970094327707;-0.21483151805260298;-0.9793281918106728;1.002;0.005238095809627674
58:00.6;0.026883719350668963;-0.21715483484331982;-0.978917766360492;1.0070000000000001;0.005714853039020614
58:00.6;0.02892688338834271;-0.21956664033261164;-0.9783813124016338;1.008;0.00621407013108045
58:00.6;0.030927273407727197;-0.22190022180767094;-0.9777486532899637;1.0070000000000001;0.006710062980474434
58:00.6;0.03278171733573475;-0.22399042482114162;-0.9770546466409582;1.004;0.007174307863024722
58:00.6;0.034391574064127184;-0.22569023361358545;-0.9763348135966612;1.0;0.007578156938000464
58:00.6;0.035671482944514554;-0.2268857279042159;-0.9756186313500381;0.9990000000000001;0.007896023414224542
58:00.7;0.036556447018914466;-0.22750666757740964;-0.974923081174541;0.9990000000000001;0.008108274832536216
58:00.7;0.037006097874089455;-0.22753121261127934;-0.9742489346504338;0.9990000000000001;0.008203217263189764
58:00.7;0.03700634490320469;-0.2269849707905391;-0.9735810715410838;0.9990000000000001;0.008177968179370474
58:00.7;0.036569430664852166;-0.22593567842588982;-0.9728927902580724;1.0;0.008038370167239777
58:00.7;0.03573313590799105;-0.22448483596992427;-0.9721532455160969;1.0;0.007798173098845841
58:00.7;0.03455896998859114;-0.22275734345215523;-0.9713366723528896;1.001;0.007477606473806288
58:00.7;0.03312864938271142;-0.22089023435214755;-0.9704316691726627;1.002;0.007101420138707456
58:00.7;0.031538428392474956;-0.21902150254744515;-0.9694485593168499;1.001;0.0066965570269295
58:00.7;0.029891419508447117;-0.21727960460045995;-0.9684228622935996;0.995;0.006289708750019538
58:00.7;0.02828856625862095;-0.21577412680484437;-0.9674134952062677;0.993;0.005905034590687195
58:00.8;0.026819611441008473;-0.21458831877521103;-0.9664957322331407;0.985;0.005562352394051314
58:00.8;0.025555897140627126;-0.21377413591251906;-0.9657506760057725;0.985;0.005276079270221433
58:00.8;0.024546253735049157;-0.21335022622620725;-0.9652540332925124;0.985;0.005054985939163547
58:00.8;0.02381588888471021;-0.2133032021509004;-0.9650667053560085;0.986;0.004902544037103611
58:00.8;0.023367478551962837;-0.2135921468833837;-0.9652283901811817;0.9890000000000001;0.0048175609847712925
58:00.8;0.023183948663737523;-0.2141555545755579;-0.9657540081059317;0.99;0.004794941013586037
58:00.8;0.02323268565593633;-0.2149195063524983;-0.966632064823503;0.987;0.004826545982222476
58:00.8;0.023470552854793922;-0.2158061450504944;-0.9678242894297818;0.9890000000000001;0.00490211667894526
58:00.8;0.023848793121436652;-0.21674179530429138;-0.9692667856286924;0.99;0.005010169322615912
58:00.8;0.024317298505901475;-0.21766384894477614;-0.9708736649430012;0.9940000000000001;0.005138831190809296
58:00.9;0.024828356379438015;-0.21852528368450114;-0.9725438451475391;1.002;0.005276656858920744
58:00.9;0.025340074854785302;-0.2192961351828518;-0.9741704184427588;1.002;0.005413446000355214
58:00.9;0.025819372810377363;-0.21996218726009145;-0.9756506965961297;1.002;0.005540999066012516
58:00.9;0.026244293504579366;-0.22052180656930617;-0.9768949262974671;1.004;0.005653719810756786
58:00.9;0.02660543955437401;-0.22098197332082414;-0.9778327476939078;1.005;0.0057489941077979835
58:00.9;0.026906160483374332;-0.22135440000886183;-0.9784174356832279;1.005;0.005827255638306183
58:00.9;0.027160967881209388;-0.22165230809280495;-0.978628133992313;1.005;0.005891626363604176
58:00.9;0.02739197697882983;-0.22188800430293;-0.9784702052465667;1.005;0.005947094065916274
58:00.9;0.027623909797178218;-0.22207108988010538;-0.9779738300008203;1.006;0.005999352837669281
58:00.9;0.027878801368794878;-0.22220707598398895;-0.9771908819677252;1.004;0.006053567483004254
58:01.0;0.028171528406901195;-0.22229631889943038;-0.9761899737339144;0.998;0.0061133185097743264
58:01.0;0.028506757899703878;-0.22233344820534895;-0.9750499360036562;0.998;0.006179872131151181
58:01.0;0.02887756806208413;-0.22230764646716122;-0.97385280552328;0.998;0.006251846937597001
58:01.0;0.0292660406698182;-0.22220407182350177;-0.9726776420826292;0.998;0.006325355196800811
58:01.0;0.029646047830458877;-0.22200645305260341;-0.9715956939829133;0.998;0.0063946677498313296
58:01.0;0.029987884394726314;-0.2217005992863891;-0.9706664876416322;0.996;0.006453313014469099
58:01.0;0.030263604081647806;-0.22127836076358326;-0.9699342440187865;0.995;0.006495339934115128
58:01.0;0.030451543174247916;-0.22074138894151285;-0.9694244887788587;0.993;0.0065163899195764905
58:01.0;0.030538936061056284;-0.22010376582321683;-0.9691412605201574;0.992;0.0065143105672620895
58:01.0;0.03052244325233265;-0.21939249355516244;-0.9690656642104588;0.99;0.006489246405041217
58:01.1;0.030407182623177192;-0.21864540725995715;-0.9691566310088391;0.991;0.006443332056758611
58:01.1;0.03020510721008428;-0.21790711829753667;-0.9693545471147131;0.991;0.006380202322491689
58:01.1;0.029933363709221724;-0.2172243810374411;-0.9695879289892536;0.991;0.006304509320612591
58:01.1;0.02961288705814633;-0.21664221349365323;-0.9697828298616241;0.998;0.006221546124598125
58:01.1;0.02926724488797081;-0.21620119721956768;-0.9698741463414371;1.0;0.006136988629280274
58:01.1;0.0289216939496678;-0.21593534763503075;-0.9698171284619178;1.0;0.006056717483836637
58:01.1;0.028602300271419533;-0.21586964965308916;-0.9695966223806164;0.9990000000000001;0.005986646880615474
58:01.1;0.02833476123422296;-0.21601693306216888;-0.9692318641761887;0.997;0.005932462977537299
58:01.1;0.02814263154732349;-0.21637453200872173;-0.9687759040965961;0.997;0.005899214321794168
58:01.1;0.028045060012757278;-0.2169215553288329;-0.9683098791741369;0.995;0.005890788714203502
58:01.2;0.028054399864798518;-0.21761770331393207;-0.9679328309091356;0.9890000000000001;0.005909359699997592
58:01.2;0.02817400200483641;-0.21840451288428236;-0.9677481350371253;0.9890000000000001;0.005954872841956894
58:01.2;0.028396464581327278;-0.21920949039616106;-0.9678483235369064;0.9890000000000001;0.006024637593183523
58:01.2;0.028702682072175457;-0.21995303415738027;-0.9683005034255715;0.988;0.006113115416752822
58:01.2;0.029062077286028956;-0.22055768820249563;-0.9691342263854599;0.987;0.006212019151525109
58:01.2;0.029434494977329525;-0.22095866662219274;-0.9703332850523205;0.9890000000000001;0.0063108601815789625
58:01.2;0.029774343584683175;-0.2211135645719489;-0.9718329871250798;0.992;0.006398073396861128
58:01.2;0.030037097547345928;-0.2210087096941388;-0.9735242735686765;0.9940000000000001;0.006462702116459552
58:01.2;0.030186924512645943;-0.22066047591747864;-0.975265102152231;1.0;0.006496300462850877
58:01.2;0.030202922740328333;-0.2201114692247251;-0.9768981630757213;1.0070000000000001;0.0064944284633113285
58:01.3;0.03008154030655103;-0.21942275404426012;-0.9782725056402857;1.013;0.006457160476476357
58:01.3;0.029834475424874177;-0.21866399355121724;-0.9792651628662868;1.013;0.006388457155292116
58:01.3;0.02948366538061094;-0.21790372464530844;-0.9797981412329438;1.013;0.006294811630642148
58:01.3;0.029056106688349015;-0.21720171168521993;-0.9798471014129277;1.01;0.006183850436961601
58:01.3;0.028580529947132734;-0.21660428886331778;-0.9794403864335698;1.005;0.00606338767692151
58:01.3;0.02808644725037812;-0.21614248845417577;-0.9786495327879079;1.0;0.005941062861519696
58:01.3;0.02760478289390399;-0.21583223307020902;-0.9775742067577259;0.995;0.005824389015869041
58:01.3;0.027168398040323016;-0.21567590137853745;-0.9763254055574992;0.9940000000000001;0.005720845822916335
58:01.3;0.026810786564615136;-0.21566470256708736;-0.9750106010116928;0.995;0.005637648098833236
58:01.3;0.02656233801854106;-0.21578124841200552;-0.9737232462675123;0.996;0.0055810451856998355
58:01.3;0.02644515648027534;-0.2160017957400914;-0.9725371840071138;0.996;0.005555328155470433
58:01.4;0.02646847977083031;-0.21629813522074842;-0.9715049658993364;0.9940000000000001;0.005561946386471736
58:01.4;0.026626658208246477;-0.21663957390325805;-0.9706586488411193;0.9940000000000001;0.00559913559403916
58:01.4;0.026900559879089184;-0.21699538697429133;-0.9700120832995439;0.9940000000000001;0.0056622490125774316
58:01.4;0.027261948385855824;-0.21733766804255053;-0.969564291269191;0.9940000000000001;0.0057447152445541765
58:01.4;0.027679384792276156;-0.21764404771027493;-0.969303768736338;0.995;0.005839331470473036
58:01.4;0.02812360541054285;-0.21789953002950155;-0.9692134225676337;0.998;0.005939456548430866
58:01.4;0.028570476084241226;-0.2180969709521927;-0.96927541325695;0.9990000000000001;0.006039685266553415
58:01.4;0.02900092855889755;-0.21823630760908427;-0.9694746179557414;0.997;0.006135858726799329
58:01.4;0.02939906719376495;-0.21832301198755336;-0.9697993625237068;0.993;0.00622465032216928
58:01.5;0.02975046132855233;-0.21836633123404026;-0.9702390003192931;0.992;0.006303156785408554
58:01.5;0.030041945656871193;-0.21837783804220615;-0.9707794452959673;0.992;0.006368793835913635
58:01.5;0.030262941011405826;-0.21837046439075244;-0.9713988098062991;0.992;0.006419520588057673
58:01.5;0.030407567385680862;-0.21835769211102252;-0.9720651900002485;0.995;0.00645424674616538
58:01.5;0.030476762598523933;-0.21835249532417153;-0.9727376803614886;0.997;0.006473255226886997
58:01.5;0.030479615497681505;-0.21836592680905414;-0.9733705087734954;1.001;0.006478471329546337
58:01.5;0.03043306624514816;-0.21840540810536696;-0.9739191355198202;1.002;0.006473393364906202
58:01.5;0.030359418969936228;-0.21847286823008652;-0.9743464836672467;1.002;0.006462557022772645
58:01.5;0.030281918831145505;-0.218563255011883;-0.9746274291677325;1.001;0.0064505860134993365
58:01.5;0.0302197832965535;-0.21866435993461578;-0.9747503885869294;0.9990000000000001;0.006441140402991474
58:01.6;0.03018480841892892;-0.21875863645320312;-0.9747159912521001;0.998;0.006436232480019985
58:01.6;0.030180953859916874;-0.21882668375027234;-0.9745338368098501;0.998;0.006436209367184001
58:01.6;0.030206379153350806;-0.21885112781998262;-0.9742187725532137;0.998;0.006440268181046312
58:01.6;0.0302560522542268;-0.21881952881854935;-0.9737878620976093;0.998;0.0064470746222271905
58:01.6;0.030323331156388383;-0.21872566043107278;-0.9732585824324539;0.996;0.00645512843210387
58:01.6;0.030400035589938472;-0.21856941356266574;-0.9726483698505318;0.995;0.006462779553654923
58:01.6;0.03047555912853161;-0.21835599807845535;-0.9719756608606631;0.997;0.006468032573538219
58:01.6;0.030536267290306104;-0.2180948368979079;-0.9712625382019506;1.0;0.006468416421863774
58:01.6;0.030566277091274872;-0.21779810882581918;-0.9705383799168494;1.001;0.006461143168418941
58:01.6;0.030549589452703665;-0.2174790313054944;-0.9698427599927396;1.0;0.00644353358120885
58:01.7;0.03047267698479903;-0.21715046481603742;-0.9692253716188479;0.992;0.006413515455476948
58:01.7;0.030326851233667868;-0.21682438554943492;-0.968741845162726;0.992;0.006370059733796806
58:01.7;0.030110145934339756;-0.2165121662216308;-0.9684464524928778;0.992;0.006313508626865945
58:01.7;0.029828348181799195;-0.2162251369634745;-0.9683839877721503;0.99;0.006245726815916071
58:01.7;0.029494792098395492;-0.21597469512346043;-0.968582775314662;0.9890000000000001;0.006169996965558781
58:01.7;0.029128905623144963;-0.21577110462230378;-0.9690499594533015;0.9890000000000001;0.00609064968628373
58:01.7;0.02875367756167027;-0.2156205769839496;-0.9697699021280339;0.991;0.006012461429629526
58:01.7;0.028392085223917164;-0.215521509070769;-0.9707060835817352;0.996;0.005939852501143698
58:01.7;0.028062887472796175;-0.21546177540961103;-0.9718058616376093;0.998;0.00587600427674493
58:01.7;0.02777722033953018;-0.21541878408910642;-0.9730063590654472;0.998;0.0058222122360447135
58:01.8;0.027537932470645798;-0.2153630394231362;-0.974239560353914;0.9990000000000001;0.0057778766118557695
58:01.8;0.027342472739410158;-0.21526473992698172;-0.9754356616910161;0.9990000000000001;0.005741287774330157
58:01.8;0.027187986424118897;-0.21510162635755214;-0.9765250783985988;0.9990000000000001;0.005710894527922026
58:01.8;0.02707596191382042;-0.21486563444845797;-0.977440319030444;1.001;0.005686448420277035
58:01.8;0.027014319031063005;-0.214566421987595;-0.9781188664285342;1.003;0.005669534723132579
58:01.8;0.027016310822675034;-0.2142308580378941;-0.9785075317137052;1.002;0.005663334899922221
58:01.8;0.027096778671038334;-0.21389859039351544;-0.9785679280197394;1.004;0.0056717432708313625
58:01.8;0.027267049619818465;-0.21361503448416136;-0.9782820842640422;1.005;0.005698152449033585
58:01.8;0.027530319423370465;-0.21342403080295277;-0.9776568744696005;1.005;0.005744351763077284
58:01.8;0.027879362612760795;-0.2133620466986791;-0.9767259216803216;1.004;0.0058099543898635095
58:01.9;0.028297390836165393;-0.21345447327403733;-0.9755480775755926;0.996;0.005892510040288097
58:01.9;0.028761246677414826;-0.21371361454979212;-0.9742025659072165;0.996;0.005988101672524573
58:01.9;0.029245063394051637;-0.21413797782983832;-0.9727820555976612;0.996;0.006092026938631107
58:01.9;0.029722806984843742;-0.21471288890531337;-0.97138531061022;0.996;0.006199254533351487
58:01.9;0.030169392368774056;-0.21541250346432683;-0.9701102571698047;0.993;0.006304614954399391
58:01.9;0.030561300777231036;-0.21620284339677703;-0.9690474327332433;0.991;0.006402922890982212
58:01.9;0.03087785674520059;-0.21704515692553905;-0.9682738203425882;0.992;0.006489263919991137
58:01.9;0.03110348781485575;-0.217899116102737;-0.9678475209308922;0.991;0.006559511567412958
58:01.9;0.031230337341588546;-0.21872569001943412;-0.9678037625949574;0.992;0.006610948544278895
58:01.9;0.03126021286844451;-0.2194895675452698;-0.9681524241121126;0.992;0.00664277513067243
58:02.0;0.03120482953723398;-0.22016107922340705;-0.9688769839511968;0.992;0.006656271059317689
58:02.0;0.031083499357393893;-0.2207177955835781;-0.9699347789222368;0.995;0.006654413552433092
58:02.0;0.03091813130606881;-0.22114588843310323;-0.9712585807433024;0.995;0.006640900530026654
58:02.0;0.030726605035606428;-0.22144085914827763;-0.9727596222287855;0.996;0.006618778860114886
58:02.0;0.030516494750712952;-0.22160695475544995;-0.9743323337040058;0.996;0.00658908557958652
58:02.0;0.030281182842505434;-0.2216549588372724;-0.9758611925033941;1.0;0.006549955280068542
58:02.0;0.029999832345984363;-0.22159883173058667;-0.9772299394206415;1.004;0.0064965540812507725
58:02.0;0.029641790239064755;-0.2214522120385073;-0.9783326919779847;1.008;0.006422010606838728
58:02.0;0.02917472686823225;-0.2212256903354758;-0.9790854926960088;1.008;0.00631921269772732
58:02.0;0.028574232264849113;-0.22092526598106207;-0.9794362820663858;1.011;0.006182955844467377
58:02.1;0.02783154867024155;-0.22055187821403122;-0.9793714913082272;1.008;0.006011676351058563
58:02.1;0.02695692969736957;-0.22010169240471691;-0.9789180671346395;1.008;0.005808181136137162
58:02.1;0.0259784712378027;-0.21956717021833977;-0.978140357434554;1.008;0.005579331590656562
58:02.1;0.024937928758109903;-0.21893939620594152;-0.9771317648796882;1.003;0.005335036900850378
58:02.1;0.023885009999070304;-0.21821189531644974;-0.9760016099915119;0.997;0.005086913853577272
58:02.1;0.022871268872865568;-0.21738534789619338;-0.974858696304092;0.992;0.004846879227394704
58:02.1;0.02194481165572906;-0.2164719324513407;-0.9737945059960311;0.9890000000000001;0.004625948269879725
58:02.1;0.021146684108731224;-0.21549794682979384;-0.9728697309076605;0.99;0.004433432553499361
58:02.1;0.020508835120697635;-0.2145037719596957;-0.9721072185941734;0.99;0.0042765159405672645
58:02.1;0.02005300414680499;-0.2135408593117914;-0.9714927497727329;0.991;0.0041600638223215575
58:02.2;0.019790207875858567;-0.21266614569631181;-0.9709832354617624;0.997;0.004086584164741181
58:02.2;0.019721018956589793;-0.21193507582648888;-0.9705203702271239;0.997;0.004056363305231468
58:02.2;0.01983689503142396;-0.21139492214935982;-0.9700465964122286;0.997;0.004067811712702123
58:02.2;0.020122530048632646;-0.2110798953256165;-0.9695199503024904;0.998;0.004117998697635684
58:02.2;0.020558915126571396;-0.21100866768721585;-0.9689252611234959;0.9990000000000001;0.004203303676549372
58:02.2;0.02112656778380055;-0.21118405776286084;-0.9682803420668356;0.998;0.004320074065797786
58:02.2;0.021808225573492424;-0.2115943506713756;-0.9676363941407216;0.995;0.004465155556706803
58:02.2;0.02259038886160889;-0.21221599536933994;-0.9670721934528603;0.993;0.004636184575166126
58:02.2;0.023463452584715414;-0.21301764236570417;-0.9666823478650822;0.99;0.004831603416301778
58:02.2;0.0244205687441443;-0.2139650984619425;-0.9665609873977806;0.985;0.0050504255593415825
58:02.3;0.025455627724496135;-0.21502594097556618;-0.9667834652958225;0.981;0.005291805605778804
58:02.3;0.026560729781344255;-0.2161721294514336;-0.967389721906693;0.981;0.005554451424754982
58:02.3;0.027723382417361137;-0.21737946422863014;-0.9683733471572287;0.981;0.005835896182372777
58:02.3;0.028923752491783805;-0.21862377412008097;-0.9696795466458924;0.99;0.006131690972398335
58:02.3;0.030132621786496203;-0.21987484587971443;-0.971213108002544;0.998;0.006434680736638443
58:02.3;0.03131076325418547;-0.2210903376940119;-0.9728544481705641;1.006;0.006734591942758999
58:02.3;0.03240999706151202;-0.22221283574639983;-0.9744789775907116;1.0090000000000001;0.00701811705940074
58:02.3;0.033375634338773524;-0.2231726428308068;-0.975974029374293;1.006;0.007269570394075484
58:02.3;0.03415005791313327;-0.2238963948229953;-0.9772493637576846;1.004;0.0074721217821589305
58:02.3;0.03467776789017386;-0.2243187044751785;-0.9782408008936725;1.0;0.007609609943257489
58:02.4;0.03491235139903976;-0.2243929024554415;-0.9789095929705555;1.008;0.007668859844622973
58:02.4;0.03482477634726987;-0.22409819685173596;-0.9792407802801693;1.008;0.00764216111403842
58:02.4;0.03441084085244773;-0.2234427913407358;-0.9792420241878587;1.008;0.007529249280196613
58:02.4;0.033695074292772;-0.22246381113938338;-0.978942349810389;1.008;0.007338087874221506
58:02.4;0.03272948356181342;-0.22122481866472557;-0.9783896072997208;1.006;0.007084102417011604
58:02.4;0.03158742348019166;-0.21981118421144627;-0.9776459483296583;1.004;0.0067880587682458415
58:02.4;0.030354416483658383;-0.2183234117438324;-0.976781239853887;0.9990000000000001;0.0064732071925984
58:02.4;0.02911836236468413;-0.21686884164783501;-0.9758649602181995;0.996;0.006162455986248421
58:02.4;0.02796122022102723;-0.21555272896221675;-0.9749578352027953;0.9940000000000001;0.0058761852584823535
58:02.4;0.026953318282005506;-0.2144699099205471;-0.9741049961678993;0.992;0.005630985123458504
58:02.5;0.02615047723305944;-0.21369774918981765;-0.9733323998147009;0.995;0.0054392716248321
58:02.5;0.02559339900158366;-0.2132904504676907;-0.9726474578061585;0.995;0.005309514789733224
58:02.5;0.025308392234728937;-0.2132748305998622;-0.9720435395527369;0.995;0.005246744071716368
58:02.5;0.025308496452810737;-0.21364796975895584;-0.9715069583893935;0.9990000000000001;0.005253043906347212
58:02.5;0.02559422540004146;-0.21437721430496642;-0.9710246245962081;1.0;0.005327836110687255
58:02.5;0.0261533832959524;-0.21540289320672312;-0.9705903727734332;1.0;0.005467834869757434
58:02.5;0.026959970233636044;-0.21664383242027024;-0.9702079761699831;0.998;0.00566670466391139
58:02.5;0.027972961119247994;-0.21800519163825746;-0.9698896145909621;0.993;0.00591463006910305
58:02.5;0.029135992529505494;-0.21938761057556624;-0.9696501490347516;0.991;0.006198077235429333
58:02.5;0.030378551821480897;-0.22069640152783498;-0.9694992559577769;0.99;0.006499946751589283
58:02.6;0.03161879699945756;-0.22184943796423884;-0.9694343928509044;0.9890000000000001;0.00680020645824239
58:02.6;0.032767992866575356;-0.22278253977755022;-0.9694372954512348;0.992;0.007077024753888261
58:02.6;0.033736494768709026;-0.2234517692835011;-0.9694755722608291;0.992;0.007308371674394478
58:02.6;0.03444110925174481;-0.22383294961170608;-0.9695095383108381;0.997;0.0074740024233932315
58:02.6;0.03481344224469081;-0.22391942534570913;-0.969503052304121;1.003;0.007557669893244018
58:02.6;0.034808336383009;-0.22371929111748298;-0.9694358104003391;1.0070000000000001;0.00754928393876326
58:02.6;0.034410975336963925;-0.22325300444116952;-0.9693133961092484;1.006;0.007446608286944036
58:02.6;0.033641293524427476;-0.22255169684528384;-0.9691711354547977;1.002;0.0072561135008856964
58:02.6;0.032554854767302625;-0.22165601207039434;-0.9690692633358117;0.995;0.006992783726328547
58:02.6;0.031239797912313367;-0.22061511831813266;-0.9690797294889237;0.9890000000000001;0.006678870082949448
58:02.7;0.02980982369663065;-0.2194854060483811;-0.969267842816049;0.985;0.006341746246949502
58:02.7;0.02839365878955218;-0.21832830334129755;-0.9696736117518607;0.9840000000000001;0.006011141842467259
58:02.7;0.027121836332442657;-0.21720697302850256;-0.970297588891893;0.9840000000000001;0.005716073525190656
58:02.7;0.026112095381395604;-0.21618215376265257;-0.9710946895615896;0.988;0.005481799436902121
58:02.7;0.025455269238732092;-0.21530750696452092;-0.9719775301510662;0.993;0.0053271275125145
58:02.7;0.02520382675404622;-0.21462478686621642;-0.9728286833429908;0.997;0.005262386350286819
58:02.7;0.02536498620127463;-0.21415951134870803;-0.9735192923241286;1.001;0.005288305793257919
58:02.7;0.025899623580067803;-0.2139181908627289;-0.9739303987314727;1.005;0.00539596458523534
58:02.7;0.026727373805831584;-0.21388789681860523;-0.9739732042045419;1.0090000000000001;0.0055678753822733205
58:02.7;0.027737569555400132;-0.2140383356704508;-0.9736046778116507;1.01;0.005780196749804293
58:02.8;0.028804731030751995;-0.21432627019662584;-0.9728353715870249;0.996;0.006005906728850677
58:02.8;0.029806062667003128;-0.21470187216610664;-0.9717279881690771;0.996;0.00621849305046452
58:02.8;0.03063744967887678;-0.21511608492420023;-0.9703881829359845;0.996;0.006395448341824177
58:02.8;0.031224775011717366;-0.21552776652560726;-0.968950973611037;0.995;0.006520852093877785
58:02.8;0.031529028948884805;-0.21590945737234207;-0.9675654415842779;0.992;0.0065866200151033305
58:02.8;0.03154544363177249;-0.21625061370122692;-0.9663789176055316;0.988;0.006592367882716798
58:02.8;0.03129787918668012;-0.21655725031420128;-0.9655215514302847;0.9840000000000001;0.006544095226565936
58:02.8;0.0308302165231016;-0.21684767552706796;-0.9650927684795706;0.981;0.006452089861447335
58:02.8;0.030196936781661975;-0.21714501406569378;-0.9651516996357871;0.9790000000000001;0.006328609974863425
58:02.8;0.029454942012160177;-0.21746807150539443;-0.9657138224612235;0.983;0.006185889001949399
58:02.9;0.028657620881468712;-0.21782290169646265;-0.9667551612975698;1.0;0.006034762340388973
58:02.9;0.027851019389192523;-0.21819764768652616;-0.9682228711875756;1.0;0.005883916449274828
58:02.9;0.027071753963283422;-0.21856218590650683;-0.9700479741177991;1.0;0.005739639727083491
58:02.9;0.026346606262524084;-0.21887263890827555;-0.9721551685106701;1.001;0.00560598259143263
58:02.9;0.025693722809960524;-0.21907988196293596;-0.9744669294656373;1.0;0.005485252674202034
58:02.9;0.025125189401553828;-0.21914026481409624;-0.9769022824314655;1.0;0.0053787659966710415
58:02.9;0.02465076705539959;-0.2190257013533684;-0.9793725255110812;1.001;0.005287780682488087
58:02.9;0.024282218673268307;-0.2187302270971384;-0.9817767106009792;1.0;0.005214466664156745
58:02.9;0.02403671304439513;-0.2182716288725778;-0.9839994968073368;1.001;0.0051625853487831126
58:02.9;0.02393730515127993;-0.2176886108507526;-0.9859135108378478;1.004;0.005137475719476845
58:03.0;0.02400942313760763;-0.21703491626890728;-0.9873875145306648;1.0170000000000001;0.005145160952445552
58:03.0;0.024274219960341827;-0.21637192723050813;-0.9882998466110463;1.0170000000000001;0.005190807510066215
58:03.0;0.024741233117384256;-0.21576108722900314;-0.988554144931362;1.0170000000000001;0.005277095146411116
58:03.0;0.025402997341540487;-0.21525712544875866;-0.9880932713439957;1.018;0.005403068095438223
58:03.0;0.026233146907209362;-0.2149025791138654;-0.9869085334275639;1.015;0.005563766857270286
58:03.0;0.027188094496901523;-0.21472388963315817;-0.9850431397466688;1.011;0.0057506162480252645
58:03.0;0.02821145164768796;-0.214729321040611;-0.9825900327480748;1.0070000000000001;0.005952359308074539
58:03.0;0.02924008716003559;-0.2149086778920905;-0.9796850184505039;1.005;0.006156290175725502
58:03.0;0.030210662898635054;-0.215234458855977;-0.9764965504537565;1.0;0.006349547421926755
58:03.0;0.031065408434784888;-0.2156641756100514;-0.9732133900878224;0.9990000000000001;0.0065202335648291525
58:03.1;0.031756122020780125;-0.21614391892219195;-0.9700309638574791;0.9890000000000001;0.006658188416036631
58:03.1;0.03224610414183982;-0.21661323274500902;-0.9671372680390738;0.9890000000000001;0.0067553888852004505
58:03.1;0.032510519546109645;-0.21701090123479427;-0.9646996794622538;0.9890000000000001;0.006806088543610051
58:03.1;0.03253601572253394;-0.21728098363330384;-0.9628540173207591;0.986;0.006806855553865297
58:03.1;0.032320216054867665;-0.21737861032121944;-0.9616962460347256;0.983;0.006756612061121727
58:03.1;0.031871297224934425;-0.21727515856878568;-0.9612765573333334;0.982;0.006656687468769754
58:03.1;0.03120759581188967;-0.21696211644076382;-0.9615960590850025;0.982;0.006510838097171173
58:03.1;0.03035703218059707;-0.2164526706341855;-0.9626070539248874;0.982;0.0063251568486440085
58:03.1;0.02935595924874017;-0.21578040241628485;-0.9642179684667892;0.985;0.006107781543136229
58:03.1;0.02824713381558697;-0.2149953060826532;-0.9663034417010246;0.988;0.005868361942306609
58:03.2;0.02707716224387001;-0.21415795018830622;-0.9687191057631536;1.003;0.005617398240039484
58:03.2;0.025894477438904027;-0.21333278089907076;-0.9713189793562378;1.003;0.005365702883294822
58:03.2;0.024748814007805802;-0.2125816974628669;-0.973971617998487;1.003;0.005124205802958575
58:03.2;0.023692220122277365;-0.21195897999101063;-0.9765710238200194;1.005;0.004904123674700096
58:03.2;0.02278049642359703;-0.21150806049678342;-0.9790404397024278;1.005;0.004717270033723671
58:03.2;0.022073107510106164;-0.21125989246101334;-0.9813295917525415;1.004;0.004576099174648031
58:03.2;0.02162965673183126;-0.21123230659163345;-0.9834072057164771;1.001;0.004493071758434963
58:03.2;0.021502442203419868;-0.211429699524922;-0.9852512843115216;1.002;0.0044792034732403195
58:03.2;0.021726822621716803;-0.2118426129670934;-0.9868401431140988;1.003;0.004542096438279917
58:03.2;0.022312645096318452;-0.21244727337544453;-0.9881469803063688;1.005;0.004684074210113851
58:03.3;0.023239820478120503;-0.21320571058792948;-0.9891394944302039;1.016;0.004901050127857551
58:03.3;0.02445928983373608;-0.21406720188677678;-0.9897841459528814;1.016;0.005182442220441709
58:03.3;0.025898222399260915;-0.214971481825455;-0.9900528389504997;1.016;0.005511999627832549
58:03.3;0.027467156729851123;-0.21585389373914393;-0.9899291496528646;1.0170000000000001;0.005869183738672824
58:03.3;0.029067532233540937;-0.21665259825047495;-0.9894120651545159;1.0170000000000001;0.006230878266455774
58:03.3;0.03059921466091414;-0.21731761550247494;-0.9885164185505431;1.015;0.006573385439374764
58:03.3;0.031968043511341145;-0.2178206215619941;-0.9872700053499756;1.011;0.00687465634737288
58:03.3;0.033093380962288095;-0.21816360203560076;-0.9857081323444431;1.006;0.0071165871798572495
58:03.3;0.03391545076174722;-0.21838422077441816;-0.9838673661736316;1.004;0.007287111332624449
58:03.3;0.0344018644000769;-0.2185558096410314;-0.9817810050252059;1.006;0.00738174367173014
58:03.4;0.034552091080122506;-0.21877995487214108;-0.9794785741885607;1.001;0.007404177211996757
58:03.4;0.03439791573677357;-0.21917086783777567;-0.9769903050081339;1.001;0.00736555046908334
58:03.4;0.03399770833283002;-0.2198339345183051;-0.9743558543910276;1.001;0.007282189490074986
58:03.4;0.03342319529087872;-0.22084363062337417;-0.9716353263068056;1.001;0.007171931634952867
58:03.4;0.032739976644040346;-0.2222255826503577;-0.9689199871610253;1.005;0.007049532767481985
58:03.4;0.03198729196361306;-0.2239454869128435;-0.966339382146168;1.003;0.006922284878253895
58:03.4;0.03116573551198051;-0.22590682380388852;-0.9640609115434198;1.002;0.006787521288375125
58:03.4;0.03023961419573737;-0.22795932118613738;-0.9622783060683513;0.996;0.0066333711274286266
58:03.4;0.029153646562810866;-0.2299185069862947;-0.9611876710735252;0.9840000000000001;0.00644280529042296
58:03.4;0.027856755445218883;-0.23159312342778843;-0.960953581057497;0.977;0.006199527646341936
58:03.5;0.026323061887973273;-0.23281400680845218;-0.9616717587605977;0.973;0.0058934875780116145
58:03.5;0.02456261812587906;-0.23345774815435555;-0.9633370947679804;0.973;0.005524096190160936
58:03.5;0.02261977821627936;-0.23346113037472502;-0.965824920202873;0.973;0.005100365897278184
58:03.5;0.02056140547105834;-0.23282560605506536;-0.9688906550788505;0.981;0.004638294359370424
58:03.5;0.018458694664574664;-0.23161287702786565;-0.9721898939017639;0.995;0.004156375626835664
58:03.5;0.01636767090606641;-0.22993336325976846;-0.9753175507198413;1.01;0.0036705818734140746
58:03.5;0.014315113015381896;-0.22793018395473041;-0.9778604143997726;1.022;0.003190608277019091
58:03.5;0.012295631009987096;-0.22576198958166618;-0.9794536792198018;1.028;0.002718851873306377
58:03.5;0.010280788445214602;-0.22358764699440536;-0.9798306847090716;1.0290000000000001;0.0022522949539294413
58:03.5;0.008235415098204649;-0.22155434409217406;-0.9788567533128704;1.026;0.0017860141918529288
58:03.6;0.006133273394231948;-0.21978910957555872;-0.9765419096812108;0.997;0.0013164045660654957
58:03.6;0.003966135799485929;-0.2183929869796574;-0.9730327470513975;0.997;0.0008428178501462152
58:03.6;0.0017456882267763826;-0.2174372298895938;-0.9685891719928831;0.997;0.00036765476518641887
58:03.6;-0.0004983924037905757;-0.2169612314911671;-0.9635536303414591;0.986;0.00010419081705542834
58:03.6;-0.0027210316868739913;-0.2169720944248911;-0.9583177794451637;0.977;0.0005657792635987541
58:03.6;-0.004863691787868095;-0.21744605748895499;-0.9532887323338808;0.97;0.001008189206323414
58:03.6;-0.0068554010410987335;-0.2183323142562806;-0.9488568489988294;0.968;0.0014202067781016524
58:03.6;-0.00861367553493794;-0.21955943830824717;-0.9453675068355396;0.9670000000000001;0.0017878920392834217
58:03.6;-0.01004734914896883;-0.22104373583016076;-0.9430983742575582;0.965;0.0020945305661284877
58:03.6;-0.01106340443217922;-0.2226982688511951;-0.942242308481182;0.9620000000000001;0.002321497555679222
58:03.7;-0.011578328990694378;-0.22444145398046295;-0.942895432384213;0.966;0.002450261809349422
58:03.7;-0.011532109755789851;-0.2262044303542102;-0.9450502624048002;0.966;0.00246527164582451
58:03.7;-0.010900953065519442;-0.2279362663860794;-0.9485942780857428;0.966;0.0023569935857863057
58:03.7;-0.009704503402501227;-0.22960609477923496;-0.9533147924139426;0.972;0.002124188535592508
58:03.7;-0.008005224193762178;-0.23120197707207943;-0.9589113474488408;0.981;0.001774775810183184
58:03.7;-0.005900580674896083;-0.23272713457475824;-0.9650164996498755;0.99;0.0013251850073834484
58:03.7;-0.0035108873850048464;-0.23419452840894314;-0.9712244414389334;1.001;0.0007985704702031639
58:03.7;-0.0009661003602471112;-0.23562077097358472;-0.9771251208123236;1.013;0.00022242622721461302
58:03.7;0.0016061108651336522;-0.2370203185305252;-0.9823400491291919;1.023;0.0003739581027015822
58:03.7;0.004089840822676846;-0.2384008548500252;-0.9865549988993096;1.031;0.0009619123825362413
58:03.8;0.006387641387984984;-0.23976041714469512;-0.9895446957218125;1.0270000000000001;0.0015154912279918224
58:03.8;0.008424448744215912;-0.24108605757540794;-0.9911860782426521;1.0270000000000001;0.0020131159088734836
58:03.8;0.010148543991284389;-0.2423533811548077;-0.9914594962982382;1.0270000000000001;0.00243852829128076
58:03.8;0.01152925484325901;-0.24352668197085903;-0.9904396539628091;1.021;0.0027808387739555952
58:03.8;0.012551916926094746;-0.24455998827434597;-0.9882789811265285;1.015;0.003033716683822366
58:03.8;0.01321173344742608;-0.24539937016102265;-0.9851863049061487;1.0090000000000001;0.003194122829382879
58:03.8;0.013508421096122778;-0.24598655582303258;-0.9814041485069498;1.0070000000000001;0.003261098011445823
58:03.8;0.013442812822831522;-0.24626362883076647;-0.9771879958490356;1.005;0.003234957278213467
58:03.8;0.01301570440106177;-0.2461782851758569;-0.9727896446076214;1.002;0.0031169968101460326
58:03.8;0.012228660837750692;-0.24568885859434644;-0.9684449319078694;1.001;0.002909640233984479
58:03.9;0.011086243512527226;-0.24476831352359607;-0.9643648240085168;0.99;0.002616862899517788
58:03.9;0.009599133416178865;-0.24340680449750432;-0.960728728917079;0.99;0.0022447372861733694
58:03.9;0.0077876593058550155;-0.2416131083885772;-0.9576795107424312;0.99;0.0018019703151662394
58:03.9;0.005685011555544083;-0.23941558667850343;-0.9553199441235364;0.9840000000000001;0.0013002672295548807
58:03.9;0.00333927091528423;-0.23686284029767093;-0.9537100262941949;0.981;0.0007543361761470673
58:03.9;0.0008138367317399992;-0.23402352933764706;-0.9528647955525782;0.976;0.00018147971725998203
58:03.9;-0.0018134336909746726;-0.23098473706371725;-0.9527534587364745;0.9740000000000001;0.0003990850854944462
58:03.9;-0.004451965637682622;-0.22784867143068202;-0.9533016064577945;0.9740000000000001;0.0009670047982648773
58:03.9;-0.007001322834387221;-0.22472790023972622;-0.9543982439722938;0.9790000000000001;0.0015016431149273899
58:03.9;-0.009355996844727809;-0.22173926779293845;-0.9559082910370854;0.985;0.0019831195880000885
58:04.0;-0.011412810443336266;-0.2189963450018664;-0.9576893652589549;0.992;0.0023936141055931085
58:04.0;-0.013080527414370375;-0.21660074112593652;-0.9596095954022288;0.992;0.0027188157403989204
58:04.0;-0.014289661728437462;-0.2146339516734003;-0.9615620448298953;0.992;0.00294915556648633
58:04.0;-0.014999792541802922;-0.21315192465031005;-0.9634721747092045;0.99;0.0030804466209449076
58:04.0;-0.015202529905150086;-0.21218331645946192;-0.9652973027351586;0.9890000000000001;0.0031137819176985247
58:04.0;-0.014919491518422888;-0.2117309447578709;-0.9670195155957135;0.987;0.003054735387531384
58:04.0;-0.014195732887211468;-0.2117755312393672;-0.9686348469580931;0.986;0.0029120155356121245
58:04.0;-0.013090508415401061;-0.2122809795844987;-0.9701418911687595;0.988;0.0026958942677274733
58:04.0;-0.011668346066543064;-0.21320026012185708;-0.9715327872657592;0.988;0.0024168766904042963
58:04.0;-0.009993094277941933;-0.21448053081122;-0.9727888339974023;0.991;0.002085001815523471
58:04.1;-0.008126082347558084;-0.21606624983716377;-0.973881904367423;1.003;0.0017099147140771436
58:04.1;-0.006127700076950147;-0.21790001673171816;-0.97478109355518;1.003;0.0013015530109964364
58:04.1;-0.00406027729880036;-0.2199219042136836;-0.9754619815172993;1.003;0.0008710328408928742
58:04.1;-0.001989697129759454;-0.2220684603451084;-0.9759150622811645;1.005;0.00043120707303867837
58:04.1;1.6149603223003e-05;-0.22427247772420786;-0.9761509952945742;1.006;3.535532543985934e-06
58:04.1;0.0018924503385323334;-0.22646416673114161;-0.9762018924114089;1.004;0.00041837298193259185
58:04.1;0.003584807718355241;-0.22857365654248624;-0.9761186803622734;1.003;0.0007998244314012999
58:04.1;0.005056575585476858;-0.2305341725254368;-0.9759651797851338;1.001;0.0011376957547749452
58:04.1;0.006293866501065487;-0.2322850999428225;-0.97581026840149;1.002;0.001426606713232888
58:04.1;0.007306282935493104;-0.2337744262627787;-0.9757198118549167;1.001;0.0016665510033814879
58:04.2;0.008122322896984184;-0.23496046092708994;-0.9757496943479365;1.003;0.001862144848617007
58:04.2;0.008780163949748454;-0.23581292071960366;-0.9759405989003831;1.003;0.002020661690300472
58:04.2;0.009316478550034953;-0.23631344907010082;-0.9763145503411838;1.003;0.0021494630759605754
58:04.2;0.009756657794560792;-0.23645565546907488;-0.976872918310893;1.003;0.0022536623453720934
58:04.2;0.010108918010655178;-0.23624485932731373;-0.9775956948029452;1.004;0.002334674401733771
58:04.2;0.01036321325096985;-0.2356977707185585;-0.9784421250170047;1.006;0.00238992929149052
58:04.2;0.010494520401520083;-0.23484228722318354;-0.9793527512400353;1.008;0.0024136708493402775
58:04.2;0.010469172457152738;-0.23371736438695606;-0.9802525907468708;1.008;0.0023985088920771996
58:04.2;0.010252679479583275;-0.232372522889402;-0.9810549323856622;1.0070000000000001;0.002337305491270938
58:04.2;0.009817614595004945;-0.2308663311787437;-0.9816655580938067;1.003;0.0022250006110204235
58:04.3;0.009150157154100187;-0.22926352201539457;-0.9819879809894463;1.008;0.0020600116920854263
58:04.3;0.00825415496031236;-0.22763113295484128;-0.9819306770602415;1.008;0.001844952146532227
58:04.3;0.007152556246423509;-0.2260345652973859;-0.9814165872703962;1.008;0.0015866806750593947
58:04.3;0.005886882076566872;-0.22453421807079155;-0.9803939958824972;1.011;0.0012958911209624115
58:04.3;0.004515082543430641;-0.22318273850033907;-0.9788471552777629;1.012;0.0009863730085125345
58:04.3;0.0031073894418555815;-0.22202271035674115;-0.9768045694246246;1.01;0.0006739082427075874
58:04.3;0.0017400506313199257;-0.2210847719272982;-0.9743425506401513;1.005;0.00037482830963107833
58:04.3;0.00048812218309675977;-0.22038632978924597;-0.9715821933750187;0.9990000000000001;0.0001045183979032315
58:04.3;-0.0005806218674626029;-0.219931313772151;-0.9686793530167385;0.995;0.00012369737964688398
58:04.3;-0.0014092252904239978;-0.2197117277685437;-0.9658087209127799;0.9890000000000001;0.00029903690591278503
58:04.4;-0.0019526558651981982;-0.21971146219997578;-0.9631441524577672;0.977;0.00041320894734297114
58:04.4;-0.0021776767145877127;-0.21991172943685225;-0.9608384271016127;0.977;0.000460142306293266
58:04.4;-0.0020626962272596956;-0.22029631050532394;-0.9590065349712903;0.977;0.0004357767589671638
58:04.4;-0.0015983256203099699;-0.22085461048952928;-0.957716114661446;0.9790000000000001;0.0003380714730138534
58:04.4;-0.0007889499493650623;-0.22158154506303948;-0.956986365696146;0.981;0.00016729724505646412
58:04.4;0.0003447788456399302;-0.22247470179779574;-0.9567941884211862;0.983;7.339048763369169e-05
58:04.4;0.0017632448118192468;-0.22353012524354385;-0.9570849372380258;0.983;0.0003772238622967406
58:04.4;0.0034063840139533976;-0.22473823112438654;-0.9577851084920885;0.985;0.0007332273306187834
58:04.4;0.0051950498109546;-0.22608106398866062;-0.9588149617775956;0.988;0.001126130462962362
58:04.4;0.007036252151747674;-0.22753175163024397;-0.9600997048956803;0.992;0.0015370915705435605
58:04.5;0.008831993441250893;-0.2290566369816932;-0.9615779340551986;0.995;0.001945297849626369
58:04.5;0.010489934753266008;-0.2306197350806645;-0.9632059152037821;0.995;0.0023301742399534147
58:04.5;0.011933244403352332;-0.23218778306127863;-0.9649567960512566;0.995;0.0026736574805518855
58:04.5;0.013107365328835434;-0.23373346668924855;-0.9668150408010958;0.99;0.002961963502995646
58:04.5;0.013982714652768225;-0.23523533132021707;-0.9687678688451742;0.9890000000000001;0.003186498897749424
58:04.5;0.01455340676339692;-0.23667437795883997;-0.9707968264029678;0.993;0.0033438305417196924
58:04.5;0.014832674119816225;-0.23802838399892778;-0.9728729043218359;0.9990000000000001;0.0034348225962648905
58:04.5;0.014846148999961988;-0.23926587677828617;-0.974956939115951;1.006;0.0034632194759497852
58:04.5;0.014624554498507828;-0.2403423482792007;-0.9770041837634973;1.01;0.003434071781491581
58:04.5;0.014197446804544522;-0.2412008595022053;-0.978969954830438;1.012;0.0033524203204096737
58:04.6;0.01358938630832509;-0.24177752500167252;-0.9808133296466263;1.011;0.0032225683067065186
58:04.6;0.012819124642807933;-0.24201044460688348;-0.9824975346953921;1.011;0.0030480630700596887
58:04.6;0.011901284093615084;-0.24184946156266499;-0.9839876542985584;1.011;0.0028322305086771167
58:04.6;0.010849282323961538;-0.2412641273826916;-0.9852474779226722;1.012;0.0025789272771429817
58:04.6;0.009678183309968922;-0.24024822523932732;-0.9862373816587051;1.012;0.002293165986516454
58:04.6;0.008406305292883637;-0.23882047759291372;-0.9869145163208065;1.015;0.0019813274560052927
58:04.6;0.007054645106278555;-0.23702213658625632;-0.987235676758932;1.018;0.0016507637409921305
58:04.6;0.005643991356523316;-0.23491273356331438;-0.98716216301894;1.018;0.0013088244501764557
58:04.6;0.004191093129082598;-0.2325651804226941;-0.9866650124243831;1.015;0.0009617046862764881
58:04.6;0.002706432859052206;-0.23006096010614957;-0.985728862283311;1.014;0.0006137586960087214
58:04.7;0.0011959002082250784;-0.22748577625847818;-0.9843536057737724;1.006;0.0002677936811529344
58:04.7;-0.0003331825440726073;-0.2249259559309553;-0.982554274577538;1.006;7.363399509904653e-05
58:04.7;-0.0018637147204554974;-0.2224659810516294;-0.9803604124312936;1.006;0.0004064702929367196
58:04.7;-0.0033616591586973633;-0.22018724815299617;-0.977816103011775;1.002;0.0007237740813000281
58:04.7;-0.004773117868518885;-0.2181673651000435;-0.9749809720059863;1.0;0.0010152852703858629
58:04.7;-0.006026940415290542;-0.2164786976022421;-0.9719317643010166;1.0;0.00126808346629897
58:04.7;-0.007042175366372456;-0.21518510575281605;-0.9687637708338529;0.996;0.001468036767276495
58:04.7;-0.007738091683818468;-0.2143368415780281;-0.9655909724693617;0.992;0.00160148875894804
58:04.7;-0.008044078161573591;-0.2139649641077095;-0.9625434552928022;0.99;0.001656682529669781
58:04.7;-0.007907608929131648;-0.2140774592489911;-0.9597608926359614;0.988;0.0016247224244436253
58:04.8;-0.0072995053560815665;-0.2146587086970898;-0.9573815745734203;0.9740000000000001;0.0015001234810403394
58:04.8;-0.006216354254179695;-0.21567233277495793;-0.9555277510257507;0.9740000000000001;0.0012810718737939623
58:04.8;-0.004680775309861241;-0.21706607300394617;-0.9542898834000498;0.9740000000000001;0.0009695943218391027
58:04.8;-0.0027408625501364873;-0.21877728593476226;-0.953713252550344;0.971;0.0005718831554245517
58:04.8;-0.0004693485341822567;-0.22073828148680252;-0.9537894889209301;0.9690000000000001;9.881563254738836e-05
58:04.8;0.0020385976497388795;-0.22288097310966887;-0.9544546169002297;0.971;0.00043367041690578657
58:04.8;0.004670670182531449;-0.22514015028673204;-0.9555950447408388;0.976;0.0010048611169299554
58:04.8;0.0073064535473227445;-0.22745504620580903;-0.9570622558993813;0.986;0.00159053193329076
58:04.8;0.009828949032301318;-0.2297696429460287;-0.9586949119257532;0.996;0.002165110942079623
58:04.8;0.01213615083450127;-0.2320324194237067;-0.9603444222670148;1.004;0.0027043111093627797
58:04.9;0.014150054593376782;-0.23419591246813518;-0.9618980842146648;1.002;0.00318761958179807
58:04.9;0.015821151131164037;-0.23621618031354266;-0.9632939304995628;1.002;0.0036000335290545995
58:04.9;0.017127820841161552;-0.2380523189989558;-0.9645237537119837;1.002;0.003932669551854398
58:04.9;0.01807155232267247;-0.23966646340990957;-0.96562396808058;0.992;0.004182257453582744
58:04.9;0.018669798405694316;-0.24102490968524268;-0.9666566581025278;0.986;0.0043498452213526235
58:04.9;0.018948531462378557;-0.24210060697401914;-0.9676855693360302;0.983;0.004439210102068392
58:04.9;0.01893636311945809;-0.24287631948094662;-0.9687537048662314;0.986;0.00445548640012015
58:04.9;0.01866116708940787;-0.24334715926834968;-0.9698690137922562;0.991;0.004404312912874855
58:04.9;0.01814867109544422;-0.2435213539499768;-0.9710018932544421;0.9990000000000001;0.004291429245192705
58:04.9;0.017421589892230502;-0.24341852973747985;-0.97209432580938;1.008;0.004122397149958013
58:05.0;0.016498361861773395;-0.24306534421018075;-0.9730770223715638;1.012;0.0039022140182798652
58:05.0;0.015391919763792417;-0.24248944816394186;-0.9738888075196598;1.012;0.0036349212859515356
58:05.0;0.014109905947897704;-0.24171409123526408;-0.9744923086937032;1.012;0.0033235675030386593
58:05.0;0.012657524477912432;-0.24075587594254208;-0.974881878682934;1.008;0.002970829098361609
58:05.0;0.011043071035494623;-0.23962672148789724;-0.9750825872462118;1.005;0.0025802780783107824
58:05.0;0.00928492927272356;-0.23833909325818448;-0.9751417711643396;1.002;0.002157951317377674
58:05.0;0.007418021322437994;-0.2369123243873142;-0.9751163163257153;0.9990000000000001;0.001713689573722626
58:05.0;0.0054975755428642815;-0.23537782573556096;-0.9750593495125486;0.998;0.0012617339923511053
58:05.0;0.0035988096743166864;-0.2337816779879628;-0.9750095343928256;0.997;0.0008203103919362183
58:05.0;0.0018125162271544941;-0.2321838674746929;-0.9749851785328779;0.997;0.00041030986437216865
58:05.1;0.00023782325411748022;-0.23065405512663706;-0.974984195528648;1.003;5.3482658563805845e-05
58:05.1;-0.0010260422196122561;-0.22926452067810174;-0.9749895384915165;1.003;0.0002293517398192663
58:05.1;-0.0018874515193797543;-0.22808182916680833;-0.9749781537939999;1.003;0.00041972165548132185
58:05.1;-0.0022688553173457;-0.22715907401941188;-0.9749306960348751;1.0070000000000001;0.0005024705775030145
58:05.1;-0.002112167757240626;-0.22652991498472894;-0.9748395155352874;1.0090000000000001;0.0004664306660485425
58:05.1;-0.0013833768927992585;-0.22620503896991453;-0.9747127783458689;1.0070000000000001;0.0003050137739870965
58:05.1;-7.645527341597032e-05;-0.22617176232516023;-0.9745727872244153;1.0;1.6852335955815868e-05
58:05.1;0.0017837389510788884;-0.22639747299728227;-0.9744478332364833;0.995;0.0003935151575279915
58:05.1;0.004140500177526046;-0.22683674901225348;-0.9743594701565657;0.99;0.0009151355626638064
58:05.1;0.0069079645934436535;-0.2274406755310612;-0.9743094936535971;0.991;0.0015307884398160713
58:05.2;0.009979098026944189;-0.2281660458362734;-0.9742715171574908;0.9990000000000001;0.002218310378101043
58:05.2;0.013238505766792823;-0.22898231313610043;-0.9741903068856346;0.9990000000000001;0.0029531445906351957
58:05.2;0.016576277738955866;-0.22987511964068655;-0.973989010639127;0.9990000000000001;0.0037113596342282975
58:05.2;0.019897914960665924;-0.23084627661665028;-0.9735822597943347;1.004;0.004472013401019648
58:05.2;0.02312788163347277;-0.2319106777198454;-0.9728926387347898;1.0090000000000001;0.0052182095876669035
58:05.2;0.026207826733667835;-0.23309081162515335;-0.9718677309634146;1.01;0.005936949097794702
58:05.2;0.029092157797778663;-0.23440973909455026;-0.9704940866673222;1.008;0.006618269982177876
58:05.2;0.031743301135615624;-0.23588386238216624;-0.9688043153666934;1.004;0.007254147535669725
58:05.2;0.03412784620031785;-0.237517168992544;-0.9668749963992903;1.0;0.0078374398098093
58:05.2;0.03621401214552062;-0.23929830946464092;-0.964815464496903;0.991;0.008361044393576654
58:05.3;0.037970831845299764;-0.2412007854463732;-0.9627498920158456;0.983;0.008817435832328977
58:05.3;0.03936919664774733;-0.24318523756082366;-0.9607971283617174;0.983;0.009198678854651976
58:05.3;0.04038383111013405;-0.24520221888572538;-0.9590536625225371;0.983;0.009496745967802223
58:05.3;0.04099450956900509;-0.2471943948209909;-0.9575838495300419;0.9840000000000001;0.009703784130764385
58:05.3;0.041185461543443366;-0.24909817972984005;-0.9564187511718109;0.9890000000000001;0.009812113729588899
58:05.3;0.040943138968490056;-0.2508452579659717;-0.9555623042605423;0.993;0.00981399969026884
58:05.3;0.0402532498114208;-0.25236413871099644;-0.9550018406839513;0.995;0.009701363965168857
58:05.3;0.0390982347074128;-0.2535818169511358;-0.9547191665456612;0.9940000000000001;0.009465659982078127
58:05.3;0.037456382826768185;-0.25442613102474676;-0.9546986912835778;0.991;0.009098166412697305
58:05.3;0.03530340776381617;-0.2548297123389152;-0.9549306390684467;0.988;0.008590897173290948
58:05.4;0.03261659483325895;-0.2547357879675138;-0.9554095350610832;0.988;0.007938129025048462
58:05.4;0.029380995753703305;-0.2541049658610152;-0.956129816723796;0.988;0.007138328411433353
58:05.4;0.025596789739011378;-0.25292149010649534;-0.9570808359893381;0.988;0.0061961204704488425
58:05.4;0.021286538850481842;-0.25119757977072216;-0.9582429465166797;0.99;0.0051238467711059955
58:05.4;0.016500632956725332;-0.24897498186374645;-0.9595855843800977;0.991;0.003942212478683554
58:05.4;0.011319550242973578;-0.24632354681927301;-0.9610675773953186;0.991;0.0026797175895858032
58:05.4;0.005852879434915544;-0.24333732623265988;-0.9626393659618977;0.992;0.001371014119589668
58:05.4;0.00023612279764122983;-0.2401290146900317;-0.9642465983574454;0.993;5.467271920345333e-05
58:05.4;-0.005373999717738428;-0.2368233475035751;-0.9658347296911353;0.995;0.0012292068525099407
58:05.4;-0.010806209601390074;-0.23354963134958662;-0.9673544041511446;0.998;0.0024413957621544375
58:05.5;-0.015884255623865005;-0.23043336938092035;-0.9687671202653833;1.0;0.0035459420036963183
58:05.5;-0.020439046590966663;-0.22758743141208382;-0.9700500321278552;1.0;0.004512352743679403
58:05.5;-0.02432068438360887;-0.22510430677390947;-0.971198346926805;1.0;0.005317010653379658
58:05.5;-0.027407240373634276;-0.22305130079710886;-0.9722242034052966;1.0;0.0059434210442129865
58:05.5;-0.029609034673542128;-0.22146931019641;-0.9731518712254822;0.9990000000000001;0.006381436082062971
58:05.5;-0.030869027946024127;-0.22037442428260728;-0.974009871389666;0.998;0.0066259400635022
58:05.5;-0.03116043460156181;-0.21976141413302452;-0.9748210710661014;0.995;0.006675439363213704
58:05.5;-0.030483027856561516;-0.2196086766494253;-0.9755923254704787;0.9940000000000001;0.006530944199205512
58:05.5;-0.028859988542110825;-0.21988431360296395;-0.9763057961512944;0.996;0.006195498699852211
58:05.5;-0.026336459560223104;-0.22055252167118872;-0.9769141580053183;0.996;0.0056744767793813445
58:05.6;-0.022979628253730424;-0.22157902693339715;-0.9773412017760779;1.001;0.00497642951584935
58:05.6;-0.018879646720719873;-0.22293450593977238;-0.9774881224688;1.001;0.004114173916301494
58:05.6;-0.014151022727830939;-0.2245954275905115;-0.9772446941434466;1.001;0.0031059328357760083
58:05.6;-0.008933873554797743;-0.22654211532105445;-0.9765040637927003;1.004;0.0019763452204109235
58:05.6;-0.0033933711938672994;-0.22875430740031424;-0.9751798901817417;1.004;0.0007569817097188224
58:05.6;0.0022845772302862426;-0.23120502520154557;-0.9732243989419536;1.004;0.0005140627100367367
58:05.6;0.007901950889825258;-0.233853799899634;-0.9706455333085271;1.005;0.0017936570867424654
58:05.6;0.013260240452608;-0.2366404132199627;-0.9675210719567505;1.008;0.003035992866626034
58:05.6;0.018173040976760722;-0.23948057030092915;-0.9640071154906504;1.012;0.0041954459366542575
58:05.6;0.022477799194360683;-0.24226536081708205;-0.9603373547311184;1.006;0.005229605543177416
58:05.7;0.026045296370519486;-0.2448665020319905;-0.9568092139723638;0.983;0.006102166169217055
58:05.7;0.02878597844694923;-0.2471480047902316;-0.9537556877188114;0.983;0.006785396736105264
58:05.7;0.030653155223429054;-0.24898205565797;-0.9515069133737769;0.983;0.007261982211795944
58:05.7;0.031644032486095354;-0.2502652023446146;-0.9503484846278623;0.9740000000000001;0.007526189972704797
58:05.7;0.03179976382056317;-0.2509319389053282;-0.9504821873836286;0.968;0.007584445223677184
58:05.7;0.03120481203917675;-0.25096431062681424;-0.951993236081721;0.966;0.007455339052618451
58:05.7;0.02998442651885467;-0.25039630871851926;-0.9548287329666211;0.968;0.0071688443108656845
58:05.7;0.02829805778610632;-0.2493117581501847;-0.958792518568456;0.9740000000000001;0.006764318169299566
58:05.7;0.02632678114082506;-0.24783533046666234;-0.9635597775720627;0.987;0.006286944747871278
58:05.7;0.02425454616609467;-0.24611763765912906;-0.9687113247947408;1.001;0.005782694746700975
58:05.8;0.022245944313831936;-0.2443162918910642;-0.9737833642489933;1.025;0.005292557986729663
58:05.8;0.020425599891513817;-0.24257567018130405;-0.9783243163302144;1.025;0.00484735591122228
58:05.8;0.01886436284961603;-0.24100914735748513;-0.9819477908442208;1.025;0.004464409925631563
58:05.8;0.017575196468647067;-0.23968754544685497;-0.9843723693550454;1.028;0.004146723437729153
58:05.8;0.016518773354817964;-0.238635629200069;-0.9854438958849467;1.026;0.003884588178360694
58:05.8;0.015616629172279151;-0.23783595472596528;-0.9851404916362593;1.02;0.0036590047836191305
58:05.8;0.014768428952160764;-0.23723783987304756;-0.9835626432773531;1.013;0.003446039763788155
58:05.8;0.013869570352513537;-0.23676886656934062;-0.9809119231731165;1.008;0.003221199451630916
58:05.8;0.01282619799296613;-0.23634671333602214;-0.9774628588283112;1.004;0.0029631099802269046
58:05.8;0.011566332400712167;-0.23588982437340666;-0.9735323141923641;1.0;0.002656166210904249
58:05.9;0.010047273034331412;-0.2353261284636229;-0.9694495268967481;0.987;0.0022921527580183096
58:05.9;0.00826006246152298;-0.23459963675753578;-0.9655290290347169;0.987;0.001871009541722643
58:05.9;0.006231633239852653;-0.23367517800847934;-0.9620486130083136;0.987;0.0014009140315486338
58:05.9;0.004024627649927549;-0.23254156002979925;-0.9592339926655217;0.9840000000000001;0.000897740563513534
58:05.9;0.001734194246637079;-0.2312131708616766;-0.9572501319136664;0.983;0.00038382719800776426
58:05.9;-0.0005191204567048205;-0.22972985099571736;-0.956197740845899;0.9840000000000001;0.0001140337187722936
58:05.9;-0.002600649853708864;-0.22815483360594396;-0.9561132145715092;0.983;0.000567310573876595
58:05.9;-0.004376059122136917;-0.2265704823772394;-0.9569707655165698;0.98;0.0009488229501107254
58:05.9;-0.005726475630294809;-0.22507171724091923;-0.9586862348678684;0.98;0.001235619726245532
58:05.9;-0.006560808319905554;-0.22375772905857869;-0.9611230314650997;0.981;0.0014109589532780439
58:06.0;-0.006822115655936709;-0.2227234207323963;-0.9641013018430068;0.985;0.0014648988404157735
58:06.0;-0.006486777084411239;-0.22205213344717503;-0.9674111261671859;0.9990000000000001;0.0013934615892311681
58:06.0;-0.005558088533436204;-0.22181037431554146;-0.9708291319788475;0.9990000000000001;0.0011968786356147262
58:06.0;-0.004058331363901463;-0.22204416247098127;-0.9741362009313579;1.003;0.0008778221748006058
58:06.0;-0.002023539220715579;-0.22277615986971988;-0.9771334478020411;1.006;0.0004404881398822307
58:06.0;0.0004972127759437948;-0.22400309271850044;-0.9796547893708842;1.0070000000000001;0.00010911120696642362
58:06.0;0.0034393267111292028;-0.22569360590972917;-0.9815757914921165;1.01;0.0007619325493973551
58:06.0;0.006720210552954204;-0.2277872555607855;-0.982819030490533;1.012;0.0015044780630296213
58:06.0;0.01023970885333072;-0.23019569744714788;-0.983356118179798;1.013;0.0023179050127985746
58:06.0;0.013884214308035343;-0.2328070233382557;-0.9832062524052452;1.015;0.0031780594586053204
58:06.1;0.017532900775104263;-0.2354933526637078;-0.9824310750584676;1.0090000000000001;0.004056341574782188
58:06.1;0.021063565661130244;-0.2381204459604157;-0.9811261411891076;1.0090000000000001;0.004921000683447779
58:06.1;0.02435632179339785;-0.240557289483635;-0.9794102347336214;1.0090000000000001;0.005738453449144424
58:06.1;0.027295102382596484;-0.24268419226870835;-0.9774141544418373;1.005;0.006474479203740746
58:06.1;0.02976864021183741;-0.24439934737635205;-0.9752700600697126;1.003;0.0070955151388713104
58:06.1;0.03167333915790499;-0.24562452495109122;-0.9731019839685543;1.002;0.0075704890740653525
58:06.1;0.03291977100147514;-0.24631012289083168;-0.9710182102584531;1.001;0.007873474785911041
58:06.1;0.03344255144490741;-0.24643899222422896;-0.9691061789308668;1.0;0.007986935745376776
58:06.1;0.033210923128578484;-0.2460279649291051;-0.9674300787366897;0.998;0.007904693002476865
58:06.1;0.032235890047898993;-0.24512598030639576;-0.9660309205859237;0.996;0.0076334354379332245
58:06.2;0.030570305142409104;-0.24380808425952147;-0.9649288974751705;0.9940000000000001;0.007191892520817964
58:06.2;0.028300880287204233;-0.24216537995839077;-0.9641278845470592;0.9940000000000001;0.006607644120405867
58:06.2;0.025534550400571655;-0.24029233099983507;-0.9636216290095799;0.9940000000000001;0.005912547805546197
58:06.2;0.022384060198029493;-0.23827424085306229;-0.9634005206207006;0.997;0.005138339982445887
58:06.2;0.018957347164668473;-0.23617816454111595;-0.9634571512437272;0.998;0.004313697742478626
58:06.2;0.015352713603436628;-0.23404951174989638;-0.963788551338751;0.995;0.0034631767010519887
