Time;AccX;AccY;AccZ;Acc-old;Acc-trns
58:45.2;0.09072476088775824;-0.2580829029335783;-1.001127969557375;1.0390000000000001;0.023440920511962345
58:45.2;0.09516732059020855;-0.25670262082277756;-0.9929482794327857;1.0390000000000001;0.024257429189930166
58:45.2;0.09934291956072878;-0.2553622448120912;-0.9846837729133218;1.047;0.024979882296025085
58:45.2;0.10306263646452189;-0.2540651355204293;-0.9763130417550892;1.042;0.025564388635887156
58:45.2;0.1061813808142235;-0.2527906254205395;-0.96791192627758;1.035;0.025980360574088226
58:45.2;0.1086152225619924;-0.25149684144151724;-0.9596671473817816;1.025;0.02621463766013325
58:45.3;0.11035360526952362;-0.2501321784790929;-0.9518626740569665;0.995;0.026274253673696683
58:45.3;0.11146167091714042;-0.24864886551545476;-0.9448412752763243;0.965;0.02618610400396144
58:45.3;0.11207118539325715;-0.24701289206278518;-0.9389504676730576;0.953;0.025992991731243663
58:45.3;0.11236235801809387;-0.24520897657512844;-0.9344865192163351;0.9570000000000001;0.025747214436749793
58:45.3;0.11253998110118595;-0.2432420685618562;-0.9316495269384647;0.945;0.0255034006586024
58:45.3;0.11280653173720259;-0.24113678279319473;-0.9305173461798918;0.945;0.025311750600744327
58:45.3;0.11333503227180793;-0.23893506206870238;-0.9310409855587797;0.958;0.025212322652631326
58:45.3;0.11424547017848541;-0.23669218333682;-0.9330607748696564;0.977;0.025230905531948147
58:45.3;0.11558825162928804;-0.23447218422193644;-0.9363385918341112;0.9840000000000001;0.02537686371450609
58:45.4;0.11733641554830058;-0.2323444257511312;-0.9405969321878265;0.9890000000000001;0.025642988205991122
58:45.4;0.11938683853535442;-0.23038221459813837;-0.9455545825802808;0.991;0.026007104595982523
58:45.4;0.12157033054828603;-0.22866292021154977;-0.950952232678519;0.988;0.02643516621539318
58:45.4;0.12367085898708294;-0.22726799782905688;-0.9565666426884445;0.988;0.026885671959489526
58:45.4;0.12545354340797807;-0.22628108825185544;-0.9622159712437759;1.012;0.02731516022373694
58:45.4;0.12669822744297482;-0.22578311857378572;-0.9677595756094485;1.012;0.027684040983459925
58:45.4;0.12723173816504102;-0.22584488820542067;-0.9730930512815904;1.012;0.02796147625951164
58:45.4;0.12695101725334723;-0.22651868146762194;-0.9781372125032893;1.01;0.028128073733703185
58:45.4;0.1258325084230076;-0.22783022377350742;-0.9828213396375379;1.003;0.02817596301120213
58:45.4;0.12392783759427059;-0.22977182385956824;-0.9870646295756279;1.003;0.028106788977747037
58:45.5;0.12134908280285331;-0.23229785881596507;-0.9907620091627314;1.013;0.02792872116029322
58:45.5;0.11824819163682937;-0.23532423604631245;-0.9937798484743658;1.018;0.027653579285797567
58:45.5;0.11479490692601571;-0.23873296981739084;-0.9959640283372557;1.025;0.02729472191890327
58:45.5;0.11115659456585997;-0.2423817884897356;-0.9971591199429365;1.0390000000000001;0.026865794253401073
58:45.5;0.10748211171518067;-0.24611779588681404;-0.9972346506248003;1.045;0.02638010792539129
58:45.5;0.10389084929804951;-0.24979334759516617;-0.9961126881283371;1.045;0.025850362455547192
58:45.5;0.10046769332069531;-0.25328084878073026;-0.9937906743753969;1.045;0.025288536770040004
58:45.5;0.09726413395925523;-0.2564828141665076;-0.9903548417576451;1.045;0.02470596509525155
58:45.5;0.09430442127323171;-0.25933574148082844;-0.9859813898732005;1.032;0.024113660778895922
58:45.5;0.09159437533389764;-0.2618091807443793;-0.9809242788963572;1.0190000000000001;0.023522807837116695
58:45.6;0.08913021826501788;-0.26390239681500877;-0.9754910669483474;1.01;0.02294518699181133
58:45.6;0.08690539118325613;-0.26564037882891084;-0.9700113537141732;1.003;0.02239327571219761
58:45.6;0.08491417928408757;-0.267069878776254;-0.9648038564162477;0.995;0.02187984073488341
58:45.6;0.08315198756676222;-0.268255354779551;-0.9601472913363762;0.988;0.021417012763863052
58:45.6;0.0816131566027405;-0.2692744153586205;-0.9562586640805351;0.9890000000000001;0.02101506077695842
58:45.6;0.08028780724847544;-0.2702125677839146;-0.9532811445470244;0.9890000000000001;0.02068121952167407
58:45.6;0.07915908629827641;-0.2711574210040886;-0.9512819094267027;0.9890000000000001;0.020418860644549633
58:45.6;0.07820153936917204;-0.27219274182693126;-0.9502584205500568;0.9890000000000001;0.02022709755695073
58:45.6;0.07738061652976964;-0.2733930143673394;-0.950150577564138;0.995;0.020100739522898217
58:45.6;0.07665309809585381;-0.2748193461662805;-0.9508559834783998;0.998;0.020030498522947297
58:45.7;0.07596858367568364;-0.2765173174942188;-0.9522454309410479;1.0;0.020003466457903855
58:45.7;0.0752723350012527;-0.27851672213546685;-0.9541758208830328;0.9990000000000001;0.020003918242668044
58:45.7;0.07450922081175786;-0.28083271769560303;-0.9564988575257484;0.9940000000000001;0.020014381794733475
58:45.7;0.07362796833016022;-0.28346796100105054;-0.9590661063769992;0.995;0.020016831800373305
58:45.7;0.0725850874285163;-0.28641534522049045;-0.9617331065912007;1.015;0.01999393394854612
58:45.7;0.07134836876506735;-0.2896604291627236;-0.964365057178167;1.015;0.019930338911721118
58:45.7;0.06990010672056975;-0.29318190660753;-0.9668437998211095;1.015;0.01981396174389423
58:45.7;0.0682400115869213;-0.2969487098161406;-0.9690734983121867;1.021;0.01963709546709726
58:45.7;0.06638752740746187;-0.30091399392919266;-0.9709828651570989;1.02;0.019397262573044128
58:45.7;0.06438330801995613;-0.30500816200142433;-0.9725233680834879;1.018;0.019097863884770624
58:45.8;0.062289546703507274;-0.3091341312490525;-0.9736638783206409;1.02;0.01874870115832289
58:45.8;0.060188234291254;-0.31316775120992574;-0.9743831467828239;1.02;0.018366161557815376
58:45.8;0.05817582543314961;-0.3169645952353848;-0.9746624604454361;1.014;0.01797246091653242
58:45.8;0.056353095420163514;-0.32037252834177915;-0.9744815080725511;1.01;0.01759327322336642
58:45.8;0.05481023530959885;-0.3232489680041041;-0.9738207717782629;1.034;0.017253525398399965
58:45.8;0.053609219647712876;-0.3254812577194597;-0.9726725428997607;1.034;0.01697196500569815
58:45.8;0.05276747961779073;-0.3270062937059386;-0.971059230040542;1.034;0.01675591632981133
58:45.8;0.05224720764099929;-0.3278237519602595;-0.9690542322571668;1.0490000000000002;0.016597840376887572
58:45.8;0.0519524221153841;-0.327998574367108;-0.9667993760389834;1.043;0.016474571119361594
58:45.8;0.05173291265586023;-0.3276510028808052;-0.9645132090026827;1.022;0.016348827515399525
58:45.9;0.05139252648619231;-0.32693448247835655;-0.9624866392158212;1.021;0.01617168997289335
58:45.9;0.05069964940241016;-0.3260043169738321;-0.961066348388357;1.038;0.01588479732222068
58:45.9;0.049399528669361724;-0.3249832619153403;-0.9606274699514035;1.033;0.015421932580614235
58:45.9;0.047229436269306424;-0.32393218744973745;-0.9615333789596371;1.012;0.01471062858972551
58:45.9;0.04393680841826426;-0.32283316774979814;-0.9640793043393249;0.983;0.013674750590246993
58:45.9;0.03929845749962328;-0.32158928096854295;-0.9684238154789759;0.983;0.012238904048592385
58:45.9;0.033138397240941544;-0.3200415596611603;-0.9745225065513354;0.983;0.010335458593980504
58:45.9;0.0253426831237896;-0.31800079024291883;-0.982081444911601;1.0070000000000001;0.007914587745550311
58:45.9;0.015870571473882378;-0.31529059601422;-0.9905418185561109;1.031;0.004956514694110229
58:45.9;0.004763187849902224;-0.311796805485354;-0.9990973300713023;1.033;0.0014838061582102488
58:46.0;-0.007846329378810166;-0.30751577350764137;-1.0067393352887064;1.03;0.002429131188382901
58:46.0;-0.02171743921101088;-0.30259266720381617;-1.0123253901856104;1.031;0.006652534623887492
58:46.0;-0.03648390302192301;-0.2973410765378297;-1.014672389382763;1.03;0.011007331472476378
58:46.0;-0.05164441222867872;-0.292236991170698;-1.0126791800438348;1.055;0.015283766994256971
58:46.0;-0.06657855735802214;-0.28788276922218087;-1.0054794434911236;1.1440000000000001;0.01927184296719754
58:46.0;-0.08059616086705175;-0.2849429183157162;-0.9926101503934787;1.1440000000000001;0.02279559513029512
58:46.0;-0.09301110312463447;-0.2840640098604845;-0.9741590420996353;1.1440000000000001;0.025738360203655785
58:46.0;-0.10322195361331875;-0.2857978164626482;-0.9508435700516101;1.111;0.028050464336228095
58:46.0;-0.1107864019259555;-0.290543331942575;-0.9239850718606547;1.015;0.02974146281224819
58:46.0;-0.1154813519653076;-0.2985148810489526;-0.8953704369988386;0.868;0.030866017368914856
58:46.1;-0.11733862319460715;-0.3097356831948809;-0.8670305864337698;0.81;0.03151132375590795
58:46.1;-0.11664673731044573;-0.32404864431340674;-0.8409981565534826;0.856;0.03178907189104083
58:46.1;-0.1139179540647997;-0.3411303020817753;-0.8191107412285648;0.9209999999999999;0.03183135282175402
58:46.1;-0.10983058560655114;-0.3604936498292602;-0.8028890933927657;0.937;0.03178897146989604
58:46.1;-0.10516244856291579;-0.38147348570692463;-0.7934700901401244;0.823;0.031831390312743
58:46.1;-0.10072926879106044;-0.4032031065464449;-0.7915560120404564;0.823;0.03214853616038871
58:46.1;-0.09733376931841209;-0.42460637395325396;-0.7973642520609743;0.823;0.03295389947168871
58:46.1;-0.09572354368506802;-0.4444350048345011;-0.810591019149736;0.8590000000000001;0.034484887481166564
58:46.1;-0.09655358342499452;-0.46137332126644875;-0.8304091561671989;0.909;0.03699244217695452
58:46.1;-0.10034921509517784;-0.47421120400477446;-0.8555102720348383;1.065;0.040710929578614684
58:46.2;-0.10746355760036473;-0.4820543708159481;-0.8841893302854739;1.117;0.045803905367248446
58:46.2;-0.11802793424407652;-0.4845148723204345;-0.9144570691081625;1.062;0.052294406680665775
58:46.2;-0.1319102408882908;-0.4818214696498468;-0.9441621613854719;1.084;0.060008290224927534
58:46.2;-0.1487110767889716;-0.4748094755637466;-0.9711216535549305;1.112;0.06857034484562571
58:46.2;-0.16781946642020804;-0.46478308667687546;-0.9932726981497335;1.16;0.07747492242012755
58:46.2;-0.18851887357051175;-0.4532848115228087;-1.008843593541192;1.16;0.08620845139279236
58:46.2;-0.21010459747830815;-0.4418401925766203;-1.0165148541872757;1.16;0.09436577358558598
58:46.2;-0.23197158464965292;-0.4317457239108027;-1.0155361900907969;1.1540000000000001;0.1017087317440354
58:46.2;-0.2536548018322224;-0.42393527527442604;-1.0057834923812088;1.141;0.10815513578783775
58:46.2;-0.2748271101427063;-0.41892665132445905;-0.987757587260429;1.148;0.11372290257319254
58:46.3;-0.295268550340048;-0.41683414361851445;-0.9625312211421042;1.1320000000000001;0.11846643045517508
58:46.3;-0.31482222026901;-0.4174292547264631;-0.9316472168907654;1.078;0.1224333551065352
58:46.3;-0.33335098282504466;-0.4202313716800986;-0.8969698472587273;1.028;0.12565160913192538
58:46.3;-0.3507051424609866;-0.4246112637153701;-0.86049984111566;0.992;0.12813991722624704
58:46.3;-0.3667044600611586;-0.4298925850163251;-0.8241768076007981;0.925;0.129926139870726
58:46.3;-0.38113181365532484;-0.4354392640701732;-0.7897022029083924;0.925;0.13105878526413073
58:46.3;-0.39373364180608034;-0.4407204112404256;-0.7584156579095206;0.925;0.13160517866476998
58:46.3;-0.4042250470327309;-0.4453494491878346;-0.7312441234806764;0.9490000000000001;0.13163959234539302
58:46.3;-0.4123016784468911;-0.449098365556164;-0.7087201129681145;0.9520000000000001;0.13122945801860764
58:46.3;-0.41766109282251795;-0.4518903021631912;-0.691045841740916;0.9179999999999999;0.1304259172617648
58:46.4;-0.42003354827928757;-0.453776783004142;-0.6781751223153959;0.9309999999999999;0.12926117678511492
58:46.4;-0.4192191799708071;-0.45490979433889733;-0.6698921005327292;0.96;0.12775305315800983
58:46.4;-0.4151244618259073;-0.4555177122778201;-0.6658749705176251;0.9490000000000001;0.12591465643439761
58:46.4;-0.40778707250945223;-0.4558862103991672;-0.6657368806531382;0.9279999999999999;0.1237634840172018
58:46.4;-0.39738090443695895;-0.4563393048644833;-0.6690387094765544;0.882;0.12132383128824227
58:46.4;-0.3842028861458085;-0.45721697549738877;-0.6752757082829498;0.882;0.1186216871094527
58:46.4;-0.3686526305197532;-0.458849045016518;-0.6838502594523478;0.882;0.11567731120224098
58:46.4;-0.3512162594725364;-0.4615256006343248;-0.6940482853900918;0.873;0.11250196163784484
58:46.4;-0.33245776117784437;-0.46546463126997606;-0.705034387196528;0.882;0.10910218842656044
58:46.4;-0.3130142334144554;-0.470780274258275;-0.7158740709512929;0.898;0.10549186646266824
58:46.5;-0.2935902942727912;-0.4774583552141599;-0.725583374832931;0.915;0.10171020159753875
58:46.5;-0.2749475552920089;-0.48534620309095183;-0.7331989171410035;0.9329999999999999;0.09784154767196686
58:46.5;-0.257884662802632;-0.4941602039365407;-0.7378572255799819;0.945;0.09402982247205441
58:46.5;-0.2432046899899675;-0.5035101960448721;-0.7388708308820038;0.9620000000000001;0.09047919686058915
58:46.5;-0.2316709185537918;-0.5129367046852858;-0.73578882500401;0.935;0.08743563844890108
58:46.5;-0.22395745066841607;-0.5219544305797531;-0.7284332939091726;0.935;0.08515063503266411
58:46.5;-0.2206046996798624;-0.5300939705518746;-0.7169106408796858;0.935;0.08383640581832569
58:46.5;-0.2219886261282951;-0.5369360320513451;-0.7016023523197734;0.917;0.08362657474069632
58:46.5;-0.22830720643993008;-0.5421376523927345;-0.6831387933812214;0.9129999999999999;0.08455477518953583
58:46.5;-0.23958295516852873;-0.5454534555701743;-0.6623564840661882;0.904;0.0865576400438664
58:46.6;-0.25567903976319983;-0.546754183335034;-0.6402388876069002;0.889;0.08950128908711366
58:46.6;-0.27632631465144625;-0.5460412273356777;-0.6178426335004045;0.8859999999999999;0.09322353174598949
58:46.6;-0.3011573660041786;-0.5434520977619876;-0.5962140413923483;0.8690000000000001;0.09757913397697841
58:46.6;-0.3297427624304798;-0.5392498884802523;-0.5763037788478516;0.8370000000000001;0.10247473482731603
58:46.6;-0.3616252370469455;-0.5337924107477147;-0.5588896748046447;0.8370000000000001;0.10788404277026105
58:46.6;-0.39634635438765203;-0.5274842878119573;-0.5445193781261172;0.8370000000000001;0.11384074666598844
58:46.6;-0.4334566297780339;-0.520723071243763;-0.5334838547300067;0.8370000000000001;0.12041310365314904
58:46.6;-0.4725025276528655;-0.51385149498154;-0.5258269559407401;0.847;0.1276687500661869
58:46.6;-0.5129957443865362;-0.5071228255505319;-0.5213878752546479;0.861;0.13564002103911652
58:46.6;-0.554379629324527;-0.5006820760827213;-0.5198678637610817;0.894;0.14429865396491914
58:46.7;-0.5960056745576972;-0.4945645072851692;-0.5209115751781682;0.941;0.1535455903085995
58:46.7;-0.6371257654398489;-0.4887099047254568;-0.5241933087666001;0.972;0.16321789868142636
58:46.7;-0.6769013497347023;-0.4829864861085774;-0.5294961161423681;0.998;0.1731103914376941
58:46.7;-0.7144307925225161;-0.4772170011531285;-0.5367679558445828;1.042;0.18300487263106754
58:46.7;-0.7487972968739817;-0.47120303474501996;-0.5461372353223003;1.091;0.19269663654957137
58:46.7;-0.7791343740546274;-0.46474733158615217;-0.5578753175531802;1.091;0.20200699908776848
58:46.7;-0.8046946502292183;-0.4576742922600465;-0.5723080778514518;1.091;0.2107742285832017
58:46.7;-0.8249055553954519;-0.4498463024998654;-0.5896938221534314;1.091;0.21882400456976514
58:46.7;-0.8394087746458483;-0.4411714849848232;-0.610090416180556;1.084;0.22593064473880542
58:46.7;-0.8480931837504464;-0.4316001554597125;-0.6332343657424401;1.103;0.2317873024874015
58:46.8;-0.8511275156280307;-0.4211127072085757;-0.6584585589207687;1.145;0.2360051198532267
58:46.8;-0.8489835426415887;-0.4097048955688121;-0.6846799231317047;1.1909999999999998;0.2381540756634798
58:46.8;-0.8424275345743216;-0.397374332005415;-0.7104798248234764;1.215;0.23783957167415146
58:46.8;-0.8324574136871056;-0.3841109888371515;-0.734272828342916;1.252;0.2347881721173724
58:46.8;-0.8201787368324405;-0.36989799239866933;-0.7545250442233675;1.155;0.22890967020682645
58:46.8;-0.8066404977581936;-0.3547292302787339;-0.7699644263706177;1.155;0.22031682241727507
58:46.8;-0.7926764670293702;-0.3386432445396975;-0.7797362060565268;1.155;0.20930812251536207
58:46.8;-0.7787993435916494;-0.32176449922798356;-0.7834857654052025;1.155;0.19633368290201011
58:46.8;-0.7651718916816969;-0.30433861236640036;-0.7813732614056547;1.169;0.18195944759404328
58:46.8;-0.7516513779993915;-0.28674827442757167;-0.7740294335531938;1.1540000000000001;0.16683022931712807
58:46.9;-0.7378859535154734;-0.26950145085726385;-0.7624601114627237;1.1179999999999999;0.15162383567993137
58:46.9;-0.7234351351231336;-0.2531915998187852;-0.7479085616394844;1.065;0.13699269046763832
58:46.9;-0.7078891012426197;-0.23843708989812265;-0.7316923378496155;1.028;0.1235001672655993
58:46.9;-0.6909687781129715;-0.22581107284770796;-0.7150405291751145;1.002;0.11156663048171199
58:46.9;-0.6725955822931664;-0.21577391965834283;-0.6989604209267613;0.946;0.10143913695536098
58:46.9;-0.6529276225594651;-0.20861888225290834;-0.684154509932401;0.946;0.09319075934049928
58:46.9;-0.6323691929305816;-0.20443829589469725;-0.6709931884904425;0.946;0.0867463216049049
58:46.9;-0.6115636730124527;-0.20311305797120285;-0.659534781763412;0.946;0.08192514691536282
58:46.9;-0.5913710444476123;-0.20432404736613816;-0.6495791482962495;0.915;0.07848950937372222
58:46.9;-0.5728214336844348;-0.20758189874710845;-0.6407428794667516;0.872;0.07618904477906278
58:47.0;-0.5570392532169194;-0.21227003631547375;-0.6325493879963303;0.841;0.07479437440939181
58:47.0;-0.5451480636265977;-0.21769379259538163;-0.6245306416914551;0.851;0.07411639217425821
58:47.0;-0.5381812355036747;-0.22312763219931162;-0.6163331516126251;0.902;0.07401119841957741
58:47.0;-0.5370229874381712;-0.22785574882172188;-0.6078089777761252;0.938;0.074373800961409
58:47.0;-0.5423845179621322;-0.23120712127596435;-0.5990642355803695;0.85;0.07512454999553994
58:47.0;-0.5547946188652146;-0.23258895665763712;-0.5904497245436755;0.85;0.07619110197213359
58:47.0;-0.5745731166105019;-0.23151957503307238;-0.5825103092388425;0.85;0.077488389489362
58:47.0;-0.6017665122580197;-0.22765707998073137;-0.5759317221726908;0.8170000000000001;0.0789005766212296
58:47.0;-0.6360519422529042;-0.220818331765792;-0.5715111074120112;0.8809999999999999;0.08026983736931458
58:47.0;-0.6766433518640033;-0.2109849455247448;-0.5701429766908683;0.948;0.08139450119318002
58:47.1;-0.7222426742046757;-0.19829806803368294;-0.572783812595181;0.937;0.08203371212559904
58:47.1;-0.7710601356176032;-0.1830460434325957;-0.5803583881000879;0.937;0.08191149682236108
58:47.1;-0.8208992954484319;-0.16564410423899653;-0.5936042067482228;0.97;0.08071659547835495
58:47.1;-0.8692876313847402;-0.1465992937810857;-0.6128927958641925;1.002;0.07810519033087804
58:47.1;-0.9136343811608109;-0.12645623745214699;-0.6380828687123966;1.139;0.07372075508386983
58:47.1;-0.9514014474179403;-0.10572998203062728;-0.6684418979168321;1.139;0.06723967874762106
58:47.1;-0.9802753925220115;-0.0848426439966651;-0.7026410372761018;1.139;0.05843806214410999
58:47.1;-0.9983347049170305;-0.06408067626019302;-0.738813177290998;1.172;0.04726480688647359
58:47.1;-1.0042173737220168;-0.04357810911366948;-0.7746756639435702;1.122;0.03390127451135842
58:47.1;-0.9972929819637916;-0.023321830801790486;-0.8077394595282902;1.641;0.01878696830142297
58:47.2;-0.9778102791972385;-0.0031785719463333084;-0.8356224256166606;1.6269999999999998;0.0025971481930285984
58:47.2;-0.9469473163526203;0.01705320896043357;-0.8564285170352026;1.608;0.013830027737257309
58:47.2;-0.9067050131207647;0.037577955310689054;-0.8690711470530794;1.3;0.029611096813336034
58:47.2;-0.8596633284545052;0.058551610777984604;-0.8734043672202773;1.105;0.04396252287823348
58:47.2;-0.80867773288033;0.08006148868485509;-0.8701297525284554;1.073;0.05633563124013001
58:47.2;-0.756591499635143;0.10213051097953839;-0.8605697003918464;1.073;0.0664971471185786
58:47.2;-0.7060123725531994;0.12472768707166318;-0.8464199887740379;1.073;0.07453514348393131
58:47.2;-0.6591730077011784;0.1477717276112071;-0.8295353922697706;1.056;0.08080266523092111
58:47.2;-0.6178668374320252;0.17112409878062054;-0.8117498871248134;1.005;0.08582786253531477
58:47.2;-0.5834382873382388;0.19457043153595116;-0.7947186312509659;0.982;0.0902163313417017
58:47.3;-0.5568074907816171;0.21778756968910587;-0.7797756181316351;1.003;0.09456007532197472
58:47.3;-0.5385062513901107;0.24030048546951796;-0.7678118426172374;0.9440000000000001;0.09935739668471903
58:47.3;-0.528695025342066;0.2614489144908561;-0.7591863798884749;0.782;0.1049398587030242
58:47.3;-0.5271454426941974;0.2803960515570739;-0.7536916315165245;0.61;0.11140278375714739
58:47.3;-0.5332148448351345;0.2962112626573655;-0.7506064446556222;1.111;0.11855396628392373
58:47.3;-0.5458651037624753;0.3080332906928424;-0.748860430970563;1.111;0.12591685573356978
58:47.3;-0.563748474559994;0.3152709198208702;-0.7472811123613589;1.111;0.1328168876751518
58:47.3;-0.5853343805712616;0.31776475939754834;-0.7448471265606463;1.111;0.13854055151235894
58:47.3;-0.6090426609087327;0.31585169336397173;-0.7408763910795129;1.114;0.14252028413571852
58:47.3;-0.63337129319622;0.31032166023572155;-0.7351152872981267;1.139;0.14448605055267308
58:47.4;-0.6570153108702161;0.30229586201832437;-0.7277185807598237;1.081;0.14453437758207408
58:47.4;-0.6789642805844974;0.2930700989921837;-0.7191237946972839;0.98;0.14309422187568122
58:47.4;-0.6985610309838666;0.2839581658229352;-0.7098519443442847;0.948;0.14080772881009776
58:47.4;-0.7155118519524594;0.2761542631731355;-0.7003018696150333;0.963;0.13837380070210026
58:47.4;-0.7298491164470199;0.2706260745513932;-0.6906137271487525;1.04;0.1364074000203301
58:47.4;-0.741855238609484;0.2680474572878471;-0.6806398779798155;1.04;0.13534688034039863
58:47.4;-0.7519632571507435;0.2687718557014503;-0.6700041825821792;1.04;0.13541224055658352
58:47.4;-0.7606529394519298;0.27283859414441;-0.658199101440364;1.035;0.13659966555249764
58:47.4;-0.7683591704047562;0.2800027519064749;-0.6446788428233466;1.001;0.1386979353806285
58:47.4;-0.7754038476079106;0.2897840988856418;-0.6289336249935875;0.982;0.14132120015882782
58:47.5;-0.7819577900069932;0.30153477791298045;-0.6105516384137128;1.0270000000000001;0.14396042523884373
58:47.5;-0.7880346836749237;0.3145246013325581;-0.5892820786402595;1.091;0.14605727255613454
58:47.5;-0.7935121233818183;0.3280362728165608;-0.565100943711146;1.0959999999999999;0.14709620477941038
58:47.5;-0.7981678527511792;0.34145645514896145;-0.5382599468075437;1.052;0.1466971320904912
58:47.5;-0.8017190077351561;0.35435052866044375;-0.5092910946033653;0.997;0.14468428003820044
58:47.5;-0.8038595700195749;0.36651577088975656;-0.4789591730106005;0.997;0.14111440484458768
58:47.5;-0.8042990272195235;0.378008547837886;-0.4481855537362494;0.997;0.13626270872973084
58:47.5;-0.8028074027774303;0.38913782595918905;-0.4179769274734758;0.997;0.13057713212494074
58:47.5;-0.7992693959451143;0.4004201301129501;-0.3893720999919207;1.034;0.12461603130156373
58:47.5;-0.7937460806201858;0.41249760232151783;-0.36339264610578215;1.0;0.1189814224462729
58:47.6;-0.7865367078028203;0.42602441951345366;-0.3409724935732364;1.031;0.11425437397016756
58:47.6;-0.7782245449610665;0.4415322975127111;-0.32285171585870953;0.9790000000000001;0.11093548853322933
58:47.6;-0.7696809956296718;0.45929866206310177;-0.3094452979859488;0.922;0.10939307534396661
58:47.6;-0.7620014567931336;0.47925533715476026;-0.30072392699430045;0.8909999999999999;0.1098223527890773
58:47.6;-0.7563650063385778;0.5009743864460142;-0.29615239419486505;0.92;0.11221791564534869
58:47.6;-0.7538418228314152;0.5237376686695688;-0.2947146536473674;0.92;0.11635787173381934
58:47.6;-0.7551961354577504;0.5466557009865555;-0.2950223234331811;0.92;0.12179473631290039
58:47.6;-0.7607333619685871;0.5687891812023214;-0.2954783556269727;0.8959999999999999;0.12785257028967456
58:47.6;-0.770223218324686;0.5892499094320243;-0.29446596465451336;1.016;0.13364454462667266
58:47.6;-0.7829108515587683;0.6072820544813997;-0.29054187027114103;1.062;0.13813746699876683
58:47.7;-0.7976096254670317;0.6223259889932325;-0.28261252620131866;1.119;0.14028128370781986
58:47.7;-0.8128510623539601;0.6340579521542814;-0.27006670355255463;1.129;0.1391909422568216
58:47.7;-0.8270572400368449;0.6423989834323967;-0.25284150656081805;1.1;0.1343348770707628
58:47.7;-0.8387063336326306;0.6474960222223559;-0.2314110539796458;1.105;0.12566985899723188
58:47.7;-0.8464775000860123;0.6496857949155218;-0.20670106093546198;1.124;0.11367409249021491
58:47.7;-0.8493714254239593;0.6494520259305375;-0.17994879088108243;1.124;0.09926443046056377
58:47.7;-0.8468000558274211;0.6473810379139557;-0.15254312665369604;1.124;0.083624492735397
58:47.7;-0.8386330959871117;0.6441158647405048;-0.1258789859337101;1.124;0.06799691810855485
58:47.7;-0.8251903591497535;0.640307876957201;-0.10123998531918994;1.054;0.053492767038108235
58:47.7;-0.8071768603057893;0.6365668943510041;-0.07970451584707419;1.0590000000000002;0.040953939094279614
58:47.8;-0.7855684491910986;0.6334111700412978;-0.06206949922119179;0.991;0.030885027460776728
58:47.8;-0.7614687442652903;0.6312141986977553;-0.04879182398625977;0.905;0.02345178450229665
58:47.8;-0.7359681709561617;0.6301454412726716;-0.03994823959057026;0.868;0.018526674744821357
58:47.8;-0.7100364455184168;0.6301173309138448;-0.03521847279140822;0.821;0.015756965543235586
58:47.8;-0.6844693688481166;0.6307687734423737;-0.03390720610817776;0.935;0.014639161732847033
58:47.8;-0.6598931328504357;0.6315112088028558;-0.03502035582184876;0.935;0.01459402973005503
58:47.8;-0.6368109310944863;0.6316349195398765;-0.03738895350061584;0.935;0.015039034338002102
58:47.8;-0.6156646947560726;0.6304478925639131;-0.03981189750462168;0.935;0.015452769422625528
58:47.8;-0.5968829861189262;0.6274183627857867;-0.04118985116461055;0.975;0.015425407560507724
58:47.8;-0.5808922782317458;0.6223016278938117;-0.040634241498801134;0.937;0.014688880507812316
58:47.9;-0.5680809704108686;0.6152320805711805;-0.03753708141608521;0.8640000000000001;0.013119271416591385
58:47.9;-0.5587244907224417;0.6067593118343126;-0.03158697159168401;0.831;0.010708339907387704
58:47.9;-0.5529009007816836;0.5978145894542548;-0.022732031071996325;0.805;0.007513668809216351
58:47.9;-0.5504350998355516;0.5896069620366501;-0.0111151787974805;0.784;0.003607324206342543
58:47.9;-0.5508958011897696;0.5834618577502525;0.0029838208636334684;0.7659999999999999;0.0009590796565566453
58:47.9;-0.5536436999626664;0.580628424659476;0.019180329493786494;0.7659999999999999;0.0061657330652779615
58:47.9;-0.5579154888520281;0.5820860175094063;0.03699326085936944;0.7659999999999999;0.01201373921716812
58:47.9;-0.5629341523265595;0.5883699956717259;0.05584380623126356;0.7659999999999999;0.01849622613206157
58:47.9;-0.568041601339762;0.599429391544485;0.07506209955994098;0.872;0.025558707311522027
58:47.9;-0.5728320794976131;0.614547900175046;0.09392247618805653;0.7979999999999999;0.03306378773033373
58:48.0;-0.5772375167441618;0.6323891693338598;0.11171856032142913;0.909;0.04078160402737073
58:48.0;-0.5815264764196717;0.6512069130224678;0.12785508644714477;1.001;0.04841796197650678
58:48.0;-0.5862274511042743;0.6691784401836942;0.14190617925246207;1.01;0.05566848451442286
58:48.0;-0.5920133986798689;0.6847571406293581;0.15361486664451976;1.025;0.06227322448235018
58:48.0;-0.5995698795992448;0.6969496532605993;0.16286073039961496;1.022;0.06805461661917203
58:48.0;-0.609460128236146;0.7054673307333138;0.1696364476680147;1.022;0.07293590481973357
58:48.0;-0.622012262632046;0.7107335016895426;0.1740432365329018;0.934;0.07694189613212787
58:48.0;-0.6372575263557635;0.7137531064076591;0.17628835098910453;0.934;0.08018379373989795
58:48.0;-0.65493200188087;0.7158817546654499;0.17667123021152017;0.9;0.08283299012477113
58:48.0;-0.6745341999830259;0.7185545965399525;0.17556219844634144;0.9279999999999999;0.08509318050435397
58:48.1;-0.6954193876699996;0.7230378843188103;0.17338602580273166;1.001;0.08718101875532991
58:48.1;-0.7169058894307032;0.7302494186072118;0.1706165079278646;1.058;0.08932117281955168
58:48.1;-0.7383663966378636;0.7406665173832452;0.1677753608235857;1.0590000000000002;0.09175353754168053
58:48.1;-0.7592813953165047;0.754316343975819;0.16542081980248943;1.053;0.09474285006318799
58:48.1;-0.779244730034293;0.7708353860467405;0.1641128818415107;1.138;0.09857758828674275
58:48.1;-0.7979297591273449;0.7895820105168191;0.1643510481211598;1.138;0.10354625248094425
58:48.1;-0.8150389703000094;0.8097746654967676;0.16649338251782694;1.138;0.10988528441426243
58:48.1;-0.830263330939085;0.8306210320513059;0.17067469774501456;1.214;0.11770310604860852
58:48.1;-0.8432710598905456;0.8514118702308175;0.17674157272194527;1.271;0.1268953219789662
58:48.1;-0.8537331459036319;0.8715622010824368;0.1842196686526964;1.2819999999999998;0.1370744547090076
58:48.2;-0.8613793256644064;0.890584395340609;0.1923292224884125;1.263;0.1475417060660197
58:48.2;-0.8660679832175286;0.9079908041857108;0.20006018968182696;1.239;0.15732368498043955
58:48.2;-0.8678484135521206;0.9231555164399082;0.20630293290547144;1.215;0.16528146182216188
58:48.2;-0.8669941120124391;0.9351975723351016;0.21000883701518516;1.192;0.17027743079165342
58:48.2;-0.8639930371446186;0.942956870818511;0.21034117040702244;1.3230000000000002;0.17136667016833024
58:48.2;-0.8594957777190212;0.9451017621692693;0.20678242594361457;1.3230000000000002;0.16797163384487257
58:48.2;-0.8542380910681775;0.9403443195776034;0.19918786931176094;1.3230000000000002;0.16000322063713598
58:48.2;-0.8489588280122851;0.9276945757625832;0.18779511505569899;1.3230000000000002;0.1479026438035153
58:48.2;-0.8443256288780514;0.9066906660759068;0.17320048723685247;1.383;0.13259227629572737
58:48.2;-0.8408694495794315;0.8775667661451962;0.15630346030962472;1.327;0.11533930619795582
58:48.3;-0.8389253822851274;0.8413290551243209;0.13821742509502433;1.224;0.09755555859551271
58:48.3;-0.8385831844883048;0.799715439368116;0.12015219532719736;1.155;0.0805774168152596
58:48.3;-0.8396600397219337;0.7550381033002473;0.10328382995835651;1.112;0.06547939954204757
58:48.3;-0.8417103979550832;0.7099353346216366;0.08863295655645981;1.068;0.05296350535650036
58:48.3;-0.8440794382035804;0.6670722592259402;0.07697146791548973;1.0;0.04333970695932875
58:48.3;-0.8459931943162583;0.6288364351282386;0.06877024140945981;1.0;0.036585173186022585
58:48.3;-0.846667961152456;0.5970811533333606;0.06418959813421883;1.0;0.032449734341779286
58:48.3;-0.8454201919289734;0.572961599135225;0.06310495836309107;1.0;0.030567619350253008
58:48.3;-0.8417644973078791;0.5568803058537892;0.06515743415363781;1.013;0.030543333756509677
58:48.3;-0.8354922564006805;0.5485317733712813;0.06981986307640606;1.041;0.03199802775280496
58:48.4;-0.8267202436868134;0.5470283687692765;0.07646723496482444;1.071;0.03458149847372747
58:48.4;-0.8158934950435855;0.5510872495501371;0.08443870736789126;1.061;0.037966049513880426
58:48.4;-0.8037317131492022;0.5592458263377647;0.0930824504737297;1.02;0.041839035501135866
58:48.4;-0.7911267630280917;0.5700602654786099;0.10178315179280699;1.001;0.04590317676268326
58:48.4;-0.7790169327302223;0.5822471859251722;0.10997819862023477;0.956;0.04988395717680316
58:48.4;-0.7682672893543224;0.5947543355013154;0.11716908738579149;0.956;0.05353810638669055
58:48.4;-0.759576350928491;0.6067724868165325;0.12293187981748523;0.956;0.056658077946671805
58:48.4;-0.7534178099104308;0.6177120207900527;0.12692854787561236;0.956;0.05907194172966656
58:48.4;-0.7500172428313541;0.6271649936852819;0.12892114924219997;0.968;0.06064251797901576
58:48.4;-0.7493584740469579;0.6348667281165372;0.1287896031635042;0.978;0.06127072160375475
58:48.5;-0.7512125648366931;0.6406653435454569;0.12654859245764263;0.9940000000000001;0.060904782151379164
58:48.5;-0.7551826386936557;0.6445026822183749;0.12235396146345903;1.006;0.059551781961960024
58:48.5;-0.7607582501678101;0.6464051685992555;0.1164902330987943;1.0170000000000001;0.05728501161575165
58:48.5;-0.7673733341894929;0.6464794908354263;0.10933796485001873;1.026;0.0542415936998248
58:48.5;-0.7744619151074156;0.6449071655266113;0.10132698685248018;1.023;0.05060837544447855
58:48.5;-0.7815059608102106;0.6419343362271367;0.09288608987601908;1.023;0.046598676529987317
58:48.5;-0.7880709581646104;0.6378568111592082;0.0844010863821847;1.023;0.0424264366507863
58:48.5;-0.7938276505602656;0.6330022346031745;0.07619012252344448;1.0270000000000001;0.0382851309847277
58:48.5;-0.7985615986514212;0.6277101137766664;0.06849826182241407;1.025;0.03433579436045923
58:48.5;-0.8021734448359781;0.6223087307464287;0.06150715976360673;1.0190000000000001;0.0307043457557904
58:48.6;-0.8046718569514745;0.6170888340208465;0.055353236558821;1.0090000000000001;0.027485872021235043
58:48.6;-0.8061600213136725;0.612277373591157;0.05014809129667666;1.0070000000000001;0.02475277393465673
58:48.6;-0.8068162914853523;0.6080176879285724;0.04599598527520685;1.002;0.022563725044395244
58:48.6;-0.8068700128756064;0.604362482461602;0.04300426978644894;1.005;0.020970686579278874
58:48.6;-0.8065743624916261;0.6012820442487355;0.04128385366918325;1.004;0.020021788920445434
58:48.6;-0.8061787562436206;0.5986849935143453;0.040938596486895316;1.004;0.01975889583260782
58:48.6;-0.805903385290233;0.5964457293533583;0.042044507050236164;1.004;0.02020985410550035
58:48.6;-0.8059177401855981;0.5944327096309184;0.0446209673038449;1.0;0.021376293102941896
58:48.6;-0.8063241014664434;0.592533730559182;0.0485971578976983;0.996;0.023218469591817482
58:48.6;-0.8071465383674603;0.590676780070991;0.053778568253690394;0.997;0.025639616388435496
58:48.7;-0.8083263264772291;0.5888462760466097;0.05982027021305038;0.9990000000000001;0.02847324905609481
58:48.7;-0.8097257119667035;0.5870934612720187;0.06621363003620273;0.9990000000000001;0.031476944725144534
58:48.7;-0.8111426407528239;0.5855375378869393;0.0722917770883188;1.004;0.034335302292195634
58:48.7;-0.8123382375766047;0.5843534261507756;0.0772585228125117;1.008;0.03667405156311647
58:48.7;-0.8130762329196524;0.5837436595122255;0.08024495303501707;1.0170000000000001;0.03808650924589259
58:48.7;-0.8131692654532229;0.5838959706201822;0.08039406400506434;1.0170000000000001;0.03817160465789682
58:48.7;-0.8125218104569062;0.5849344682348461;0.07696618327816757;1.0170000000000001;0.03657987286945679
58:48.7;-0.8111573222383663;0.5868769772979486;0.06945214002214506;0.9990000000000001;0.033062660517215896
58:48.7;-0.8092212189634278;0.5896107007077016;0.057679525484588885;1.006;0.027520371856373897
58:48.7;-0.8069584584251794;0.5928953435319544;0.04189386485029899;1.003;0.020043780817810188
58:48.8;-0.8046701625627745;0.5963982926026361;0.022790228471687452;0.992;0.010937119777530282
58:48.8;-0.802658183609268;0.5997575867484639;0.0014723720028281771;1.0170000000000001;0.0007088003756790832
58:48.8;-0.8011702089395571;0.6026565914833821;-0.020667752243052864;1.0170000000000001;0.009979021300626492
58:48.8;-0.800358513282049;0.6048858415837443;-0.04213508565215466;1.018;0.020398670794096904
58:48.8;-0.8002616663626444;0.6063691066906642;-0.061548157953333356;1.016;0.02986648686985585
58:48.8;-0.8008114196363417;0.607146020314011;-0.07784253403265363;1.016;0.037847776939460856
58:48.8;-0.801858078461311;0.6073263451234578;-0.09041041827600359;1.016;0.04402892765480421
58:48.8;-0.8032021699688039;0.6070435682587232;-0.09913575108195308;1.0090000000000001;0.048336481755405246
58:48.8;-0.8046232407361776;0.6064269823658117;-0.10431838965760254;1.015;0.050901662076497156
58:48.8;-0.8059039807827763;0.6055922462521933;-0.10652634746628395;1.015;0.05199009887138469
58:48.9;-0.8068513903327261;0.604639358846054;-0.10643975936035242;1.014;0.0519270737876785
58:48.9;-0.8073150488852803;0.6036499175243064;-0.10473541667028888;1.013;0.051041303688634014
58:48.9;-0.8072004489307323;0.6026837293843081;-0.10202324742900419;1.016;0.04963294040822916
58:48.9;-0.8064760141742856;0.601778136236183;-0.09881875302572307;1.015;0.0479586809251804
58:48.9;-0.805174310935988;0.6009509458510927;-0.0955316031106645;1.0090000000000001;0.04622490199189643
58:48.9;-0.8033887498045703;0.6002051854734902;-0.09246028592945729;1.0090000000000001;0.044584173607394355
58:48.9;-0.8012668535398446;0.5995338930104451;-0.08979181184782882;1.0090000000000001;0.04313478643778207
58:48.9;-0.7990005820833427;0.5989242396577085;-0.08760834779515646;1.0090000000000001;0.041924170251972016
58:48.9;-0.7968132677508847;0.5983607153833241;-0.08590126398152394;1.005;0.040956155562617405
58:48.9;-0.7949420280296551;0.5978271635171691;-0.08459109839745323;1.0;0.04020089915674388
58:49.0;-0.7936151266242419;0.5973077159434002;-0.08355086724043764;0.992;0.03960582134697249
58:49.0;-0.7930258159519837;0.5967869630953465;-0.08262969363720246;0.985;0.039105945918891945
58:49.0;-0.7933066531958614;0.5962498495988757;-0.08167415524410189;0.982;0.038632608264381224
58:49.0;-0.7945095632880619;0.5956821482555684;-0.08054622104263699;0.981;0.03812052593076634
58:49.0;-0.7965961227982645;0.5950727587751746;-0.07913780725879449;0.9990000000000001;0.037513904681840037
58:49.0;-0.7994398698869848;0.5944184148697721;-0.07738202178290725;0.9990000000000001;0.036772074509956426
58:49.0;-0.8028392380161438;0.5937293977355862;-0.07526107750110814;0.9990000000000001;0.03587464191347868
58:49.0;-0.8065381870183361;0.5930333024662634;-0.07281088630957833;1.0070000000000001;0.03482573850126672
58:49.0;-0.810252330467548;0.5923743104374369;-0.07012149446793636;1.011;0.033656400611496703
58:49.0;-0.8136988478443054;0.5918071186523157;-0.06733144896189881;1.016;0.03242364579567367
58:49.1;-0.8166271101193812;0.5913864337285241;-0.06461512310460749;1.018;0.031205369339658104
58:49.1;-0.8188453696311117;0.5911544035929694;-0.06216510691500256;1.0170000000000001;0.030091893180705345
58:49.1;-0.8202388867570186;0.5911294784296395;-0.060174202361721114;1.014;0.029176508162626725
58:49.1;-0.8207764532811233;0.5913007416448198;-0.058820941384612586;1.015;0.02854731605500542
58:49.1;-0.8205045000813097;0.5916313254150058;-0.058259420426804015;1.012;0.02828122962082317
58:49.1;-0.8195301880668364;0.5920724566457567;-0.05861160494161545;1.0170000000000001;0.02843959631650079
58:49.1;-0.8179971989486989;0.5925853290488167;-0.059960204705720714;1.0170000000000001;0.029064698260076138
58:49.1;-0.8160600738708;0.5931626410331922;-0.06234154896973839;1.0170000000000001;0.03017682256403442
58:49.1;-0.8138631339659304;0.5938394219029868;-0.06573864179560372;1.013;0.03177174938783314
58:49.1;-0.8115276934786538;0.5946861309562418;-0.0700748707113299;1.002;0.03381843141845785
58:49.2;-0.8091485883789837;0.5957835960949993;-0.0752095765720899;0.9940000000000001;0.03625684132263167
58:49.2;-0.8067991708020295;0.5971863968842606;-0.08093814752381719;0.992;0.038996767565464545
58:49.2;-0.8045417563904369;0.5988873153006234;-0.08700054842581931;0.998;0.04191946141820841
58:49.2;-0.8024381474463832;0.6007976212190067;-0.0931011730913298;0.996;0.0448843483487727
58:49.2;-0.8005545607183453;0.6027536305174189;-0.09893901509812683;1.0190000000000001;0.0477417521402912
58:49.2;-0.7989585058510295;0.6045495622960667;-0.10424235041972493;1.0190000000000001;0.05035009924038357
58:49.2;-0.7977098484255253;0.6059848364519085;-0.10879911374178984;1.0190000000000001;0.05259349942004035
58:49.2;-0.7968504238384384;0.6069088077230118;-0.11247520068619782;1.0190000000000001;0.054394754991300795
58:49.2;-0.7963951793492287;0.6072506204535437;-0.11521757741014922;1.021;0.05572054161085526
58:49.2;-0.7963262648742304;0.6070290532736418;-0.11704332209244905;1.0070000000000001;0.05657794350760941
58:49.3;-0.7965921822696366;0.6063408358552207;-0.11801737027200322;0.997;0.05700314156872629
58:49.3;-0.7971148346058593;0.6053295000291368;-0.11822321159184178;0.998;0.057044724082542624
58:49.3;-0.79780463648812;0.6041436070280807;-0.11773357255376195;1.005;0.05674623636938387
58:49.3;-0.7985785461963456;0.6028984219042917;-0.11658912045729128;1.0070000000000001;0.056133201414675205
58:49.3;-0.7993730690984266;0.6016530161079187;-0.1147897098805052;1.005;0.05520756204476132
58:49.3;-0.8001472962167882;0.6004064663567757;-0.11229743779634174;1.005;0.05394921756257757
58:49.3;-0.8008769491083008;0.5991088258820163;-0.10904842558658283;1.005;0.052322792102806666
58:49.3;-0.8015437851619115;0.5976797544227511;-0.10497083623103115;1.008;0.05028801034632555
58:49.3;-0.8021244560540783;0.5960287299627294;-0.1000068478261925;1.008;0.047812195953284384
58:49.3;-0.802581782278893;0.5940718432571079;-0.09413490329758989;1.0;0.0448826971540928
58:49.4;-0.8028608662023665;0.5917415505369009;-0.08738725611753187;0.988;0.04151647365506393
58:49.4;-0.802891832735287;0.5889896278771016;-0.07985888881139801;0.993;0.03776486617292382
58:49.4;-0.8025996501671172;0.5857879455685308;-0.07170745459628097;0.997;0.033713489255592
58:49.4;-0.8019193676769021;0.5821322807656953;-0.06314676337605439;1.005;0.029478371022831303
58:49.4;-0.8008129107541867;0.5780507718700988;-0.05443573287709298;1.0;0.025198873477222453
58:49.4;-0.7992827520471355;0.5736142361093474;-0.04586304864231791;1.0;0.02102728894783
58:49.4;-0.7973787920202255;0.5689433383314203;-0.037728391025757;1.0;0.017115988332526456
58:49.4;-0.795196513824802;0.5642077214847175;-0.030322062389122127;0.9840000000000001;0.013604175623434921
58:49.4;-0.7928663404428556;0.5596140337550112;-0.02390412725538517;0.95;0.01060624049061866
58:49.4;-0.790536966220578;0.5553839899515447;-0.018684897680456464;0.946;0.008203633746046327
58:49.5;-0.7883583521078565;0.5517295801020882;-0.014811519386776521;0.953;0.006442427693804977
58:49.5;-0.7864696541242732;0.5488352498777647;-0.012365381718647015;0.963;0.005337421423850907
58:49.5;-0.7849932370344991;0.5468519188169404;-0.011370367224939573;0.97;0.0048810150491785526
58:49.5;-0.7840323607042635;0.5458985566568028;-0.011807443485387962;0.958;0.005053611009783108
58:49.5;-0.783669839181508;0.5460623357442177;-0.013630099875834509;0.953;0.005832763844175092
58:49.5;-0.783966464052122;0.5473921465419855;-0.016776139486368753;0.953;0.007199263606370258
58:49.5;-0.7849590098967898;0.549887750907003;-0.021172761774163613;0.953;0.00913899701358874
58:49.5;-0.7866577696384761;0.553490788204817;-0.026734047582393554;0.958;0.011640213617287454
58:49.5;-0.7890435995676303;0.5580824647050389;-0.03335275386343855;0.963;0.014686931751106514
58:49.5;-0.7920648841989121;0.5634891242786562;-0.04089035145491204;0.972;0.018250179533795378
58:49.6;-0.7956354907267684;0.5694937106710714;-0.04916935755741442;0.9740000000000001;0.022279098492396572
58:49.6;-0.7996354052357441;0.5758496904914541;-0.057970502241095886;0.977;0.026693665608277628
58:49.6;-0.8039159329594153;0.5822950180472369;-0.06703546862034827;0.996;0.031380391697592165
58:49.6;-0.8083102964320941;0.5885659309207543;-0.07607505458427102;1.0090000000000001;0.03619224331981238
58:49.6;-0.8126479105733665;0.5944110557206913;-0.08478253463172658;1.026;0.04095394073598064
58:49.6;-0.8167681689975376;0.5996047980472126;-0.09285118680194224;1.026;0.04547276501634414
58:49.6;-0.8205294826509248;0.6039575134782287;-0.09999311191506692;1.026;0.04955308111430456
58:49.6;-0.8238116923055973;0.6073206975273461;-0.10595638963076871;1.0270000000000001;0.05301187746184939
58:49.6;-0.8265128483326531;0.6095880369154949;-0.11054020477276438;1.028;0.05569373055433928
58:49.6;-0.8285430243516796;0.6106952182928224;-0.1136093358426517;1.03;0.057484876908068326
58:49.7;-0.8298181814283241;0.6106211802772399;-0.11510838750833328;1.033;0.05832594454075004
58:49.7;-0.8302566952078756;0.6093916460818042;-0.11507423649008844;1.037;0.05822198189184578
58:49.7;-0.82978029599294;0.6070839088978047;-0.11364364273166086;1.035;0.05724756063727436
58:49.7;-0.8283202379730298;0.603830747616254;-0.1110519656165556;1.033;0.05554433176474485
58:49.7;-0.8258289088585881;0.5998211375625148;-0.1076196284722052;1.026;0.053309343741041106
58:49.7;-0.8222962066307655;0.595296519962856;-0.10372662462239367;1.026;0.05077522729905985
58:49.7;-0.8177681018230981;0.5905435271826259;-0.09978011989110676;1.026;0.0481865797404979
58:49.7;-0.8123628908451579;0.5858849931671333;-0.09618170575886793;1.021;0.04577780084703771
58:49.7;-0.8062803461683887;0.5816695028501897;-0.09329793401413526;1.012;0.04375567567700276
58:49.7;-0.7998002270614182;0.5782577626444022;-0.09143448566966786;1.006;0.04228759835463515
58:49.8;-0.793268313938022;0.5760038411721501;-0.090813831845765;0.9940000000000001;0.041495164232856464
58:49.8;-0.7870697765341105;0.5752302272463958;-0.09155741025876828;0.983;0.04145228115068134
58:49.8;-0.7815914948087578;0.5761966631824945;-0.09367418332605627;0.97;0.04218620698726604
58:49.8;-0.7771768528253689;0.5790641877024656;-0.09705714026119809;0.958;0.04367913758291862
58:49.8;-0.7740782359706851;0.5838581380840666;-0.10148788487718206;0.937;0.04586764012239742
58:49.8;-0.7724144980095533;0.5904362072638891;-0.10664797344575246;0.937;0.04863803331685593
58:49.8;-0.7721427603435693;0.5984687758553633;-0.11213541075254632;0.946;0.05181814700767772
58:49.8;-0.7730533689173205;0.6074382716341702;-0.11748574362148168;0.946;0.05516921422817148
58:49.8;-0.7747924984452271;0.6166629422755574;-0.12219851285852365;0.968;0.05838471688203673
58:49.9;-0.7769115170284475;0.6253485226489918;-0.12577036156377508;0.9990000000000001;0.06110433149909514
58:49.9;-0.7789376473094061;0.6326675274121206;-0.1277350333957137;1.04;0.06294891727295701
58:49.9;-0.7804558780083067;0.6378590209313115;-0.12770784446575723;1.069;0.06357562413671285
58:49.9;-0.7811880429394242;0.640333573153596;-0.1254293522995145;1.092;0.06274238736195484
58:49.9;-0.7810535447933172;0.6397628657601397;-0.12080086223627699;1.104;0.06036286858882356
58:49.9;-0.7801983296466624;0.636134326761808;-0.11390347131677273;1.036;0.05653153882400379
58:49.9;-0.7789848715906247;0.6297595420893838;-0.1049955296332046;1.036;0.051507988340936846
58:49.9;-0.7779449241417594;0.6212377066483667;-0.09449197065237185;1.036;0.04566690360096508
58:49.9;-0.777703390965842;0.6113833228794268;-0.08293497790241261;0.99;0.039433498946545735
58:49.9;-0.7788828816471062;0.6011278539746172;-0.07096175725084711;0.9540000000000001;0.03322487628653029
58:50.0;-0.7819989656855814;0.5914064061711891;-0.059267590033590646;0.927;0.027410027501724017
58:50.0;-0.7873592774451639;0.5830465631094897;-0.04855983360052624;0.9109999999999999;0.022292222990080043
58:50.0;-0.7949823850799294;0.5766794083176443;-0.03950223048880936;0.909;0.018109796439839284
58:50.0;-0.8045521659460021;0.5726871564023649;-0.03265534915080728;0.92;0.015046170653867248
58:50.0;-0.8154208764811416;0.571191523187939;-0.028423920141348744;0.9420000000000001;0.013238767467067654
58:50.0;-0.8266680794830831;0.572077668067986;-0.027021764422264647;1.042;0.012779088168381568
58:50.0;-0.8372099206329582;0.5750424311992409;-0.02845994644824994;1.042;0.013701506972657446
58:50.0;-0.8459373120929797;0.5796531526540787;-0.032557320247485984;1.042;0.015964489468361237
58:50.0;-0.8518555305130963;0.5854056105432199;-0.03896920491247226;1.064;0.019433202345193894
58:50.0;-0.8542064297382325;0.5917753740621827;-0.04723014334309765;1.083;0.023874758561257092
58:50.1;-0.8525645426681198;0.5982614900921678;-0.056806327224480535;1.095;0.028974438356140667
58:50.1;-0.8468996610196875;0.6044222745931424;-0.06715015258660158;1.0979999999999999;0.03437315716391598
58:50.1;-0.8375966072367211;0.6099020571524144;-0.07774720889015305;1.09;0.039717308900564054
58:50.1;-0.8254247901115769;0.6144474142123848;-0.08814817398725026;1.069;0.04470700215796223
58:50.1;-0.8114560373698161;0.6179119976721166;-0.09798298962029901;1.036;0.04912949611765196
58:50.1;-0.7969382124229024;0.6202502209114675;-0.1069589878805705;0.963;0.0528699456111242
58:50.1;-0.7831439367621932;0.6215019302763105;-0.1148471184887674;0.963;0.055899017538755945
58:50.1;-0.7712233083224636;0.6217722037532718;-0.12146183708751015;0.963;0.058244013665333036
58:50.1;-0.7620872817778023;0.6212109545922111;-0.12664122527200072;0.963;0.05995410486621186
58:50.1;-0.7563338658173921;0.6199954957017536;-0.13023418883388413;0.9590000000000001;0.06106988337568747
58:50.2;-0.7542154785702494;0.6183169533389908;-0.13210039230603318;0.9620000000000001;0.06160425399826474
58:50.2;-0.7556417718858162;0.616369668600827;-0.13212556972197728;0.9670000000000001;0.061538100928638144
58:50.2;-0.7602137715744185;0.61434198057361;-0.1302503077125182;0.975;0.06083096195136629
58:50.2;-0.7672854422102129;0.6124074880202393;-0.12650526492281558;0.992;0.059443729749385374
58:50.2;-0.7760463757000898;0.6107176311627458;-0.12104162231133246;1.006;0.05736709640788457
58:50.2;-0.785615904331007;0.6093973375059422;-0.11414500065648897;1.035;0.05464717479494061
58:50.2;-0.7951358958112017;0.6085442749005644;-0.10622660557036086;1.035;0.05140044095972477
58:50.2;-0.8038483784272502;0.6082301306325016;-0.09779436153346957;1.035;0.04781408906652564
58:50.2;-0.8111476750539268;0.6085013465918696;-0.08941150201932498;1.031;0.044132127276344774
58:50.2;-0.8166046547375955;0.6093774612101795;-0.08164815839635878;1.025;0.04062979506331305
58:50.3;-0.8199680243142465;0.6108467598678621;-0.0750297330283259;1.021;0.0375805033385094
58:50.3;-0.8211506096330645;0.6128604215925008;-0.06998798030564814;1.021;0.03522150069704386
58:50.3;-0.8202080620758136;0.6153274264239017;-0.066822527423086;1.02;0.03372509677869092
58:50.3;-0.8173149917391678;0.6181130591588535;-0.0656790181554504;1.0270000000000001;0.03318058480604813
58:50.3;-0.8127401385986557;0.6210437639966918;-0.06654701239706046;1.025;0.033589417831500726
58:50.3;-0.8068195833296106;0.6239199363026126;-0.06927791577992759;1.016;0.03487386704286426
58:50.3;-0.7999277202853763;0.6265355322883414;-0.07361912742996597;1.016;0.036896665450971027
58:50.3;-0.7924494970928626;0.6287000956799147;-0.07925510499504931;1.016;0.03948592954079937
58:50.3;-0.7847591101927666;0.6302576990256603;-0.08584426722268473;1.016;0.042458615007815864
58:50.3;-0.7772067845704115;0.6310995552879696;-0.0930458005375716;1.008;0.04563848654623959
58:50.4;-0.7701107992348465;0.6311700976357767;-0.10053737407883324;1.002;0.04886829274096109
58:50.4;-0.7637513885378308;0.6304676567589549;-0.10802748182996362;0.996;0.05201745227983894
58:50.4;-0.7583653488590204;0.6290409862954827;-0.11526477307579491;0.991;0.05498624011962054
58:50.4;-0.7541418438779163;0.6269828265504944;-0.1220446171439918;0.987;0.05770684265912673
58:50.4;-0.7512203289920041;0.62442133223986;-0.12821245063875175;0.9840000000000001;0.060141639745695565
58:50.4;-0.7496913423400304;0.6215097280037283;-0.13366396091190721;0.981;0.06227944773539841
58:50.4;-0.7496002003024013;0.6184148753193464;-0.13834239771137047;0.981;0.06413054341186028
58:50.4;-0.7509525936751047;0.6153062707544604;-0.14223307144922262;0.981;0.06572104362466999
58:50.4;-0.7537205909255627;0.6123468258420282;-0.1453554975770367;0.985;0.06708714544360264
58:50.4;-0.7578478884242357;0.6096854436462463;-0.14775445977387347;0.9840000000000001;0.06826977468516976
58:50.5;-0.7632534595372514;0.607450662374122;-0.1494909996315148;0.992;0.06930983060328887
58:50.5;-0.7698325526773744;0.6057451713330628;-0.15063317302792453;0.9940000000000001;0.07024361546319917
58:50.5;-0.7774538901673783;0.6046414640595525;-0.15124604201988612;0.998;0.0710978692607373
58:50.5;-0.7859527663152697;0.6041785315473831;-0.1513811435514388;0.9940000000000001;0.07188421224245511
58:50.5;-0.795121776114502;0.6043593001902994;-0.15106666782478406;0.992;0.07259346177283897
58:50.5;-0.8047030382561048;0.6051491807387205;-0.150300518213335;1.025;0.0731911496180536
58:50.5;-0.8143853677598174;0.606476683272147;-0.14904891929079422;1.025;0.07361611629326764
58:50.5;-0.8238062625309438;0.6082365862428522;-0.14725214776351042;1.025;0.0737835024557137
58:50.5;-0.8325564035770086;0.6102954410897872;-0.14483671402789608;1.025;0.07359231326470281
58:50.5;-0.8401871633601432;0.6124994436099626;-0.14173192913626584;1.04;0.07293725908719262
58:50.6;-0.8462251222333927;0.6146852612770497;-0.13788883143290595;1.053;0.07172454555310935
58:50.6;-0.8501965078977353;0.6166939824855403;-0.1332998033944874;1.0590000000000002;0.0698905625953087
58:50.6;-0.8516605465703228;0.6183871992354278;-0.12801689241965047;1.06;0.0674208619457229
58:50.6;-0.8502486173487306;0.6196634308359207;-0.12216588187636782;1.069;0.0643652908336963
58:50.6;-0.8457063442535458;0.6204726645144084;-0.11595273364240277;1.073;0.060844767144326524
58:50.6;-0.8379356819478981;0.6208261661655129;-0.10966036583462486;1.062;0.057046681757625096
58:50.6;-0.827032873813366;0.6207985996553829;-0.10363637165224003;1.062;0.05320907401759327
58:50.6;-0.8133170735763026;0.6205208974699092;-0.09827405977790857;1.062;0.04959697611607563
58:50.6;-0.7973433102702843;0.6201642319392832;-0.09398840673997554;1.0490000000000002;0.04647574467164556
58:50.6;-0.7798921511264282;0.6199162761961401;-0.0911864169345748;1.025;0.0440856998649967
58:50.7;-0.76192919068685;0.619951383363705;-0.09023117005872146;0.993;0.04262151029190001
58:50.7;-0.7445323559103303;0.6203978858240636;-0.09140140016384422;0.9590000000000001;0.0422188825219422
58:50.7;-0.728792546212664;0.621308041486825;-0.09485157296144725;0.9279999999999999;0.042949235149928405
58:50.7;-0.7157004098945319;0.6226373685617803;-0.10057930894031737;0.903;0.044820334693797745
58:50.7;-0.7060371524835892;0.6242392703531604;-0.10840774424139078;0.8859999999999999;0.047779208239768924
58:50.7;-0.7002886978035302;0.6258783607233644;-0.11798934092880302;0.9279999999999999;0.05171420215790624
58:50.7;-0.6985983183297088;0.6272617514277256;-0.1288323642803781;0.9279999999999999;0.05645485796262535
58:50.7;-0.700763501705164;0.6280823750999402;-0.1403432651022199;0.9279999999999999;0.06177029237731151
58:50.7;-0.706274021463559;0.6280656039767714;-0.1518750868203337;0.96;0.06736972602910728
58:50.7;-0.7143841957434011;0.6270117188399734;-0.1627762623144361;0.985;0.07291192557607525
58:50.8;-0.7242098771438664;0.6248287794731591;-0.17243822547797077;1.005;0.07802953403477592
58:50.8;-0.7348367244465206;0.6215509197407469;-0.18033963266647043;1.015;0.08236804284393759
58:50.8;-0.745423857941011;0.6173383473563093;-0.18608340522497838;1.024;0.08563162556339372
58:50.8;-0.7552887727074965;0.6124587630856209;-0.18942254840325395;1.025;0.08762369380257845
58:50.8;-0.7639636240432872;0.6072536989669981;-0.19027097277383076;1.021;0.08827045956739363
58:50.8;-0.7712177148710048;0.6020957402831353;-0.18869724817548847;0.993;0.08762098240897281
58:50.8;-0.7770464087869867;0.5973439812043714;-0.18490309768724156;0.993;0.08582536058534096
58:50.8;-0.7816324515266746;0.5933054529778612;-0.17919220946515543;0.993;0.08309981295659812
58:50.8;-0.785289197527119;0.5902083918883102;-0.17193545350488282;0.9840000000000001;0.07968937891817869
58:50.8;-0.7883951522595214;0.588189277727097;-0.16353609210580367;0.981;0.07583586837299329
58:50.9;-0.7913278618348201;0.5872921325520283;-0.15439689240913548;0.9790000000000001;0.07175450866610193
58:50.9;-0.7944045285314357;0.5874770539776653;-0.1448919277687985;0.977;0.0676202559442187
58:50.9;-0.7978360486713747;0.5886347940280537;-0.13534680040742839;0.982;0.06356346713672549
58:50.9;-0.8016995618545977;0.5906047447412401;-0.12602969766159242;0.988;0.05967349467460185
58:50.9;-0.8059322852191805;0.593194448900581;-0.11715259043443034;0.997;0.05600767286493
58:50.9;-0.8103464156017188;0.5961992249130794;-0.10887917977652137;1.025;0.0526025700118813
58:50.9;-0.8146609545754662;0.5994203915188688;-0.1013358340532671;1.025;0.049484759181670564
58:50.9;-0.8185427251812943;0.6026800580235793;-0.09462338323621577;1.025;0.04667954847785081
58:50.9;-0.8216486004837051;0.6058306479906762;-0.08882859753293096;1.033;0.04421709075698726
58:50.9;-0.8236642497954133;0.6087588995527903;-0.0840332381952886;1.037;0.04213535321503677
58:51.0;-0.8243373571034021;0.6113858196766178;-0.0803179759357231;1.041;0.04047930977120926
58:51.0;-0.8235030871897436;0.6136646635616282;-0.07776021564552323;1.041;0.03929649394419823
58:51.0;-0.8210990241420377;0.615578416652332;-0.07642764194797246;1.038;0.038630415607528786
58:51.0;-0.8171679459349589;0.6171371083926446;-0.07637059330762133;1.033;0.03851404633832835
58:51.0;-0.8118489662000284;0.6183743420082188;-0.0776156241356617;1.0270000000000001;0.03896510558527793
58:51.0;-0.805359601947129;0.6193421234445879;-0.08016147129775562;1.011;0.03998399085388168
58:51.0;-0.7979728696900502;0.6201035207195358;-0.08397782876194858;1.011;0.04155439511811769
58:51.0;-0.7899940945977407;0.6207236523988752;-0.08900594542273547;1.011;0.043645669204903946
58:51.0;-0.7817405032313631;0.621260250062637;-0.09515906470346189;1.001;0.046215360597497285
58:51.0;-0.7735234366339486;0.6217551325270926;-0.10232181293594939;0.9940000000000001;0.04921087443016775
58:51.1;-0.7656314373567166;0.6222277814388663;-0.11034927260065519;0.985;0.052570079045053154
58:51.1;-0.7583139185570389;0.6226721433737048;-0.11906670735088579;0.978;0.056221031349659466
58:51.1;-0.7517673847026116;0.6230575356755235;-0.12827054590986262;0.976;0.06008119693789481
58:51.1;-0.7461271199145785;0.6233339397139901;-0.13773102552808955;0.9740000000000001;0.06405682093404909
58:51.1;-0.7414666489357791;0.6234412558012432;-0.14719656092681313;0.975;0.0680432145465347
58:51.1;-0.7378057522909522;0.6233213890741616;-0.15639988718353423;0.98;0.0719267607554224
58:51.1;-0.7351260039755205;0.6229313185506478;-0.16506628389338607;0.988;0.0755893003908373
58:51.1;-0.7333909090778369;0.6222547693534515;-0.17292367639782982;0.988;0.07891475570542443
58:51.1;-0.7325661747399491;0.6213100633736318;-0.17971361871159175;0.99;0.08179678590722483
58:51.2;-0.7326352520629863;0.6201523858031374;-0.18520247493955;0.99;0.08414591098325773
58:51.2;-0.7336062575311332;0.6188699088178454;-0.18919279289886407;0.987;0.08589482162087277
58:51.2;-0.7355084033609689;0.6175742324443231;-0.19153443547844734;0.982;0.08700088537538052
58:51.2;-0.7383787539996695;0.6163861849233742;-0.1921340480585525;0.9740000000000001;0.0874452897544042
58:51.2;-0.7422427247443764;0.6154189733544624;-0.1909611300277501;0.9690000000000001;0.08722918340306171
58:51.2;-0.7470934101481632;0.6147622471958667;-0.18804935998428912;0.97;0.0863682171450082
58:51.2;-0.7528748992102337;0.6144714191471782;-0.18349266830722105;0.9890000000000001;0.08488739798508974
58:51.2;-0.7594725730082583;0.6145649471986406;-0.17743732794154762;0.9890000000000001;0.0828180249731918
58:51.2;-0.7667101423529525;0.6150287821631213;-0.17007336370069012;0.9890000000000001;0.08019789143638632
58:51.2;-0.7743520753846903;0.6158247022803096;-0.16162833142736224;0.9990000000000001;0.07707491629345117
58:51.2;-0.7821116806130122;0.6168994314759495;-0.1523636328447077;1.008;0.07351305329113347
58:51.3;-0.7896659503794312;0.6181927094304989;-0.14257125995678835;1.016;0.06959840368000339
58:51.3;-0.7966765569789287;0.6196432159655776;-0.132568996116513;1.02;0.065443377453574
58:51.3;-0.8028144024108242;0.6211918597596398;-0.12269304792116546;1.024;0.06118724037054043
58:51.3;-0.8077847622610418;0.6227829502254925;-0.11328753099654769;1.03;0.05699207677943287
58:51.3;-0.8113507849552061;0.6243644840449678;-0.10469047605443323;1.035;0.053033956282528265
58:51.3;-0.8133537670731358;0.6258884058252098;-0.09721659657998061;1.038;0.04948992572439957
58:51.3;-0.8137287204512565;0.6273107376882608;-0.09113828731601653;1.038;0.0465225197642727
58:51.3;-0.8125134913293763;0.6285911344034728;-0.08666759510905368;1.038;0.044264501551710585
58:51.3;-0.8098496821111267;0.6296919811141249;-0.08394155422875532;1.036;0.04280648669859194
58:51.3;-0.8059741100620472;0.6305777926953922;-0.08301140696036098;1.032;0.04218883550162063
58:51.4;-0.8012004385923245;0.6312156587968389;-0.08383550936205657;1.023;0.042398154171112507
58:51.4;-0.795892128208523;0.6315768254395665;-0.08627716785535365;1.015;0.043368687181383245
58:51.4;-0.7904299227308403;0.6316388627170322;-0.0901100657926404;1.0070000000000001;0.04498891530697474
58:51.4;-0.7851787257275904;0.6313878103393661;-0.0950334466223758;1.004;0.04711304749358814
58:51.4;-0.7804587632482581;0.6308201125916846;-0.10069722075277343;1.003;0.04957617054573333
58:51.4;-0.7765242309845178;0.629944505677044;-0.1067348045008041;1.003;0.052211162560625496
58:51.4;-0.7735502947089011;0.6287839803348569;-0.11279896605083307;1.003;0.054864969647045216
58:51.4;-0.771627606805829;0.6273776478250195;-0.1185937374088877;1.003;0.05741145514408872
58:51.4;-0.7707626897272113;0.6257819897030069;-0.12389606393601232;1.003;0.0597587153658498
58:51.4;-0.770882323961178;0.6240706486898889;-0.12856518911387727;1.0;0.06185078811611002
58:51.5;-0.7718404457622499;0.622331903490518;-0.13254213099376125;0.998;0.0636654109696756
58:51.5;-0.7734269739187816;0.6206635494426047;-0.13584270101048204;0.9990000000000001;0.06520964911646772
58:51.5;-0.7753789089338836;0.6191657319958846;-0.13854636853458996;0.9990000000000001;0.06651445586614411
58:51.5;-0.7773943734733972;0.6179327327475028;-0.1407821259286419;1.0;0.06762855579045533
58:51.5;-0.7791499900392659;0.6170447331011033;-0.14271190475768264;1.001;0.06861165919966952
58:51.5;-0.7803215112891173;0.6165604643128421;-0.14451189088555377;1.004;0.06952689522191213
58:51.5;-0.7806070354786722;0.6165114677060345;-0.14635244311220086;1.004;0.07043257998685218
58:51.5;-0.7797515137165631;0.6168984531409206;-0.1483779843731868;1.004;0.07137389127068706
58:51.5;-0.7775709827117228;0.6176900632117464;-0.15068858834602644;1.006;0.072375407934957
58:51.5;-0.7739750283924683;0.6188242623404403;-0.153324911243226;1.006;0.07343566019077447
58:51.6;-0.7689858020853787;0.620212576173681;-0.15625787784062836;1.003;0.07452479867658958
58:51.6;-0.762751431800868;0.6217474454871478;-0.15938436422821448;1.006;0.07558624234072482
58:51.6;-0.7555514304112764;0.6233126698158804;-0.16252998670513757;1.006;0.07654264871407189
58:51.6;-0.7477917306296894;0.6247959907019529;-0.16545956186611316;1.002;0.07730556564714915
58:51.6;-0.7399871581268419;0.6261017434684537;-0.1678948882150058;0.9990000000000001;0.07778691892234477
58:51.6;-0.7327301978703825;0.6271610191474619;-0.16953866918719218;0.976;0.07790976912400975
58:51.6;-0.7266476909850512;0.6279373074242448;-0.17010231107355722;0.976;0.07761584650628785
58:51.6;-0.722350441577257;0.6284269153936356;-0.16933404271943048;0.976;0.07686825055371606
58:51.6;-0.7203813540704587;0.6286547943118148;-0.16704367383471377;0.9690000000000001;0.07564926768044625
58:51.6;-0.72116523331423;0.628667012863951;-0.16312161267689138;0.961;0.07395490113945312
58:51.7;-0.7249618960845262;0.6285210836924032;-0.1575513368961083;0.9590000000000001;0.07178887111230145
58:51.7;-0.7318259691990094;0.6282751168796035;-0.15041579595795992;0.958;0.06915938496128951
58:51.7;-0.7415790913882694;0.6279765646416543;-0.1418987913350041;0.958;0.06608145691384265
58:51.7;-0.7538008535925081;0.6276514620238438;-0.13228148444507826;0.9640000000000001;0.06258557253893975
58:51.7;-0.7678438392142026;0.6272958117998958;-0.12193253430493127;0.972;0.05873066150440315
58:51.7;-0.7828752459527388;0.6268716715799163;-0.11129022768185957;1.025;0.05461704967040767
58:51.7;-0.7979413733688673;0.6263102945778202;-0.1008376905845438;1.025;0.050394532983281164
58:51.7;-0.8120441554266634;0.6255225680138728;-0.0910757024242557;1.025;0.04626208022900145
58:51.7;-0.8242182005660453;0.6244144708721532;-0.08249737131423727;1.044;0.04245758329310363
58:51.7;-0.8336035757639495;0.622904267134025;-0.07556487211705494;1.058;0.03923745463103806
58:51.8;-0.8395143995081764;0.6209383447628856;-0.07068599962256748;1.069;0.03684767018131626
58:51.8;-0.8415006813247066;0.6185031643384754;-0.06818995102225253;1.077;0.035490880692084815
58:51.8;-0.8393959327619299;0.6156318952577553;-0.06830436786219163;1.077;0.03529689061352371
58:51.8;-0.8333411453381755;0.612405764929602;-0.071136751777842;1.069;0.036304137732459815
58:51.8;-0.8237769805094073;0.6089511116642147;-0.07666309487101534;1.057;0.0384572678615101
58:51.8;-0.8114003350979933;0.6054333110631118;-0.08472526147291302;0.9890000000000001;0.041621182306064805
58:51.8;-0.797090367349471;0.602048499711821;-0.0950365228130183;0.9890000000000001;0.04560679750611674
58:51.8;-0.7818197456137684;0.5990137393257505;-0.10719270554545123;0.9890000000000001;0.050200570324266586
58:51.8;-0.7665694480743945;0.59655570276403;-0.1206868758503196;0.97;0.055190274368978796
58:51.8;-0.7522568036299541;0.5948970555786484;-0.13492862779304174;0.9540000000000001;0.06038263310627899
58:51.9;-0.7396777511611872;0.5942395463285719;-0.14927078424521156;0.9440000000000001;0.06561134199053678
58:51.9;-0.7294632906601778;0.5947442030123655;-0.1630440093394522;0.94;0.07073567552982263
58:51.9;-0.7220516523400123;0.5965110713417368;-0.175596346042002;0.9390000000000001;0.07563141910272433
58:51.9;-0.7176766714392191;0.5995622426259237;-0.18633312044290562;0.94;0.08017762024368702
58:51.9;-0.7163707927700859;0.603832021505231;-0.1947528505403982;0.9440000000000001;0.08424377781490544
58:51.9;-0.7179802410018356;0.609166964920418;-0.20047564288896053;0.972;0.08768200071306309
58:51.9;-0.7221894952531817;0.6153359994673556;-0.20326170005157462;0.972;0.0903273032331034
58:51.9;-0.7285514266536894;0.622047886444191;-0.2030191629555933;0.972;0.09200704118261699
58:51.9;-0.736519787232885;0.6289726650629748;-0.19980220127528162;0.987;0.09255853226937191
58:51.9;-0.7454830132883897;0.6357657335019632;-0.1938011495205344;1.002;0.0918525499300128
58:52.0;-0.7547999328432428;0.6420943311866865;-0.18532662991290416;1.015;0.08981906232901997
58:52.0;-0.7638371253764652;0.647664606280304;-0.17478968364965652;1.026;0.0864702517784261
58:52.0;-0.7720062655013596;0.6522456550230135;-0.16267956187406726;1.035;0.08191529768149791
58:52.0;-0.7787995929601595;0.6556868896475503;-0.14953938306191236;1.042;0.07636208898232924
58:52.0;-0.7838219865988241;0.657926329387262;-0.13593839119052822;1.046;0.070103037179128
58:52.0;-0.7868178716824655;0.6589890419671306;-0.12244008360828855;1.043;0.06348571663410797
58:52.0;-0.7876903894277856;0.6589767655623985;-0.10956881287680649;1.043;0.056873847004240856
58:52.0;-0.7865096777266778;0.658051338119847;-0.09778118002759055;1.043;0.05060799381088859
58:52.0;-0.7835075033971542;0.6564150234033622;-0.08744786970666105;1.033;0.04497497248801605
58:52.0;-0.7790569063840266;0.6542900661420183;-0.0788459420075388;1.025;0.04019007853325494
58:52.1;-0.7736373818316722;0.6518991217869323;-0.07215702334265335;1.012;0.036391206282088806
58:52.1;-0.7677880366365596;0.6494482138468757;-0.06746746468679483;0.998;0.03364188004592759
58:52.1;-0.7620531977342907;0.6471138366783329;-0.06476975991001188;0.986;0.031940246469443205
58:52.1;-0.7569271240954492;0.6450351306090065;-0.06396677238499066;0.977;0.03123143032340838
58:52.1;-0.7528062382345913;0.643310727153989;-0.06488120978739571;0.9690000000000001;0.03142121264060178
58:52.1;-0.7499573248521351;0.6419985631983613;-0.067272743427246;0.986;0.03238991036986954
58:52.1;-0.748506583717457;0.6411169070439995;-0.07086287163166358;0.986;0.03400569084333705
58:52.1;-0.7484477203770612;0.6406461295410656;-0.07536285894110044;0.986;0.03613574742449012
58:52.1;-0.74966228377906;0.6405318189171728;-0.08049733193095619;0.986;0.03865341380912265
58:52.1;-0.7519459693351437;0.6406897076725913;-0.08601903557843223;0.9940000000000001;0.041440878379218477
58:52.2;-0.755037727981525;0.6410122429052655;-0.09171536518491376;0.9990000000000001;0.04438917537265811
58:52.2;-0.7586497280677365;0.6413763220251155;-0.09740954407283242;1.004;0.04739753325607531
58:52.2;-0.7624955019430153;0.6416518471129501;-0.10295877077951758;1.0070000000000001;0.05037326299523491
58:52.2;-0.7663133945628329;0.6417110006166118;-0.10825091529280349;1.01;0.05323257543339647
58:52.2;-0.7698835097181647;0.6414381660994946;-0.11320138295627943;1.011;0.05590254080628041
58:52.2;-0.7730378345837967;0.6407402038473229;-0.11775160992317285;1.018;0.05832430584257773
58:52.2;-0.7756642673626806;0.6395563924093179;-0.12186918413875043;1.018;0.060456991679175884
58:52.2;-0.7777056920808306;0.637866712974637;-0.125547587304539;1.018;0.062280714727019834
58:52.2;-0.7791552921628652;0.635696685072408;-0.12880331072554072;1.018;0.06379710883000034
58:52.2;-0.780049180900038;0.6331172907239963;-0.13167011104339163;1.015;0.06502694654791001
58:52.3;-0.7804570787017265;0.6302396252959089;-0.13419219193115134;1.014;0.06600578129831312
58:52.3;-0.7804713433221017;0.6272050874376416;-0.13641828354155605;1.01;0.06677887752741893
58:52.3;-0.7801945965479451;0.6241726099178098;-0.13839730682495502;1.005;0.06739618039196725
58:52.3;-0.7797266638927903;0.6213046751720214;-0.14017497074344756;0.998;0.06790745922411501
58:52.3;-0.7791524640594477;0.61875384023055;-0.14179052533304481;0.996;0.06835771976848301
58:52.3;-0.7785332940224371;0.6166512164072793;-0.14327396759561287;0.998;0.06878346821941575
58:52.3;-0.7779036570511592;0.6150978609820866;-0.14464459405938115;0.998;0.06921053986977338
58:52.3;-0.7772742833677009;0.6141594429621516;-0.14591086556187607;0.998;0.06965351963456595
58:52.3;-0.7766404762239568;0.6138638864356633;-0.14707054022317487;1.004;0.07011610670152614
58:52.3;-0.7759940361393198;0.6142011186757673;-0.14811055567731957;1.004;0.07059192060169463
58:52.4;-0.7753362791218636;0.6151238697065478;-0.1490074330255186;1.0070000000000001;0.07106579501515717
58:52.4;-0.7746889158109402;0.6165489804458744;-0.1497293959129342;1.0070000000000001;0.0715157995600507
58:52.4;-0.7740993157254448;0.6183597929372132;-0.1502406697861705;1.006;0.0719159857497579
58:52.4;-0.7736373783582124;0.62041123434881;-0.15050728135740776;1.003;0.07223947964455744
58:52.4;-0.7733832502920561;0.6225392312884873;-0.15050277266246076;0.9990000000000001;0.07246127775628462
58:52.4;-0.7734083111230623;0.6245747076705263;-0.15021209572941582;1.002;0.07256014358586606
58:52.4;-0.773754654341859;0.626360296788368;-0.1496329433715437;1.002;0.0725194855407653
58:52.4;-0.7744188712232318;0.6277664568260374;-0.14877535286212643;1.002;0.0723277612946191
58:52.4;-0.775344312107322;0.6287040205565545;-0.14766116556571202;1.002;0.07197921983769333
58:52.4;-0.7764238442972616;0.6291319196384687;-0.1463242488135541;1.008;0.07147544824626971
58:52.5;-0.7775133563732816;0.6290602225395014;-0.14481121426393492;1.016;0.0708275595052554
58:52.5;-0.7784541816192097;0.6285488029077136;-0.14318162757101294;1.021;0.0700582612130864
58:52.5;-0.7791000115691229;0.6277016518535622;-0.14150645714414886;1.024;0.06920265235432177
58:52.5;-0.7793420551551086;0.626656963860425;-0.13986375177066515;1.023;0.06830667672549179
58:52.5;-0.779126278755851;0.6255736773746605;-0.1383314849206303;1.0190000000000001;0.06742288905077465
58:52.5;-0.7784584856362712;0.6246158317141494;-0.13697878838022895;1.001;0.0666042228562563
58:52.5;-0.7773966184492737;0.6239366280484557;-0.13585752489814815;1.001;0.0658971795586484
58:52.5;-0.7760340478962768;0.6236640312293906;-0.13499600189117417;1.001;0.06533597553931259
58:52.5;-0.7744797175766129;0.6238890313893761;-0.1343959445366519;1.001;0.06493869591459173
58:52.5;-0.7728392697490113;0.6246569052260581;-0.1340330054850385;0.995;0.06470569149583788
58:52.6;-0.7711986327384741;0.6259616319394014;-0.13386051048536676;0.9890000000000001;0.06461992385602042
58:52.6;-0.7696112444420526;0.6277440716952257;-0.13381602115265462;0.9890000000000001;0.06464904843428163
58:52.6;-0.7680912638258467;0.6298950405977088;-0.13383023513442294;0.9940000000000001;0.06474932651935845
58:52.6;-0.7666151144156494;0.6322642404137797;-0.13383726181479777;0.9990000000000001;0.06487136554362084
58:52.6;-0.7651318034615793;0.6346749158504169;-0.13378450468656947;1.006;0.06496708836766844
58:52.6;-0.7635799442394553;0.6369427495249468;-0.1336399855374594;1.015;0.06499670357898849
58:52.6;-0.7619076025132816;0.6388963168085793;-0.13339568988307002;1.015;0.06493434871807398
58:52.6;-0.7600905842296295;0.640395527797605;-0.1330670146105609;1.015;0.06477151518335329
58:52.6;-0.7581454452982945;0.6413446960377819;-0.1326893180480124;1.015;0.06451786682133334
58:52.6;-0.7561346339429611;0.6416985994953;-0.1323123943403531;1.008;0.06419936772851466
58:52.7;-0.7541624800949;0.6414618247056126;-0.13199335512612004;0.9990000000000001;0.06385395559303121
58:52.7;-0.7523626863399213;0.6406826659791918;-0.1317887099186205;0.993;0.06352554932404254
58:52.7;-0.75088033823032;0.6394432024507237;-0.13174697950506575;0.9890000000000001;0.06325769670529159
58:52.7;-0.7498528538894362;0.6378473375479038;-0.1319031874451497;0.986;0.06308819268934966
58:52.7;-0.7493938913057088;0.6360085204895755;-0.13227594266943324;0.986;0.06304547885314547
58:52.7;-0.7495825738925831;0.634038578705235;-0.1328669549252264;0.9890000000000001;0.06314691630950849
58:52.7;-0.7504582958514788;0.6320387374297508;-0.13366214457318862;0.9890000000000001;0.0633984564981925
58:52.7;-0.7520195186300703;0.6300935775196901;-0.13463331985922222;0.9890000000000001;0.06379501159934113
58:52.7;-0.7542243634170036;0.6282681952817778;-0.13573977709028803;0.99;0.0643209964576222
58:52.7;-0.7569917364402498;0.6266081702221803;-0.13692983252506838;0.987;0.06495091429357625
58:52.8;-0.7602031121219676;0.6251416245527291;-0.13814277882678452;0.991;0.0656502294131208
58:52.8;-0.763705972402773;0.6238827017668671;-0.13931195051024448;0.9940000000000001;0.06637698227205648
58:52.8;-0.7673201724676101;0.6228355826173172;-0.1403694396401989;0.995;0.06708456342370693
58:52.8;-0.7708482792493011;0.6219978997963859;-0.14125223264531198;1.0;0.06772564449664582
58:52.8;-0.7740903193631019;0.6213628515190374;-0.14190832602265338;1.003;0.06825662312540878
58:52.8;-0.7768623525189741;0.6209201070867881;-0.14230084334475107;1.014;0.06864158026700751
58:52.8;-0.7790165564944922;0.6206559791705155;-0.142409144063012;1.014;0.06885500395954941
58:52.8;-0.7804586071709453;0.6205533816009008;-0.14222765396155707;1.014;0.06888316086680632
58:52.8;-0.7811578785666891;0.6205920463655049;-0.14176409245178706;1.014;0.06872444868032399
58:52.8;-0.7811480075191819;0.6207492883599608;-0.1410383223985615;1.013;0.0683890692565271
58:52.9;-0.7805178992318037;0.621001372673018;-0.14008192889956161;1.0070000000000001;0.06789808731237908
58:52.9;-0.7793950563665502;0.6213253486753998;-0.1389377421268564;1.002;0.06728169994901553
58:52.9;-0.777924648413243;0.6217010027636243;-0.1376583737997206;1.001;0.06657661877961697
58:52.9;-0.7762487500721127;0.6221124570394451;-0.13630349622276486;0.998;0.06582286891677247
58:52.9;-0.7744897245552987;0.6225491263510705;-0.1349363100869531;0.995;0.06506060809280624
58:52.9;-0.7727401594490438;0.623006164584124;-0.13361967371354674;1.0;0.06432743491947247
58:52.9;-0.7710600733396238;0.6234847132512157;-0.13241213487789324;1.0;0.06365636171105701
58:52.9;-0.7694806012496002;0.6239919005567589;-0.13136428307271825;1.0;0.0630745162233387
58:52.9;-0.7680122795650804;0.6245401063783815;-0.13051598265491968;1.0;0.06260257458860911
58:52.9;-0.7666557372298691;0.6251451136679685;-0.12989458337167975;1.003;0.06225471829717189
58:53.0;-0.7654126706964015;0.6258231309917494;-0.1295136004108699;1.002;0.062038692325826685
58:53.0;-0.7642948639590283;0.6265868252402725;-0.1293713115435516;1.001;0.06195554493242874
58:53.0;-0.7633290020766034;0.627440703139382;-0.12944926918543237;0.997;0.061998910106444545
58:53.0;-0.7625557953265735;0.6283767247409932;-0.1297114932771823;0.992;0.062154156269227455
58:53.0;-0.7620235991762526;0.6293716176582373;-0.1301056394387917;0.9890000000000001;0.06239814754491054
58:53.0;-0.761778599068786;0.6303874269531579;-0.13056718865878805;0.997;0.06270040749774942
58:53.0;-0.7618546023398581;0.6313758499618017;-0.13102644256232499;0.997;0.06302589353140078
58:53.0;-0.7622649951894869;0.6322850758356204;-0.13141660689793017;0.997;0.06333870173647518
58:53.0;-0.7629982199081866;0.6330667582989721;-0.1316808208862409;0.997;0.06360563016841234
58:53.0;-0.7640172530911472;0.6336814775655153;-0.13177684221925012;1.002;0.06379891239352925
58:53.1;-0.7652630485966994;0.6341024378116197;-0.13167915560987567;1.003;0.06389799034069893
58:53.1;-0.7666612062987216;0.6343177187738755;-0.13137886651574474;1.008;0.06389043451433497
58:53.1;-0.7681303111073963;0.6343311932831507;-0.13088210493658095;1.008;0.06377217695252291
58:53.1;-0.7695900362099146;0.6341619273023497;-0.1302078280881498;1.008;0.06354724047447981
58:53.1;-0.7709675056398617;0.6338419197067582;-0.12938551210922775;1.0070000000000001;0.06322701536087492
58:53.1;-0.7722013359219959;0.6334124778076866;-0.12845248163284012;1.006;0.06282892978257427
58:53.1;-0.7732436878774913;0.6329200125609366;-0.12745039146119225;1.0070000000000001;0.0623744006035462
58:53.1;-0.7740610742781193;0.6324121288421598;-0.12642102012022866;1.0070000000000001;0.061886327223548476
58:53.1;-0.7746345497291458;0.6319345111618354;-0.12540240511691292;1.0070000000000001;0.06138677285998016
58:53.1;-0.7749596159586034;0.6315285216239733;-0.12442645375787041;1.012;0.06089543882257304
58:53.2;-0.7750459593669413;0.6312289206576419;-0.1235183281656761;1.003;0.060429047626920925
58:53.2;-0.7749169811085105;0.6310611483769815;-0.12269699407870197;1.0090000000000001;0.06000128404377301
58:53.2;-0.7746088397108897;0.6310384294527628;-0.12197615601134794;1.011;0.059622914238360025
58:53.2;-0.7741681796227605;0.6311596646515223;-0.12136521255545764;1.0090000000000001;0.05930192268537617
58:53.2;-0.773647211012873;0.6314086911177518;-0.12087009138588208;1.006;0.059043537576388715
58:53.2;-0.7730953745320099;0.6317547927543888;-0.12049362184060676;0.9990000000000001;0.05884989319224691
58:53.2;-0.7725487308732791;0.6321542710973508;-0.12023510075316535;0.9990000000000001;0.058719213732372384
58:53.2;-0.7720201835251239;0.6325530842958462;-0.1200892953235902;0.9990000000000001;0.05864485660031671
58:53.2;-0.7714940439620535;0.6328906186801523;-0.12004567013935462;0.9990000000000001;0.058614860555211735
58:53.2;-0.7709270478404172;0.6331047037033661;-0.12008852022540668;1.001;0.05861250955786461
58:53.3;-0.7702560500297508;0.6331378966956185;-0.12019829687221165;1.005;0.05861810053257924
58:53.3;-0.7694112672722321;0.6329445590004115;-0.12035416523504354;1.008;0.05861183761405461
58:53.3;-0.7683329190028301;0.6324975557620974;-0.12053752272788432;1.011;0.058577462411380406
58:53.3;-0.7669882022965057;0.6317931430284265;-0.1207356741788442;1.011;0.05850583787845667
58:53.3;-0.7653850848175647;0.6308528642305482;-0.12094448177123632;1.01;0.058397483412701214
58:53.3;-0.7635799570396669;0.6297217493616519;-0.12116899771312649;0.996;0.05826325301680814
58:53.3;-0.7616779504836748;0.6284628946819325;-0.121421803226805;0.996;0.058122957317183754
58:53.3;-0.7598269182668497;0.6271495582818927;-0.121719599849252;0.996;0.058002446457326114
58:53.3;-0.7582070582972802;0.6258562955570974;-0.12207903072453652;0.992;0.05792999895795806
58:53.3;-0.7570174774468893;0.6246500003705652;-0.12251255169079274;0.988;0.05793262885721593
58:53.4;-0.7564601548579745;0.623581158436346;-0.12302477536731214;0.987;0.05803254575534552
58:53.4;-0.7567217731378859;0.622675965487036;-0.12360954962571703;0.983;0.058243887853381006
58:53.4;-0.757954259546138;0.6219305277613398;-0.12424816402578161;0.981;0.05856994994394718
58:53.4;-0.7602553641533021;0.621308341132139;-0.12490929144589424;0.981;0.05900127843478288
58:53.4;-0.7636512925158258;0.6207417411147524;-0.12555122574616276;0.983;0.059515076783946075
58:53.4;-0.7680838454783495;0.6201375062012884;-0.12612635854600338;0.986;0.060076204460976904
58:53.4;-0.7734042347424133;0.6193864250753278;-0.12658700103976153;0.996;0.06063974127544529
58:53.4;-0.7793748129829767;0.6183761706435746;-0.12689136479690996;0.996;0.06115488877841702
58:53.4;-0.7856789957577075;0.6170061902125511;-0.12700885841649454;1.0;0.06156993237958427
58:53.4;-0.7919394733513094;0.615202934001338;-0.12692432966947997;1.008;0.061837976070830435
58:53.5;-0.7977450462705443;0.6129338544039147;-0.12664117517278609;1.016;0.06192309538508645
58:53.5;-0.8026856373022524;0.6102187861520681;-0.1261832833323154;1.023;0.061806320477896866
58:53.5;-0.8063931019690621;0.6071370997890088;-0.12559558601791962;1.034;0.061490489807303816
58:53.5;-0.8085835807916776;0.6038284944035591;-0.12494284059302699;1.038;0.061002817932870844
58:53.5;-0.8090958844732645;0.6004850467520476;-0.12430640293096133;1.036;0.06039426337972142
58:53.5;-0.8079199623345794;0.5973331967476895;-0.12377888812783708;1.021;0.05973537129571062
58:53.5;-0.8052104149183381;0.5946072993025547;-0.12345656207935388;1.021;0.05910902540686071
58:53.5;-0.8012819166522887;0.5925196295220838;-0.1234295526757591;1.021;0.058601298506106
58:53.5;-0.7965849242634;0.5912324481038621;-0.12377053957464917;1.004;0.058291821752114746
58:53.5;-0.7916612984141514;0.590835811422151;-0.12452302067510929;0.985;0.05824462751275787
58:53.6;-0.787082516961108;0.5913332402709535;-0.12569085420869427;0.9690000000000001;0.05850004982012445
58:53.6;-0.7833782571484618;0.59263732745166;-0.12723158309300361;0.961;0.05906843256165306
58:53.6;-0.7809673516596896;0.5945769217485057;-0.12905597681261916;0.961;0.059926518709963475
58:53.6;-0.7801038826495467;0.5969154577364281;-0.13103490688988856;0.965;0.06101719927640573
58:53.6;-0.7808483968038883;0.5993775183059789;-0.13301300983370598;0.9740000000000001;0.06225314447625129
58:53.6;-0.7830689229123371;0.6016794322755782;-0.13482709681624647;1.0090000000000001;0.06352465831818391
58:53.6;-0.786469450149205;0.6035595944705399;-0.13632601728011198;1.0090000000000001;0.064711395073796
58:53.6;-0.7906369581267999;0.6048044562186677;-0.1373882667431854;1.0090000000000001;0.06569642519169985
58:53.6;-0.795096255623345;0.6052670775707254;-0.13793456131204881;1.0170000000000001;0.066380398930145
58:53.6;-0.7993655946394708;0.6048770146879395;-0.13793434094444912;1.025;0.06669371935812503
58:53.7;-0.8030097695700783;0.6036420118304558;-0.137406584380671;1.031;0.06660515311954425
58:53.7;-0.8056872744047304;0.6016426384600458;-0.1364159224819433;1.032;0.06612568371065089
58:53.7;-0.8071865123190174;0.5990210924267846;-0.1350650579385508;1.035;0.06530689269226841
58:53.7;-0.8074460892073891;0.5959654115122308;-0.1334842685873627;1.0290000000000001;0.06423395698845015
58:53.7;-0.8065558041499383;0.5926903353387983;-0.13181858477077743;1.025;0.06301427022159056
58:53.7;-0.804737437246401;0.5894161439710619;-0.1302133139326359;0.991;0.061763461013910045
58:53.7;-0.8023082820156197;0.5863474542388227;-0.1287990430263689;0.991;0.060591116534823256
58:53.7;-0.799634735068512;0.5836550160360453;-0.12767790560934972;0.991;0.05958866054877744
58:53.7;-0.797084709182453;0.5814634772978524;-0.12691301376490766;0.983;0.05882109112961281
58:53.7;-0.7949850035673257;0.5798461382914679;-0.12652216403711225;0.978;0.05832279344992107
58:53.8;-0.7935868997505208;0.5788255523536454;-0.1264760889203605;0.976;0.058096585996381116
58:53.8;-0.7930427784005589;0.5783780671424966;-0.12670133094393957;0.977;0.05811518267587973
58:53.8;-0.7933963997217738;0.5784407692443664;-0.12708778063709203;0.981;0.05832475403454129
58:53.8;-0.7945878533108702;0.5789199422670177;-0.12750039871698712;0.9840000000000001;0.05865053456692453
58:53.8;-0.7964719830183045;0.5797006665335808;-0.1277938165084446;0.993;0.05900436536638377
58:53.8;-0.7988471765414958;0.5806573493096198;-0.12782816375440717;1.01;0.05929392259964923
58:53.8;-0.8014894307176489;0.5816645742727892;-0.12748472861561533;1.01;0.05943312659508427
58:53.8;-0.8041850830159337;0.5826069926050779;-0.12668004886579493;1.01;0.05935262455657191
58:53.8;-0.8067563312262447;0.583386903233654;-0.1253766452010077;1.016;0.05900865318705707
58:53.8;-0.8090765443787398;0.5839289226010416;-0.12358870977660424;1.014;0.05838864489558943
58:53.9;-0.8110749413615247;0.5841819915130126;-0.12138181494189083;1.0090000000000001;0.05751257010550179
58:53.9;-0.8127316402660173;0.5841194818602437;-0.11886664627528512;1.006;0.056429846436100155
58:53.9;-0.8140655101390891;0.5837384331106458;-0.1161877488469047;1.006;0.055212572240089006
58:53.9;-0.815118610667901;0.5830587064552641;-0.11350906956606095;1.004;0.05394654773153311
58:53.9;-0.8159413202678812;0.5821218173990631;-0.11099831301352148;1.006;0.05272167283104298
58:53.9;-0.8165814709937114;0.5809880347417528;-0.10881197721571406;1.0070000000000001;0.0516230204468162
58:53.9;-0.817078985023815;0.5797304902295534;-0.10708279693738751;1.0070000000000001;0.05072357897523069
58:53.9;-0.8174648900713701;0.5784270228610815;-0.10591102588607754;1.0070000000000001;0.05007937010510336
58:53.9;-0.8177619017625916;0.5771522339433458;-0.10536017888207022;1.0070000000000001;0.04972717113234776
58:53.9;-0.8179843366429016;0.5759717129017866;-0.10545684081167157;1.004;0.04968449722714572
58:54.0;-0.8181368315023066;0.574938735200575;-0.10619348551561791;1.003;0.04995113828051783
58:54.0;-0.8182125901498671;0.5740929985984232;-0.1075329952241189;1.001;0.0505114866828519
58:54.0;-0.8181924432365597;0.5734610818345313;-0.10941369465693447;1.002;0.051337072240911455
58:54.0;-0.8180461012042094;0.5730582121487892;-0.11175432238693601;1.004;0.05238908932990427
58:54.0;-0.8177364992903284;0.5728904602814634;-0.11445915775876425;1.006;0.05362107531378875
58:54.0;-0.8172270658143668;0.5729562628733122;-0.11742376946645199;1.01;0.05498196162013907
58:54.0;-0.8164904604883311;0.5732466017564379;-0.12054113754268665;1.01;0.05641932545446145
58:54.0;-0.8155164232421757;0.5737439536554295;-0.1237069201110379;1.01;0.05788217311917669
58:54.0;-0.8143163526356403;0.5744206854164398;-0.1268227387243582;1.005;0.05932262423100115
58:54.0;-0.8129232312828462;0.5752376954690084;-0.12979758557272136;1.004;0.0606964773387463
58:54.1;-0.8113871383662477;0.5761439248896068;-0.13254831402594788;1.001;0.06196312522819022
58:54.1;-0.8097680498221261;0.5770770447656861;-0.13500001840274947;0.9990000000000001;0.06308531327307663
58:54.1;-0.8081282492807231;0.5779654595073502;-0.13708671978502046;0.9990000000000001;0.06402912367491603
58:54.1;-0.8065263305989281;0.5787318791767271;-0.1387526019245496;1.001;0.06476451120498739
58:54.1;-0.8050137911984702;0.5792986396305645;-0.13995391969571297;1.001;0.06526658593201286
58:54.1;-0.8036341029328767;0.5795944107439202;-0.14066154682613521;1.002;0.06551759330221506
58:54.1;-0.8024234543991084;0.5795613992620083;-0.14086388739017897;1.002;0.06550926639716662
58:54.1;-0.8014122852837916;0.5791619717858237;-0.14056960677081362;1.002;0.065245034279851
58:54.1;-0.8006268937609461;0.5783836912705043;-0.13980957848747763;1.002;0.06474155693828874
58:54.1;-0.8000903907511886;0.5772419641627974;-0.1386375636552582;1.001;0.06402916937945378
58:54.2;-0.7998222047617939;0.5757797278390822;-0.13712915984244373;0.9990000000000001;0.06315091423163932
58:54.2;-0.7998355980191845;0.574063893018249;-0.13537851299654105;0.9890000000000001;0.06215995631088831
58:54.2;-0.8001335185650716;0.5721788718384009;-0.1334925648038529;0.991;0.061115498467611516
58:54.2;-0.8007042631237116;0.570218336912262;-0.13158327611348286;0.986;0.06007779920180185
58:54.2;-0.8015189547651773;0.5682766343351042;-0.12975883672873234;0.986;0.0591031380854895
58:54.2;-0.802532310992702;0.566440857055273;-0.12811502293593238;0.99;0.05823943546855152
58:54.2;-0.8036868467115167;0.5647842567775261;-0.12672783772971483;0.99;0.057522992068455105
58:54.2;-0.8049190757912191;0.5633617337128308;-0.12564845581967682;0.99;0.05697662492351223
58:54.2;-0.8061656143187039;0.5622079404721266;-0.1249010004207524;0.99;0.05660921886563357
58:54.2;-0.8073680002417789;0.5613378357686855;-0.12448295686347303;0.99;0.056416448582371714
58:54.3;-0.8084763537694833;0.560749034823668;-0.12436773494838038;0.991;0.056382403044224726
58:54.3;-0.8094524155212023;0.5604254024282711;-0.12450903389552317;0.995;0.056481991232066694
58:54.3;-0.8102720981071672;0.5603414820366139;-0.12484642612945195;0.997;0.05668390653692471
58:54.3;-0.8109270480100907;0.5604672335523746;-0.12531087284372955;0.996;0.05695354599929519
58:54.3;-0.8114243231629322;0.5607724976472295;-0.12582884858702809;0.9990000000000001;0.05725520191173799
58:54.3;-0.8117835240616097;0.56123066946173;-0.12632479590590498;0.9940000000000001;0.05755330044769849
58:54.3;-0.8120315081946424;0.5618210393409329;-0.12672260819314912;0.9940000000000001;0.05781293032315744
58:54.3;-0.8121957407872521;0.5625293789189266;-0.12694693860764678;0.9940000000000001;0.05800002073509764
58:54.3;-0.8122978320522529;0.5633468252150015;-0.12692482607229946;0.9940000000000001;0.05808148641597249
58:54.3;-0.8123485729797466;0.5642676008560902;-0.12658795191205052;0.993;0.05802563608388988
58:54.4;-0.812345203551383;0.5652863105049729;-0.12587579363880402;0.997;0.05780312398658573
58:54.4;-0.8122711346885633;0.5663955555605037;-0.12473993388515552;0.996;0.05738869729971346
58:54.4;-0.8120978257555767;0.5675845402923806;-0.1231496284666456;0.996;0.05676387191902909
58:54.4;-0.8117882336899358;0.5688392191791826;-0.12109802050386359;1.0;0.05592027879665616
58:54.4;-0.8113014222258549;0.5701441666021783;-0.11860715208227719;1.002;0.0548627787644455
58:54.4;-0.8105980341979977;0.5714855286519225;-0.11572945208896936;0.9990000000000001;0.05361109536783375
58:54.4;-0.8096461894355534;0.572853614086777;-0.1125449231106877;0.9990000000000001;0.05219931962846945
58:54.4;-0.808427413993359;0.574243812324534;-0.10915559130426582;0.9990000000000001;0.050673784823749686
58:54.4;-0.8069423406251222;0.5756556078759321;-0.105679217803727;0.998;0.04909020363375833
58:54.4;-0.8052157742145936;0.5770904698716346;-0.10224266651146907;0.998;0.04751036249262617
58:54.5;-0.8033005394827866;0.5785495626425603;-0.09897437031595982;0.996;0.045998257028508203
58:54.5;-0.8012796404132508;0.5800317414402855;-0.09599623531877727;0.996;0.044615942318164625
58:54.5;-0.7992663534897159;0.5815318942802891;-0.09341621643302922;0.998;0.0434197524523676
58:54.5;-0.7974015034778743;0.5830397452603998;-0.09132218935784503;0.996;0.04245721725608103
58:54.5;-0.7958465809692111;0.5845395234805898;-0.08977671649773494;0.993;0.041764467978771896
58:54.5;-0.7947715465459764;0.5860110739645369;-0.08881234427757492;0.99;0.04136389885091504
58:54.5;-0.7943377991803631;0.5874325804250737;-0.08842787274772619;0.99;0.041262205413032986
58:54.5;-0.7946789521149284;0.5887839850705137;-0.088586459528096;0.99;0.04144909417980631
58:54.5;-0.7958828689257903;0.5900495611212013;-0.08921616112728659;0.99;0.04189683153864788
58:54.5;-0.7979774451417824;0.5912188336346875;-0.0902131268346252;0.992;0.042560685322169785
58:54.6;-0.8009213332981665;0.5922862235033534;-0.09144748835434001;0.995;0.0433803722770766
58:54.6;-0.804600168341746;0.5932501958881438;-0.09277180920993808;1.0;0.04428269416670023
58:54.6;-0.8088285305443221;0.5941124270199944;-0.09403156781504747;1.003;0.04518546708709315
58:54.6;-0.8133577081681213;0.5948771824247574;-0.09507672778673647;1.004;0.046002679046845046
58:54.6;-0.8178896646209027;0.5955510134015453;-0.09577337693933755;1.005;0.046650734823148236
58:54.6;-0.8220980601112384;0.5961429830374564;-0.09601481238385319;1.032;0.0470557064022142
58:54.6;-0.8256559302067243;0.5966655206052822;-0.09573179697887618;1.032;0.047161353191582746
58:54.6;-0.8282663543301562;0.5971353766135727;-0.09490149123434391;1.032;0.04693705726697085
58:54.6;-0.8296905891427306;0.5975736128371227;-0.09355411720700686;1.032;0.04638424384663795
58:54.6;-0.8297701273407707;0.5980038576846723;-0.09177626308751576;1.034;0.045539908277413055
58:54.7;-0.8284420483936793;0.598448891009285;-0.08970976054380135;1.034;0.044476325278464394
58:54.7;-0.8257474201162857;0.5989263341077565;-0.08754510729971879;1.034;0.043296472433289095
58:54.7;-0.821831285645008;0.5994445906415925;-0.08550875528827602;1.026;0.04212523146580993
58:54.7;-0.8169325462678335;0.6000001321465207;-0.08384451278071915;1.02;0.04109719584134036
58:54.7;-0.811363525168248;0.6005768373667629;-0.08279076713426199;1.013;0.04034279333623868
58:54.7;-0.8054811631099251;0.601147622069312;-0.08255665548236962;0.996;0.03997501290652241
58:54.7;-0.7996540314446132;0.6016779931009294;-0.0833007296958508;0.996;0.04007883267511474
58:54.7;-0.794231087378426;0.6021304950768439;-0.08511482049414505;0.996;0.040704525109061834
58:54.7;-0.7895173469800045;0.6024688645862781;-0.0880146072575495;0.996;0.04186499460791631
58:54.7;-0.7857579365095572;0.6026612319777639;-0.0919375078737911;0.992;0.04353662495011303
58:54.8;-0.7831287126517129;0.6026821853593217;-0.09674753862117665;0.992;0.04566268307701648
58:54.8;-0.781731414803449;0.6025134150376478;-0.10224570185819805;0.991;0.04815810024184982
58:54.8;-0.7815924777051199;0.6021424821622868;-0.10818417548774474;0.992;0.050914722249154415
58:54.8;-0.7826648824149761;0.6015597344235707;-0.11428341164085186;0.991;0.05380687916185212
58:54.8;-0.7848320647263116;0.6007543722582017;-0.12025211604094442;0.99;0.05669782584320866
58:54.8;-0.7879132637493531;0.5997112560345492;-0.12580988520467176;0.998;0.05944774395500522
58:54.8;-0.7916705332929372;0.5984098299585153;-0.13071074352055223;0.998;0.061923355870145094
58:54.8;-0.795817843971222;0.596825994912645;-0.13476378864052974;0.998;0.06400805275158676
58:54.8;-0.800032653085416;0.5949372187456015;-0.13784692184396258;1.002;0.06561088932375651
58:54.8;-0.8039708559109123;0.5927304358893558;-0.1399122687501118;1.008;0.06667351214730133
58:54.9;-0.8072862096257445;0.5902114046902273;-0.14098491004677174;1.014;0.0671750135127179
58:54.9;-0.80965407933919;0.5874135744719385;-0.1411573218770382;1.0170000000000001;0.06713467592048933
58:54.9;-0.8107975283521373;0.5844044440243615;-0.14058085697979392;1.021;0.06661194462779071
58:54.9;-0.810512546649057;0.5812877139141716;-0.13945440843493764;1.024;0.06570268740009684
58:54.9;-0.8086886376325424;0.578199815075661;-0.13800994286337942;1.021;0.06453118878120294
58:54.9;-0.8053211106944356;0.5752998720510707;-0.1364948001470589;0.9890000000000001;0.06323819541240247
58:54.9;-0.8005134000315588;0.5727538737413133;-0.13515156207830603;0.9890000000000001;0.06196660614581736
58:54.9;-0.7944714157179935;0.5707164113592408;-0.1341977029481883;0.9890000000000001;0.0608476373417225
58:54.9;-0.7874937058985164;0.5693142325147408;-0.13380779148405114;0.9890000000000001;0.05999023111282908
58:54.9;-0.779958662578046;0.5686339837918606;-0.13409993734867073;0.977;0.059474797513888955
58:55.0;-0.7723065370762049;0.5687143397663166;-0.1351268006066867;0.9690000000000001;0.05935063690562359
58:55.0;-0.7650138873043321;0.5695423657325585;-0.13687104745046172;0.96;0.05963578559538034
58:55.0;-0.7585607817901507;0.571054481596504;-0.13924525487673925;0.951;0.060318194619859516
58:55.0;-0.7533939452719386;0.5731422563647096;-0.14209643616568232;0.945;0.06135751193302547
58:55.0;-0.749890784962867;0.5756626229638698;-0.14521557376703223;0.943;0.06268725371697059
58:55.0;-0.7483295071785366;0.5784516245130176;-0.14835237618706792;0.9570000000000001;0.06421765195909944
58:55.0;-0.7488689564435747;0.5813401278622308;-0.15123443198446257;0.9570000000000001;0.06583954320444807
58:55.0;-0.751539138619808;0.5841688778967007;-0.15358873770588502;0.9570000000000001;0.06742941464913317
58:55.0;-0.7562416164641521;0.5868002177398034;-0.15516357812786247;0.965;0.06885581538586089
58:55.0;-0.7627589404622017;0.589125549152802;-0.1557496949617506;0.9740000000000001;0.06998780436153329
58:55.1;-0.7707725984053989;0.5910693938349316;-0.1551998733609229;0.986;0.07070597266549075
58:55.1;-0.7798882166418742;0.5925911802719386;-0.1534451778491242;0.996;0.07091543756823532
58:55.1;-0.7896653312549895;0.5936852805510522;-0.1505054324604506;1.0070000000000001;0.07055885570736056
58:55.1;-0.7996482767156653;0.5943792412439817;-0.14649176070541842;1.015;0.06962670413048304
58:55.1;-0.8093950920092565;0.5947297837516838;-0.14159966484514297;1.02;0.06816202438056002
58:55.1;-0.8185021111753165;0.5948163577850346;-0.13609226729294147;1.031;0.06625766957750794
58:55.1;-0.8266222332265347;0.594732801431427;-0.13027564494141441;1.031;0.06404602873272004
58:55.1;-0.8334750187512452;0.5945781994059551;-0.12447101189352222;1.031;0.06168361092724559
58:55.1;-0.8388481129225389;0.594447901433084;-0.11898892669874434;1.032;0.05933400682311587
58:55.2;-0.842592177280003;0.5944253053870482;-0.11410787381369294;1.031;0.05715185427648248
58:55.2;-0.8446134082858553;0.5945749669272856;-0.11005711120229669;1.03;0.055269139268394836
58:55.2;-0.8448674727416574;0.5949378499104474;-0.10700389944182506;1.034;0.0537848292626888
58:55.2;-0.8433570866488768;0.5955296425889803;-0.10504617734160002;1.035;0.052758827460045336
58:55.2;-0.8401335406387869;0.5963426846107815;-0.10421164217699098;1.036;0.05221081338592981
58:55.2;-0.8353008207983754;0.5973512680351519;-0.1044635389702832;1.038;0.05212396358245787
58:55.2;-0.8290200965956108;0.5985192636875095;-0.10571276581271984;1.03;0.05245303561546901
58:55.2;-0.82151258269079;0.5998084293702713;-0.10783452669427955;1.03;0.05313548156877736
58:55.2;-0.813059661323285;0.6011855831543477;-0.11068583853338834;1.03;0.05410320983086133
58:55.2;-0.8039991073983883;0.6026273315179013;-0.11411977485708012;1.021;0.055292381712292726
58:55.3;-0.794715063793722;0.6041219729958025;-0.11799436391784375;1.011;0.05664966430213021
58:55.3;-0.7856195900401117;0.6056687515863927;-0.12217652861697814;0.9990000000000001;0.0581346756021029
58:55.3;-0.7771264685891032;0.6072745499177779;-0.1265426311558608;0.9890000000000001;0.05971915337901202
58:55.3;-0.7696212513401094;0.6089480629195759;-0.1309774945593179;0.981;0.06138383010861845
58:55.3;-0.7634327463239304;0.6106920874685848;-0.13537372774504414;0.977;0.06311425578462981
58:55.3;-0.7588100269667316;0.6124955870902531;-0.1396326627329179;0.977;0.06489676448308168
58:55.3;-0.7559068452419813;0.6143278230088384;-0.14366724636451433;0.98;0.06671542101685286
58:55.3;-0.754773522971921;0.6161363356792541;-0.14740588658641904;0.98;0.06855013360381565
58:55.3;-0.7553557439517551;0.617849186050768;-0.15079512907624545;0.98;0.07037547324186884
58:55.3;-0.7574997985217302;0.6193809793715165;-0.15379945627036282;0.985;0.07215977762963238
58:55.4;-0.7609639794328383;0.6206423299805456;-0.15639848828693256;0.991;0.07386488794861013
58:55.4;-0.7654357662487341;0.6215522719806799;-0.15858351441232285;1.002;0.07544742949953362
58:55.4;-0.7705542271927571;0.6220517355294839;-0.16035528514497022;1.008;0.07686223200316317
58:55.4;-0.7759365014342623;0.6221148052141753;-0.16172377350058414;1.018;0.07806755634889098
58:55.4;-0.7812062336146092;0.6217546590600629;-0.16270908271213638;1.0190000000000001;0.07903083037390579
58:55.4;-0.7860210329600618;0.6210226220552392;-0.16334180933614895;1.025;0.07973315511956075
58:55.4;-0.7900959848840727;0.620000486650604;-0.1636616865114702;1.022;0.08017129659111354
58:55.4;-0.7932206910020203;0.618787904964661;-0.16371462595992192;1.022;0.08035692893537628
58:55.4;-0.7952680327946969;0.6174881192753159;-0.1635490485457957;1.022;0.08031379606789073
58:55.4;-0.7961941506466286;0.6161954437366431;-0.16321230268699158;1.02;0.08007378497490741
58:55.5;-0.7960307729708;0.6149863632709828;-0.1627475442705818;1.016;0.07967274621461187
58:55.5;-0.7948722765165872;0.6139143480482386;-0.16219115129511258;1.014;0.07914660493506954
58:55.5;-0.7928604084282014;0.6130077501692192;-0.1615707125275215;1.01;0.07852814476947481
58:55.5;-0.790169415152518;0.6122702641318492;-0.1609037318962105;1.008;0.07784478083784009
58:55.5;-0.786993448589797;0.6116837736013706;-0.16019723331376343;1.0070000000000001;0.07711752595556788
58:55.5;-0.7835369512405571;0.6112135558991143;-0.15944839423080537;1.006;0.0763611763436287
58:55.5;-0.7800077200974989;0.6108156073160231;-0.1586462340946269;1.003;0.07558555285019718
58:55.5;-0.7766118199958456;0.6104453928487173;-0.157774289339804;1.003;0.07479749428428492
58:55.5;-0.7735494576088843;0.6100668347850422;-0.1568140946200629;1.003;0.07400321657218405
58:55.5;-0.7710108053009551;0.609660143069698;-0.1557490742533718;1.001;0.07321056223652884
58:55.6;-0.7691703733597772;0.6092272982400696;-0.15456823383061424;0.998;0.07243061076020375
58:55.6;-0.7681786214383135;0.60879436427605;-0.153269064675417;0.995;0.07167824231346971
58:55.6;-0.768150537713713;0.6084101276930111;-0.15185933510083233;0.992;0.07097154632380787
58:55.6;-0.7691522955027468;0.6081409607823544;-0.15035769469782692;0.987;0.07033026516995587
58:55.6;-0.7711882587883849;0.6080624547709377;-0.14879306376589171;0.98;0.0697736244959327
58:55.6;-0.7741916710997933;0.6082491567570465;-0.1472027868135219;0.982;0.06931800297457102
58:55.6;-0.7780228355768428;0.6087641355330407;-0.14562985419008823;1.005;0.06897501719513514
58:55.6;-0.7824765870557955;0.6096496301840134;-0.14412005414442175;1.005;0.06875053513367486
58:55.6;-0.7872963977946177;0.6109191739746572;-0.1427201801139386;1.005;0.06864476227699064
58:55.6;-0.7921899786289495;0.6125512865313122;-0.14147802744626595;1.005;0.06865320183267168
58:55.7;-0.7968436747335567;0.6144852749318681;-0.1404440788181368;1.01;0.06876826125450893
58:55.7;-0.8009367075305002;0.6166203303538961;-0.13967416358416784;1.016;0.06898141791910264
58:55.7;-0.8041570987707559;0.6188193810101109;-0.13923231685006665;1.021;0.06928589910439528
58:55.7;-0.8062196971842243;0.6209186324926861;-0.13919316800370848;1.026;0.06967965891981116
58:55.7;-0.8068856477567466;0.6227423721139731;-0.13964314559913643;1.036;0.07016815065216978
58:55.7;-0.8059820825816106;0.6241210332406877;-0.14067958801234454;1.044;0.07076610523100636
58:55.7;-0.8034198828291756;0.6249094749802665;-0.14240638065221398;1.033;0.07149721637687176
58:55.7;-0.799206805047633;0.6250025220052217;-0.14492454769669869;1.033;0.07239072007149211
58:55.7;-0.7934541887516839;0.624346050969929;-0.14831735958688874;1.033;0.07347493518953019
58:55.7;-0.7863766212963229;0.6229432848218508;-0.1526315536243968;1.023;0.07476931934111594
58:55.8;-0.7782840028293438;0.6208563965548421;-0.15785776076133345;1.01;0.07627728066572095
58:55.8;-0.7695658698378061;0.6182033459954185;-0.16391383493444103;1.001;0.0779817112199356
58:55.8;-0.7606695357614682;0.6151500785856598;-0.1706345967553243;0.992;0.079844351472783
58:55.8;-0.7520747719439379;0.6118988440280292;-0.1777702870695345;0.986;0.08180876323673904
58:55.8;-0.7442671001975295;0.6086736455921059;-0.18499454561695192;0.983;0.08380544637519477
58:55.8;-0.7377100812715752;0.6057034850719248;-0.19192213952902026;0.976;0.08575725423019447
58:55.8;-0.7328157610889493;0.6032039317962271;-0.1981361138059065;0.956;0.08758356236331719
58:55.8;-0.7299133727095607;0.6013584105460074;-0.20322177776572184;0.956;0.08920207479844704
58:55.8;-0.7292194000406456;0.6003019083597462;-0.2068019826656164;0.956;0.09052793962961704
58:55.8;-0.7308139319125221;0.6001099360475672;-0.20856793182926786;0.956;0.09147136712923445
58:55.9;-0.7346269429802614;0.6007941846598763;-0.20830297771597298;0.9570000000000001;0.09193651793138442
58:55.9;-0.7404362105673584;0.6023048604335758;-0.2058998100058697;0.965;0.09182479409973086
58:55.9;-0.7478780776939812;0.6045390557578474;-0.20137152136188904;0.978;0.09104439568712075
58:55.9;-0.7564717015611387;0.6073540590433503;-0.19485571458345796;0.991;0.08952570952608754
58:55.9;-0.7656553450687174;0.61058375496605;-0.18661016526102975;1.005;0.08723963935745623
58:55.9;-0.7748307274359418;0.6140557839954831;-0.17699877295645827;1.013;0.08421412048033053
58:55.9;-0.7834099806967307;0.6176073678194234;-0.16646747244260707;1.0270000000000001;0.0805435845948258
58:55.9;-0.7908594910810164;0.6210982317722998;-0.15551238554612246;1.0270000000000001;0.07638790639479837
58:55.9;-0.796735597846535;0.6244194963568567;-0.14464605286582768;1.0270000000000001;0.07196101218423484
58:55.9;-0.8007093535940109;0.6274981696403492;-0.1343677190096991;1.033;0.06751220769121875
58:56.0;-0.8025807686676821;0.6302979073881663;-0.1251388887913411;1.035;0.06330338135066853
58:56.0;-0.8022846779394889;0.6328170365242998;-0.11736126903637248;1.036;0.05958424732153865
58:56.0;-0.7998896632403311;0.6350842881492449;-0.11135488707944365;1.033;0.05656798836736325
58:56.0;-0.7955901518836926;0.6371522882906275;-0.10733708645912937;1.03;0.054410466382214535
58:56.0;-0.7896912847403507;0.6390891461918037;-0.10540493102050098;1.025;0.053196090391004154
58:56.0;-0.7825862834436593;0.6409690483151659;-0.10552404545234871;1.016;0.05293229477718048
58:56.0;-0.774726683070596;0.6428630342761158;-0.10752673989559067;1.012;0.05355295583967356
58:56.0;-0.7665871350662951;0.6448307978439213;-0.11112143405978332;0.9940000000000001;0.05492943548756694
58:56.0;-0.7586284512333565;0.6469137281025222;-0.1159136442794192;0.9940000000000001;0.056886609965606114
58:56.0;-0.7512640876341016;0.649129285440436;-0.12143651961964444;0.9890000000000001;0.05922064640685177
58:56.1;-0.7448347062119643;0.6514673257653698;-0.12718754072573668;0.991;0.06171590663551257
58:56.1;-0.739592932422313;0.6538891796505066;-0.13266806206617768;0.991;0.06415984240204527
58:56.1;-0.7356980223439036;0.6563296647620497;-0.13742252163196758;0.995;0.06635589876242565
58:56.1;-0.7332188066713576;0.6587015232883051;-0.1410736335701914;0.996;0.06813466360304159
58:56.1;-0.7321425626748769;0.6609016359163874;-0.14334966939472776;0.997;0.06936320909232663
58:56.1;-0.7323875114673518;0.6628184768397183;-0.144100788948623;0.998;0.06995228335692034
58:56.1;-0.7338174072416165;0.664340335237547;-0.143303218579196;1.006;0.06986096425574431
58:56.1;-0.7362570403430455;0.6653638541460877;-0.14105246877639094;1.006;0.06909861724505291
58:56.1;-0.7395070017083045;0.6658024355182167;-0.13754871459149695;1.006;0.06772425027503239
58:56.1;-0.7433561028888738;0.665594077957255;-0.13307748607658734;1.01;0.0658432028973045
58:56.2;-0.7475911314160884;0.6647081489477432;-0.12798709470586003;1.012;0.0636006163663196
58:56.2;-0.7520047778301928;0.6631501787277183;-0.12266298828233199;1.015;0.061171063564969846
58:56.2;-0.7564024795431961;0.6609633695174068;-0.11749971713066427;1.014;0.058744492540097906
58:56.2;-0.7606082474135425;0.6582258979301229;-0.11287238036580241;1.013;0.05650978823778169
58:56.2;-0.7644692888212273;0.6550441105126154;-0.10911018623795198;1.012;0.05463813746110905
58:56.2;-0.7678595702820854;0.6515425235250467;-0.10647487713931804;1.011;0.05326865297190627
58:56.2;-0.7706828070500316;0.6478518707116929;-0.10514620400259567;1.01;0.05249826926629032
58:56.2;-0.7728750863967417;0.6440968755571278;-0.10521539109868874;1.01;0.05237689804966444
58:56.2;-0.7744065781685981;0.6403860374747342;-0.10668605275846745;1.01;0.052907657666388656
58:56.2;-0.7752815060451311;0.636805352533425;-0.1094812257773352;1.011;0.054051254800482014
58:56.3;-0.775535982845978;0.6334162183511551;-0.11345532856650069;1.008;0.05573346311844313
58:56.3;-0.7752336182028794;0.6302565066563778;-0.11840991945702709;1.0070000000000001;0.05785461680219743
58:56.3;-0.7744587987652324;0.6273439004765298;-0.12411140860919259;1.006;0.060299776539384654
58:56.3;-0.7733078818254432;0.6246808637620371;-0.13030821396862247;1.003;0.06294807174216704
58:56.3;-0.7718792747018268;0.6222601176712924;-0.13674534199474703;0.9990000000000001;0.06568011259051955
58:56.3;-0.7702639456422485;0.6200691045088894;-0.14317591948143554;0.996;0.06838323523938843
58:56.3;-0.7685380704015825;0.6180925753271208;-0.14937050516258035;0.993;0.07095512380656566
58:56.3;-0.7667592960012894;0.6163137195376175;-0.15512480052803887;0.993;0.07330643869572409
58:56.3;-0.7649675093465613;0.6147150845514835;-0.1602651542269678;0.993;0.07536261609597907
58:56.3;-0.7631900526114197;0.6132802911377384;-0.16465111357233167;0.995;0.07706485782442869
58:56.4;-0.7614502193418337;0.611996502446621;-0.1681757172767887;0.997;0.07837070343900833
58:56.4;-0.7597769275873186;0.6108566668509371;-0.1707650961278855;0.995;0.07925460869870972
58:56.4;-0.7582130675592228;0.6098603756336842;-0.17237819558607273;0.9940000000000001;0.07970838545697387
58:56.4;-0.7568203790639078;0.6090126489628003;-0.17300649441858965;0.99;0.07974097416794358
58:56.4;-0.7556796120082717;0.608320697769983;-0.17267333649087727;0.988;0.07937716419294284
58:56.4;-0.754885620758043;0.6077894577891427;-0.17143236773148482;0.986;0.07865514558180697
58:56.4;-0.7545377188906671;0.6074172224088388;-0.16936451490073648;0.977;0.07762300989417077
58:56.4;-0.7547265008653045;0.6071926988083253;-0.16657357272858436;0.977;0.07633474184746798
58:56.4;-0.7555195426623501;0.607094274854369;-0.1631815740771042;0.977;0.07484675185966412
58:56.4;-0.756948979398978;0.6070916487196281;-0.15932534154647507;0.978;0.07321595382974244
58:56.5;-0.7590033148762829;0.6071495151671481;-0.15515436569417398;0.981;0.07149955277926583
58:56.5;-0.7616246659607275;0.6072326184889789;-0.15082876991385885;0.9840000000000001;0.06975579331060187
58:56.5;-0.7647117085745994;0.6073111648963128;-0.14651588361694654;0.986;0.06804460756369503
58:56.5;-0.7681278948714654;0.6073655220905858;-0.14238458234105972;0.991;0.06642730567763372
58:56.5;-0.7717139312937183;0.6073893684688418;-0.13859739677068342;0.9940000000000001;0.06496487384522248
58:56.5;-0.7753029730723293;0.6073908360913919;-0.1353011482038427;0.997;0.06371492361939232
58:56.5;-0.7787365330192432;0.6073915398930841;-0.13261737788543074;1.004;0.06272775211284232
58:56.5;-0.7818787159579039;0.6074236652861684;-0.1306340786362625;1.004;0.06204225661305919
58:56.5;-0.7846261939668665;0.6075255261233764;-0.1294001617821306;1.004;0.06168252622258485
58:56.5;-0.7869120335130849;0.6077361066562372;-0.12892347073784793;1.005;0.06165569740250685
58:56.6;-0.7887032669049489;0.6080890741756234;-0.12917206329200298;1.002;0.061951159150259026
58:56.6;-0.789993843478703;0.6086068830302672;-0.13007761683740726;1.0;0.06254075763099826
58:56.6;-0.7907954015105956;0.6092960280633439;-0.13153983570651476;1.0;0.06337964135398091
58:56.6;-0.7911283114937054;0.6101448620948172;-0.1334315398855337;1.002;0.06440778785379439
58:56.6;-0.7910149806191793;0.6111250418499151;-0.13560489610517792;1.006;0.06555263578269672
58:56.6;-0.7904766371237338;0.6121964849395694;-0.13789949462408102;1.01;0.06673329131008301
58:56.6;-0.7895338525029649;0.6133143701464868;-0.14015268325509309;1.013;0.0678664782318322
58:56.6;-0.788210071819443;0.614436048146571;-0.14221163009360632;1.013;0.06887375823771406
58:56.6;-0.786536693064289;0.6155260867615029;-0.14394531833020224;1.013;0.06968880155229668
58:56.6;-0.7845579882476367;0.6165587333792624;-0.1452543737527134;1.011;0.07026332874512592
58:56.7;-0.7823343482680095;0.6175182068222157;-0.14607764517799296;1.011;0.07057094359453867
58:56.7;-0.7799427791578761;0.6183978689267556;-0.14639538413399006;1.008;0.07060868274715311
58:56.7;-0.7774741487665225;0.619199243884676;-0.14622889564552644;1.006;0.07039625811251658
58:56.7;-0.7750273472736376;0.6199313127761338;-0.14563641918060463;1.003;0.0699730158482715
58:56.7;-0.7727012334324644;0.620609946948537;-0.14470535513193433;1.001;0.0693928845767358
58:56.7;-0.7705857029798648;0.6212570021087254;-0.143541532174573;1.0;0.06871789086229374
58:56.7;-0.7687531585830752;0.621898609062614;-0.14225674917091752;0.9940000000000001;0.0680110341626593
58:56.7;-0.7672514128250665;0.6225625420913123;-0.1409563650968977;0.9940000000000001;0.067329497854156
58:56.7;-0.766099081854726;0.6232749591303326;-0.13972904814249384;0.9940000000000001;0.06671927544683215
58:56.7;-0.7652844477754368;0.6240570719084445;-0.13864036851894712;0.9940000000000001;0.06621202963607205
58:56.8;-0.7647680702671457;0.6249223886667555;-0.13773070784679226;0.996;0.0658243548246726
58:56.8;-0.7644885589217337;0.6258750437738598;-0.1370167206545133;0.997;0.06555898091196213
58:56.8;-0.7643705123755304;0.6269093513189802;-0.1364949316414833;0.998;0.0654071458021177
58:56.8;-0.7643336312828944;0.6280103391527273;-0.13614610514750647;0.9990000000000001;0.0653514133766147
58:56.8;-0.7643020832291011;0.6291549903253444;-0.13593958473105303;1.001;0.06536851633376303
58:56.8;-0.7642131834993776;0.6303141207562263;-0.13583736186585355;1.003;0.06543209120049695
58:56.8;-0.7640244145888936;0.6314548360029328;-0.1357978461679232;1.004;0.06551525146072301
58:56.8;-0.7637179170926802;0.6325432811806703;-0.13577927406325999;1.004;0.06559288134663586
58:56.8;-0.763301904559334;0.6335472363060869;-0.13574255860308812;1.004;0.06564344692382368
58:56.8;-0.7628087983253439;0.6344382794131135;-0.13565330417393462;1.003;0.06565010859447361
58:56.9;-0.7622901258376941;0.6351936301536996;-0.13548290652963876;1.002;0.0656010715817193
58:56.9;-0.7618085592882903;0.6357979408464923;-0.13520903828218275;1.001;0.06548935130918795
58:56.9;-0.761427991524991;0.63624505004619;-0.13481594482859793;1.0;0.06531223031802663
58:56.9;-0.7612030651829796;0.6365393928013272;-0.13429472478044097;0.998;0.06507059343462775
58:56.9;-0.7611699250178657;0.6366966160642156;-0.13364360625532976;0.998;0.06476827763966968
58:56.9;-0.7613400586861055;0.6367429388479587;-0.1328683834938857;0.998;0.06441165678096648
58:56.9;-0.7616986982992702;0.6367129505801818;-0.13198318053926583;1.002;0.0640096550257476
58:56.9;-0.7622081049715431;0.6366459470188376;-0.1310112991172538;1.002;0.06357411077913115
58:56.9;-0.7628144769107857;0.6365813969969135;-0.12998550464240874;1.002;0.06312011684546971
58:56.9;-0.7634563692231445;0.6365543279333811;-0.12894706315316004;1.003;0.06266588150032719
58:57.0;-0.7640729224080584;0.6365912544750816;-0.1279432033576117;1.003;0.062231847935418944
58:57.0;-0.7646109043273269;0.6367071317733264;-0.12702335581743718;1.004;0.06183918879645239
58:57.0;-0.7650298591196262;0.6369038149378866;-0.1262350179696049;1.004;0.06150806752076443
58:57.0;-0.7653049047201198;0.6371703729574053;-0.12561997235847672;1.005;0.06125601832617735
58:57.0;-0.7654271240886067;0.6374852493344909;-0.12521125848745532;1.004;0.06109664589316325
58:57.0;-0.7654018599292025;0.6378198130354958;-0.1250312537295305;1.004;0.06103881661007179
58:57.0;-0.7652455783665835;0.6381424483590182;-0.12509119796668874;1.004;0.06108649609355921
58:57.0;-0.7649822336188273;0.6384222811677501;-0.12539214476245075;1.004;0.061239229156733514
58:57.0;-0.7646399723935796;0.6386320511473713;-0.1259267870284546;1.004;0.06149302121744216
58:57.0;-0.7642486059478412;0.6387501174818583;-0.12668130328378757;1.005;0.061841237400277645
58:57.1;-0.7638378098188977;0.6387617498868949;-0.12763656040672222;1.004;0.06227520218318039
58:57.1;-0.763435696106251;0.6386598376385514;-0.12876850819726096;1.004;0.06278439780435995
58:57.1;-0.7630674166852544;0.6384451722144109;-0.1300479611127481;1.004;0.06335633761041994
58:57.1;-0.7627537348647946;0.6381263888968915;-0.13144005100621833;1.003;0.0639762479970033
58:57.1;-0.7625097147470132;0.637719401817323;-0.1329037618998066;1.003;0.06462674537410841
58:57.1;-0.7623436452822149;0.637246074635771;-0.13439224464073365;1.003;0.06528781903508618
58:57.1;-0.7622561932495032;0.6367321165290833;-0.1358545764995795;1.001;0.06593742616796879
58:57.1;-0.7622398131115964;0.6362045346381283;-0.1372388938805967;1.001;0.06655268760504027
58:57.1;-0.7622786567981306;0.6356892098707031;-0.13849599605154278;1.001;0.06711132570763945
58:57.1;-0.7623493629183588;0.635209154485686;-0.13958255390129373;1.001;0.06759303238031528
58:57.2;-0.7624229969354568;0.634783663881769;-0.14046380174693085;1.002;0.06798078070970096
58:57.2;-0.7624681799991725;0.6344281433754848;-0.14111595541139818;1.002;0.06826220058521619
58:57.2;-0.7624552039590992;0.634154186902914;-0.14152816555627334;1.004;0.06843087207347588
58:57.2;-0.7623606630055537;0.6339694894486818;-0.1417033319026778;1.004;0.06848711917591957
58:57.2;-0.7621718050633124;0.6338772743516908;-0.14165733990323753;1.004;0.06843797375981057
58:57.2;-0.7618895468035782;0.6338751696469963;-0.14141701209387636;1.001;0.06829633708392888
58:57.2;-0.7615292425609945;0.6339539173775055;-0.1410175468449887;0.9990000000000001;0.06807966812756604
58:57.2;-0.7611190487604239;0.6340966573432231;-0.14050020720238068;1.0;0.06780863777526681
58:57.2;-0.7606966834775464;0.634279375892342;-0.1399107694143651;1.0;0.06750613722792632
58:57.2;-0.7603057848928114;0.6344725392653403;-0.13929886369094258;1.0;0.06719681652720196
58:57.3;-0.7599926660765952;0.6346435010831311;-0.13871787693833715;1.002;0.06690701765084586
58:57.3;-0.7598035296347923;0.6347591994210615;-0.1382247332417981;1.002;0.0666647217736032
58:57.3;-0.7597817029135568;0.6347886355868183;-0.13787878484764907;1.001;0.06649904693020917
58:57.3;-0.7599643593151554;0.6347045407878008;-0.1377392853682609;1.003;0.06643893405744045
58:57.3;-0.7603783300499148;0.6344837403124857;-0.13786137034140541;1.0;0.0665108992344381
58:57.3;-0.7610348695694817;0.6341061770130512;-0.1382908238559706;0.995;0.06673595869512129
58:57.3;-0.7619239258635443;0.633553233339328;-0.13905813097285427;0.9940000000000001;0.06712605293013964
58:57.3;-0.7630095252852116;0.6328065498859008;-0.14017268323885312;0.9940000000000001;0.06768061746204142
58:57.3;-0.7642283948647168;0.6318486022264018;-0.14161833514302347;0.9940000000000001;0.06838418627201642
58:57.3;-0.7654934979333399;0.6306657422736329;-0.14335140874831884;0.9990000000000001;0.06920583487235053
58:57.4;-0.7667032010793193;0.629253442231683;-0.14530181793044303;1.006;0.07010095337535521
58:57.4;-0.767755376887196;0.6276225271560073;-0.1473774138670944;1.008;0.07101536463337312
58:57.4;-0.7685639996389411;0.6258046936325514;-0.14947096144237343;1.011;0.07189119156760264
58:57.4;-0.7690747407405794;0.6238557232893335;-0.151468570273703;1.013;0.07267335959407353
58:57.4;-0.7692761918634867;0.6218553047459703;-0.15325826681042468;1.01;0.07331545683533114
58:57.4;-0.769204052306522;0.6199030272563417;-0.15473784909200247;1.008;0.07378394577246386
58:57.4;-0.7689368943801629;0.6181107203711778;-0.15582185945874205;0.995;0.07406028139592229
58:57.4;-0.7685842733290809;0.6165919709550051;-0.15644771813113506;0.995;0.07414102605928927
58:57.4;-0.768270023524759;0.6154504640155832;-0.15658063349525406;0.995;0.07403635640449127
58:57.4;-0.7681140870061058;0.6147690986125671;-0.15621658552397558;0.992;0.07376747202223327
58:57.5;-0.7682151974607742;0.614601120384162;-0.15538296274461685;0.99;0.07336343206139455
58:57.5;-0.7686357526067958;0.6149637098098528;-0.15413692097003143;0.9890000000000001;0.07285791669073315
58:57.5;-0.7693901470036967;0.6158344188390359;-0.15256174788262608;0.987;0.07228633963360592
58:57.5;-0.7704381175049284;0.6171511351929887;-0.15076155469204647;0.99;0.07168361537875131
58:57.5;-0.771684546223488;0.6188162709572325;-0.14885477141618214;0.992;0.0710827608900825
58:57.5;-0.7729865947263642;0.6207054879434274;-0.1469671263070206;0.997;0.07051438945366768
58:57.5;-0.7741680998409829;0.6226804813415215;-0.14522468385580753;1.013;0.07000691888886114
58:57.5;-0.7750397169715992;0.6246040812771372;-0.14374712950799862;1.013;0.06958697490602422
58:57.5;-0.7754217186463833;0.6263546326500739;-0.1426412404877305;1.013;0.06927927941598938
58:57.5;-0.775165924801759;0.6278365747244318;-0.14199441881260158;1.014;0.06910549146959334
58:57.6;-0.7741743403310778;0.6289858217660004;-0.14186816785204537;1.013;0.069081950113768
58:57.6;-0.7724132616017475;0.629770473774176;-0.14229177038024848;1.013;0.06921684500884223
58:57.6;-0.7699218115362825;0.6301882903419754;-0.14325717023704676;1.012;0.06950776444137646
58:57.6;-0.7668136880746063;0.6302624114085995;-0.14471638781989796;1.005;0.0699405393805499
58:57.6;-0.7632714028420813;0.6300363677330009;-0.1465823328078619;1.006;0.0704897936587386
58:57.6;-0.7595333089468058;0.629568772449677;-0.14873332183036655;1.002;0.0711210697347036
58:57.6;-0.7558743127557114;0.6289277847864506;-0.15102136839066277;0.9890000000000001;0.07179410224873077
58:57.6;-0.7525817141522773;0.6281856187356541;-0.15328365588377968;0.9890000000000001;0.0724665359343831
58:57.6;-0.749928885281692;0.6274135746840884;-0.1553554840088892;0.9890000000000001;0.07309717297284712
58:57.6;-0.748149997130789;0.6266779789274752;-0.15708280644977865;0.9840000000000001;0.07364813684921633
58:57.7;-0.747417784480468;0.6260370922425748;-0.1583335709986651;0.982;0.07408606014998612
58:57.7;-0.7478254415256197;0.6255387781227043;-0.15900780432725875;0.98;0.07438286707362608
58:57.7;-0.7493743092848217;0.6252187205666718;-0.159045941469239;0.98;0.07451665728133532
58:57.7;-0.7519695248550717;0.6250992113010952;-0.15843430049693058;0.9840000000000001;0.07447292335363034
58:57.7;-0.7554251969745134;0.625188724385324;-0.15720668192271622;0.988;0.07424609292027519
