Time;AccX;AccY;AccZ;Acc-old;Acc-trns
57:28.5;0.0688175306523371;-0.3461459340929855;-0.8404565419636606;0.912;0.02002043832519639
57:28.5;0.05195163397619841;-0.3318836068052056;-0.8726218525297406;0.993;0.015045654934959523
57:28.5;0.03591584262392564;-0.31833790034827325;-0.9027199146828007;1.079;0.01032113433875209
57:28.5;0.021480986781386883;-0.3061588628659269;-0.9289606574593916;1.079;0.00610939753776963
57:28.5;0.00925438661222931;-0.2958585194285364;-0.9500457866569944;1.079;0.002601215028616513
57:28.5;-0.0003666445124028832;-0.2877663272142966;-0.9652895674239469;1.071;0.00010184571832575407
57:28.5;-0.007208236056830045;-0.28201134363452496;-0.9746349648193674;1.046;0.00198124218213309
57:28.5;-0.011305254548770308;-0.2785307502837927;-0.9785780670554162;1.01;0.0030814063417471146
57:28.5;-0.012866921012011761;-0.2771000977888032;-0.978026711948425;0.98;0.0034870809585651427
57:28.6;-0.012231499185572167;-0.2773785628071132;-0.9741256031722791;0.9620000000000001;0.0033049701586528543
57:28.6;-0.009817611585919884;-0.2789609768791005;-0.9680816018150289;0.961;0.0026513146274128917
57:28.6;-0.006077875958759622;-0.2814284766850534;-0.9610171439726073;0.96;0.0016438076895734662
57:28.6;-0.0014591223929893023;-0.2843912714355821;-0.9538681469297383;0.972;0.0003958187216157654
57:28.6;0.003627797506230235;-0.28751929163566303;-0.947330205846881;0.972;0.0009881239205167724
57:28.6;0.008827555764715165;-0.29055907077634086;-0.9418476686491865;0.972;0.0024157699503058122
57:28.6;0.013850512213385882;-0.29333772785818113;-0.9376360024042509;0.982;0.0038095004820965163
57:28.6;0.018476175514959385;-0.2957567198200326;-0.934727255867332;0.9940000000000001;0.005107773218378804
57:28.6;0.02255229621386296;-0.29777893431478275;-0.9330280887816205;0.9990000000000001;0.006265842250796349
57:28.6;0.025990552799876002;-0.2994127686772243;-0.9323788231815001;1.001;0.007255681909274596
57:28.7;0.02875896785386972;-0.30069611308240446;-0.9326025620479349;0.9990000000000001;0.00806487636188297
57:28.7;0.030871394334092604;-0.30168200016658486;-0.933536958540764;0.9890000000000001;0.00869435082286637
57:28.7;0.03237519894910543;-0.302426761133267;-0.93504652575873;0.98;0.009155158872465591
57:28.7;0.03333936369011895;-0.30298113884718164;-0.9370187970216503;0.975;0.00946501275382307
57:28.7;0.03384575749715986;-0.3033847003859335;-0.9393515865899763;0.978;0.009645529804063762
57:28.7;0.03398475335168048;-0.30366370743872345;-0.941939560691231;0.978;0.009720756169800072
57:28.7;0.03385303727842382;-0.303832229128955;-0.9446663727657386;0.987;0.009716501800352606
57:28.7;0.033549500396201;-0.3038956621916573;-0.9474053488917696;1.0;0.00965931636816682
57:28.7;0.03316661696231924;-0.30385491528155967;-0.9500282506507666;1.0070000000000001;0.009574232313425043
57:28.7;0.032778069525930355;-0.30370889095222015;-0.9524184931072922;1.008;0.009481317663574485
57:28.8;0.03242587103157135;-0.30345364141275954;-0.9544835973179782;1.0070000000000001;0.009391878679099472
57:28.8;0.032110896958765366;-0.3030787242118677;-0.9561626532411116;1.004;0.009305498939920599
57:28.8;0.03179004848252418;-0.30256324295673875;-0.9574273190127955;1.004;0.009209014823625683
57:28.8;0.0313818063170737;-0.3018743059266923;-0.9582774814462711;1.003;0.009078108520574946
57:28.8;0.030779793837481584;-0.30096930731119936;-0.9587339780242535;1.003;0.008881494160742342
57:28.8;0.029871535016743802;-0.29980180150349833;-0.9588307932634056;1.003;0.008586847533515327
57:28.8;0.028558365736846624;-0.29832976963591135;-0.9586085340992427;1.002;0.008167163218563263
57:28.8;0.026773282970914667;-0.29652476207558387;-0.9581102856857984;1.002;0.007606381377282301
57:28.8;0.02449496928561977;-0.2943802178333607;-0.9573803700686825;1.003;0.006903511300748722
57:28.8;0.021756617819134263;-0.29191710637096197;-0.9564659260940429;1.005;0.0060746384024702475
57:28.9;0.018647787095156503;-0.2891853326240557;-0.9554202885212383;1.006;0.005152262996528337
57:28.9;0.015307814438965749;-0.28626027019651323;-0.9543061549775056;0.996;0.004181787795893465
57:28.9;0.011911118960858844;-0.28323503388997945;-0.9531965686226828;0.993;0.0032157479649502713
57:28.9;0.008647244281158109;-0.2802102547736364;-0.9521732129466456;0.993;0.0023071599930318794
57:28.9;0.005700067087068;-0.27728382272051816;-0.9513228740210982;0.993;0.0015036004226142772
57:28.9;0.003230346382916834;-0.2745430131766976;-0.9507325890216447;0.993;0.0008431752886066121
57:28.9;0.001364040249925631;-0.2720604350119269;-0.9504828434525733;0.988;0.00035272549845351096
57:28.9;0.00018657887129349695;-0.2698937181353207;-0.9506381804809463;0.983;4.787077854719188e-05
57:28.9;-0.0002582177847409395;-0.26808772642631123;-0.9512361691253868;0.9790000000000001;6.58493417233222e-05
57:28.9;3.380654878113262e-05;-0.2666776211712607;-0.9522776830639011;0.98;8.58521184631336e-06
57:29.0;0.0010308058704677115;-0.26569099936169166;-0.9537223360631172;0.985;0.00026120150770185996
57:29.0;0.0026694522704243727;-0.26514775127851703;-0.9554917460031528;0.992;0.0006762963571095871
57:29.0;0.004860081818778321;-0.26505741755634366;-0.9574804500203191;0.998;0.0012334270204197942
57:29.0;0.007492794812198986;-0.2654152420057678;-0.9595713265424531;1.003;0.0019083013667039394
57:29.0;0.010444930969671726;-0.2661990614979668;-0.9616508414319466;1.003;0.0026738036390750106
57:29.0;0.013589761947706164;-0.2673688791738571;-0.9636200270151835;1.003;0.0035012935370500498
57:29.0;0.016805323128525052;-0.2688694971953477;-0.9653993864321173;1.003;0.004362098025622856
57:29.0;0.019981900127964556;-0.2706352504309172;-0.966928424178545;1.003;0.00522896186102935
57:29.0;0.023027072945716036;-0.27259548780008486;-0.9681619056848848;1.006;0.0060772260387321015
57:29.0;0.02586775876542584;-0.2746794271280546;-0.9690650549217664;1.0070000000000001;0.0068855378202650995
57:29.1;0.028449125365949783;-0.27681911547471194;-0.9696092312470851;1.006;0.0076359264620353305
57:29.1;0.030730838789818055;-0.278950007031716;-0.969768878312078;1.005;0.008313215405523464
57:29.1;0.032681752317526735;-0.28100993397112656;-0.969520303708578;1.005;0.008903974667623762
57:29.1;0.03427452394411716;-0.2829378725399223;-0.968842977420623;1.011;0.009395413763543902
57:29.1;0.03548159055024771;-0.2846733786204432;-0.9677236821056046;1.011;0.009774652010141155
57:29.1;0.03627339066128941;-0.2861566911688179;-0.9661626967705189;1.011;0.010028646523727354
57:29.1;0.03661909773791404;-0.28732933758505785;-0.9641801367015518;1.0090000000000001;0.010144853768277043
57:29.1;0.03648981414661693;-0.28813556007484364;-0.961820578246448;1.0070000000000001;0.010112594098132432
57:29.1;0.03586388220211435;-0.2885250388422622;-0.9591549915577922;1.005;0.009924979052161997
57:29.1;0.034733346186497205;-0.2884567764404026;-0.9562799067700165;1.003;0.00958103444186755
57:29.2;0.03310999876738468;-0.28790327865312193;-0.9533140564804103;1.001;0.009087444509107765
57:29.2;0.031029348422945566;-0.2868540532948388;-0.950392431319373;0.998;0.008459342637628499
57:29.2;0.02855147006839892;-0.28531780105403753;-0.94765722169925;0.992;0.007719845683408025
57:29.2;0.0257589412710942;-0.28332293685405446;-0.9452453861577215;0.976;0.006898494304608333
57:29.2;0.02275315375553409;-0.2809163513300388;-0.943274262204945;0.976;0.006029157167771382
57:29.2;0.019650268399285933;-0.27816087068285744;-0.941828840242847;0.976;0.005147975944367066
57:29.2;0.016576909960044427;-0.2751320550303333;-0.9409547753630096;0.976;0.004291543522159728
57:29.2;0.013664435769067;-0.27191436613021214;-0.9406590920648684;0.981;0.003495071900966144
57:29.2;0.011040459039024057;-0.26859629766257975;-0.9409175509328995;0.9840000000000001;0.0027902217668148883
57:29.2;0.008817476949914669;-0.2652645336092035;-0.9416854803052421;0.985;0.0022025683536914817
57:29.3;0.007080112540823956;-0.2619980226415055;-0.9429080323011371;0.983;0.0017490712852591417
57:29.3;0.00587369059045658;-0.25886325878894495;-0.9445265878568276;0.978;0.001436136324590876
57:29.3;0.005197188790831627;-0.25591178660796343;-0.946480246637464;0.977;0.0012588394264156154
57:29.3;0.005003041088644569;-0.2531802955964503;-0.9487037980887619;0.978;0.0012016959887012836
57:29.3;0.005204973028229629;-0.2506931278419185;-0.9511248200533072;0.983;0.0012410761428769835
57:29.3;0.00569294582685723;-0.24846658160893867;-0.9536621287637138;0.983;0.0013489615554379251
57:29.3;0.00635179321506075;-0.24651377013133408;-0.95622660336483;0.987;0.0014972639114342015
57:29.3;0.007078923514705685;-0.24484823062675876;-0.9587245753244616;0.99;0.0016617207764321198
57:29.3;0.0077974389596248035;-0.2434845655640842;-0.9610636430332794;0.991;0.001824633181995522
57:29.3;0.008462863130600145;-0.2424354164934943;-0.9631604964136496;0.993;0.001976114221256501
57:29.4;0.009063191181676318;-0.2417056397952151;-0.9649500810722008;0.997;0.0021138432147206417
57:29.4;0.009613460264458034;-0.24128577228749043;-0.9663951518376597;1.003;0.002241641674718935
57:29.4;0.010147286179588079;-0.24114712321924947;-0.9674944979805912;1.008;0.002367448269012425
57:29.4;0.01070782957790868;-0.24124024147853346;-0.9682870750453257;1.001;0.002501239853106785
57:29.4;0.01133954495537502;-0.2414974010412879;-0.9688493671274911;1.001;0.002653165542308644
57:29.4;0.012081172417632579;-0.2418384697747539;-0.969285256524604;1.001;0.0028319532225750633
57:29.4;0.012960381467603565;-0.24217880048219423;-0.9697099521577905;0.996;0.0030436573667287454
57:29.4;0.013990622891083056;-0.2424378924343736;-0.9702305938299447;0.991;0.0032908835550571995
57:29.4;0.01517046901949232;-0.24254781099717498;-0.9709267558030339;0.9890000000000001;0.003572587188242241
57:29.4;0.016485093603366415;-0.2424602605970774;-0.9718349397705327;0.993;0.003884404906039327
57:29.5;0.01790895808100731;-0.24215110188259859;-0.9729410662423283;0.997;0.004219328160206626
57:29.5;0.019408533379629382;-0.24162129913667224;-0.9741830515566124;1.001;0.00456844608126548
57:29.5;0.020944109164297973;-0.24089385985991874;-0.9754628781969757;1.003;0.004921509978212602
57:29.5;0.022470446471919123;-0.24000719628318776;-0.976665647703776;1.014;0.005267225088290734
57:29.5;0.023936937934253846;-0.23900628407459407;-0.9776820802069811;1.014;0.005593396014738343
57:29.5;0.02528847704706722;-0.23793375226580088;-0.9784302561015239;1.014;0.00588719746709103
57:29.5;0.026468177316003257;-0.23682307195038918;-0.97887252686985;1.018;0.006135842247981871
57:29.5;0.027422544996410905;-0.23569513675294249;-0.9790247585978703;1.018;0.006327789946432226
57:29.5;0.028108660725806894;-0.23455843908451027;-0.9789563640740995;1.013;0.006454380292272524
57:29.5;0.02850166542696453;-0.23341216213134497;-0.9787806193707426;1.006;0.006511470549937636
57:29.6;0.028600263184139912;-0.23225078664637824;-0.978636542945681;1.0;0.006500528277372881
57:29.6;0.028428516972827302;-0.23106868548837706;-0.9786659656421092;0.997;0.006428798054631299
57:29.6;0.028033481201146227;-0.22986381285061225;-0.9789908140165731;0.998;0.006308502142566326
57:29.6;0.027479514636405876;-0.22864019528111912;-0.9796951900022347;1.0;0.006155348063527617
57:29.6;0.0268410607105926;-0.22740897628910964;-0.9808149072320036;1.0070000000000001;0.005986794286672158
57:29.6;0.026195879870340378;-0.22618781079818398;-0.9823346213884947;1.0070000000000001;0.005820518017724538
57:29.6;0.02561987119238596;-0.22499894437124587;-0.9841906565030601;1.008;0.005673311898372726
57:29.6;0.02518336974969675;-0.22386678272767963;-0.9862771743939369;1.008;0.005560354516222933
57:29.6;0.024948166831882165;-0.22281559696271153;-0.9884544603166191;1.011;0.005494660870039981
57:29.6;0.024964439639970817;-0.2218676179423856;-0.9905593691141726;1.013;0.00548651098269749
57:29.7;0.025266927318746583;-0.2210414990961518;-0.9924182784757809;1.0170000000000001;0.005542695277958469
57:29.7;0.025870358214594;-0.22035079671968372;-0.9938624178153245;1.021;0.00566556642506611
57:29.7;0.026765180583783185;-0.21980196588390155;-0.9947446029230876;1.0270000000000001;0.00585212160196239
57:29.7;0.02791515983647256;-0.21939185229692554;-0.9949553094831892;1.028;0.006093463129817987
57:29.7;0.029258154672038433;-0.21910545483121094;-0.9944351579233791;1.022;0.006374947191864061
57:29.7;0.030710759422989543;-0.21891515368901468;-0.993181226199182;1.022;0.0066772076575677694
57:29.7;0.03217657062782625;-0.21878247804815038;-0.9912462545511355;1.0190000000000001;0.006978046379074522
57:29.7;0.033556957749656405;-0.21866286098423002;-0.9887314614694606;1.014;0.007254975678666615
57:29.7;0.034762861520210464;-0.21851268756197018;-0.985774489414219;1.008;0.0074880675230608665
57:29.7;0.03572593422983868;-0.2182968909788088;-0.9825344674090117;1.003;0.007662649119727849
57:29.8;0.03640709924216993;-0.2179953025172627;-0.9791765976251929;1.003;0.00777131008478034
57:29.8;0.036801061600033436;-0.21760670996331086;-0.9758584477420726;0.998;0.007814828574591889
57:29.8;0.036936466862981576;-0.2171501077973346;-0.9727191867936151;0.9940000000000001;0.007801944966699012
57:29.8;0.036872171384600395;-0.2166628811320343;-0.9698721359611436;0.993;0.0077481444750254255
57:29.8;0.0366900746325802;-0.2161963183722932;-0.967400606356476;0.99;0.007673672220907542
57:29.8;0.036485135613442805;-0.21580958160728228;-0.9653566682357114;0.99;0.007601065736096764
57:29.8;0.036353989382350155;-0.21556329040641015;-0.9637621060999417;0.985;0.0075526042142108245
57:29.8;0.03638397539468057;-0.21551352258844456;-0.9626108545526757;0.982;0.007548061488722296
57:29.8;0.03664375205798378;-0.21570702264872496;-0.9618728717042953;0.987;0.007602945836160932
57:29.8;0.03717601348209435;-0.2161782788445173;-0.9614998085269869;0.991;0.007727234175617686
57:29.9;0.03799305239597064;-0.21694820094173142;-0.9614320312884441;0.988;0.007924626943754428
57:29.9;0.03907617358742129;-0.21802327816373238;-0.9616054741956656;0.982;0.008192412707316082
57:29.9;0.04037915752752211;-0.219394635677486;-0.9619573015624546;0.9840000000000001;0.00852195140943443
57:29.9;0.041834770714898634;-0.22103763015126446;-0.9624310055093452;0.995;0.008899655884018304
57:29.9;0.04336277850798382;-0.22291265331656757;-0.9629818097410553;0.995;0.009308290038854257
57:29.9;0.044877743835411765;-0.22496675824678644;-0.9635814301585952;0.995;0.009728318647003091
57:29.9;0.04629500791531311;-0.22713541801462733;-0.9642198279029961;0.992;0.010138999022014917
57:29.9;0.04753442301503092;-0.22934447168272282;-0.9649025327145733;0.99;0.010519133068791793
57:29.9;0.048523193914309946;-0.23151270578278774;-0.9656443868881377;0.991;0.010847794031382708
57:29.9;0.049199799660295994;-0.23355517019239577;-0.9664620785325772;0.992;0.011105487768497905
57:30.0;0.04951953038442792;-0.2353872208473771;-0.9673677739305452;0.995;0.011275894772167666
57:30.0;0.04945995627297632;-0.2369296640246467;-0.9683650519705705;0.9990000000000001;0.011347815708881158
57:30.0;0.049023790597274845;-0.23811526608872194;-0.9694471227729091;0.998;0.011316659645574696
57:30.0;0.04823771688311686;-0.2388958950792594;-0.9705966692962071;1.002;0.011184954668022206
57:30.0;0.04714767438630448;-0.23924862986044113;-0.9717867356910244;1.002;0.010961770411161049
57:30.0;0.045812516911599176;-0.2391791893917127;-0.9729824324241386;1.002;0.010661358346152519
57:30.0;0.044298031218911245;-0.2387217807376634;-0.9741434155119196;1.005;0.010301473973860695
57:30.0;0.04267204103895869;-0.23793531605390472;-0.9752271007015937;1.006;0.009901661727554729
57:30.0;0.040999943915677343;-0.2368967429128613;-0.9761922909794031;1.0070000000000001;0.009481514771896715
57:30.0;0.03933984853803929;-0.23569286885891824;-0.9770024328616245;1.0090000000000001;0.00905888551965968
57:30.1;0.03773754963067516;-0.23441204195001233;-0.9776275924500386;1.006;0.008648226705780556
57:30.1;0.03622270931257799;-0.23313640711591804;-0.9780446783134615;1.003;0.008259423295290546
57:30.1;0.03480766421562789;-0.23193511878198247;-0.9782362808317671;1.001;0.007897418623664559
57:30.1;0.03348931399411713;-0.2308591552401567;-0.978189420714043;1.002;0.007562690285170858
57:30.1;0.03225356498767139;-0.2299383917411581;-0.977895830204366;1.006;0.007252400980359531
57:30.1;0.03108132410362266;-0.229180956451131;-0.9773545980153169;1.006;0.0069619387808181575
57:30.1;0.029954685623841182;-0.22857440459531597;-0.9765765723588727;1.004;0.00668649716349971
57:30.1;0.028861749189074398;-0.2280884183524125;-0.9755890258326619;1.006;0.006422332530487805
57:30.1;0.027799171899823803;-0.22767896870997878;-0.9744391604079891;1.0070000000000001;0.006167504904794179
57:30.1;0.026772886362398354;-0.22729357264851913;-0.9731953089164441;1.004;0.005922190270978041
57:30.2;0.0257981039364723;-0.22687693284612168;-0.9719447292077277;1.001;0.005688787343256506
57:30.2;0.024899254842748398;-0.22637660224341608;-0.9707872436859607;0.997;0.005471947833020414
57:30.2;0.024109739584225107;-0.22574892207802397;-0.9698250163598015;0.993;0.005278512899229859
57:30.2;0.02347099888768829;-0.2249653263519986;-0.9691500718007311;0.9890000000000001;0.005117268339172431
57:30.2;0.023030334894049286;-0.22401834905600349;-0.9688321240556742;0.992;0.004998415747008686
57:30.2;0.022837080004021067;-0.22292622167593903;-0.9689093153467682;0.992;0.004932701782550953
57:30.2;0.022937276690966676;-0.22173502771241232;-0.9693833490866341;0.9940000000000001;0.004930281467120777
57:30.2;0.023367706562051224;-0.22051764532931628;-0.9702189449671038;0.996;0.004999530100558087
57:30.2;0.024150527946634352;-0.21936902511305295;-0.9713465113205297;0.997;0.0051460750908644244
57:30.2;0.02528991300718414;-0.21839786932516092;-0.9726666720243329;0.995;0.005372293953937026
57:30.3;0.026771687923425637;-0.21771555793371555;-0.9740557037992316;0.993;0.005677393711662804
57:30.3;0.02856583875338985;-0.2174239248932283;-0.9753719858721915;0.993;0.006057934725994039
57:30.3;0.030630277031039415;-0.2176038113282913;-0.9764647506281184;0.995;0.0065083963495261785
57:30.3;0.03291344091757364;-0.21830600713560858;-0.9771866697670626;1.0090000000000001;0.0070212834848086105
57:30.3;0.035354040186963205;-0.21954535622758964;-0.9774102310743362;1.0090000000000001;0.007586477731800507
57:30.3;0.03787836568934103;-0.2212979445899299;-0.9770451599514203;1.0090000000000001;0.008189987717611641
57:30.3;0.040397565159299355;-0.22350108098881058;-0.9760526595622941;1.01;0.008812681352735996
57:30.3;0.04280786311225035;-0.2260562150923714;-0.9744531883316487;1.0070000000000001;0.009429767436065517
57:30.3;0.044995876423573486;-0.22883525383381517;-0.9723264939929976;1.002;0.01001169859640642
57:30.3;0.046849377805184035;-0.2316904867026121;-0.969804290358697;0.9990000000000001;0.010526794149941702
57:30.4;0.04827165932068365;-0.2344676226812016;-0.9670572402812284;0.997;0.010945290397657731
57:30.4;0.04919605164478148;-0.23702037479092455;-0.9642786294553979;0.996;0.011243938750971103
57:30.4;0.04959684438184881;-0.23922401124003262;-0.9616668712948514;0.993;0.011409942836851891
57:30.4;0.04949378100569502;-0.24098526649156438;-0.9594081414145035;0.987;0.011443121866781333
57:30.4;0.0489491809383523;-0.24224731000194305;-0.9576600176149164;0.98;0.01135574805228662
57:30.4;0.04805897636456955;-0.2429901296484364;-0.9565375869894012;0.98;0.011170309058035824
57:30.4;0.04694041515028953;-0.24322754534879223;-0.9561043381959012;0.982;0.01091603631890741
57:30.4;0.045719028343417484;-0.24300197014251668;-0.9563698679925963;0.985;0.010625091310779792
57:30.4;0.04451613303365975;-0.2423775997722104;-0.9572947364613343;0.99;0.010328935918346467
57:30.4;0.04343693825712882;-0.2414326014213649;-0.958800810051726;0.9940000000000001;0.010055033264636255
57:30.5;0.042559183092366046;-0.24025116276781144;-0.9607840965883917;0.996;0.009823914799307472
57:30.5;0.04192331614423612;-0.238916359535957;-0.9631267665021337;0.996;0.009646837642498084
57:30.5;0.041526735052733854;-0.23750443314984881;-0.9657059535180816;0.9940000000000001;0.009524548907668682
57:30.5;0.041324906986903845;-0.23608070434079526;-0.9683987724927561;0.9940000000000001;0.009447711157223457
57:30.5;0.04124038349829582;-0.23469715717344833;-0.9710848819302437;0.998;0.009399131317794827
57:30.5;0.04117790360748656;-0.23339140528062452;-0.9736487886421562;1.002;0.009357318660021192
57:30.5;0.04104175766936895;-0.23218649353351387;-0.9759834193821704;1.0090000000000001;0.009300479596087523
57:30.5;0.04075112170091208;-0.23109133396681325;-0.9779947449215534;1.011;0.009210002502580509
57:30.5;0.04024999322428812;-0.23010228969838964;-0.9796056570156477;1.008;0.009072731036092175
57:30.5;0.039510363521212136;-0.22920654354568884;-0.9807571557419037;1.006;0.00888177000782574
57:30.6;0.03852977474412338;-0.228387042574424;-0.9814065952258323;1.002;0.00863608489661587
57:30.6;0.037326254252172536;-0.2276277895370255;-0.9815250596405606;1.003;0.008339520550351599
57:30.6;0.035933743739846515;-0.2269179644034353;-0.9810970522848502;1.005;0.007999877120660316
57:30.6;0.03439955526815691;-0.22625386302936654;-0.9801247105518099;1.011;0.0076283422468430805
57:30.6;0.03278315286359283;-0.22563850949100103;-0.9786362450867039;1.011;0.007239111025181652
57:30.6;0.031154146454871433;-0.22507954810451933;-0.9766957428256899;1.012;0.006848747997560416
57:30.6;0.029587677067008076;-0.22458621419440578;-0.9744103595716787;1.0090000000000001;0.006474941618368243
57:30.6;0.028157048608812435;-0.2241659984568027;-0.9719314906863497;1.006;0.006134688612660346
57:30.6;0.026925378460969387;-0.22382175681801758;-0.9694478986980373;0.998;0.0058423637143240545
57:30.6;0.025939047858224304;-0.22355044584213052;-0.9671704650487587;0.991;0.005608317558126209
57:30.7;0.025225326188926537;-0.22334451340186073;-0.9653101956063078;0.985;0.005438497988838398
57:30.7;0.02479486966685607;-0.2231959736459865;-0.9640529199227796;0.982;0.0053351797988998965
57:30.7;0.024647519113985033;-0.22310198737750617;-0.9635350265758962;0.981;0.005298392873074732
57:30.7;0.024778269622236934;-0.2230698562127659;-0.9638243322801009;0.978;0.005327331814766999
57:30.7;0.02518053131723762;-0.2231190849387976;-0.9649092554800733;0.9790000000000001;0.005421108281028787
57:30.7;0.025845439918405495;-0.2232792390586275;-0.9666983779119215;0.983;0.005578574817186722
57:30.7;0.026757928167324217;-0.2235844634714115;-0.9690311669435524;0.9940000000000001;0.005797381106631338
57:30.7;0.027891867228421196;-0.22406692769299166;-0.9716987090633914;1.002;0.006072771976168601
57:30.7;0.02920710023047637;-0.22475104162387716;-0.9744709664754602;1.01;0.006396745295996623
57:30.7;0.030650074603677056;-0.22564919975329567;-0.9771252935932707;1.015;0.0067579595672847565
57:30.8;0.03215789407112698;-0.2267593537135268;-0.9794706254262158;1.018;0.00714240095676576
57:30.8;0.033664490335804896;-0.22806452920000342;-0.9813629812617295;1.014;0.007534587145120888
57:30.8;0.03510757902233174;-0.22953400907001034;-0.9827103244277169;1.01;0.007919056527776466
57:30.8;0.0364353644879985;-0.23112571296453355;-0.9834678239574657;1.006;0.008281929666835976
57:30.8;0.03761205441949422;-0.23278933278282443;-0.9836272064209471;1.006;0.008612330028890926
57:30.8;0.03862109397252911;-0.2344696882914205;-0.9832049646179473;1.006;0.00890338882765499
57:30.8;0.03946506648926632;-0.23610990022911252;-0.9822332740784516;1.008;0.00915254090844909
57:30.8;0.04016195315425844;-0.23765444186047488;-0.9807554151701232;1.0090000000000001;0.009360983415597665
57:30.8;0.040738661793144115;-0.23905211395592446;-0.9788255818786946;1.011;0.009532452694394334
57:30.8;0.04122368444205638;-0.24025838031962557;-0.9765116862774315;1.012;0.009671699511780938
57:30.9;0.04164088546441855;-0.2412364074862873;-0.973898933630031;1.01;0.009783104634255595
57:30.9;0.04200563896027867;-0.2419570505246743;-0.9710915601156687;1.006;0.009869747830270345
57:30.9;0.0423234124057;-0.24239894418540012;-0.9682105549964402;1.004;0.009933017781451172
57:30.9;0.042590282231495094;-0.2425497285984228;-0.965386463613445;0.991;0.009972694517460086
57:30.9;0.04279475956165389;-0.24240831654381953;-0.962748171810841;0.991;0.0099873623975307
57:30.9;0.04292015528063348;-0.24198701382191054;-0.9604102409743732;0.991;0.009974936212842424
57:30.9;0.042946640752616845;-0.24131212915177244;-0.9584616556356869;0.985;0.009933060805595821
57:30.9;0.04285261443072748;-0.2404224192161291;-0.9569576019531463;0.98;0.009859275058634466
57:30.9;0.04261575464878247;-0.2393657205850622;-0.9559148855547275;0.982;0.009751049552464232
57:30.9;0.04221457428978504;-0.23819485189341458;-0.9553115868010649;0.9840000000000001;0.009605939125493018
57:31.0;0.0416310287412374;-0.23696392771310143;-0.9550911988375572;0.986;0.009422024422706517
57:31.0;0.04085392204374718;-0.23572568182890866;-0.9551703369890778;0.9840000000000001;0.009198594690314902
57:31.0;0.03988206142733819;-0.23452966778253076;-0.9554484845749381;0.981;0.0089368128316785
57:31.0;0.0387259786823626;-0.2334206220440194;-0.9558189070468562;0.986;0.008640069604582707
57:31.0;0.037407811528076346;-0.2324363285389231;-0.9561807245204779;0.986;0.00831392864581519
57:31.0;0.035959981248390255;-0.2316052620051814;-0.9564518873254496;0.986;0.007965829513095345
57:31.0;0.034423567324061335;-0.23094514374163355;-0.9565818709209938;0.9940000000000001;0.007604783500837122
57:31.0;0.03284668174925385;-0.23046329938315838;-0.9565621543002406;0.997;0.00724113212769283
57:31.0;0.03128270555174763;-0.23015886079925466;-0.9564317201386782;0.996;0.0068863006116080495
57:31.0;0.029788497353895386;-0.23002624586705464;-0.9562743243172483;0.99;0.006552521930407647
57:31.1;0.02842299420899298;-0.23005897149545243;-0.9562056811313246;0.98;0.006252595304383019
57:31.1;0.027246309186346147;-0.23025252584253003;-0.9563521667963806;0.971;0.005999705453094734
57:31.1;0.026318539368001957;-0.2306049773965851;-0.956826396383817;0.968;0.005807157537830796
57:31.1;0.02569677632723149;-0.23111468765387153;-0.9577067998302493;0.983;0.0056877272451252145
57:31.1;0.025429285728688772;-0.23177585778548537;-0.9590264307585636;0.983;0.005652400617723704
57:31.1;0.02554753949349097;-0.23257369985804915;-0.9607716550520415;0.983;0.005708603282831526
57:31.1;0.02605820687615455;-0.23348102096837797;-0.9628879552532691;0.991;0.005858303475366933
57:31.1;0.026937319202771294;-0.23445730266918258;-0.9652898967118647;0.996;0.0060964342958873905
57:31.1;0.028128405047494347;-0.23545061896941635;-0.9678731747934607;0.9990000000000001;0.006410079222558037
57:31.1;0.02954599309530886;-0.2364021900021832;-0.9705267617554861;1.003;0.006778874641887948
57:31.2;0.03108491830923413;-0.2372529090313354;-0.9731432883430142;1.008;0.0071769193885881785
57:31.2;0.032634203831805514;-0.2379506561225705;-0.9756263991700498;1.011;0.007576061154871527
57:31.2;0.03409256411393214;-0.23845683801629544;-0.9778943046308185;1.01;0.007949894466023767
57:31.2;0.0353816197853399;-0.23875087586625063;-0.9798792116448047;1.0070000000000001;0.008277424512378702
57:31.2;0.036453626757913304;-0.23883219657142973;-0.9815233749790426;1.0070000000000001;0.008545436715757344
57:31.2;0.03729283024690288;-0.2387198765943163;-0.9827738978511421;1.0070000000000001;0.008749183773821903
57:31.2;0.03791172594262285;-0.23845014011990037;-0.9835790791538351;1.006;0.00889161031322061
57:31.2;0.03834407229526852;-0.23807194977435006;-0.983888622268977;1.01;0.008981572956657722
57:31.2;0.038635983518267594;-0.23764120291846175;-0.983658787693968;1.014;0.009031464732297963
57:31.2;0.03883613136271529;-0.23721408631352559;-0.9828619555733042;1.016;0.009054593569903369
57:31.3;0.0389863622376888;-0.23683983225605237;-0.9814984484439874;1.0170000000000001;0.00906268898170503
57:31.3;0.03911443311865585;-0.23655325572075495;-0.9796075059668224;1.015;0.00906396196134966
57:31.3;0.03923055113647686;-0.23636833444375643;-0.9772743040978575;1.013;0.009062127834222023
57:31.3;0.039328694110728625;-0.23627472065460442;-0.9746306144894118;1.01;0.009056634340222068
57:31.3;0.03939232845555956;-0.23623860977850694;-0.9718477792670354;1.006;0.009044004656338993
57:31.3;0.03940263342769481;-0.23620819783310135;-0.9691219524943865;0.998;0.009019836095155699
57:31.3;0.03934649414475995;-0.236122755894482;-0.9666530583216876;0.988;0.008980789448112909
57:31.3;0.03922180488736547;-0.23592347954144047;-0.9646206872046437;0.9840000000000001;0.008925967706982367
57:31.3;0.039038852827334054;-0.23556387585912367;-0.9631616164404402;0.983;0.008857372420275185
57:31.3;0.03881803985672846;-0.23501766472379612;-0.9623536647442933;0.9840000000000001;0.008779480380349099
57:31.4;0.038585102599236816;-0.23428296476091387;-0.9622087745029921;0.9890000000000001;0.008698205894197706
57:31.4;0.038365033729587494;-0.23338249204307704;-0.9626755154317747;0.99;0.00861953392720238
57:31.4;0.03817566804846584;-0.23236011811049104;-0.9636490662450111;0.9890000000000001;0.008548051679333613
57:31.4;0.03802204174725864;-0.23127448235996043;-0.9649860755612876;0.993;0.00848563209760621
57:31.4;0.03789311461158993;-0.23019078593144973;-0.9665223501057193;0.997;0.00843063215045554
57:31.4;0.037762592973273126;-0.22917223971132605;-0.9680917858692203;1.0;0.008377999920283943
57:31.4;0.0375947792468105;-0.22827256427653028;-0.9695446149392364;1.004;0.008320492912899604
57:31.4;0.037354572803642724;-0.2275306087409306;-0.9707624985031632;1.005;0.008250810138745623
57:31.4;0.03701870254686892;-0.22696785141205106;-0.9716681049559236;1.004;0.008164009227968784
57:31.4;0.03658425580344476;-0.22658914937841193;-0.972227806261514;1.001;0.008059375153594978
57:31.5;0.03607159272083979;-0.2263863353404421;-0.9724477493334307;0.998;0.007941120819612006
57:31.5;0.035521399892574364;-0.22634337130544527;-0.9723651541346556;0.997;0.007817848321269956
57:31.5;0.034987969179947;-0.22644155048993023;-0.9720374907870504;0.996;0.007701190579275159
57:31.5;0.034531181164749195;-0.22666385254015992;-0.9715319310022197;0.997;0.0076041518177448605
57:31.5;0.03420869763292167;-0.22699811115882096;-0.970916515852751;0.997;0.007539467484925605
57:31.5;0.03406905202178382;-0.22743859165676572;-0.9702534210896591;0.996;0.007518122357605073
57:31.5;0.03414603960024249;-0.22798554686679084;-0.9695940331573231;0.995;0.007548099034146026
57:31.5;0.03445470137670639;-0.22864294262314638;-0.9689754971113971;0.993;0.007633418726911292
57:31.5;0.03498927487148861;-0.22941530276022684;-0.9684187678081272;0.993;0.007773570165827524
57:31.5;0.03572357941795899;-0.23030478116394718;-0.9679285362719189;0.9940000000000001;0.007963449229431898
57:31.6;0.03661398568466266;-0.23130914372003084;-0.9674953851498695;0.9940000000000001;0.00819386322854115
57:31.6;0.037604464123390885;-0.23242068400006305;-0.9671001830464763;0.995;0.00845250905436849
57:31.6;0.03863257512342187;-0.23362562761055594;-0.9667203108590534;0.996;0.00872519179129676
57:31.6;0.039634985916444605;-0.23490370793313078;-0.9663369218725276;1.0;0.00899698825949718
57:31.6;0.04055160588074397;-0.23622801543011188;-0.9659419838891434;1.0;0.009253169155797216
57:31.6;0.041328510875517185;-0.23756535954916894;-0.965543443742395;1.0;0.00947992040827583
57:31.6;0.04192041916585448;-0.23887737228430747;-0.9651668746166987;0.9990000000000001;0.009665026245898005
57:31.6;0.04229319418715953;-0.24012249824529086;-0.9648526767539128;0.9940000000000001;0.009798607138133486
57:31.6;0.04242632013487465;-0.2412584256219773;-0.9646492528427878;0.99;0.009873867303447576
57:31.6;0.04231481795748211;-0.24224382147834658;-0.9646041906937184;0.99;0.009887678350366223
57:31.7;0.041969526636060614;-0.2430385927601854;-0.9647564069661729;0.9940000000000001;0.009840722476961295
57:31.7;0.04141458605021636;-0.24360325266786137;-0.9651314331626331;0.997;0.009736948387696204
57:31.7;0.04068203229944655;-0.24389898892008588;-0.9657398901028792;0.998;0.00958236723238298
57:31.7;0.039805162971941796;-0.24388990157921317;-0.966577429361265;0.998;0.009383608380928651
57:31.7;0.03881329197932525;-0.24354788879784403;-0.9676243185127261;0.9990000000000001;0.009146851390883037
57:31.7;0.037729940688644666;-0.24285931638179664;-0.9688440186457443;0.9990000000000001;0.008877583239390292
57:31.7;0.03657492735081336;-0.2418314686629545;-0.970181332527363;0.996;0.008581223226037379
57:31.7;0.035369118348847754;-0.24049668952870643;-0.9715614372369767;0.996;0.008264253026739395
57:31.7;0.03413948394921394;-0.2389132558607913;-0.9728914651467874;1.001;0.007935267880601657
57:31.8;0.03292214019390724;-0.23716313778571121;-0.9740660069076934;1.006;0.007605427577689303
57:31.8;0.03176225861661873;-0.23534685639853503;-0.974976551202292;1.0070000000000001;0.007288093741373371
57:31.8;0.030710986426702783;-0.23357536844407273;-0.9755231591075106;1.004;0.0069977495135554995
57:31.8;0.029819933176602115;-0.23195936819532176;-0.9756261488041295;1.003;0.006748418617119538
57:31.8;0.02913401570094984;-0.23059733188133827;-0.9752364901212005;1.0070000000000001;0.006551859424586363
57:31.8;0.028684257485631463;-0.2295642905035569;-0.9743443450726504;1.0070000000000001;0.006415941778035773
57:31.8;0.02848262693210066;-0.2289035753573188;-0.9729845915689332;1.0070000000000001;0.006343640752031866
57:31.8;0.028520248913588776;-0.22862348322342665;-0.971237304217935;1.001;0.006332854406304156
57:31.8;0.02876900175496354;-0.22869964936736914;-0.9692217017086892;0.995;0.0063769560126354765
57:31.8;0.02918575276474186;-0.2290822307489422;-0.9670840619430702;0.992;0.006465863449787684
57:31.8;0.029718602582387035;-0.2297055471296373;-0.9649821268032973;0.9890000000000001;0.006587477378926078
57:31.9;0.03031469513486714;-0.23049736375779398;-0.9630692143775311;0.986;0.006729405023683254
57:31.9;0.030928350415376817;-0.23138602299506886;-0.9614805892771527;0.985;0.006880728151732005
57:31.9;0.03152717838153314;-0.2323053855850287;-0.9603235224241965;0.988;0.0070333454537825175
57:31.9;0.032094311666675444;-0.23319831240897235;-0.9596714025588616;0.987;0.0071825064111037526
57:31.9;0.03262684781281434;-0.23401891944022818;-0.9595612744273554;0.987;0.0073265378818797725
57:31.9;0.03313192963793123;-0.2347336078479237;-0.9599936266324771;0.987;0.0074660407169104175
57:31.9;0.0336217757446133;-0.2353214684568725;-0.960933482595838;0.987;0.007602834259620888
57:31.9;0.03410850361744847;-0.23577478533041413;-0.9623125576523429;0.991;0.007738845529083743
57:31.9;0.034599658543773046;-0.23609933446980066;-0.9640327824947915;0.993;0.007875141725053913
57:31.9;0.03509564619719306;-0.23631320298116784;-0.9659715073602129;0.991;0.008011347062844088
57:32.0;0.0355898973826984;-0.2364434068845313;-0.9679885071856857;0.993;0.008145619985032082
57:32.0;0.03607128275482608;-0.23652123262548;-0.9699350133406359;0.998;0.008275121090007496
57:32.0;0.036527064008109116;-0.2365779271549328;-0.971665063288145;1.005;0.008396640815007184
57:32.0;0.03694480500806291;-0.23664136460689733;-0.9730486485403149;1.0070000000000001;0.008507042325381981
57:32.0;0.037312946397415385;-0.2367332545132783;-0.9739847306776401;1.0070000000000001;0.008603416762789102
57:32.0;0.037620826364584935;-0.23686665370121332;-0.974411578129612;1.0070000000000001;0.008683097771735674
57:32.0;0.03785911339678479;-0.23704424081704317;-0.9743126212878997;1.01;0.008743758940995385
57:32.0;0.038021125468449296;-0.23725785054158582;-0.9737171316113034;1.0070000000000001;0.00878371772858505
57:32.0;0.038104676876360696;-0.23748929371049127;-0.9726956226012401;1.003;0.008802363123972702
57:32.1;0.03811333112908973;-0.23771225785626043;-0.9713503991415411;0.998;0.008800440441526506
57:32.1;0.038055959248417454;-0.23789512747862962;-0.9698027100717229;0.997;0.008779941328132996
57:32.1;0.03794451686359514;-0.23800443330924587;-0.9681788779444652;0.995;0.008743587849986781
57:32.1;0.037791002324408816;-0.23800842214813042;-0.9665976880305434;0.993;0.008694137173165351
57:32.1;0.037604698755889364;-0.2378803548225858;-0.965160423561404;0.991;0.008633764471128307
57:32.1;0.0373903853485553;-0.23760141404443538;-0.9639441574604033;0.991;0.00856368802139313
57:32.1;0.037148000934028244;-0.23716308019413865;-0.9629985465921672;0.991;0.008484146549841594
57:32.1;0.03687417505778803;-0.23656861082425998;-0.9623460129124529;0.993;0.008394806383578873
57:32.1;0.03656553655702037;-0.23583328852641716;-0.9619846413035265;0.991;0.008295550201388321
57:32.1;0.03622268457920386;-0.23498359669817612;-0.9618927141808244;0.99;0.00818737752106951
57:32.2;0.03585294916342427;-0.2340560758660796;-0.9620339546383367;0.99;0.008073004700782356
57:32.2;0.035470620208693564;-0.23309643198126445;-0.9623631449251733;0.992;0.00795689066987939
57:32.2;0.03509496706140213;-0.23215836568144269;-0.9628321272434258;0.995;0.007844761600918529
57:32.2;0.03474745369328075;-0.2313008409590972;-0.9633958228488608;0.995;0.007742923269665741
57:32.2;0.0344491980385541;-0.23058310065121515;-0.964017256425446;0.993;0.007657577469065079
57:32.2;0.03421892740868757;-0.23005802443636697;-0.9646704792896954;0.993;0.007594212879959371
57:32.2;0.03407150494262068;-0.22976524825438155;-0.9653409547233769;0.993;0.0075571212650889065
57:32.2;0.034017244831611684;-0.22972542677503846;-0.9660237926871378;0.992;0.007549114730660343
57:32.2;0.034061984239126264;-0.2299366054954727;-0.9667206403977192;0.993;0.007571449858804289
57:32.2;0.03420732878202199;-0.23037349510269078;-0.9674359965918289;0.996;0.007623842501809035
57:32.3;0.034450247690632894;-0.23099028506339325;-0.9681733399753981;0.995;0.007704406396219124
57:32.3;0.0347814966802575;-0.23172685965727338;-0.9689311471233785;0.993;0.007809398042002218
57:32.3;0.035183107502381794;-0.23251713517966208;-0.9696992403008624;0.995;0.007932794684815765
57:32.3;0.0356263818859546;-0.23329760325544835;-0.9704566976942488;0.996;0.008065998886952157
57:32.3;0.03607271541054474;-0.23401442382189455;-0.9711726203135571;1.002;0.008198188357369194
57:32.3;0.03647863002023223;-0.23462819344261607;-0.9718099475740841;1.002;0.008317638796632693
57:32.3;0.03680376137736851;-0.23511617461903422;-0.9723311697832946;1.002;0.008413736783197881
57:32.3;0.037018779140780875;-0.2354720494326393;-0.9727043290402638;1.004;0.008478954490816709
57:32.3;0.0371107007131849;-0.2357034214775357;-0.972908188671187;1.004;0.00851014383034454
57:32.3;0.03708434287903162;-0.23582758541589524;-0.9729360326694939;1.002;0.008508822812878946
57:32.4;0.03695961384506255;-0.23586644961621037;-0.9727978095404993;1.003;0.008480396906624749
57:32.4;0.036765531009208756;-0.23584164709674724;-0.9725204745326871;1.004;0.008432572727850779
57:32.4;0.036533130297275646;-0.23577065470854577;-0.9721463765541374;1.003;0.008373524533050136
57:32.4;0.03628962436669504;-0.23566446485775266;-0.9717293334478174;1.003;0.008310399221195058
57:32.4;0.036055088345826145;-0.2355271763831618;-0.9713281467729136;0.995;0.00824847311794275
57:32.4;0.03584164773682697;-0.23535742532902393;-0.9709982122231696;0.995;0.00819095050992711
57:32.4;0.035654384996973085;-0.2351509202492675;-0.9707831836806223;0.995;0.00813920293808893
57:32.4;0.03549305838676816;-0.2349031218930348;-0.9707091517297785;0.996;0.008093219817028928
57:32.4;0.03535409010336407;-0.23461141943255037;-0.9707828980564202;0.9990000000000001;0.008052132791035399
57:32.4;0.035232713627943925;-0.23427654420927324;-0.970994217357546;1.003;0.008014778907427404
57:32.5;0.03512516234925044;-0.23390318993946937;-0.9713209588496382;1.003;0.007980263744340492
57:32.5;0.035030424349149346;-0.23349987684953624;-0.9717347239468779;1.002;0.007948401125967489
57:32.5;0.034950917248791374;-0.2330780722384081;-0.972205365679068;1.001;0.00791986919655743
57:32.5;0.034891673873689376;-0.23265060699204562;-0.9727034626806843;1.0;0.007895987577646951
57:32.5;0.0348582446398349;-0.23222954148379074;-0.9732010371231383;1.001;0.007878173505522562
57:32.5;0.03485423428946776;-0.23182385333619723;-0.9736712698751597;1.001;0.007867305629206692
57:32.5;0.03487950611918004;-0.23143772362856027;-0.9740877738098606;1.001;0.00786325877481909
57:32.5;0.034929495907925635;-0.23107040760027472;-0.9744236391435144;1.0;0.007864741627198052
57:32.5;0.03499556811418606;-0.23071807243396353;-0.9746505320693452;1.0;0.007869435626040339
57:32.5;0.035066262834126345;-0.23037680133964686;-0.9747385310843848;1.001;0.007874379865527057
57:32.6;0.03512916199229279;-0.23004525387771219;-0.9746575082194621;1.002;0.007876496786507738
57:32.6;0.03517273858947436;-0.22972585055149025;-0.9743803725016333;1.004;0.00787307846220164
57:32.6;0.035187414696120065;-0.22942427815998395;-0.973887674033053;1.004;0.007862046398962388
57:32.6;0.03516552011968881;-0.2291477562113837;-0.9731723936984986;1.003;0.007841920496251561
57:32.6;0.035100598952382864;-0.22890278757595162;-0.9722435512008312;1.001;0.007811612289857732
57:32.6;0.03498702006498094;-0.228693230353776;-0.9711277027710037;0.998;0.007770278882075627
57:32.6;0.03482074849640827;-0.22851930017812966;-0.9698682444583279;0.998;0.007717448278816239
57:32.6;0.034601302744756826;-0.22837760549035865;-0.9685230864749448;0.996;0.007653426976742598
57:32.6;0.0343339280579397;-0.22826198844872275;-0.9671613243783951;0.9940000000000001;0.007579769697235534
57:32.6;0.03403072852349846;-0.22816493018878298;-0.9658592723004021;0.993;0.0074995290617693045
57:32.7;0.033710051057546535;-0.22807932551844085;-0.9646960820546562;0.993;0.00741712921551077
57:32.7;0.03339441273465223;-0.22800033122549518;-0.9637491132131187;0.992;0.007337925190425928
57:32.7;0.03310822570072766;-0.22792683760348562;-0.963089029088348;0.991;0.007267713650913311
57:32.7;0.032876733024073505;-0.2278622523069528;-0.9627744009316884;0.9890000000000001;0.007212495831963255
57:32.7;0.03272653369667405;-0.2278147212563228;-0.9628457527988175;0.987;0.007178579460880006
57:32.7;0.032686637552662066;-0.2277970622636855;-0.963319607412705;0.987;0.007172800740642166
57:32.7;0.032788336871783334;-0.22782633650080544;-0.9641838391478046;0.987;0.007202498276366153
57:32.7;0.03306261247106029;-0.22792270369176515;-0.9653958859951677;0.9890000000000001;0.007274953110645642
57:32.7;0.033534883546765454;-0.2281074453955347;-0.9668848422522083;0.9940000000000001;0.007396240343400589
57:32.7;0.03421837890137473;-0.22840053237000119;-0.9685573576302129;0.997;0.007569756113565249
57:32.8;0.035108761050012316;-0.2288182910630103;-0.9703061152057911;0.9990000000000001;0.007794980088339764
57:32.8;0.03618257315945818;-0.22937143371605875;-0.9720191187884981;1.001;0.008067028389629945
57:32.8;0.03739994321082108;-0.2300633497471055;-0.9735884163107618;1.001;0.008377101541157088
57:32.8;0.038709396720180644;-0.2308883936790787;-0.9749178274729435;1.002;0.008713377247179044
57:32.8;0.040051965959672316;-0.23182994139507732;-0.9759299525877414;1.0090000000000001;0.009061748635701024
57:32.8;0.041363340509160115;-0.2328583723994303;-0.9765725084437284;1.0090000000000001;0.009406151231328269
57:32.8;0.04257481688967433;-0.2339298618150455;-0.9768229404979356;1.0090000000000001;0.009728688620236235
57:32.8;0.04361473403400134;-0.23498735273242208;-0.9766895641911733;1.0070000000000001;0.010010004311348766
57:32.8;0.044411794014469916;-0.23596473072430005;-0.9762082417083153;1.003;0.010230288500582715
57:32.8;0.04490064902545714;-0.23679405665989817;-0.9754352948912484;1.002;0.010371029803980825
57:32.9;0.045028794801227894;-0.2374143990443549;-0.9744387712591088;1.001;0.010417222343970153
57:32.9;0.04476279650922769;-0.2377801725665695;-0.9732905541283776;1.002;0.010359418003174203
57:32.9;0.04409199760851467;-0.2378671871921441;-0.9720610328573775;1.003;0.010195014459269016
57:32.9;0.04302916926929524;-0.23767543830447024;-0.9708165638369644;1.004;0.009928518345285176
57:32.9;0.04160900763324913;-0.2372286265572319;-0.9696185518635456;0.998;0.009570957084774647
57:32.9;0.03988587859396062;-0.23657123721590173;-0.9685225493379245;0.998;0.009138835091761775
57:32.9;0.03793160916087114;-0.23576431293264621;-0.9675764938414992;0.998;0.008652958957932173
57:32.9;0.03583308376046829;-0.23488060648146242;-0.966818115229988;0.9940000000000001;0.008137221230529415
57:32.9;0.03368863733570029;-0.2339990944935358;-0.9662719088883984;0.992;0.007617228357660512
57:32.9;0.03160210947714936;-0.23319864354679865;-0.9659463259739492;0.992;0.00711860816069496
57:33.0;0.02967401247975975;-0.23255113103934116;-0.9658321689649767;0.991;0.006664942353198976
57:33.0;0.02799061264754858;-0.23211484625658213;-0.9659030833273113;0.991;0.006275507830584357
57:33.0;0.026613389977358643;-0.23192888426102581;-0.9661185672218813;0.991;0.005963283619123144
57:33.0;0.025571964287254466;-0.2320089002659086;-0.9664295539540678;0.9940000000000001;0.005733752429987366
57:33.0;0.024862273677551096;-0.2323446807719808;-0.9667862303063587;0.996;0.005584753812872205
57:33.0;0.024449630519115986;-0.2329001916645289;-0.9671470572149491;1.001;0.00550724834548071
57:33.0;0.024275016194348548;-0.2336164763236385;-0.9674871555797256;1.001;0.005486661983007953
57:33.0;0.024263083161504058;-0.23441724264937333;-0.9678037671445054;1.002;0.0055045630205205875
57:33.0;0.02433110429189034;-0.23521667787957537;-0.9681168323748935;1.0;0.005540611553223937
57:33.0;0.024398637663481132;-0.23592883249832908;-0.9684639377050157;0.997;0.0055748097354854885
57:33.1;0.02439732873601294;-0.23647764567036955;-0.9688905029230855;0.995;0.005589939016535435
57:33.1;0.0242793124704894;-0.2368065096598398;-0.9694374301926828;0.995;0.005573779771103553
57:33.1;0.02402235484364137;-0.2368860951974735;-0.9701290601483094;0.995;0.005520579406022133
57:33.1;0.023630797316991338;-0.23671886706585477;-0.9709640732647749;0.9940000000000001;0.005431432788279634
57:33.1;0.02313256301565226;-0.23633894322662585;-0.9719111687047588;0.998;0.005313560331480626
57:33.1;0.022573183277791495;-0.23580723766082176;-0.9729102175984454;0.998;0.005178723249570545
57:33.1;0.02200839493633364;-0.23520330574927245;-0.9738784321968795;0.998;0.0050412303256170965
57:33.1;0.021497174433146814;-0.23461566833023634;-0.9747205058729775;1.002;0.004916074948875952
57:33.1;0.021096389450682613;-0.23413184061420217;-0.9753416676575895;1.0090000000000001;0.004817540691621704
57:33.1;0.02085704627960471;-0.23382900489218905;-0.9756620813205582;1.013;0.004758286776068751
57:33.2;0.020821469366614432;-0.23376636072837534;-0.975629692460562;1.011;0.004748740080219524
57:33.2;0.021020841011448247;-0.23397998375688148;-0.9752280044517169;1.0070000000000001;0.004796616067326615
57:33.2;0.021472985721424805;-0.23448053088547996;-0.9744765905403853;1.003;0.004906486799257714
57:33.2;0.022180844292118678;-0.23525381866200065;-0.9734246126927819;1.0;0.005079454539722325
57:33.2;0.023132373211873343;-0.2362641515174352;-0.9721395754963339;0.9940000000000001;0.0053130835436750335
57:33.2;0.024302138977139644;-0.23745982201268714;-0.9706944902933108;0.9940000000000001;0.005601665899961258
57:33.2;0.025653845532028017;-0.2387794071979074;-0.9691568713914384;0.9940000000000001;0.0059366770505698985
57:33.2;0.027142543090278318;-0.2401571917544644;-0.9675822816591344;0.996;0.006307162776649091
57:33.2;0.028715889242304574;-0.24152679662277932;-0.9660133222410955;0.995;0.0066999368101700865
57:33.2;0.03031470493253433;-0.24282316060260137;-0.9644830441846983;0.997;0.007099668158301803
57:33.3;0.03187340578530726;-0.24398366449297373;-0.9630207820359362;0.997;0.007489018114046071
57:33.3;0.03332106429444662;-0.24494936934744166;-0.9616582347244;0.997;0.007849029205697801
57:33.3;0.03458419511724067;-0.24566711043126793;-0.9604337974455384;0.996;0.008160036939346834
57:33.3;0.03559232724851663;-0.2460927542143168;-0.959393660445027;0.993;0.008403342351270698
57:33.3;0.03628653971963954;-0.2461956230137584;-0.9585890693477871;0.99;0.008563639091068656
57:33.3;0.036629627825427793;-0.24596373793632087;-0.9580702493578181;0.99;0.008631791567450642
57:33.3;0.03661524483847617;-0.2454088987073058;-0.9578784428024202;0.99;0.00860721494406657
57:33.3;0.036273157988361074;-0.24457016492613184;-0.9580377463421178;0.986;0.008499071138219145
57:33.3;0.03566879879232384;-0.24351437745157575;-0.9585481477362767;0.9840000000000001;0.008325820125818747
57:33.3;0.03489673680411751;-0.24233262073482484;-0.9593811955256244;0.986;0.008113119984580345
57:33.4;0.03406894769605476;-0.24113190761500625;-0.9604799614547203;0.986;0.007890448870763633
57:33.4;0.03329976561017616;-0.2400223818116486;-0.9617643580494389;0.991;0.007687083458574919
57:33.4;0.03269016844985069;-0.23910201694375366;-0.9631412848162347;0.996;0.007528186980218134
57:33.4;0.03231436901385263;-0.23844232071421773;-0.9645172761315517;1.0;0.0074317147381540655
57:33.4;0.032211323958092584;-0.23807890436400117;-0.9658101444239945;1.001;0.007406640296298641
57:33.4;0.0323825568268393;-0.23800941820535967;-0.9669562999887314;0.997;0.0074526740330809515
57:33.4;0.03279591300725927;-0.2381987658409756;-0.9679122667728881;0.997;0.007561278363629665
57:33.4;0.03339336050543536;-0.2385891610941029;-0.9686514630176005;0.996;0.007717530862599494
57:33.4;0.03410061870411659;-0.2391117754854542;-0.9691589024715991;0.996;0.007902385507930498
57:33.4;0.034837143573778526;-0.23969730022105398;-0.9694264342232222;0.997;0.008095068698154347
57:33.5;0.03552561357421086;-0.24028376209681918;-0.9694502502637421;0.998;0.008275448448861094
57:33.5;0.03609986664709775;-0.24082104418020073;-0.9692313878222696;0.998;0.00842611734064353
57:33.5;0.036509986262927285;-0.24127265673676004;-0.9687789888129726;1.002;0.008533839823292994
57:33.5;0.03672387266379517;-0.241615771083879;-0.9681152526013228;1.004;0.008590151316933548
57:33.5;0.036725952463574525;-0.24184018942221497;-0.9672803691282398;1.001;0.008591201713277067
57:33.5;0.03651460036928011;-0.241946499991446;-0.9663354144414451;1.001;0.008537167291798847
57:33.5;0.03609978709742978;-0.24194362984028372;-0.9653615902915449;1.001;0.008431577724031672
57:33.5;0.03550179058651583;-0.2418461008605684;-0.9644550577827172;0.995;0.008280781832649164
57:33.5;0.03475104843643954;-0.24167137110657802;-0.9637174970296631;0.99;0.008093620962030397
57:33.5;0.033888589951881494;-0.2414378373088831;-0.9632436585347329;0.987;0.007881247927509893
57:33.6;0.032966008959060634;-0.24116415485577228;-0.9631084907200851;0.987;0.007656924086124184
57:33.6;0.03204380796748399;-0.24087002824644738;-0.9633569091624273;0.991;0.007435567156988315
57:33.6;0.031187517888345128;-0.24057763468832746;-0.9639982936831807;0.9940000000000001;0.007232897788576363
57:33.6;0.03046207972472436;-0.24031220398083905;-0.965005941236009;0.995;0.0070642386756920635
57:33.6;0.029925531036193158;-0.24010074826373082;-0.9663201539436431;0.995;0.006943147904257245
57:33.6;0.029622790266136362;-0.23996918604377118;-0.9678532700483198;0.995;0.0068800400105119355
57:33.6;0.029580301147225586;-0.2399389540919619;-0.9694956698245198;0.995;0.0068809630568858636
57:33.6;0.029802669898871207;-0.24002408076013895;-0.9711228349740836;0.998;0.006946789734320275
57:33.6;0.03027219272691777;-0.24022914022146535;-0.9726041078350258;1.003;0.007073032703081405
57:33.6;0.030951249884872727;-0.2405480989057528;-0.9738134225895585;1.008;0.007250298328143786
57:33.7;0.03178679924617429;-0.24096384344210678;-0.9746411401549613;1.0090000000000001;0.0074652339081815915
57:33.7;0.03271596375918869;-0.24144816639299127;-0.9750050433354598;1.0090000000000001;0.007701769063262953
57:33.7;0.033671844230352875;-0.24196237698475442;-0.9748583810530267;1.0070000000000001;0.007942482665947022
57:33.7;0.034589186879350496;-0.24245926712766153;-0.9741937322791744;1.005;0.008170045439609487
57:33.7;0.03541005284850545;-0.2428871456863535;-0.9730428016264634;1.004;0.008368797326687955
57:33.7;0.036089365146804386;-0.24319571512795765;-0.9714732556695342;1.004;0.008526406035800363
57:33.7;0.03659913319317609;-0.24334240751000838;-0.9695838146980472;1.004;0.008635230951752528
57:33.7;0.03692960934180197;-0.24329745982100479;-0.9674980502789733;1.002;0.008692854022318848
57:33.7;0.03708654302231508;-0.24304665150864263;-0.9653564026168512;0.9990000000000001;0.00870149102187518
57:33.7;0.037085371134373664;-0.24259156200070678;-0.9633056743548623;0.993;0.00866647401008517
57:33.8;0.03694443412731834;-0.24194798667973624;-0.9614859396624633;0.987;0.008594368464890539
57:33.8;0.03667959682143763;-0.24114367958201083;-0.9600160655941441;0.983;0.00849139292641262
57:33.8;0.03630203795094181;-0.2402165216360111;-0.9589802658185951;0.982;0.008362642875239183
57:33.8;0.03581980381140447;-0.2392133847247734;-0.9584185769042949;0.9840000000000001;0.008212282904717188
57:33.8;0.03524234625455987;-0.2381890337388094;-0.9583233702607137;0.985;0.008044492584261563
57:33.8;0.03458598138899255;-0.2372041967686451;-0.9586423352604299;0.987;0.007864644137462962
57:33.8;0.03387764302410861;-0.23632239938191277;-0.9592868714602321;0.987;0.0076800947096556296
57:33.8;0.033155081815996135;-0.23560559958561073;-0.9601443033381213;0.9890000000000001;0.00750018924217973
57:33.8;0.032463404154950345;-0.23510878082059136;-0.9610925174149235;0.9940000000000001;0.007335472681462525
57:33.8;0.03184945739481002;-0.2348738893446632;-0.9620156012651582;0.995;0.007196459613343085
57:33.9;0.03135615870191764;-0.23492412145743297;-0.962818577454525;0.9940000000000001;0.007092427851851965
57:33.9;0.031018107994630888;-0.23526015733276331;-0.9634392006794259;0.997;0.007030528933286681
57:33.9;0.030858448898189377;-0.23585984171810453;-0.963855455114629;0.9990000000000001;0.007015199156832693
57:33.9;0.030886394440765602;-0.23668171000633717;-0.9640880809331538;1.0;0.007047719737863032
57:33.9;0.031095471889811883;-0.23767115178943415;-0.96419760420918;0.9990000000000001;0.007125899134425953
57:33.9;0.03146312138734897;-0.2387671038383782;-0.9642755008059095;0.992;0.007243983130788829
57:33.9;0.03195197157841269;-0.23990747378941618;-0.9644301207658346;0.992;0.007392855277694995
57:33.9;0.03251262353002703;-0.24103225987229218;-0.9647696816649873;0.988;0.007560505523865981
57:33.9;0.033087734073768964;-0.2420841172233994;-0.9653857247155903;0.9890000000000001;0.007732754033591896
57:33.9;0.0336171296396944;-0.24300724077614683;-0.9663400313137581;0.993;0.007894230701213418
57:34.0;0.034043337922848395;-0.24374649414272392;-0.9676565308175927;0.998;0.00802955996291355
57:34.0;0.03431681097505473;-0.2442487045783915;-0.9693179832060965;0.9990000000000001;0.008124664973798455
57:34.0;0.034400384843179026;-0.24446690464633153;-0.9712660503307905;0.997;0.008168110107077754
57:34.0;0.03427269085027217;-0.24436693350141225;-0.9734037206375427;0.997;0.008152365537746863
57:34.0;0.0339301832069507;-0.24393480283788513;-0.9756006013911219;1.0090000000000001;0.008074804766165827
57:34.0;0.03338752006851905;-0.2431827186563361;-0.9777023110525693;1.0090000000000001;0.007938226989352527
57:34.0;0.03267615062418118;-0.24215184874273624;-0.979543982303476;1.0090000000000001;0.007750730196578162
57:34.0;0.03184085194493556;-0.24091069865355813;-0.9809663973577648;1.016;0.007524798892699639
57:34.0;0.03093400622456813;-0.2395488092611401;-0.9818329683781091;1.02;0.007275582939897842
57:34.0;0.030008179665835664;-0.2381664899861794;-0.9820455175313199;1.0170000000000001;0.0070186231622864975
57:34.1;0.029108723190887822;-0.2368626358576453;-0.9815561046107653;1.014;0.00676760250509307
57:34.1;0.028268516603376405;-0.23572360425067596;-0.9803725798937932;1.01;0.00653276819537458
57:34.1;0.02750611691458913;-0.23481567940949508;-0.9785574418221404;1.0090000000000001;0.006320372888415059
57:34.1;0.0268272317565228;-0.23418190788599688;-0.9762212472697583;1.0070000000000001;0.006133063435879608
57:34.1;0.02622844654381706;-0.2338423458040319;-0.9735121084415836;1.005;0.005970862712701578
57:34.1;0.02570163503837883;-0.23379629657749793;-0.9706022395582429;0.9940000000000001;0.005832297500960403
57:34.1;0.02523765528279613;-0.2340256460190718;-0.9676723494563089;0.9940000000000001;0.00571532311811756
57:34.1;0.024828894126196446;-0.234498715079466;-0.9648953434064791;0.988;0.0056179523908416506
57:34.1;0.024471242476869666;-0.23517400238746838;-0.9624214376319219;0.983;0.005538735408873006
57:34.1;0.024166147947187404;-0.23600344091776249;-0.9603668746400752;0.9790000000000001;0.005477254700452296
57:34.2;0.023922423901774903;-0.23693530018323716;-0.9588083286382878;0.9840000000000001;0.0054345895479978815
57:34.2;0.02375647624929167;-0.23791701725371123;-0.9577844404734389;0.992;0.005413464673436366
57:34.2;0.023689651913317282;-0.23889788769322393;-0.9573037591869029;0.998;0.005417772363893605
57:34.2;0.02374264832052145;-0.23983130302927724;-0.9573552415200085;0.9990000000000001;0.005451401208882643
57:34.2;0.023928441569718243;-0.24067662036233103;-0.9579157369041749;0.987;0.005516652484185955
57:34.2;0.02424600070568904;-0.24140116234779072;-0.9589506344189539;0.987;0.005612750292405097
57:34.2;0.02467679200530965;-0.24198239193733861;-0.9604082272620954;0.987;0.005734932856110097
57:34.2;0.025185143580518588;-0.24240957608697597;-0.9622117751473636;0.9840000000000001;0.00587441833252273
57:34.2;0.025722556152884084;-0.2426842802807314;-0.9642536478112218;0.985;0.006019314852295886
57:34.2;0.026235137690316178;-0.24281956267659263;-0.9663948100184859;0.99;0.006156326001840056
57:34.3;0.026672461648115098;-0.242838032135796;-0.968471735885889;0.997;0.006272876754574986
57:34.3;0.02699559000576546;-0.24276891512616627;-0.9703111643759146;1.002;0.006359118670813303
57:34.3;0.027182232252886237;-0.24264422160963903;-0.9717508704612895;1.0090000000000001;0.006409291300516727
57:34.3;0.0272282223007889;-0.24249423943034595;-0.9726628030379313;1.014;0.006422188101290289
57:34.3;0.027146017833113878;-0.24234292644231067;-0.9729740149252449;1.0170000000000001;0.006400851030460225
57:34.3;0.026961654346382244;-0.24220412258636684;-0.9726807634327447;1.011;0.006351823104672153
57:34.3;0.026711330039582554;-0.24207961601212263;-0.9718522774176926;1.011;0.006284257786735333
57:34.3;0.02643822060776103;-0.2419597098080816;-0.9706229087149687;1.005;0.006209059397712061
57:34.3;0.026189522361420185;-0.24182615056497078;-0.9691737171116688;0.997;0.006138078929645596
57:34.3;0.026013060900361283;-0.24165662315989722;-0.9677063494302803;0.9890000000000001;0.006083223190099306
57:34.4;0.02595252993275898;-0.24142980938723274;-0.9664136597030388;0.9840000000000001;0.006055271940259175
57:34.4;0.026041128524259466;-0.24113011758802758;-0.9654526363635063;0.9840000000000001;0.006062367109459144
57:34.4;0.0262948238098296;-0.24075140736495917;-0.9649248304920963;0.986;0.006108471922517694
57:34.4;0.026707648777894506;-0.24029931125427503;-0.9648673250698582;0.99;0.006192354085225199
57:34.4;0.027251345938643357;-0.23979208315036313;-0.9652543914314922;0.992;0.006307606376635142
57:34.4;0.02788016112522064;-0.23926014781309685;-0.9660077652249517;0.998;0.0064438624806282
57:34.4;0.028539542230905796;-0.23874455568022285;-0.9670125299666743;0.998;0.006588894913306675
57:34.4;0.029176070327731476;-0.23829443737533385;-0.9681356120389891;1.001;0.0067309582571944615
57:34.4;0.02974585652594717;-0.2379634878425737;-0.9692444705835992;1.001;0.00686072697434537
57:34.4;0.03021971128293573;-0.23780557984917358;-0.9702243585330316;1.005;0.006972435819321303
57:34.5;0.030584876095095973;-0.23786973918597987;-0.9709929506349442;1.01;0.007064183935625519
57:34.5;0.03084426611176876;-0.23819477116394722;-0.9715108172109845;1.011;0.00713763450876012
57:34.5;0.03101438720798536;-0.23880384123068385;-0.9717856738519238;1.0070000000000001;0.007197389488824286
57:34.5;0.031122298266228494;-0.23969946599309125;-0.9718687234066343;1.001;0.0072501390000356426
57:34.5;0.031201229640682997;-0.24085967008457454;-0.9718433186921386;0.996;0.007303517098420515
57:34.5;0.0312847494148134;-0.24223627271548479;-0.9718086597971898;0.996;0.007364658626864312
57:34.5;0.03140028936611607;-0.24375617601790597;-0.9718626165478994;0.996;0.007438650521882264
57:34.5;0.03156335014372244;-0.2453261754375331;-0.9720872743131905;1.0;0.0075271789200455075
57:34.5;0.03177356320200467;-0.24684130245895958;-0.9725390549866468;1.003;0.007627650771462971
57:34.5;0.03201349496800763;-0.248195924555871;-0.9732434332689165;1.003;0.00773302149734176
57:34.6;0.032250799499617275;-0.24929592229786407;-0.9741932540723182;1.005;0.007832506754493155
57:34.6;0.03244368242059157;-0.2500699078666524;-0.9753496583471307;1.008;0.007913195801069587
57:34.6;0.032548569013002716;-0.2504778165641865;-0.9766450134678454;1.011;0.007962288428448552
57:34.6;0.0325279917016376;-0.2505157043273157;-0.9779872792147614;1.014;0.00796939609216794
57:34.6;0.032356697549786206;-0.25021600407343286;-0.9792650013404007;1.0090000000000001;0.00792828962523289
57:34.6;0.03202491788450994;-0.24964330275832652;-0.9803523098655723;1.0090000000000001;0.007837726794950896
57:34.6;0.031538981754682435;-0.24888690096436583;-0.9811141843983185;1.0090000000000001;0.007701392585708351
57:34.6;0.030920055840585315;-0.24805196776763164;-0.9814131514401335;1.011;0.007527223642481677
57:34.6;0.030201532629558603;-0.24725034110936697;-0.9811186006104596;1.012;0.007326345430027973
57:34.6;0.029424986106483232;-0.24659085571616524;-0.9801190398268738;1.012;0.007111677598314311
57:34.7;0.02863398367394892;-0.24616878522571795;-0.9783365318797751;1.014;0.006896091675241646
57:34.7;0.027864711389148367;-0.24605466362263104;-0.9757415912207581;1.016;0.006689920662117495
57:34.7;0.027133385361184446;-0.2462835946906329;-0.9723658646384787;1.013;0.0064978423610156264
57:34.7;0.026423195530615028;-0.24684666355469456;-0.9683092752619472;1.006;0.006315775613141668
57:34.7;0.025676171108647936;-0.24768644378492166;-0.9637387651183497;0.998;0.0061290311298100135
57:34.7;0.024795150189434633;-0.2486987812594796;-0.9588776848761217;0.985;0.005912941905192463
57:34.7;0.02365750777034619;-0.24974212245231425;-0.9539876345884105;0.985;0.005636422438916421
57:34.7;0.02213787469597604;-0.2506534850891317;-0.9493465913682925;0.982;0.005267862950445692
57:34.7;0.02013436968005551;-0.2512683430786897;-0.9452269419953021;0.978;0.004782025703467608
57:34.7;0.01759211649690844;-0.2514413661544468;-0.9418751745713779;0.973;0.004166277277780914
57:34.8;0.014518349604563168;-0.2510653254756734;-0.9394937786561859;0.97;0.0034245057144892846
57:34.8;0.01098568765710132;-0.250085664659352;-0.9382261425156986;0.966;0.0025776477890795536
57:34.8;0.007123996123089417;-0.24850852775264223;-0.9381457581487638;0.966;0.0016608686597980814
57:34.8;0.0031045119740597303;-0.246400877221384;-0.9392510497860541;0.965;0.0007184842925106758
57:34.8;-0.0008790659694418454;-0.24388269560912135;-0.9414666520695585;0.972;0.00020184007358961398
57:34.8;-0.004628529545225204;-0.24111302605478133;-0.9446509610280817;0.972;0.0010542293057058437
57:34.8;-0.007955617609370825;-0.2382731778863932;-0.9486086667100043;0.972;0.0017981923496409459
57:34.8;-0.010692291254518448;-0.2355503850984502;-0.9531068964588703;0.981;0.0024004696029946305
57:34.8;-0.012697886400283796;-0.23312334239852067;-0.9578944733708824;0.9890000000000001;0.0028355340456774096
57:34.8;-0.013864863736309643;-0.23114943038737937;-0.9627236797343938;0.998;0.003085390140426946
57:34.9;-0.014124331537035;-0.22975355355050733;-0.967372143153828;1.004;0.003139234202673444
57:34.9;-0.013451629646165971;-0.2290194607249693;-0.9716609110362509;1.006;0.00299338116207546
57:34.9;-0.011871429160951942;-0.2289848198047369;-0.9754650448840485;1.011;0.0026516818079121846
57:34.9;-0.009460871530517303;-0.22964081429173344;-0.9787147775020545;1.01;0.0021263579200531887
57:34.9;-0.006348634363581116;-0.23093611679398968;-0.9813872725531794;1.0070000000000001;0.0014388403080080594
57:34.9;-0.0027082120531647094;-0.23278447237186545;-0.9834908337324931;1.003;0.000620021844900865
57:34.9;0.0012547652699667175;-0.23507487526347903;-0.9850451738564291;1.003;0.00029055265713440675
57:34.9;0.005319643298720917;-0.23768310577870902;-0.9860626408188121;1.004;0.0012467670924862456
57:34.9;0.0092700964073279;-0.24048330296406817;-0.9865351418279947;1.0070000000000001;0.002199286148688087
57:34.9;0.01291368964910924;-0.24335843266530163;-0.9864298271139017;1.011;0.0031000088975582396
57:35.0;0.0160993135656323;-0.24620873555330236;-0.9856943646929962;1.015;0.003907087078689019
57:35.0;0.01872950504949713;-0.2489574241474645;-0.9842706652569845;1.02;0.004589505814669768
57:35.0;0.02076498770124444;-0.25155306507749664;-0.9821143089796213;1.026;0.0051300704616311565
57:35.0;0.022220472756799947;-0.2539682323839687;-0.9792155125668306;1.026;0.005526001211632226
57:35.0;0.023153084473077474;-0.25619447023593117;-0.9756163797354501;1.025;0.005787056080510882
57:35.0;0.02364656468801872;-0.258234492421399;-0.9714192845152059;1.004;0.005931834531076138
57:35.0;0.0237947722316113;-0.26009337202074445;-0.9667836499974953;1.004;0.005983291121733872
57:35.0;0.023687011036456495;-0.2617707656556963;-0.9619123938189597;0.9940000000000001;0.005964402260537557
57:35.0;0.023396606329229536;-0.263255888474454;-0.9570321112956983;0.985;0.005894642510792694
57:35.0;0.022973780823602994;-0.26452609062360777;-0.9523714293589354;0.978;0.005787717772849644
57:35.1;0.02244362871624889;-0.26554879554528543;-0.9481414914014434;0.9790000000000001;0.005650808159027433
57:35.1;0.021809073831672694;-0.26628566322803154;-0.9445219260860017;0.978;0.005485257899389948
57:35.1;0.02105753604960546;-0.26669738050399766;-0.941654031608831;0.976;0.005288319346526157
57:35.1;0.020169242589691466;-0.2667477629196377;-0.9396406516954454;0.9790000000000001;0.005055360990212936
57:35.1;0.019124956451757495;-0.26640693646336255;-0.9385505668423867;0.982;0.004781934902348809
57:35.1;0.017911528303540456;-0.2656543513895601;-0.9384243610460953;0.982;0.004465281583713403
57:35.1;0.016524834414815722;-0.26448236736183117;-0.9392784728088007;0.982;0.00410514223240936
57:35.1;0.014970583223322877;-0.26290047690865026;-0.9411048766814827;0.978;0.003703975605200999
57:35.1;0.01326373489617119;-0.2609396228541651;-0.9438657277081406;0.975;0.0032667513575187533
57:35.1;0.011427141955613245;-0.25865560729787795;-0.9474847244300707;0.975;0.0028004752393266602
57:35.2;0.009489872399677565;-0.256130254804661;-0.9518388839786942;0.976;0.002313580935275476
57:35.2;0.0074854969226916925;-0.25346910159173225;-0.9567549589478244;0.982;0.001815291539499844
57:35.2;0.005450306022906873;-0.2507951485330868;-0.9620136638877105;0.988;0.0013149863941491766
57:35.2;0.003421340253115172;-0.24823922053032088;-0.9673629175152275;0.996;0.000821591809740283
57:35.2;0.0014346667647073198;-0.2459281237180786;-0.972539141808457;1.016;0.0003431360309058895
57:35.2;-0.0004750006232811014;-0.24397227392886583;-0.9772931878122355;1.016;0.00011325555824016174
57:35.2;-0.0022724873739736816;-0.24245510689030503;-0.9814152052489389;1.016;0.000540736390147025
57:35.2;-0.003918488961885443;-0.2414265633235712;-0.984752908886849;1.023;0.0009316031586925782
57:35.2;-0.005365601121612645;-0.24090165536041017;-0.987220580170279;1.023;0.0012760637417016125
57:35.2;-0.006556245575667087;-0.240863566196305;-0.988798829487151;1.021;0.001561472242055647
57:35.3;-0.0074244178686364;-0.24126989269088744;-0.9895261530124089;1.0190000000000001;0.001772526820772833
57:35.3;-0.007901681524911061;-0.24206035240892154;-0.9894840506040193;1.0170000000000001;0.0018925701283387902
57:35.3;-0.007925799978437016;-0.24316437045822276;-0.988778446481777;1.012;0.00190564517442286
57:35.3;-0.0074494075504654466;-0.2445075547788282;-0.98752066843178;1.0090000000000001;0.001798706115640792
57:35.3;-0.006446661906218964;-0.246016922218968;-0.9858111927176313;1.0090000000000001;0.0015634846437945081
57:35.3;-0.0049169679047048305;-0.24762527240972576;-0.9837287750760356;1.01;0.001197754234448369
57:35.3;-0.0028859830392193643;-0.2492748596154584;-0.9813263127098193;1.01;0.0007059691099797894
57:35.3;-0.00040506962452336833;-0.25091975349009793;-0.9786332529596007;1.0090000000000001;9.946825479645835e-05
57:35.3;0.0024495382369128524;-0.25252599193128283;-0.9756632588019736;1.0090000000000001;0.0006035180445958786
57:35.3;0.005577624443689588;-0.25406921615809436;-0.972425264403722;1.0090000000000001;0.0013780264389824867
57:35.4;0.008856713021448066;-0.2555303028789;-0.9689357332585476;1.0070000000000001;0.002192855199668678
57:35.4;0.012145410407307093;-0.25689012349929863;-0.9652297745739487;1.003;0.003011551625138779
57:35.4;0.015288752429148901;-0.2581249898340937;-0.9613689661014396;0.9990000000000001;0.003793955202968913
57:35.4;0.018125873900293493;-0.25920429450023524;-0.9574444539415625;0.995;0.004498365449085111
57:35.4;0.020500271255988748;-0.26009103843045;-0.9535750421946881;0.987;0.005084401896301327
57:35.4;0.022272099008075384;-0.2607447966796423;-0.949901207962639;0.987;0.005516393512764672
57:35.4;0.023330514270200577;-0.26112599119683466;-0.946576690775619;0.987;0.005766737983741554
57:35.4;0.02360356558958596;-0.2612004422785706;-0.9437588246289609;0.981;0.0058185202028601815
57:35.4;0.023064255753459943;-0.2609436145359056;-0.9415975990232903;0.975;0.005666977149328783
57:35.4;0.021732831575387856;-0.2603441596657232;-0.9402232540728593;0.973;0.005319798002297755
57:35.5;0.01967561965478466;-0.25940641866691816;-0.9397333996004074;0.9690000000000001;0.004796382384269475
57:35.5;0.0170001625061922;-0.2581518526917253;-0.9401817543077083;0.968;0.004126103691428293
57:35.5;0.01384630640339495;-0.25661957397877283;-0.941570756031154;0.973;0.0033456205179518326
57:35.5;0.010373910177836843;-0.25486585090981423;-0.9438495765555072;0.977;0.0024954962269460495
57:35.5;0.00674929564543451;-0.25296210695691196;-0.9469175692101769;0.981;0.0016166875610459535
57:35.5;0.0031331811812757787;-0.2509911074388881;-0.9506315311104643;0.985;0.0007475772202236786
57:35.5;-0.000327839775933879;-0.2490416678783897;-0.9548145083966815;0.985;7.795656058487653e-05
57:35.5;-0.003505728499275782;-0.247202753308335;-0.9592645908323432;0.987;0.0008313233833653807
57:35.5;-0.006292435359816799;-0.24555775860917764;-0.9637636532221134;0.99;0.0014891655027980488
57:35.5;-0.008600460142188272;-0.24417926093881004;-0.9680872927253676;0.995;0.0020330355926503106
57:35.6;-0.010364467464870014;-0.2431242955521005;-0.9720173900126928;1.002;0.002449341763626906
57:35.6;-0.011544544062215029;-0.24243040991795062;-0.975357630820856;1.01;0.002729780754326729
57:35.6;-0.012129955257572177;-0.2421130402342278;-0.977950542340914;1.016;0.0028720650494595693
57:35.6;-0.012141096225130184;-0.24216494050716791;-0.9796929867415999;1.0190000000000001;0.0028804422237793557
57:35.6;-0.011627507403966243;-0.24255841129103728;-0.9805464873218984;1.015;0.0027654840140842467
57:35.6;-0.010661534486112486;-0.24325047596324748;-0.9805398317914545;1.015;0.0025429548838472155
57:35.6;-0.009329417072016592;-0.2441898214130676;-0.9797636164420119;1.015;0.002232047198037019
57:35.6;-0.0077224501447470915;-0.24532343832844122;-0.9783581036817842;1.01;0.0018534974920658299
57:35.6;-0.005929973982291051;-0.24660141257802093;-0.9764961732701745;1.002;0.0014279693755302218
57:35.6;-0.004034745701760051;-0.24797937248866309;-0.9743634486877182;0.9990000000000001;0.0009748834735475961
57:35.7;-0.0021105722525186;-0.24941870544291542;-0.9721385839508798;0.997;0.0005117494982325132
57:35.7;-0.00022157696316525368;-0.25088510678712544;-0.9699769551232892;0.997;5.3921368190329165e-05
57:35.7;0.0015779226928643144;-0.2523466026977084;-0.9679996964350084;0.998;0.0003854414402017338
57:35.7;0.003243795478021994;-0.2537724590472909;-0.9662880799859498;0.997;0.0007954347760289642
57:35.7;0.004742739543487099;-0.25513394400364925;-0.9648820456282768;0.996;0.0011675399317510491
57:35.7;0.006052305224165612;-0.25640677181104876;-0.9637817181867318;0.996;0.001495646629861679
57:35.7;0.007159650513698892;-0.25757374233670705;-0.9629514919713769;0.996;0.00177581541600305
57:35.7;0.008059547641924044;-0.2586256662488041;-0.9623267783871085;0.995;0.002005879593962508
57:35.7;0.008752669581183368;-0.25955962306370756;-0.9618234000791351;0.995;0.0021851085051393633
57:35.7;0.009244371153905332;-0.2603750449775772;-0.96134925081589;0.997;0.0023139710642984344
57:35.8;0.009543090352340553;-0.2610689862553259;-0.960817481009187;0.998;0.002393785403278976
57:35.8;0.009657511055513589;-0.26163197825660267;-0.9601600489044981;0.9990000000000001;0.002426049571352735
57:35.8;0.009592895060932324;-0.2620454014286723;-0.9593401321850055;0.9990000000000001;0.0024115643170396785
57:35.8;0.009348185601755989;-0.26228094141021013;-0.9583617874077316;0.9990000000000001;0.002349760230250013
57:35.8;0.00891540637598195;-0.2623026522673505;-0.957275330301356;1.0;0.002238621614181748
57:35.8;0.008281842412290784;-0.26207181826766884;-0.9561771548304889;0.998;0.002075322753100475
57:35.8;0.007434639400627012;-0.26155381552071716;-0.9552031353887303;0.998;0.0018574481872598305
57:35.8;0.006367312330163404;-0.2607252150976452;-0.9545153597674015;0.992;0.0015846089670177033
57:35.8;0.005087688470550946;-0.25957936981762103;-0.9542827940371382;0.985;0.001260282129012312
57:35.8;0.0036263621897353877;-0.2581297078587589;-0.9546577928217396;0.98;0.0008936282505646067
57:35.9;0.0020439751238629806;-0.25641101245472026;-0.9557519881225087;0.978;0.0005009074483182827
57:35.9;0.0004352325321280976;-0.2544792769155968;-0.9576161527250991;0.978;0.00010606332431733546
57:35.9;-0.0010722316733116422;-0.2524103542375342;-0.9602283339191757;0.985;0.0002598784782604018
57:35.9;-0.002325478966827196;-0.2502971593746651;-0.9634928673820412;0.991;0.000560811409510452
57:35.9;-0.003160772786658073;-0.24824501335385668;-0.9672502434575657;1.0070000000000001;0.0007589491144542529
57:35.9;-0.003423457065187304;-0.24636509754898722;-0.9712947586374665;1.0070000000000001;0.0008192097495672783
57:35.9;-0.0029892062440889256;-0.24476685056711647;-0.9753947030520055;1.0070000000000001;0.0007136559209913562
57:35.9;-0.0017815997228467512;-0.24355056920477372;-0.9793103297592815;1.01;0.00042493217950588205
57:35.9;0.0002175461070125955;-0.24280095305975033;-0.9828078210674314;1.013;5.191230431260927e-05
57:35.9;0.002966040731712475;-0.24258180510872282;-0.9856700420945914;1.015;0.0007091970023261776
57:36.0;0.006366084922841354;-0.24293215914429797;-0.987705415607033;1.015;0.0015275128518890835
57:36.0;0.010273365149278107;-0.2438640241493132;-0.9887559840850898;1.0170000000000001;0.0024771344869344235
57:36.0;0.01450820878469201;-0.24536145862954498;-0.9887056864432946;1.0190000000000001;0.003519550277314984
57:36.0;0.01886818143759195;-0.24738065898794154;-0.9874894774060006;1.022;0.004609228752957915
57:36.0;0.023142735643932513;-0.2498514230569305;-0.9851027176758279;1.021;0.005696105691367938
57:36.0;0.027129729204347086;-0.25268052159094984;-0.9816091421468343;1.021;0.006729081960883285
57:36.0;0.03065152619937919;-0.2557564709704365;-0.9771455281471004;1.021;0.007660162511299168
57:36.0;0.03356766646485231;-0.2589544554354191;-0.9719213329366255;1.0170000000000001;0.008448423066337757
57:36.0;0.03578260055715048;-0.2621409532023482;-0.9662113582985298;1.008;0.009063144686304047
57:36.0;0.037248375690055985;-0.2651787440954224;-0.9603398208798056;0.998;0.00948573495876941
57:36.1;0.03796217916951402;-0.2679330457352503;-0.9546560122058869;0.988;0.009710113973974645
57:36.1;0.037958951251379755;-0.2702788481066915;-0.9495042609695578;0.9790000000000001;0.009741440503197226
57:36.1;0.037300797385218264;-0.272108799850531;-0.9451927381792377;0.973;0.009593588341879247
57:36.1;0.03606632922914386;-0.2733406259981524;-0.9419661155937504;0.971;0.00928627216863688
57:36.1;0.034342833546112256;-0.2739231310333132;-0.9399862253411398;0.972;0.00884272912159656
57:36.1;0.032222224964641576;-0.2738400648933398;-0.9393229714567787;0.976;0.008288338083557178
57:36.1;0.02979949025750363;-0.2731113061103242;-0.9399553852837056;0.976;0.007649899942974399
57:36.1;0.02717139967497096;-0.27179111763294733;-0.9417808144227576;0.981;0.006954999596912345
57:36.1;0.02443379342896391;-0.26996370607822173;-0.9446295245409262;0.983;0.006231000625023832
57:36.1;0.021676820672921454;-0.26773684074971765;-0.9482822785564091;0.986;0.0055035301986697685
57:36.2;0.01897872052525223;-0.2652346765114533;-0.9524890286920648;0.992;0.004794653368626269
57:36.2;0.016399945503093916;-0.2625907929354324;-0.9569872693423825;0.998;0.004121241457668968
57:36.2;0.013979888583787846;-0.25994178686453073;-0.9615185825311046;1.004;0.003494117393842395
57:36.2;0.011737669144245382;-0.2574211846961043;-0.9658415578491745;1.005;0.0029183141201236337
57:36.2;0.009676801897543788;-0.25515337878751193;-0.9697394393831066;1.002;0.002394353296951605
57:36.2;0.007791966390901087;-0.25324742696452374;-0.9730223971504414;0.997;0.0019200606588183468
57:36.2;0.0060754104134120536;-0.25179061375086625;-0.9755268745593608;0.997;0.0014922940103753591
57:36.2;0.004521202286220131;-0.2508418525337773;-0.9771163270104668;1.004;0.0011081542289894425
57:36.2;0.003126717147790062;-0.2504255148061912;-0.9776871288021961;1.01;0.0007655385556593121
57:36.2;0.0018913078787431666;-0.2505270364993188;-0.9771803871934535;1.0170000000000001;0.0004630112832739354
57:36.3;0.0008124983165197495;-0.2510922020261078;-0.9755966625214817;1.0190000000000001;0.00019903341796073676
57:36.3;-0.00011885400671135234;-0.25203152123075845;-0.9730083672136123;1.0170000000000001;2.9146422940221984e-05
57:36.3;-0.0009216510415282699;-0.2532295089802207;-0.969564819593306;1.013;0.0002262859970517087
57:36.3;-0.0016231331203983511;-0.2545571622566746;-0.965486876951684;1.005;0.0003989200233524852
57:36.3;-0.0022522094621616195;-0.25588553079049975;-0.9610505235653048;0.997;0.0005538609260686842
57:36.3;-0.002829696801133988;-0.2570986232952198;-0.9565611346440542;0.981;0.0006959088929414756
57:36.3;-0.0033594311270532264;-0.2581041170027332;-0.9523223935833137;0.981;0.0008257425624518596
57:36.3;-0.0038240121111223434;-0.2588404430414042;-0.9486053934034707;0.973;0.0009389381454412554
57:36.3;-0.004187154969170488;-0.25927938400830025;-0.9456231616341647;0.9690000000000001;0.0010266091293321495
57:36.3;-0.004402225045815633;-0.2594242852017961;-0.9435140568153437;0.9690000000000001;0.0010775346484628318
57:36.4;-0.004424399212453746;-0.2593046964422355;-0.9423357279350024;0.97;0.001081111149777458
57:36.4;-0.004222793990176413;-0.25896852092867784;-0.9420698847424006;0.976;0.001030220036328423
57:36.4;-0.0037891783048373314;-0.2584728487601441;-0.9426363767335829;0.98;0.0009232177948674772
57:36.4;-0.0031412666586904297;-0.25787473069998784;-0.9439132795339726;0.9840000000000001;0.0007646200610221793
57:36.4;-0.0023204781363568897;-0.2572231253248958;-0.9457586534260631;0.987;0.0005645050289066443
57:36.4;-0.0013856936584494177;-0.2565530443896636;-0.9480298169093657;0.986;0.0003370283225083436
57:36.4;-0.00040522862720057413;-0.25588251207886187;-0.9505973433166695;0.986;9.856831221715427e-05
57:36.4;0.0005511130964571934;-0.25521255822823474;-0.9533530452082131;0.988;0.00013409004316424403
57:36.4;0.0014189510579996072;-0.2545302609848778;-0.9562129606245954;0.991;0.0003453515939935898
57:36.4;0.002145292459299578;-0.25381458903776954;-0.9591168908587842;0.996;0.0005222454042773023
57:36.5;0.0026944042117002993;-0.25304418421158303;-0.9620254105528488;0.998;0.0006559121146890751
57:36.5;0.0030543831904780785;-0.2522055755142042;-0.9649143992018852;0.9990000000000001;0.0007433048928573152
57:36.5;0.0032439960832584933;-0.2513002818430752;-0.967766950306598;0.9990000000000001;0.0007889401957578219
57:36.5;0.003317683782831255;-0.250349921409429;-0.9705632247530201;0.998;0.0008061322223353594
57:36.5;0.0033658256267694205;-0.24939901946650286;-0.9732699369597991;0.998;0.0008169954976711194
57:36.5;0.0035080810444974323;-0.24851510598925575;-0.9758319914775946;1.002;0.0008507411937097628
57:36.5;0.00387961877013256;-0.24778542946990595;-0.978168784231115;1.002;0.0009403263715438904
57:36.5;0.004612469908353841;-0.24730994496434355;-0.9801767713602656;1.0090000000000001;0.001118097130402643
57:36.5;0.005815830972041469;-0.24719101104028507;-0.9817384814149718;1.015;0.0014113679928881833
57:36.5;0.007559277365928883;-0.24752093184883212;-0.9827364663497629;1.018;0.0018387779359189942
57:36.6;0.009861870029657386;-0.24836911764375053;-0.9830690820364334;1.0190000000000001;0.002407913638736233
57:36.6;0.01268843747147234;-0.24977117905075708;-0.9826644122008111;1.0170000000000001;0.0031142659389103667
57:36.6;0.015952550933202202;-0.25172209122973893;-0.9814896704024347;1.016;0.003941279226319601
57:36.6;0.019524814749036085;-0.25417442106815846;-0.9795552425631788;1.014;0.004861247114087691
57:36.6;0.023244985631776363;-0.25704134066233;-0.9769139790176554;1.008;0.005836985089564483
57:36.6;0.026936134466026506;-0.2602033317935746;-0.9736571616969577;1.008;0.0068242383536636485
57:36.6;0.030418531642049464;-0.2635169058640322;-0.9699089726911915;1.008;0.007774593762603086
57:36.6;0.03352142100241441;-0.2668237898708812;-0.9658207945748608;1.005;0.008638603096194098
57:36.6;0.03609253634275778;-0.269960224650025;-0.9615651918306775;1.002;0.0093690577741487
57:36.6;0.03800627278114036;-0.27276687397318233;-0.9573283942894246;0.998;0.009924481987582365
57:36.7;0.039170724125870304;-0.2750992639728916;-0.9533005335152626;0.9940000000000001;0.01027261151991204
57:36.7;0.03953252234855898;-0.2768376827218178;-0.9496639867500516;0.9890000000000001;0.010393209925287326
57:36.7;0.03907809194740406;-0.2778951793339643;-0.946580993945586;0.9840000000000001;0.010279503617405567
57:36.7;0.037830687403399024;-0.2782225042286876;-0.9441822026480051;0.98;0.009937846811630187
57:36.7;0.03584374206589673;-0.27780910880167065;-0.9425581284114748;0.978;0.009385728078507256
57:36.7;0.03319218529086345;-0.27667987816409834;-0.9417553439159048;0.981;0.008648713588897062
57:36.7;0.02996407410633305;-0.2748884399928966;-0.941778040499117;0.981;0.007757216255837918
57:36.7;0.026254454790490878;-0.27250920680650287;-0.9425937988616285;0.9840000000000001;0.00674386335423387
57:36.7;0.022161871965898278;-0.26963052290142636;-0.9441411677162919;0.986;0.0056417317176542265
57:36.7;0.01778660835737264;-0.2663499552842623;-0.9463366664438365;0.985;0.0044832343188491
57:36.8;0.013229460081776228;-0.26277100105476536;-0.9490798121816963;0.982;0.003299303679739465
57:36.8;0.008590240369652556;-0.2589996390440102;-0.952256314763002;0.982;0.002118645702409499
57:36.8;0.003965661315040872;-0.2551396517641338;-0.9557411085512622;0.985;0.000967016413562062
57:36.8;-0.0005531046988108214;-0.2512868751824109;-0.9594033383072921;0.993;0.00013334550457000862
57:36.8;-0.0048819888254629995;-0.24752360047892066;-0.9631141571218509;0.998;0.0011638343241848247
57:36.8;-0.008943303778139573;-0.24391495101364855;-0.9667559288916892;1.004;0.0021088867032891248
57:36.8;-0.012662454374330997;-0.24050902355199177;-0.970229793441767;1.004;0.0029547713221057467
57:36.8;-0.01596336371921479;-0.23734146116485472;-0.9734587517492169;1.005;0.0036882094363079997
57:36.8;-0.018764656025607836;-0.23444326451182007;-0.9763852193471143;1.004;0.004295359958039233
57:36.9;-0.02097836932267478;-0.23184932871776548;-0.9789641150977141;1.004;0.004761506069573586
57:36.9;-0.022512055832181712;-0.22960509898611842;-0.9811539607361792;1.002;0.005071469839384555
57:36.9;-0.023274129288558335;-0.2277695022111127;-0.9829089751730813;1.002;0.00521053498106677
57:36.9;-0.02318165890271246;-0.22641341586103955;-0.9841749729512037;1.005;0.005165578730030494
57:36.9;-0.022169281600053794;-0.22561405583738448;-0.9848910701992832;1.0070000000000001;0.004926131179385751
57:36.9;-0.020197399720330644;-0.22544644923623428;-0.9849977149358344;1.016;0.004485120165107743
57:36.9;-0.0172582282970103;-0.22597347300137544;-0.9844495293551808;1.016;0.0038392564778831997
57:36.9;-0.013379903133444126;-0.22723602641312365;-0.9832295404425475;1.016;0.0029894071833134997
57:36.9;-0.008629904299416078;-0.22924482406693578;-0.981360707376789;1.0170000000000001;0.0019414856452382792
57:36.9;-0.0031179731912722767;-0.23197481326263236;-0.9789115606612067;1.012;0.0007080381651786122
57:36.9;0.0030028966498506305;-0.23536253548946276;-0.9759943284150047;1.005;0.0006898028959553878
57:37.0;0.009538874466231084;-0.2393065792757036;-0.9727555444842819;0.998;0.002220524079975548
57:37.0;0.016261688353264206;-0.24367162449462265;-0.9693609305797192;0.9940000000000001;0.0038411043372649782
57:37.0;0.022919278866835598;-0.24829636220237325;-0.9659778857200927;0.991;0.005497161418301604
57:37.0;0.029251207018280406;-0.2530044851952133;-0.9627593474334942;0.9890000000000001;0.007125080175579997
57:37.0;0.03500852218028365;-0.25761719830720137;-0.9598319702327285;0.993;0.008656530078493431
57:37.0;0.03997527714000145;-0.26196556989427794;-0.9572900845119683;0.993;0.010024881776019122
57:37.0;0.04398647372829021;-0.26590063890461696;-0.9551953572560706;0.993;0.011171994956089816
57:37.0;0.046937739711300455;-0.26929926045240593;-0.9535808785772496;0.993;0.01205354703641926
57:37.0;0.04878530146768427;-0.27206542493363595;-0.9524578322589731;0.9940000000000001;0.012641776386310224
57:37.0;0.049537889597539304;-0.2741288337418296;-0.9518229444397468;0.9940000000000001;0.012925530861431854
57:37.1;0.049243824444672964;-0.275442939877731;-0.9516651365301316;0.998;0.012908256272133337
57:37.1;0.047977394005431086;-0.2759837106260965;-0.9519699149851277;0.996;0.012605013865990363
57:37.1;0.045828444316953446;-0.2757492197898427;-0.9527202174702092;0.9940000000000001;0.01203967569367806
57:37.1;0.042897102273351785;-0.2747594845074731;-0.9538932610068719;0.9890000000000001;0.011242953898002889
57:37.1;0.03929268680986569;-0.2730559075417035;-0.9554545389609108;0.988;0.01025116753915406
57:37.1;0.03513412888249395;-0.2707001189754835;-0.9573516482453347;0.991;0.009105192375898614
57:37.1;0.030549700358225965;-0.2677725114211786;-0.9595109200099172;0.991;0.007849154333290533
57:37.1;0.02567564173117699;-0.2643708620085636;-0.961838769744628;0.995;0.006528857245198761
57:37.1;0.020654446297321015;-0.26060897914030445;-0.9642282703042543;1.001;0.005190184452705355
57:37.2;0.015633449852261148;-0.25661471588451146;-0.9665701234939704;1.008;0.0038776602064065665
57:37.2;0.010763724065072214;-0.2525265406914982;-0.9687656303980394;1.01;0.0026332270509046634
57:37.2;0.006198574229362153;-0.24848827606884713;-0.9707379480901739;1.0090000000000001;0.0014952014751454716
57:37.2;0.0020905030316190824;-0.2446422728014594;-0.9724381482996782;1.004;0.0004973295815660296
57:37.2;-0.0014142648565592928;-0.2411217013456084;-0.9738446714165668;1.0;0.0003320907211171242
57:37.2;-0.004183774954913946;-0.23804265959686124;-0.9749574841020143;1.001;0.0009709766521848292
57:37.2;-0.006109857279316868;-0.23549696770105835;-0.9757898247955249;1.001;0.0014040179824740349
57:37.2;-0.007117332907160418;-0.23354708914527925;-0.9763600774094009;1.001;0.0016229373380848113
57:37.2;-0.007171178939769367;-0.23222458765713386;-0.97668506387062;1.0;0.0016264971479229894
57:37.2;-0.0062807164674106375;-0.23153226286493453;-0.9767753249515627;1.002;0.0014204154408312508
57:37.3;-0.004500235035768313;-0.23144861890742455;-0.9766328826657442;1.002;0.0010172346209896062
57:37.3;-0.001925389024828545;-0.2319328276387091;-0.9762518359208137;1.002;0.00043595591881372597
57:37.3;0.0013146092269927844;-0.23292901380147862;-0.975621692830729;1.003;0.0002987457339621571
57:37.3;0.00506758593382313;-0.23436981068065244;-0.974732786770127;1.006;0.0011576795607646747
57:37.3;0.009169735284528295;-0.23617966535362736;-0.9735825791606818;1.005;0.0021084926701949716
57:37.3;0.013456185095218448;-0.23827804448589093;-0.9721812590266121;1.005;0.0031171178668071542
57:37.3;0.017769984978224605;-0.24058239264220999;-0.9705551247028432;1.0;0.004149264377056201
57:37.3;0.021968770830907713;-0.24301085890920496;-0.9687469886303817;1.0;0.005171800983750405
57:37.3;0.02592845649574142;-0.24548481339857336;-0.9668139459509552;0.998;0.0061538116666261895
57:37.3;0.029544209814827097;-0.24793087862686738;-0.9648235007409177;0.996;0.007067256788018386
57:37.4;0.03273013034444476;-0.2502821390801181;-0.962848965072827;0.9940000000000001;0.00788743441174696
57:37.4;0.03541924500122525;-0.2524784946356014;-0.9609647697825844;0.993;0.008593521300676595
57:37.4;0.03756445759240223;-0.2544666210199186;-0.9592421932771783;0.991;0.00916930077109233
57:37.4;0.03913973703868024;-0.2562004307384454;-0.9577458580689016;0.993;0.009603909115717997
57:37.4;0.04014005811431321;-0.2576426977040034;-0.9565310548793308;0.9940000000000001;0.009892246032348744
57:37.4;0.04057900613087977;-0.25876742008112213;-0.9556415916076665;0.991;0.010034738161816588
57:37.4;0.0404842120781513;-0.2595615196013641;-0.955107707191414;0.988;0.010036408947194623
57:37.4;0.039891906670879114;-0.2600247893127241;-0.9549439766425017;0.988;0.009905523695322408
57:37.4;0.038842288023984595;-0.2601682847853712;-0.9551477676852753;0.99;0.00965227580797535
57:37.4;0.03737718082235311;-0.26001210268947766;-0.9556989832589807;0.988;0.009287979088552193
57:37.5;0.03554080777912139;-0.25958314904633534;-0.9565614907288651;0.991;0.008825040029873082
57:37.5;0.03338333936284432;-0.2589129622173281;-0.9576862708801824;0.993;0.00827764567347371
57:37.5;0.03096534950666041;-0.2580355791021545;-0.9590160275023407;0.993;0.00766269331681604
57:37.5;0.028360287350548522;-0.2569855082474504;-0.9604907666527829;0.995;0.007000232341577968
57:37.5;0.025652689558925305;-0.25579580540603175;-0.962053813642377;1.0;0.006312853188937097
57:37.5;0.022932003019634564;-0.25449621177772586;-0.9636575936161924;1.001;0.0056240096920808485
57:37.5;0.020284105822552218;-0.2531115342616638;-0.9652679401675514;1.003;0.004955821848405472
57:37.5;0.01778354021944496;-0.2516608718190937;-0.9668652555233702;1.003;0.004327129296586709
57:37.5;0.015488902950919849;-0.25015847738229663;-0.9684412596424324;1.001;0.0037524003464898615
57:37.5;0.01344238838542798;-0.24861657589472802;-0.9699913137422213;0.998;0.003241711525586734
57:37.6;0.011672896759418065;-0.24704964714085406;-0.9715038611911853;0.997;0.0028016082871436857
57:37.6;0.010200958482442516;-0.24547915490797734;-0.9729497880800464;0.996;0.0024363856186913396
57:37.6;0.00904324025406574;-0.24393753960959552;-0.974274963687669;0.996;0.0021492367134400684
57:37.6;0.008214735347166702;-0.2424702713666823;-0.9753987442298095;1.001;0.0019428276114760766
57:37.6;0.007727905921648021;-0.24113495432936247;-0.976219938380633;1.005;0.0018191548518701201
57:37.6;0.007589544828938083;-0.23999706403371282;-0.9766298085235608;1.01;0.0017789004092380193
57:37.6;0.007797117657824004;-0.2391228830823233;-0.9765296169723261;1.01;0.0018207094465346005
57:37.6;0.008336355068216814;-0.23857119164818982;-0.9758489686532986;1.01;0.001940782249442546
57:37.6;0.009181153009569926;-0.23838551650180115;-0.9745613937782941;1.011;0.0021329775974929873
57:37.6;0.010295869204432935;-0.23858808750604843;-0.9726947456565262;1.0090000000000001;0.0023893971569761475
57:37.7;0.011639025867672435;-0.23917600214085935;-0.9703349659219497;1.006;0.0027011948755543812
57:37.7;0.013166641128074245;-0.24012002646455122;-0.967622332782388;1.003;0.0030592098182690413
57:37.7;0.014833679832548399;-0.2413663926119034;-0.9647399809852769;0.995;0.003454108518135288
57:37.7;0.016593369072248048;-0.2428414072583775;-0.9618956181021096;0.986;0.003876013314171777
57:37.7;0.01839536661674932;-0.24445808002768143;-0.9592989781438724;0.982;0.004313867741970499
57:37.7;0.020184414935067303;-0.24612378219108919;-0.9571390574284299;0.981;0.004754937188160785
57:37.7;0.02190112554517386;-0.24774799348611765;-0.955565312214467;0.9840000000000001;0.005184859074415394
57:37.7;0.023485646462808134;-0.2492492074565721;-0.9546753069986919;0.9840000000000001;0.005588458041927465
57:37.7;0.024883308072164278;-0.2505601798353911;-0.9545090311820792;0.983;0.005951140593150729
57:37.7;0.026050180421189624;-0.2516311742521109;-0.9550488405511661;0.985;0.006260380953508316
57:37.8;0.026956724172146593;-0.2524314245203753;-0.9562240125916573;0.9890000000000001;0.006506840758640164
57:37.8;0.027588878266315873;-0.25294912185148044;-0.9579192299710879;0.991;0.0066849184037453095
57:37.8;0.027947062234729855;-0.253189943833457;-0.9599861121787749;0.993;0.006792780243776368
57:37.8;0.028043966644059056;-0.25317413514545434;-0.9622565610533877;0.995;0.006832028320388909
57:37.8;0.02790151767754013;-0.25293246157746;-0.9645568235481845;0.9990000000000001;0.006807069979094383
57:37.8;0.027546960543380114;-0.25250146888806985;-0.9667215357818497;1.005;0.006724174717502994
57:37.8;0.027008491215439058;-0.2519185107472251;-0.9686068507170125;1.005;0.006590341815408767
57:37.8;0.026311685816714205;-0.2512173860310674;-0.9701012198044014;1.005;0.00641232340310026
57:37.8;0.02547793717903822;-0.2504257245665752;-0.9711325146357472;1.005;0.006196146770267498
57:37.8;0.02452503665998394;-0.24956494666287762;-0.9716711316961693;1.0070000000000001;0.005947200093031185
57:37.9;0.02346892938183041;-0.24865283516524586;-0.9717294782645639;1.008;0.005670639924949268
57:37.9;0.02232559333872727;-0.247707573827037;-0.9713582274232793;1.006;0.005371823297884807
57:37.9;0.021112770882726888;-0.24675091265476787;-0.9706395793213429;1.002;0.0050566395690084705
57:37.9;0.019851603055393026;-0.24580822701976657;-0.9696780983518076;0.998;0.004731725950629146
57:37.9;0.0185676252572069;-0.24490502138269776;-0.9685903587725626;0.995;0.004404475452699549
57:37.9;0.01729023084291423;-0.24406140811436258;-0.9674950232082907;0.996;0.004082711046890075
57:37.9;0.016050515889222107;-0.24328694240722593;-0.9665046002358785;0.996;0.003774085386806781
57:37.9;0.014878645074674329;-0.24257793020065524;-0.9657190544121756;0.996;0.0034855030774027006
57:37.9;0.013802123257781136;-0.24191843153798834;-0.9652204355757544;0.996;0.003222859461796342
57:37.9;0.01284541611967852;-0.24128499517341528;-0.9650674909974457;0.9940000000000001;0.0029911361326255053
57:38.0;0.012030435481906254;-0.2406539548950339;-0.9652898436009512;0.992;0.002794680009148666
57:38.0;0.011377372813567509;-0.24000921566747455;-0.965882349370441;0.99;0.002637510132725702
57:38.0;0.010905673061204026;-0.23934823137710712;-0.9668012530845465;0.991;0.0025235964118798943
57:38.0;0.01063471976158064;-0.23868445208699987;-0.9679642567624006;0.99;0.002457024578520646
57:38.0;0.010583365485689541;-0.2380456037248967;-0.9692562976398128;0.9940000000000001;0.0024418702907606452
57:38.0;0.01076771935099463;-0.23746838938210182;-0.9705417133660792;1.004;0.0024816683397208958
57:38.0;0.011197547384782047;-0.23699131376193214;-0.9716815639570112;1.004;0.0025785722240306073
57:38.0;0.011872350423760074;-0.23664791647416658;-0.9725528014734219;1.0070000000000001;0.0027324522484464004
57:38.0;0.012778370150721075;-0.2364622426352357;-0.9730652591810544;1.01;0.002940215994636076
57:38.0;0.01388779326664869;-0.2364470405097315;-0.9731734489127375;1.01;0.0031956365304330013
57:38.1;0.015161030216525853;-0.23660402561484628;-0.9728814549616634;1.008;0.0034898822004801005
57:38.1;0.016551684506243718;-0.23692538616576417;-0.9722400668738199;1.004;0.003812653270187327
57:38.1;0.018012494461515597;-0.23739612142905525;-0.9713364208618527;0.997;0.004153528097085939
57:38.1;0.01950042144343096;-0.23799697145502854;-0.9702781645897786;0.99;0.004503100981598503
57:38.1;0.020980107743012694;-0.23870744695226986;-0.9691759173789408;0.9890000000000001;0.00485373762270354
57:38.1;0.022425948329906856;-0.23950815797207384;-0.9681285268930911;0.995;0.005200009596200692
57:38.1;0.023823164089501362;-0.24038164417370392;-0.9672144122491197;0.995;0.005538899722793462
57:38.1;0.0251675368854196;-0.2413114943388764;-0.966489500247904;0.9990000000000001;0.005869699433576901
57:38.1;0.026462698580071407;-0.2422804244272022;-0.9659897452223482;0.998;0.006193340705372579
57:38.1;0.02771414028528996;-0.24326837331587825;-0.9657353627225348;0.9990000000000001;0.006510962537401017
57:38.2;0.028920654475543393;-0.2442513369959753;-0.9657344309049197;0.998;0.00682185967689277
57:38.2;0.030065736589658068;-0.24520117856693122;-0.9659845498194896;0.995;0.00712138690758322
57:38.2;0.03111218123714847;-0.24608657306506518;-0.9664723869527031;0.995;0.007399592930678333
57:38.2;0.03200234136159045;-0.24687538028575773;-0.967172021788885;0.996;0.007641229790944289
57:38.2;0.03266495811617954;-0.24753840320876186;-0.9680436419433898;0.998;0.007827437844029209
57:38.2;0.033027618806331184;-0.24805368220941995;-0.9690339478904014;1.001;0.007938929285523788
57:38.2;0.03303209132640383;-0.248410048472005;-0.9700787851907163;1.003;0.007959984777448846
57:38.2;0.03264870083170795;-0.24860899608628917;-0.9711076925478566;1.003;0.007882248790555166
57:38.2;0.03188595341063479;-0.2486645644284955;-0.9720497082656062;1.005;0.00770729146038902
57:38.2;0.03079277007732162;-0.2486013551875451;-0.9728398124475957;1.008;0.007447209757541851
57:38.3;0.029452855885623977;-0.24845089530134817;-0.973425286994571;1.008;0.00712312560197189
57:38.3;0.027972932214942063;-0.24824659354808476;-0.9737709237847502;1.0070000000000001;0.0067620455727806965
57:38.3;0.026467498747323317;-0.24801799182327483;-0.9738619144048523;1.008;0.006392834623536193
57:38.3;0.025042717023125743;-0.24778555672841962;-0.9737036765534243;1.008;0.006042049013260858
57:38.3;0.023782045384685653;-0.24755705779413095;-0.9733184341189146;1.004;0.0057303277810276275
57:38.3;0.02273604970785379;-0.2473259634383192;-0.9727388357564352;1.001;0.005469920000213466
57:38.3;0.021917521766926722;-0.24707220950270992;-0.9719995411947563;0.996;0.005263582150417544
57:38.3;0.021301710833410602;-0.24676567301426433;-0.9711286350746898;0.996;0.0051047677851262215
57:38.3;0.02083141076571721;-0.24637185056347194;-0.9701414172842395;0.9940000000000001;0.004979030815732429
57:38.3;0.020426768204031217;-0.2458584528483444;-0.9690388739467001;0.997;0.0048666039534874805
57:38.4;0.019998516756036984;-0.2452018704004034;-0.9678118232558087;1.003;0.004745833397617984
57:38.4;0.019461957070573868;-0.24439285256566176;-0.9664498034232958;1.003;0.0045967862844704475
57:38.4;0.018749219904029668;-0.24344031170439792;-0.9649520680455244;0.9990000000000001;0.004404346103249753
57:38.4;0.0178186230483175;-0.2423719041444455;-0.9633376436776646;0.997;0.004160398647441761
57:38.4;0.016660546151061;-0.2412311141150348;-0.9616524118427896;0.9990000000000001;0.003864921538172863
57:38.4;0.015299325440593632;-0.24007204563223156;-0.9599722705549452;0.993;0.003525920892506121
57:38.4;0.013791342049294355;-0.23895359011197548;-0.9584017268067065;0.993;0.003158403972898698
57:38.4;0.012220267349482065;-0.23793438284930366;-0.9570673481032189;0.993;0.002782789856751344
57:38.4;0.0106901998586657;-0.2370695837259709;-0.9561058111267069;0.986;0.002423079255686723
57:38.4;0.009316763536132115;-0.23640959572472298;-0.9556468540555467;0.9790000000000001;0.0021048812903186036
57:38.5;0.0082165517286212;-0.23599943313128666;-0.9557928367647572;0.973;0.0018533793714869493
57:38.5;0.0074963612003762815;-0.23587683029486217;-0.9565988151440872;0.9690000000000001;0.001691475165935537
57:38.5;0.007243835412681077;-0.23606831581735596;-0.9580584542865983;0.9740000000000001;0.0016383183040104645
57:38.5;0.007520094840024805;-0.2365845389763086;-0.9601002451907458;0.985;0.0017081509939992636
57:38.5;0.008354117942017196;-0.23741717482824842;-0.9625953862831733;0.9940000000000001;0.0019092223546875384
57:38.5;0.009738694479469873;-0.238539045497157;-0.9653747578338364;1.004;0.0022426224090437465
57:38.5;0.011628109401453458;-0.23990748353988892;-0.9682496960319432;1.004;0.002701097579600185
57:38.5;0.013938315105235653;-0.24146932756708286;-0.9710311807421871;1.004;0.0032681759284412825
57:38.5;0.016551177345301166;-0.24316533705584492;-0.9735442805248529;1.0070000000000001;0.003918197008084309
57:38.5;0.01932421460417526;-0.24493293837840738;-0.9756374459965879;1.005;0.004617825367252505
57:38.6;0.022105330491095095;-0.24670796740109385;-0.9771879101755042;1.006;0.005329154027274788
57:38.6;0.0247496275462636;-0.24842669622025762;-0.9781049895958167;1.0090000000000001;0.006013847428703774
57:38.6;0.02713442493481756;-0.2500286187456063;-0.9783329770591451;1.013;0.006637385409425279
57:38.6;0.029169468254724;-0.25145937277499103;-0.9778544297314359;1.015;0.0071724998466683254
57:38.6;0.030800965446897758;-0.25267297971307867;-0.9766931431243989;1.013;0.0076011844323631925
57:38.6;0.03200980152611819;-0.2536332747042691;-0.9749150395683999;1.014;0.007915092241539853
57:38.6;0.03280593130652506;-0.25431497517217483;-0.9726253376963385;1.006;0.008114651713926361
57:38.6;0.03322173532480115;-0.254704702668035;-0.9699613842389898;1.006;0.008207553495249981
57:38.6;0.033306198019542994;-0.25480185158977786;-0.9670816559134001;1.0;0.008207120025628569
57:38.6;0.03311997820630899;-0.2546190047849793;-0.9641521772596842;0.993;0.008130672064534366
57:38.7;0.032730454717092364;-0.2541815316645547;-0.9613321059364334;0.988;0.007997780452434178
57:38.7;0.03220591459671533;-0.25352592391528983;-0.9587608296476582;0.986;0.007828315015149403
57:38.7;0.03160854044562516;-0.2526965924799335;-0.9565490847021072;0.986;0.007640311906394972
57:38.7;0.030986706242080737;-0.2517413896720078;-0.9547756132655476;0.986;0.0074478574893075905
57:38.7;0.030368465299519615;-0.2507066949823693;-0.9534890864158786;0.987;0.007259463118647875
57:38.7;0.029759151022534944;-0.24963321951896295;-0.9527135131054054;0.987;0.007077587389286428
57:38.7;0.02914527719372769;-0.24855368216095167;-0.9524547496949942;0.9890000000000001;0.006899740280088363
57:38.7;0.02850418109162872;-0.2474930315960517;-0.9527058824917678;0.9890000000000001;0.006720945763215872
57:38.7;0.027815864964536453;-0.24647091225974804;-0.9534498211290069;0.9890000000000001;0.0065366628217092635
57:38.7;0.027072501487291848;-0.24550514499906642;-0.954658315655277;0.985;0.0063450776910338865
57:38.8;0.026282495246375402;-0.24461472438392884;-0.9562878589316699;0.982;0.006148056245893164
57:38.8;0.025468525958165622;-0.2438212667038208;-0.9582743719663509;0.983;0.005950661779598855
57:38.8;0.024661401554411412;-0.24314859481714507;-0.9605295009680366;0.986;0.005759704820542698
57:38.8;0.02389294872623859;-0.24262080787426557;-0.9629410546278941;0.9890000000000001;0.005582098539136514
57:38.8;0.023190850343477117;-0.24225956743894317;-0.9653787166863492;0.995;0.00542369589282771
57:38.8;0.022576610723078604;-0.24208139048148739;-0.9677045603775679;0.9990000000000001;0.005288870553072911
57:38.8;0.022065971880959497;-0.2420954264479596;-0.969786631574137;1.0090000000000001;0.005180668917081371
57:38.8;0.02167010903785112;-0.2423017286152787;-0.971512909892794;1.0090000000000001;0.005101127576134126
57:38.8;0.02139600241071403;-0.2426898463207374;-0.9728024539873499;1.0070000000000001;0.0050513667624861
57:38.8;0.021245225334234803;-0.24323778359324574;-0.9736112369314291;1.005;0.005031273854484691
57:38.9;0.02121154313906818;-0.24391171393901367;-0.973932192837951;1.004;0.005038875685553451
57:38.9;0.02127868836806328;-0.2446669371905619;-0.9737909494467255;1.003;0.005069742173959158
57:38.9;0.021419938709022642;-0.24545025926435568;-0.9732393521341256;1.003;0.0051168346137065385
57:38.9;0.021600414175249452;-0.24620355826045723;-0.9723484005027067;1.005;0.005171044890916108
57:38.9;0.02178173111367766;-0.24686813946314767;-0.9712013136869023;1.005;0.005222358693789226
57:38.9;0.021927677856183717;-0.24738952239224085;-0.9698865668669853;0.997;0.0052613220812588336
57:38.9;0.022009487707665622;-0.24772227236948555;-0.9684906288875391;0.997;0.005280443645352209
57:38.9;0.022009792547618166;-0.24783437105951417;-0.9670910757857288;0.997;0.005275272049770275
57:38.9;0.021924846714090528;-0.24771065618474067;-0.9657515155892766;0.995;0.005245014025294434
57:38.9;0.021764996367247814;-0.2473551378268793;-0.9645192608737753;0.995;0.005192666600167959
57:39.0;0.02155366025926422;-0.24679221458926598;-0.9634257088850217;0.995;0.005124726815479211
57:39.0;0.021325059461316825;-0.24606662053744802;-0.9624888695007305;0.996;0.005050549959097716
57:39.0;0.02112066236645368;-0.24524144647899956;-0.9617171991941301;0.996;0.004981369828820451
57:39.0;0.0209842829980501;-0.24439330570930973;-0.96111363474128;0.993;0.004928992743015177
57:39.0;0.020956074174252447;-0.24360406853163238;-0.9606788557573527;0.9890000000000001;0.004904251080537075
57:39.0;0.021065983041294672;-0.24294963546568812;-0.9604135360021437;0.991;0.00491537045063695
57:39.0;0.021327570700686495;-0.2424876674089904;-0.9603199849257626;0.991;0.0049664608132410065
57:39.0;0.021733483432997084;-0.242247319278115;-0.9604032777432723;0.991;0.005056406184368973
57:39.0;0.022253943102328953;-0.24222395697560525;-0.9606711343519118;0.9940000000000001;0.005178438338512573
57:39.0;0.022839130840266852;-0.24238051162054344;-0.9611315407877622;0.991;0.00532059374778909
57:39.1;0.023425536274015304;-0.2426554143939759;-0.9617876818241561;0.988;0.005467121662658896
57:39.1;0.023945624968134537;-0.24297553053330623;-0.9626309813758042;0.986;0.005600780471649763
57:39.1;0.024339600945400695;-0.24327119124937976;-0.9636346586865002;0.987;0.00570580003161137
57:39.1;0.024567408275945286;-0.24348969686670244;-0.9647511549653448;0.9940000000000001;0.005771055347324755
57:39.1;0.024618296886136763;-0.24360404401775015;-0.9659158561213705;1.001;0.005792710090572652
57:39.1;0.0245146596566482;-0.24361495880828946;-0.9670568589706183;1.003;0.005775396824580456
57:39.1;0.02430752200625197;-0.24354613669849898;-0.9681077731642816;1.005;0.0057312009963258505
57:39.1;0.024063893566353974;-0.24343455656207208;-0.9690194582232552;1.005;0.005676499764384417
57:39.1;0.023849954814593673;-0.24331916384712132;-0.9697673644148721;1.004;0.00562770651193701
57:39.1;0.023715726361599482;-0.24323122589065105;-0.9703528039261945;1.001;0.005597388155945465
57:39.2;0.023685284306880463;-0.24318838970979942;-0.9707982815406281;0.998;0.005591784656514916
57:39.2;0.023753825482720595;-0.24319299549316029;-0.9711386193115519;0.998;0.005610038589376226
57:39.2;0.023890880563819706;-0.2432340806214659;-0.9714105658890578;0.998;0.005644940984207669
57:39.2;0.024047731106064278;-0.24329173861064718;-0.9716435435130643;0.997;0.005684711620320006
57:39.2;0.024166599622320983;-0.2433422199409942;-0.9718535286133161;0.9940000000000001;0.005715231526312995
57:39.2;0.02418983741387902;-0.24336238139186567;-0.9720414511652283;1.004;0.005722307356961941
57:39.2;0.02406843726987043;-0.2433326409461105;-0.972196644142411;1.004;0.005693802258245453
57:39.2;0.023769507042300613;-0.24323842493087608;-0.9723042305235576;1.004;0.005621530002305065
57:39.2;0.023281934110069874;-0.2430707762274491;-0.9723538842071257;1.01;0.0055027040644868115
57:39.2;0.022619273336738684;-0.24282674560166984;-0.9723472388989766;1.01;0.005340679957393032
57:39.3;0.021819138186033437;-0.24250968526187358;-0.9723016792956822;1.0070000000000001;0.00514479076026863
57:39.3;0.020938975629061062;-0.24212935201699592;-0.9722488459730682;1.003;0.004929243898439471
57:39.3;0.020049051171537706;-0.24170189177095422;-0.9722275760015634;1.0;0.004711311384763541
57:39.3;0.01922415103976257;-0.2412498344269709;-0.9722729450367373;0.995;0.004509230075031041
57:39.3;0.018535216171383866;-0.2408019166107402;-0.9724045105577158;0.992;0.004340148200929508
57:39.3;0.018041311102681378;-0.24039208058082925;-0.9726173741910357;0.998;0.004218230184283849
57:39.3;0.017782235826030335;-0.24005691424521802;-0.9728790267737957;0.998;0.004152976042639263
57:39.3;0.017772990714621788;-0.23983142070234506;-0.9731330045933017;0.998;0.0041480004646140675
57:39.3;0.01800196099952408;-0.23974380363353148;-0.973308379733548;1.004;0.004200661343936396
57:39.3;0.018434022415815744;-0.23981031308158204;-0.9733331293785129;1.0090000000000001;0.004302783286955929
57:39.4;0.019018140019189535;-0.24003131760130567;-0.9731487479158345;1.01;0.004442374605220067
57:39.4;0.019697393096593175;-0.24038974137893823;-0.9727226437169914;1.0090000000000001;0.004605891552846771
57:39.4;0.020418463427567635;-0.24085242287704775;-0.9720550516255697;1.008;0.004780407703980727
57:39.4;0.021137899508688184;-0.24137398994204037;-0.9711788149228344;1.004;0.004955089446864408
57:39.4;0.021823814712728977;-0.24190219990605621;-0.9701523641478925;0.998;0.0051216562908667764
57:39.4;0.022453589004966003;-0.24238366328354918;-0.9690477676602198;0.993;0.005273929248932812
57:39.4;0.023009807761632115;-0.24276925553659798;-0.9679368467557841;0.992;0.005406966756831813
57:39.4;0.023477070287913442;-0.24301889025263795;-0.966878806231626;0.992;0.0055164028505358224
57:39.4;0.023841237694432353;-0.2431053303188144;-0.9659121841320354;0.993;0.0055983613033110955
57:39.4;0.02409124405104626;-0.24301651297783533;-0.9650523622147811;0.995;0.0056499667265510764
57:39.5;0.024222638053945603;-0.2427559735389822;-0.9642942283553186;0.993;0.0056702333581560415
57:39.5;0.024241273697934485;-0.24234154073491887;-0.9636186002128116;0.993;0.005660938986131219
57:39.5;0.024164921410061217;-0.2418031004575037;-0.9630009231319927;0.9940000000000001;0.0056269616552533175
57:39.5;0.02402104277360305;-0.2411802196282219;-0.9624210687712603;0.997;0.005575690577682697
57:39.5;0.023841139586991647;-0.24051967570441182;-0.9618729825792458;1.001;0.005515632810418397
57:39.5;0.023654461399700094;-0.23987231418880117;-0.9613721692263835;1.002;0.005454874138305788
57:39.5;0.02348421661501179;-0.2392890343381323;-0.9609583116072871;0.991;0.005400120142300252
57:39.5;0.0233475160440785;-0.2388165679544034;-0.9606910769265897;0.991;0.005356595994349628
57:39.5;0.0232580096309578;-0.23849380839411646;-0.9606396908440619;0.985;0.005328563936424851
57:39.5;0.02322921080700932;-0.2383487508755425;-0.9608693619973756;0.9840000000000001;0.005320000600529242
57:39.6;0.023276581690530523;-0.23839576928007944;-0.961428346526735;0.9840000000000001;0.005335003004400286
57:39.6;0.023416768058939677;-0.23863344500221328;-0.9623385681218972;0.9890000000000001;0.005377571046280984
57:39.6;0.02366319303716933;-0.23904377474083968;-0.9635911181094594;0.9940000000000001;0.005450590726174648
57:39.6;0.024018968963284197;-0.2395935454697059;-0.9651461110525938;0.995;0.005554213123219169
57:39.6;0.024470008933838126;-0.24023800861755656;-0.9669350618804754;0.995;0.005684249805022232
57:39.6;0.024981934760041125;-0.24092631215905833;-0.9688640997834765;0.996;0.0058314044875937675
57:39.6;0.025503118605777468;-0.24160780819983751;-0.97081769163606;0.998;0.00598193842449949
57:39.6;0.025973420281901076;-0.24223819226852436;-0.9726638068434605;0.998;0.00611976176319927
57:39.6;0.026335563799512605;-0.2427843328674056;-0.974261833482259;1.002;0.006229295995498009
57:39.6;0.02654529508407866;-0.24322682116400743;-0.975474157987477;1.0090000000000001;0.0062981759608563455
57:39.7;0.02657748675640016;-0.24355981119574685;-0.9761811959169278;1.011;0.006319023591488348
57:39.7;0.026427086928363673;-0.2437884034765289;-0.9762979928265534;1.016;0.006289914368610803
57:39.7;0.026105610213669292;-0.24392439301031488;-0.9757891598099734;1.016;0.006213625455386044
57:39.7;0.0256353143568174;-0.2439815263041045;-0.9746785815396661;1.013;0.006096169220339259
57:39.7;0.02504353868474077;-0.24397145355384212;-0.9730510851462905;1.01;0.005945253130173117
57:39.7;0.02435875816792463;-0.2439013123645677;-0.971044863877007;1.004;0.005769106767534835
57:39.7;0.0236085767205843;-0.24377332482541988;-0.9688355064771065;0.992;0.005575785179626509
57:39.7;0.022819019904219508;-0.24358610315407972;-0.966614541434309;0.992;0.005372826532365265
57:39.7;0.022014313887894724;-0.24333690037649638;-0.9645668653174901;0.987;0.005167083326732627
57:39.7;0.021216712356419195;-0.24302396572131563;-0.9628513889381384;0.987;0.0049646250382618
57:39.8;0.020446586520950754;-0.24264835613423535;-0.961587656070185;0.988;0.004770754270206282
57:39.8;0.019723292363259728;-0.242214966938905;-0.9608491832521266;0.9890000000000001;0.0045902423266716095
57:39.8;0.019066829980093132;-0.24173308214216277;-0.9606626661194351;0.991;0.004427774518186396
57:39.8;0.018499595075465367;-0.24121696853119112;-0.9610112469451616;0.991;0.004288432198225909
57:39.8;0.01804731788781186;-0.24068663536780716;-0.9618399341604263;0.991;0.004177990501771407
57:39.8;0.017738369808569913;-0.2401682679868599;-0.9630619159783402;0.991;0.0041028301663945665
57:39.8;0.017600726101539378;-0.2396936712357538;-0.9645654325877068;0.9940000000000001;0.004069291917281966
57:39.8;0.01765649599799995;-0.23929839611791073;-0.9662214903050269;0.9940000000000001;0.004082451187940636
57:39.8;0.017915180535869664;-0.23901866533270313;-0.9678927797438998;0.996;0.0041445774157276224
57:39.8;0.01836776043016651;-0.2388874496744293;-0.9694439107224816;1.001;0.00425375259823759
57:39.9;0.018983728626506085;-0.23893006459636634;-0.9707525932399872;1.004;0.00440312360180608
57:39.9;0.019712568619385588;-0.23915967571032312;-0.9717206057714814;1.006;0.004581129685368836
57:39.9;0.02049001823422238;-0.23957338830011415;-0.9722827123083115;1.005;0.004772802724068761
57:39.9;0.021247667670179046;-0.2401500308253196;-0.9724117939820303;1.003;0.0049618556921946395
57:39.9;0.021922997791071375;-0.24085065110216317;-0.9721195146122594;1.001;0.005132954637178376
57:39.9;0.022467136994681718;-0.24162176411159864;-0.9714532886757455;1.002;0.005273582046123561
57:39.9;0.022849146080648905;-0.24240029492298762;-0.970491126933678;1.004;0.005375200731383609
57:39.9;0.023057161473454168;-0.24311897484794215;-0.9693353780662077;1.004;0.00543373882956922
57:39.9;0.023097428494964545;-0.2437116602194266;-0.9681050195029816;1.001;0.0054495722072697055
57:39.9;0.022992138204053072;-0.24411875787926293;-0.9669254277956891;0.997;0.005427170856343263
57:40.0;0.02277640858028632;-0.24429292921998846;-0.9659152910239802;0.992;0.0053744643093046615
57:40.0;0.022494340686966215;-0.24420464875698192;-0.9651719753664284;0.9890000000000001;0.005301904475617398
57:40.0;0.02219411665836015;-0.24384673080634403;-0.9647580299523966;0.991;0.005221234559722101
57:40.0;0.021922317128655618;-0.24323692103727493;-0.964691700947316;0.99;0.005144041879908552
57:40.0;0.021717934727612295;-0.24241779572581176;-0.9649433384415815;0.9890000000000001;0.005080247066573022
57:40.0;0.021606919525734746;-0.24145344687346823;-0.965438380326841;0.9890000000000001;0.005036754972698766
57:40.0;0.021598115380821466;-0.2404230791036722;-0.9660668873893092;0.997;0.005016481424171991
57:40.0;0.021681299408984132;-0.23941256932159452;-0.9666988504092693;0.997;0.00501791680306355
57:40.0;0.021828308007175123;-0.2385054885605402;-0.9672032263428895;1.001;0.005035425645079898
57:40.0;0.021998195966952624;-0.23777486582781465;-0.9674676759593716;1.003;0.005060453931713211
57:40.1;0.0221459082637954;-0.23727669227853743;-0.967415915002168;1.006;0.005083488012777294
57:40.1;0.02223204206182181;-0.2370458188664921;-0.967020044067859;1.003;0.005096207831793909
57:40.1;0.02223083887735919;-0.23709400875848213;-0.9663059851157216;0.9990000000000001;0.005093204337394566
57:40.1;0.02213458607375949;-0.23740917785616328;-0.9653515101837191;0.995;0.005072877665893684
57:40.1;0.021953943503667604;-0.23795544107376593;-0.9642778708201495;0.998;0.005037445752496481
57:40.1;0.021714835541466974;-0.23867496687917647;-0.9632365268747017;0.9990000000000001;0.004992250379027437
57:40.1;0.02145327109271244;-0.23949317880402676;-0.9623916625303688;0.988;0.004944683757978066
57:40.1;0.021209569516504292;-0.24032770248650007;-0.9618987950003427;0.988;0.004903035855456989
57:40.1;0.021023292565699864;-0.24109945715254258;-0.9618812909758319;0.982;0.004875491956037541
57:40.1;0.020929847434281747;-0.24174313752156415;-0.9624087076049551;0.978;0.0048694483173215295
57:40.2;0.02095881239592853;-0.24221479300116172;-0.9634816326301096;0.981;0.004891147657624719
57:40.2;0.02113286037779452;-0.2424954519879465;-0.9650269866368782;0.988;0.004945399036919879
57:40.2;0.021465866427836506;-0.24259065124011694;-0.9669058511098259;0.997;0.005035083432454898
57:40.2;0.021959787357178278;-0.24252612716054925;-0.9689328317537417;1.005;0.005160363967258684
57:40.2;0.02260130442975956;-0.24234042951768697;-0.9709027337075291;1.01;0.005317837990403478
57:40.2;0.02335990823141881;-0.24207616631113799;-0.9726184972425719;1.01;0.005500037999050853
57:40.2;0.024188782534685743;-0.2417722890293827;-0.9739148247180303;1.0090000000000001;0.005695626591714126
57:40.2;0.02502889134130347;-0.2414593295216951;-0.9746742925582497;1.0090000000000001;0.005890404439218861
57:40.2;0.02581564321300034;-0.24115791841392392;-0.9748354441610925;1.0090000000000001;0.006068981143741026
57:40.2;0.02648687462622628;-0.2408795589486216;-0.9743939597167931;1.0070000000000001;0.00621677638504593
57:40.3;0.02699069625470131;-0.24062848758778485;-0.9733983027146689;1.005;0.006321959566161708
57:40.3;0.027291788707598318;-0.24040401019629354;-0.9719410911141503;1.0;0.00637695939364933
57:40.3;0.027375082833625414;-0.2402029415065623;-0.9701475976560274;0.997;0.00637927869752306
57:40.3;0.027246407727242475;-0.24002159419560298;-0.9681631724171146;0.998;0.006331522082729047
57:40.3;0.026930320411206275;-0.23985675722862052;-0.9661412230847822;0.997;0.0062407112870340115
57:40.3;0.02646567894630512;-0.23970558400618072;-0.9642322904608261;0.9940000000000001;0.00611706171489171
57:40.3;0.025899604478887586;-0.23956494659936545;-0.9625736071458985;0.99;0.005972420168429732
57:40.3;0.02528055150226683;-0.23943098707675867;-0.9612785189359988;0.99;0.005818568311900824
57:40.3;0.024651361553004108;-0.23929915275174088;-0.9604261365721516;0.983;0.005665601737376038
57:40.3;0.02404320038064569;-0.23916453877096905;-0.9600526411521333;0.978;0.005520572393843734
57:40.4;0.023471268377119006;-0.23902230459810925;-0.960146560757368;0.98;0.005386572621775066
57:40.4;0.0229334552397841;-0.23886786969574753;-0.9606507987073668;0.987;0.0052625080919843845
57:40.4;0.02241311954814749;-0.23869643304337335;-0.9614730484344761;0.995;0.005143815130436607
57:40.4;0.02188588793416589;-0.23850184287645965;-0.9625031488726663;1.002;0.005024097619151026
57:40.4;0.021328372094051033;-0.23827587231439165;-0.9636326767957716;1.004;0.004897216403070117
57:40.4;0.020725987879424815;-0.23800915943004866;-0.9647708968134113;1.001;0.0047591906698841845
57:40.4;0.020078222505343527;-0.23769392483271956;-0.9658529158471778;0.9940000000000001;0.004609505524658054
57:40.4;0.019401155421260828;-0.23732733205867476;-0.9668394585024195;0.9940000000000001;0.00445173924677157
57:40.4;0.01872739786046997;-0.236914189930721;-0.9677109269443692;0.993;0.004293526576856528
57:40.4;0.01810320344486236;-0.23646832945948273;-0.9684596333435812;0.992;0.004145815193796471
57:40.5;0.01758245303579279;-0.23601250982157662;-0.9690833796033694;0.996;0.004021384823412009
57:40.5;0.0172181141469011;-0.23557676219579998;-0.9695820628998532;1.001;0.003932806723113712
57:40.5;0.017053109305794085;-0.2351950220788654;-0.969957319205378;0.998;0.003890311042693791
57:40.5;0.0171130734777204;-0.2349003536306757;-0.9702138141836945;0.998;0.0039001305058591826
57:40.5;0.017402700042344895;-0.234720008178936;-0.9703605082568613;0.9990000000000001;0.00396369162977744
57:40.5;0.017906221947102445;-0.23467194439998545;-0.9704110474145378;0.9990000000000001;0.0040777525409243605
57:40.5;0.01859193440450287;-0.23476363749979215;-0.9703832616187525;0.998;0.004235441670366943
57:40.5;0.01941985668341654;-0.23499288227890439;-0.9702980397627807;0.998;0.004427982365445939
57:40.5;0.02035014602621907;-0.2353499000969904;-0.9701778823380145;1.0;0.00464657463973254
57:40.5;0.021349186417434617;-0.2358201938644595;-0.9700453560857356;0.9990000000000001;0.004883760549769576
57:40.6;0.02239160224884074;-0.2363875075547739;-0.9699214917932544;0.998;0.005133886642988315
57:40.6;0.02345862230937747;-0.23703600918178808;-0.9698241784960393;0.995;0.005392744404532705
57:40.6;0.02453458902332345;-0.23775115016126996;-0.969767051490735;0.995;0.005656774138075473
57:40.6;0.025603740491108924;-0.23851950981334372;-0.9697598674053662;0.9990000000000001;0.005922315394641703
57:40.6;0.026649025497525944;-0.23932826915091546;-0.9698110835158651;1.005;0.0061853243086152174
57:40.6;0.027653568593089196;-0.24016434739772585;-0.9699319915920316;1.005;0.0064417075456202
57:40.6;0.028603626921649163;-0.24101262581294092;-0.9701403066206237;1.002;0.0066879874259201414
57:40.6;0.029490688579731607;-0.24185299221289758;-0.970461077082981;1.002;0.006921727528549506
