Time;AccX;AccY;AccZ;Acc-old;Acc-trns
51:42.5;0.06133367670968347;-0.3439845650208851;-0.9285358017785477;0.991;0.019590098019795686
51:42.5;0.04751983834779681;-0.33833680852557985;-0.9407602464000235;1.031;0.015125270842839232
51:42.6;0.034179088034172314;-0.3329997664285947;-0.9522625489792025;1.045;0.010838298407080173
51:42.6;0.02180747810389505;-0.32824442171946167;-0.9623866080515979;1.035;0.006888939495074518
51:42.6;0.010846497797597316;-0.32428011641397436;-0.970594150002288;1.025;0.003413874267357376
51:42.6;0.0016523703880963433;-0.32123500062151367;-0.9764973512041746;1.026;0.0005183240154061807
51:42.6;-0.0055269875374903115;-0.3191502258244786;-0.9798690680837545;1.031;0.001728429578349327
51:42.6;-0.010563456152569841;-0.3179881407291196;-0.9806400646807589;1.035;0.0032940227176830677
51:42.6;-0.013447399365399909;-0.31764980407909715;-0.9788907341491119;1.038;0.004181394198492644
51:42.6;-0.014275337498777935;-0.3179954205985856;-0.9748399721042649;1.036;0.004425278207963081
51:42.6;-0.013230705763682408;-0.3188633291792982;-0.9688299715723659;1.028;0.0040872871799953634
51:42.6;-0.010562465603463422;-0.3200864045489298;-0.9613042774463113;1.0190000000000001;0.0032500752064118558
51:42.7;-0.006564971441206514;-0.3215065758065629;-0.9527774888691046;1.006;0.002011009808253736
51:42.7;-0.0015600534635958445;-0.3229878201494467;-0.9437975770359225;0.991;0.00047555908800965834
51:42.7;0.004119612638993056;-0.32442661902281267;-0.9349045061735517;0.98;0.001249511091497285
51:42.7;0.010146994929045144;-0.3257581321003326;-0.9265905265048808;0.973;0.0030628135873946214
51:42.7;0.016216841056847765;-0.32695666682071;-0.9192674075392377;0.9670000000000001;0.004874143599549169
51:42.7;0.0220596609458024;-0.3280298116539568;-0.9132440859229601;0.963;0.006608440987214903
51:42.7;0.027451239966559963;-0.3290067211040835;-0.9087157918824771;0.9570000000000001;0.008207196122440771
51:42.7;0.0322162089243248;-0.32992266671334464;-0.9057639757442858;0.9540000000000001;0.009627236280900365
51:42.7;0.036226195298085684;-0.3308034359183872;-0.9043657539043674;0.958;0.010837692990176659
51:42.7;0.039395564945463334;-0.33165336792658623;-0.9044114252511785;0.965;0.011816742850462553
51:42.8;0.0416791704283511;-0.3324496110721311;-0.9057278036800986;0.971;0.012549967329655059
51:42.8;0.043075318509506216;-0.33314332006689323;-0.9081037441744348;0.976;0.013031519951364392
51:42.8;0.04363346283638883;-0.33366667725794313;-0.9113136303885038;0.9790000000000001;0.013267844818907481
51:42.8;0.0434621252543178;-0.3339434283356153;-0.9151355937667884;0.98;0.013282178358979999
51:42.8;0.042731028341516625;-0.33390056877798635;-0.9193632557414265;0.982;0.013117396481538129
51:42.8;0.04166330244375011;-0.3334794599223832;-0.9238116548342449;0.986;0.012835305731577326
51:42.8;0.04051727921375997;-0.3326450382105211;-0.9283189968233183;0.9890000000000001;0.012511764514324434
51:42.8;0.03956055062530566;-0.3313918792123907;-0.9327458494416536;0.993;0.01222834025972118
51:42.8;0.03904077290666293;-0.3297462393191345;-0.9369728222724211;0.995;0.012062164645399364
51:42.8;0.03915828515989203;-0.32776384401060044;-0.9408972804055689;0.9940000000000001;0.012076106162702032
51:42.9;0.04004511010582304;-0.32552391257335733;-0.9444297161808813;0.9940000000000001;0.012311246655329964
51:42.9;0.04175346420874375;-0.32312060770038703;-0.9474910191344919;0.996;0.012782984815976159
51:42.9;0.0442549725237437;-0.32065350165757084;-0.9500123622759215;1.001;0.013481161737246743
51:42.9;0.04744977138213408;-0.31821855950698275;-0.9519388930488113;1.008;0.01437370412087642
51:42.9;0.05118287967241322;-0.31590071064537023;-0.9532367342938088;1.01;0.015412606470191112
51:42.9;0.05526413680847916;-0.3137685236466178;-0.953900971730893;1.011;0.016540782707913614
51:42.9;0.059488207033183006;-0.3118709240476566;-0.9539616406725947;1.012;0.017698508894025296
51:42.9;0.06365239310176342;-0.3102354169142197;-0.9534854371191405;1.0090000000000001;0.018828693092918097
51:42.9;0.06757111575148177;-0.30886718063457586;-0.9525721424890873;1.004;0.01988065691362389
51:42.9;0.07108610837845496;-0.30774902977842183;-0.9513460152194155;0.9990000000000001;0.020812293185404014
51:43.0;0.07407135957219785;-0.30684321907633905;-0.9499436048821879;0.998;0.021590597927028415
51:43.0;0.07643294970159342;-0.30609612457256064;-0.9485002678519086;0.997;0.022190950730719514
51:43.0;0.07810595863341427;-0.30544544964289305;-0.9471376407165039;0.996;0.022595966552546653
51:43.0;0.07905153098725767;-0.30482800690412204;-0.9459535647033726;0.995;0.02279475716240819
51:43.0;0.07925583527446434;-0.30418593363402807;-0.9450150980065776;0.993;0.022782906175664062
51:43.0;0.07873043062263307;-0.30347039980975227;-0.94435482762168;0.991;0.02256286103137535
51:43.0;0.07751244440803796;-0.3026431205569266;-0.9439707236982029;0.992;0.02214423922512661
51:43.0;0.07566341837581808;-0.30167650308181937;-0.9438297968934617;0.992;0.021543741405776886
51:43.0;0.07326673077729363;-0.3005533337486499;-0.943875364384291;0.993;0.020784664271376225
51:43.0;0.07042408345871912;-0.29926679029321585;-0.9440369761089067;0.998;0.01989613570202413
51:43.1;0.0672515215302532;-0.29782105244058404;-0.9442413180820279;1.002;0.01891213280112881
51:43.1;0.06387522944993891;-0.2962319552000306;-0.9444216879772257;0.998;0.017870237729747985
51:43.1;0.060427018123074994;-0.2945266093077035;-0.9445234372453317;0.9940000000000001;0.016810028135479303
51:43.1;0.05703912349297927;-0.292741203103195;-0.9445039896456043;0.987;0.01577104581244
51:43.1;0.05383806691159096;-0.29091702645381395;-0.9443284452657225;0.98;0.01479045960165343
51:43.1;0.050937728651480586;-0.28909557782802087;-0.9439639812211328;0.981;0.013900692852342182
51:43.1;0.04843192131294279;-0.2873142172377586;-0.9433768695370224;0.987;0.013127258533630858
51:43.1;0.04638680268303633;-0.2856038362191361;-0.9425342773730748;0.987;0.012486928605599487
51:43.1;0.04483396141330013;-0.28398900569642554;-0.9414101088471262;0.988;0.011986364998176955
51:43.1;0.04376562345559872;-0.2824895673675899;-0.9399922666432824;0.986;0.011621436503355384
51:43.2;0.04313359848081481;-0.2811217700510647;-0.9382888692904179;0.981;0.011377497122655043
51:43.2;0.04285339072073102;-0.27989731895093817;-0.9363322645580918;0.977;0.011230883387345198
51:43.2;0.042814363992718034;-0.2788198611632701;-0.9341810709653944;0.9740000000000001;0.011151781886391722
51:43.2;0.042895623340989716;-0.2778798542995131;-0.9319213612843448;0.971;0.01110834379363576
51:43.2;0.042985370790936964;-0.2770498033396426;-0.929668071063887;0.973;0.01107149935633907
51:43.2;0.042999724401884154;-0.2762821314916093;-0.9275667817029515;0.975;0.011019544857072959
51:43.2;0.04289656560087069;-0.2755113030680163;-0.9257946927836402;0.973;0.010941494102072808
51:43.2;0.04268141355307673;-0.274660429153319;-0.9245586807480491;0.972;0.01083850467169401
51:43.2;0.04240472617316769;-0.2736511847541626;-0.924088454833932;0.973;0.010723218125225002
51:43.2;0.04215194799648149;-0.2724149551383643;-0.9246236647203084;0.972;0.010617288055110821
51:43.3;0.04202853919784595;-0.2709027000407355;-0.9263946720434849;0.968;0.01054760063183087
51:43.3;0.042142609666863194;-0.2690913924728076;-0.9295975569020948;0.965;0.010541834780796658
51:43.3;0.04258802614032504;-0.2669863786544588;-0.9343651907402454;0.963;0.010624127336758504
51:43.3;0.04343075639984211;-0.2646207189429428;-0.9407377287762134;0.965;0.01081159578305995
51:43.3;0.044700465540815484;-0.262053156671495;-0.9486370212207802;0.9690000000000001;0.011112237400141504
51:43.3;0.04638811530551609;-0.25936570693811095;-0.9578497383748217;0.975;0.011524356023624916
51:43.3;0.04844905073764538;-0.2566607136142982;-0.9680235333118863;0.983;0.012037341598277844
51:43.3;0.050810135462164084;-0.25405608920787415;-0.978679735174883;0.996;0.012633409018872907
51:43.3;0.05337889838886445;-0.25167677783927384;-0.9892448440107272;1.014;0.013289741921003484
51:43.3;0.05605242648285301;-0.24964094853838212;-0.9991006775610918;1.043;0.01398039671333323
51:43.4;0.058724058367838686;-0.24804129987629647;-1.0076486404404048;1.064;0.014677401805288847
51:43.4;0.06128676647637137;-0.2469245727708975;-1.0143781271270584;1.073;0.015350795826191335
51:43.4;0.06363324395390192;-0.24627477949394988;-1.0189256539653062;1.0759999999999998;0.015967852026301466
51:43.4;0.06565386211014329;-0.24600630026765002;-1.0211127741695816;1.072;0.01649226169938804
51:43.4;0.06723450072903477;-0.2459708363350888;-1.0209565511900471;1.062;0.016884300084235252
51:43.4;0.0682565226786346;-0.2459779730309281;-1.0186532313963232;1.052;0.017102781408900213
51:43.4;0.06860073732245875;-0.2458251212519312;-1.0145411717074697;1.042;0.01710900375733931
51:43.4;0.06815602387111594;-0.24533060092199757;-1.0090519095196249;1.031;0.01687211308392042
51:43.4;0.06683160105958619;-0.2443636644570018;-1.0026585348312929;1.024;0.016374632040194806
51:43.4;0.06457046221628118;-0.2428666273484621;-0.9958289723663512;1.0190000000000001;0.015616600286133347
51:43.5;0.06136109222028036;-0.24086615919052107;-0.9889891595779149;1.012;0.0146170724707738
51:43.5;0.05724542424281086;-0.23847251143444118;-0.9824982018466055;1.006;0.013412534988365872
51:43.5;0.052322354773839286;-0.23586694172193443;-0.9766353478757261;1.001;0.012052767973334428
51:43.5;0.04674711143290227;-0.2332790888384778;-0.9715974329093975;0.996;0.010595390057328508
51:43.5;0.04072707876095446;-0.23095749084715117;-0.9675048315069341;0.995;0.009100567088995098
51:43.5;0.03451452913217646;-0.2291375231233538;-0.9644133829563718;0.9940000000000001;0.007627134332883451
51:43.5;0.028396164883041735;-0.22801147518791798;-0.9623291398623491;0.991;0.006230745755649808
51:43.5;0.022678567123839134;-0.2277051290038672;-0.9612226868258916;0.988;0.004963778997077407
51:43.5;0.017668256497493803;-0.22826424023757502;-0.9610406866728168;0.988;0.0038759070216585097
51:43.5;0.013646127532371138;-0.2296529243245953;-0.9617137912704187;0.991;0.003013888974125056
51:43.6;0.010838695264770534;-0.23176379848663362;-0.9631610388307581;0.995;0.002419477081660172
51:43.6;0.009391450107111664;-0.23443686738418665;-0.9652910072691532;0.995;0.0021252832796186403
51:43.6;0.009350558731551708;-0.23748181579559535;-0.9680000899619107;0.993;0.0021495290607198556
51:43.6;0.010657190465697311;-0.24069819389013788;-0.9711690970588656;0.995;0.00249121043073263
51:43.6;0.013154824775916354;-0.24389023021592923;-0.9746604761728908;1.003;0.0031270356063909164
51:43.6;0.016606392776826313;-0.24687608979965334;-0.9783183882181521;1.0090000000000001;0.004010832748467063
51:43.6;0.020717153320474534;-0.2494932911608949;-0.9819723048158314;1.014;0.0050756093810204956
51:43.6;0.025160568580886375;-0.25160213914692886;-0.9854431486892469;1.0170000000000001;0.006238301415842288
51:43.6;0.029605854078950288;-0.25308826816817903;-0.9885506666969028;1.0190000000000001;0.0074071056918180835
51:43.6;0.03374580992988621;-0.25386465617435744;-0.9911214884024475;1.023;0.008490807394419366
51:43.7;0.03732242067602802;-0.25387314885123763;-0.9929980529648256;1.028;0.009408815888084657
51:43.7;0.04014667271963199;-0.25308560380833184;-0.9940484622292176;1.031;0.0101000740393629
51:43.7;0.04210903442961606;-0.2515049217230242;-0.9941764089431584;1.032;0.010528953913345658
51:43.7;0.043178546004217194;-0.24916603082390443;-0.9933295207647057;1.031;0.010686861727117213
51:43.7;0.04339090559787047;-0.24613620506976847;-0.9915045209610208;1.025;0.010589340503467009
51:43.7;0.04282810850416586;-0.24251344548642628;-0.9887485070402116;1.02;0.010269529738779556
51:43.7;0.04159352154319209;-0.23842171733185835;-0.9851568154958749;1.015;0.009769601961391384
51:43.7;0.039787053223064965;-0.23400262850913345;-0.9808686003639115;1.012;0.009132156442416762
51:43.7;0.03748548148657618;-0.22940414901175601;-0.9760608855185173;1.0070000000000001;0.00839346475554692
51:43.7;0.03473244677390261;-0.22476789938212727;-0.9709407708719887;1.002;0.0075798812814706455
51:43.8;0.03154046179966235;-0.22021720451281931;-0.9657346236225061;0.992;0.0067077535088704045
51:43.8;0.02790381434401748;-0.21584822315165345;-0.9606732776480881;0.981;0.005786124339194305
51:43.8;0.02381776230100319;-0.21172598579894183;-0.9559736672891299;0.972;0.004820821486159075
51:43.8;0.0192975275675737;-0.20788638800502027;-0.9518192424174671;0.965;0.0038184068809011965
51:43.8;0.014391172912638127;-0.20434411587122622;-0.9483427838411169;0.961;0.00278884046901018
51:43.8;0.009183131587500075;-0.20110484610627316;-0.9456151997745019;0.96;0.0017463359240013625
51:43.8;0.003788627330982031;-0.1981781863420601;-0.9436427558771021;0.96;0.0007085089615530767
51:43.8;-0.0016579372203283068;-0.19558696271835677;-0.9423735262367978;0.9620000000000001;0.0003055843164851887
51:43.8;-0.00701623389755335;-0.19336959105453133;-0.9417120362291724;0.9640000000000001;0.0012776454672856583
51:43.8;-0.012151067360963018;-0.1915748657063438;-0.9415394364126203;0.966;0.002191752312263289
51:43.9;-0.016939327946250738;-0.19025110693178482;-0.9417355675767664;0.968;0.0030349555974751867
51:43.9;-0.021272878856914867;-0.18943317607504886;-0.9421991949101148;0.9690000000000001;0.003796863957228737
51:43.9;-0.025058384157630623;-0.18913110468921976;-0.9428632607842373;0.971;0.004468530593561038
51:43.9;-0.028215312946571904;-0.18932314466991335;-0.9437028809639498;0.9690000000000001;0.005041083161531515
51:43.9;-0.030673490644248597;-0.1899545346790788;-0.9447349089386853;0.9670000000000001;0.005504562795718983
51:43.9;-0.03237165570267494;-0.19094189775027468;-0.946009341487649;0.9640000000000001;0.005847383423754644
51:43.9;-0.03325827924050345;-0.19218214474152226;-0.9475945615299228;0.9620000000000001;0.0060566903484828155
51:43.9;-0.033295411547874534;-0.19356402895509026;-0.9495598639880859;0.9620000000000001;0.006119717718747276
51:43.9;-0.03246549634636781;-0.1949802741492647;-0.9519592844462552;0.963;0.006026027337058091
51:43.9;-0.030779826814590506;-0.19633854230800413;-0.9548203075730944;0.971;0.005770233415259247
51:44.0;-0.028286017085755986;-0.19757000072294909;-0.9581396691501949;0.9790000000000001;0.005354533279241275
51:44.0;-0.02507135589608821;-0.19863449874531997;-0.9618863437686725;0.986;0.004790228823108525
51:44.0;-0.021259602489932746;-0.19952157573998575;-0.9660096341524318;0.991;0.0040975707748517895
51:44.0;-0.01700045989445582;-0.20024720391655076;-0.970449110860243;0.996;0.003303694628043416
51:44.0;-0.012453131746489217;-0.20084739613035446;-0.9751433157071832;1.0;0.0024390080660761987
51:44.0;-0.007767278378268679;-0.20137089605077924;-0.98003506766485;1.004;0.0015328765802377425
51:44.0;-0.0030653160381773257;-0.20187317785362624;-0.9850723173460582;1.008;0.0006095677637480743
51:44.0;0.0015709738293492087;-0.20241276071272973;-0.990204561040404;1.0090000000000001;0.00031487034568103916
51:44.0;0.006108075730716614;-0.20304935064800994;-0.9953758330057783;1.013;0.0012345057302085465
51:44.0;0.010561950116723534;-0.2038425615446117;-1.0005161999893768;1.0170000000000001;0.0021540863323542742
51:44.1;0.014992255939718365;-0.2048500058530811;-1.0055341365904338;1.02;0.0030881599565036714
51:44.1;0.019489444822613913;-0.20612392745461028;-1.0103119522958937;1.024;0.004058666507379837
51:44.1;0.024155859617022626;-0.20770605292087754;-1.0147059677811983;1.028;0.005091102776582795
51:44.1;0.0290834840033809;-0.20962094409722587;-1.0185527112924122;1.035;0.0062096141156350445
51:44.1;0.03433185505368189;-0.21186872742726798;-1.021681671182098;1.045;0.007431555587191716
51:44.1;0.03990965596860769;-0.21441853156268345;-1.023933665679697;1.051;0.008762179056520682
51:44.1;0.04576303583272588;-0.21720421947705698;-1.025181960370108;1.0590000000000002;0.010190231263258546
51:44.1;0.05177296391720702;-0.22012384098800508;-1.0253518215912754;1.061;0.011685384790694408
51:44.1;0.05776252407763615;-0.2230435477461404;-1.0244340110437868;1.0590000000000002;0.013198355302761162
51:44.1;0.0635127914681117;-0.22580589866400028;-1.0224889453998693;1.056;0.01466408958034012
51:44.2;0.06878382384466242;-0.22824193270878018;-1.0196404707653004;1.048;0.016007695574943106
51:44.2;0.07333674312630023;-0.2301859584599315;-1.016060658328527;1.041;0.01715220990157947
51:44.2;0.07695399881193536;-0.23149146376472685;-1.0119489722928148;1.037;0.018027055135987884
51:44.2;0.0794565522875975;-0.2320460481779672;-1.0075100519971492;1.033;0.018576046136875534
51:44.2;0.08071773182000594;-0.23178324014868815;-1.002933821172048;1.03;0.018763906330105024
51:44.2;0.08067347529397242;-0.23068964082337046;-0.9983799992274804;1.0270000000000001;0.018580385958398494
51:44.2;0.07932806412468617;-0.22880678493060133;-0.9939674224856746;1.015;0.018041303203370745
51:44.2;0.0767541755655552;-0.22622815381086808;-0.9897679174036297;1.015;0.017186286009255362
51:44.2;0.07308659628422211;-0.22309261877287967;-0.9858048076536651;1.008;0.01607362641311787
51:44.2;0.06850990199011599;-0.21957563934098773;-0.9820564974722095;1.003;0.014773179528552761
51:44.3;0.06324161217959517;-0.2158786983166407;-0.9784654374407877;1.0;0.013358515937141782
51:44.3;0.057513739407982295;-0.21221668351696077;-0.9749524479457036;1.0;0.011899660267318899
51:44.3;0.05155628993000787;-0.20880304937713312;-0.9714356349568176;1.003;0.010457612004420904
51:44.3;0.04558514314631306;-0.20583349299259926;-0.9678514922612214;1.002;0.00908130142604226
51:44.3;0.039794551560876024;-0.20347006550051377;-0.9641738882270084;0.9990000000000001;0.007806915985175725
51:44.3;0.03435280883252425;-0.20182850872682587;-0.960425934455794;0.991;0.006658994293965128
51:44.3;0.02939925657754364;-0.2009714151370152;-0.9566812239063083;0.972;0.0056524650999124825
51:44.3;0.025041831833265023;-0.20090835108916866;-0.9530545135935462;0.972;0.004794925088262374
51:44.3;0.021356013762097156;-0.2016022005825998;-0.9496857913745269;0.9670000000000001;0.004088795601703152
51:44.3;0.018386671525776752;-0.20297968803106625;-0.9467230571737643;0.963;0.0035332848610734493
51:44.4;0.016153314862274948;-0.20494340125152874;-0.9443076926732498;0.963;0.003126145054456471
51:44.4;0.014657663227295637;-0.20738242629248219;-0.9425642874699917;0.9640000000000001;0.0028651520297404472
51:44.4;0.013891244311056148;-0.2101793936577045;-0.9415953644965368;0.966;0.002749132019289194
51:44.4;0.013840310448007402;-0.2132135481861299;-0.9414800312178476;0.968;0.0027782526825361913
51:44.4;0.014486082743176837;-0.21636136598250894;-0.9422743358899446;0.972;0.002953303219752527
51:44.4;0.015799996014882578;-0.2194970739928597;-0.9440107208218766;0.972;0.003273879112658437
51:44.4;0.017735425026632806;-0.22249498652546404;-0.946694540975059;0.972;0.0037356975107571853
51:44.4;0.020218573463362536;-0.2252343446547129;-0.9502970219859431;0.972;0.004327573900193842
51:44.4;0.023141473645489824;-0.2276061014146905;-0.9547459568477307;0.973;0.005028781189555092
51:44.4;0.026359595033468318;-0.22952053434108588;-0.9599170818025297;0.978;0.0058075639428513464
51:44.5;0.029695730304296668;-0.23091453573597068;-0.9656296516337566;0.986;0.006621492256308421
51:44.5;0.03295071428162615;-0.23175726365072172;-0.9716490671758201;0.9940000000000001;0.007420063568526796
51:44.5;0.03592021138261193;-0.23205259961511934;-0.9776978228080677;1.005;0.008149481343350697
51:44.5;0.03841537971168796;-0.23183720964229476;-0.9834741499784537;1.012;0.008758933328201633
51:44.5;0.040283871850014814;-0.23117416269170785;-0.9886761647587501;1.02;0.009207136106172251
51:44.5;0.04142697688574158;-0.23014350502295303;-0.9930284714840674;1.026;0.009467682066738727
51:44.5;0.04180937675703367;-0.22883204992985035;-0.9963080259563593;1.032;0.009532003072595979
51:44.5;0.04145974824300365;-0.2273245185073796;-0.9983662906973081;1.033;0.009409419895067727
51:44.5;0.04046237589643357;-0.22569746956712758;-0.9991451265556391;1.032;0.00912444892948358
51:44.5;0.03894158739388383;-0.2240166668992902;-0.9986846360587932;1.032;0.008712089949416194
51:44.6;0.037042318271375926;-0.22233761805821012;-0.9971222328477272;1.033;0.00821219980698623
51:44.6;0.03491109839856234;-0.22070791176340795;-0.9946829333942722;1.026;0.007664186799248386
51:44.6;0.03268127099098952;-0.2191692404549562;-0.9916610921357734;1.02;0.0071030000001734645
51:44.6;0.030464153867805106;-0.2177574638446126;-0.9883942523333624;1.012;0.006556806711712919
51:44.6;0.028345430932356676;-0.2165006771666702;-0.985230860204595;1.002;0.0060461696606206395
51:44.6;0.026384951987900244;-0.2154167084230003;-0.9824949272500627;0.9940000000000001;0.00558426488543186
51:44.6;0.024618618227314523;-0.21451163848929838;-0.9804519381934251;0.9890000000000001;0.00517774720723902
51:44.6;0.023061789778834076;-0.21378001348153505;-0.979280972286195;0.988;0.0048280018209419726
51:44.6;0.02171352534128143;-0.21320640082663248;-0.9790574788220071;0.993;0.00453250996899581
51:44.6;0.0205604658717301;-0.21276737078298943;-0.9797491322418204;0.9990000000000001;0.004286006895131278
51:44.7;0.019579231460403742;-0.21243283718468875;-0.9812243189712293;1.002;0.004081178530484074
51:44.7;0.018736748854178174;-0.21216611301423063;-0.9832704025525699;1.006;0.003908797953067007
51:44.7;0.017988605702700524;-0.21192316163427785;-0.9856180125636523;1.008;0.0037573751498510837
51:44.7;0.017276388081466185;-0.21165268261630427;-0.9879681131771478;1.012;0.0036125981596009113
51:44.7;0.01652597328216091;-0.21129876577540804;-0.9900195835617981;1.0190000000000001;0.0034570669643675923
51:44.7;0.01564948198627054;-0.21080660311262445;-0.9914955455940321;1.021;0.003270957822676653
51:44.7;0.014553240151868266;-0.21013009164556729;-0.9921665329704678;1.023;0.003034118367452193
51:44.7;0.01315193769436202;-0.2092393192569558;-0.9918685328780775;1.021;0.0027295254854573982
51:44.7;0.01138586738856717;-0.20812632932729924;-0.9905144583543081;1.021;0.002347220909269532
51:44.7;0.009235954812477831;-0.2068085537984219;-0.9880983126657781;1.0170000000000001;0.0018873413487352944
51:44.8;0.006731932319252716;-0.20532987756745913;-0.9846918215044198;1.0090000000000001;0.0013611068514061085
51:44.8;0.003951922969407907;-0.2037591229606594;-0.9804340225513928;1.001;0.0007894850435643212
51:44.8;0.0010149471944472725;-0.20218544518729192;-0.9755154965697794;0.9940000000000001;0.00020018314538044061
51:44.8;-0.0019303894636091617;-0.20071047479978807;-0.9701599626857336;0.986;0.00037588788166015465
51:44.8;-0.004718254558307648;-0.19943802263386554;-0.9646060545845458;0.98;0.0009076936794297987
51:44.8;-0.007178013847097383;-0.19846305277644244;-0.95909135722436;0.977;0.0013662932935974228
51:44.8;-0.00914706571891421;-0.19786182506746047;-0.9538397697838559;0.972;0.0017263117882905636
51:44.8;-0.01048432784468122;-0.1976846279559278;-0.9490523022276767;0.965;0.0019669967375248107
51:44.8;-0.011083535925343408;-0.1979517832892685;-0.944900874460281;0.965;0.002073117905986603
51:44.8;-0.01088454553059592;-0.1986529686163982;-0.9415246361497386;0.963;0.002035809085161978
51:44.9;-0.00988076823472058;-0.1997494722389097;-0.9390282043415684;0.96;0.0018533395338434266
51:44.9;-0.008121582567095543;-0.20117877528031064;-0.9374809343002382;0.958;0.0015317407557927294
51:44.9;-0.0057093721191833965;-0.20286087782549464;-0.9369164805715521;0.9590000000000001;0.0010851443879241391
51:44.9;-0.0027914448559554095;-0.20470588371951015;-0.9373324359733557;0.9590000000000001;0.0005356153616567356
51:44.9;0.00045248393092475335;-0.20662220825242525;-0.9386902471985477;0.958;8.776118224741778e-05
51:44.9;0.0038263209088371043;-0.2085245000365876;-0.940915924166288;0.961;0.0007507395543143005
51:44.9;0.0071360361306649495;-0.21034045270278875;-0.9439023763111429;0.966;0.0014167947014238219
51:44.9;0.010208928814208377;-0.21201612169617068;-0.9475141079250847;0.971;0.00205085401143723
51:44.9;0.012911299688379311;-0.21351968839017477;-0.9515943255838193;0.977;0.002623371115238834
51:44.9;0.01516151067376597;-0.21484357169825707;-0.9559737427632687;0.9840000000000001;0.003113944039759823
51:45.0;0.01693559673531922;-0.21600453579263518;-0.9604799091996417;0.987;0.0035135946701151505
51:45.0;0.018263789711696208;-0.21704141293688087;-0.9649457881945136;0.991;0.003825043873719505
51:45.0;0.01921840910725659;-0.21801043363209735;-0.9692166995340363;0.992;0.004060837409070286
51:45.0;0.019895895835511122;-0.2189784815342187;-0.973155682646319;0.998;0.004239818460194193
51:45.0;0.020397318481956174;-0.22001460431275366;-0.9766481712310157;1.001;0.004382911767121966
51:45.0;0.020811843161118587;-0.22118030338781466;-0.9796067974151347;1.006;0.004509296410489294
51:45.0;0.021206434934588164;-0.22251980472126434;-0.9819762726042327;1.0090000000000001;0.00463380046272685
51:45.0;0.02162293131397316;-0.22405219156192116;-0.9837374828441474;1.011;0.0047658786987904165
51:45.0;0.022081393992858626;-0.22576727193064772;-0.9849096896600755;1.015;0.004910027020789189
51:45.0;0.022587138830866896;-0.2276261531979968;-0.9855498063976476;1.0190000000000001;0.005067128958508452
51:45.1;0.023138424208345335;-0.22956618577540455;-0.9857477339506315;1.016;0.005236094606549889
51:45.1;0.023732251239040346;-0.23150898076959311;-0.985616945989416;1.012;0.005415205499011296
51:45.1;0.024366813292714628;-0.2333698922983415;-0.9852806263106006;1.008;0.005602779160937323
51:45.1;0.02504053432983636;-0.23506744129257046;-0.9848555044274788;1.005;0.005797070586600599
51:45.1;0.025748894338218843;-0.2365313924437101;-0.9844368836867639;1.005;0.005995635888341371
51:45.1;0.02648100724516258;-0.2377084153115445;-0.9840883964596177;1.0070000000000001;0.0061945985701565565
51:45.1;0.0272180171097861;-0.23856440356121816;-0.9838388108506447;1.013;0.006388311376181571
51:45.1;0.027934493308761056;-0.23908299706416092;-0.9836860976884927;1.013;0.006569707336060304
51:45.1;0.02860228745649166;-0.23926102789889758;-0.9836067549274395;1.016;0.0067312269556237085
51:45.1;0.029194973392302603;-0.2391027837198091;-0.9835672328358699;1.0170000000000001;0.0068658888439756625
51:45.2;0.02969090572713631;-0.23861506130052348;-0.9835345274245915;1.016;0.00696804440121268
51:45.2;0.03007367361867693;-0.2378040133237942;-0.9834839757472824;1.016;0.007033523617568528
51:45.2;0.030329790306900563;-0.23667368045147785;-0.9834034002930445;1.013;0.007059128340006157
51:45.2;0.030444753831576424;-0.23522557822239915;-0.9832936778156387;1.013;0.007041744421717379
51:45.2;0.03039959118600213;-0.23345891699699592;-0.9831663196466618;1.012;0.006977586069418702
51:45.2;0.030169853738098187;-0.2313715296826472;-0.9830387400362651;1.01;0.0068620480638214255
51:45.2;0.02972771802511773;-0.2289618434052367;-0.9829278356646145;1.006;0.006690311208739039
51:45.2;0.029046244129033533;-0.22623216117951056;-0.982842706811462;1.006;0.006458450671391589
51:45.2;0.02810399218321185;-0.22319321207737855;-0.9827778076970677;1.004;0.0061645920147328104
51:45.2;0.02688848887009657;-0.2198694007205794;-0.9827080297514126;1.003;0.005809726568025818
51:45.3;0.0253980608182298;-0.21630364913189037;-0.9825869527240922;1.006;0.005398031295821482
51:45.3;0.023642478797681905;-0.21256054809463956;-0.9823488417353972;1.005;0.004936753092600877
51:45.3;0.021643077875178024;-0.20872681360003345;-0.981914079750984;1.005;0.00443578770519412
51:45.3;0.01943259163524242;-0.2049086047498632;-0.9811970119082621;1.004;0.003907033521866596
51:45.3;0.01705434787660532;-0.2012259173625542;-0.9801149866723834;1.003;0.0033635358691544246
51:45.3;0.014560203799818408;-0.1978048058080139;-0.9785974914966749;1.002;0.0028184373851600606
51:45.3;0.012006929961944426;-0.19476836921957827;-0.9765943608210423;0.998;0.0022838344384742207
51:45.3;0.009451520348615657;-0.192227232209233;-0.9740821165561477;0.996;0.0017697509598780187
51:45.3;0.006946565867718481;-0.19027000699085944;-0.9710677235388917;0.992;0.001283482677031296
51:45.3;0.004536990018898492;-0.18895442935775528;-0.9675893766309774;0.985;0.0008294992395099434
51:45.4;0.0022590771706546813;-0.18830045532753473;-0.9637143914483103;0.981;0.0004099498968315829
51:45.4;0.00014194858672518377;-0.18828682488439452;-0.9595348283899374;0.978;2.564553407938753e-05
51:45.4;-0.0017893102751169252;-0.1888519250705592;-0.9551617744856602;0.973;0.0003227631949293394
51:45.4;-0.003510486942532686;-0.1898987809166279;-0.9507190463521339;0.966;0.0006337846743104118
51:45.4;-0.004996973534476077;-0.19130348324384977;-0.9463369262089368;0.9640000000000001;0.0009046398476257014
51:45.4;-0.006225630809312026;-0.19292611582990396;-0.9421467043690062;0.96;0.0011315999426117279
51:45.4;-0.007179247863729188;-0.19462273247048242;-0.9382768467806459;0.958;0.0013110024792046034
51:45.4;-0.007851278118788595;-0.19625655790806884;-0.9348511633404719;0.9570000000000001;0.0014404792683797721
51:45.4;-0.008248181563916787;-0.19770696144296038;-0.9319886134204308;0.956;0.0015198151878942478
51:45.4;-0.008388011612276798;-0.19887560533300672;-0.9298036636070904;0.955;0.0015510714021919122
51:45.5;-0.008295835446938512;-0.19968986030597882;-0.9284056580192356;0.953;0.0015379914483016391
51:45.5;-0.007998059239976978;-0.2001039483032345;-0.9278957533365774;0.951;0.0014850444790624113
51:45.5;-0.007518153819038104;-0.20009849633101714;-0.9283606982862121;0.948;0.0013965991667603255
51:45.5;-0.006875585429324948;-0.19967925773775305;-0.929863857116132;0.948;0.0012766210572162345
51:45.5;-0.006088315562716218;-0.19887551486406507;-0.9324349518539691;0.9490000000000001;0.001129007990573237
51:45.5;-0.005177658257857103;-0.19773816161420435;-0.9360606178039069;0.951;0.0009583581671091553
51:45.5;-0.004173249988982407;-0.19633696948804755;-0.9406778800050297;0.956;0.0007707568903755944
51:45.5;-0.0031158383452888584;-0.19475642094088985;-0.9461721581802682;0.9620000000000001;0.0005741652007101118
51:45.5;-0.0020565030473671266;-0.1930898970881936;-0.9523805420697518;0.9690000000000001;0.0003781807530482791
51:45.5;-0.0010524145074111667;-0.19143266665309816;-0.9591000852650976;0.977;0.00019322655226904312
51:45.6;-0.00016070425274280803;-0.18987459560237827;-0.9661000900680188;0.9840000000000001;2.947924484488944e-05
51:45.6;0.00056739205858136;-0.18849361665344036;-0.9731370058960788;0.992;0.00010407678984112168
51:45.6;0.001090770711532515;-0.1873508927698652;-0.9799705071405878;1.001;0.00020026370221224406
51:45.6;0.00138125918160606;-0.1864882897796368;-0.9863792744966031;1.0070000000000001;0.000254080118055161
51:45.6;0.0014260466417065738;-0.1859281347970966;-0.9921749803193073;1.014;0.00026306744935381503
51:45.6;0.0012304272747198448;-0.1856745322607558;-0.997213165980107;1.021;0.00022782233137684713
51:45.6;0.0008203513745381145;-0.18571525695266825;-1.0013999575132564;1.025;0.00015256505231372945
51:45.6;0.00024320798557456733;-0.1860236299557271;-1.0046937208632225;1.024;4.5454787659241265e-05
51:45.6;-0.0004349015961921029;-0.18656047550542487;-1.0071012298348678;1.025;8.171161005181472e-05
51:45.6;-0.0011361098925471596;-0.18727665362694057;-1.0086690083564749;1.025;0.00021461133650586194
51:45.7;-0.0017807782874918747;-0.18811640355054673;-1.0094715839039146;1.023;0.00033816652701950637
51:45.7;-0.002297664477457938;-0.18902115122930077;-1.0095988491170036;1.022;0.0004384760338038257
51:45.7;-0.0026312025631142;-0.1899332316659613;-1.0091447379644083;1.024;0.0005043229144377058
51:45.7;-0.0027444896367484696;-0.19079933625146658;-1.0081990089000787;1.024;0.0005279401858228666
51:45.7;-0.002618680559230592;-0.19157386156382678;-1.0068428541619319;1.026;0.0005051036066925021
51:45.7;-0.002250457458174849;-0.19222214154447723;-1.0051477541580545;1.025;0.0004348146074645269
51:45.7;-0.001648889194647077;-0.19272295181245447;-1.003176272305618;1.021;0.0003187881447829417
51:45.7;-0.0008323083262625042;-0.19306940106531084;-1.0009836165546175;1.02;0.00016085133061381293
51:45.7;0.0001744340063018673;-0.19326774358261659;-0.9986194077392907;1.018;3.36659236312815e-05
51:45.7;0.0013419351380546162;-0.19333440814467637;-0.9961294731566877;1.016;0.0002584380575468286
51:45.8;0.0026370840349949237;-0.19329210273322822;-0.9935573192305316;1.012;0.0005064435065291647
51:45.8;0.004022654733427411;-0.19316598064735502;-0.9909447924312155;1.008;0.0007700037874789271
51:45.8;0.005455936204662264;-0.1929805991088649;-0.9883318296360619;1.006;0.0010406045394773474
51:45.8;0.006887410333438689;-0.19275797761199906;-0.9857557618559147;1.004;0.0013086925894787555
51:45.8;0.008261113642985785;-0.19251666261958691;-0.9832507823690274;1.001;0.0015637640383798972
51:45.8;0.009517951318735255;-0.19227143838138433;-0.980847966910272;1.0;0.0017949813917336175
51:45.8;0.010601694655319023;-0.19203334666195832;-0.9785760001986114;0.996;0.0019922622356938276
51:45.8;0.011465801542948396;-0.19181001957288776;-0.9764626274570418;0.996;0.002147490919564968
51:45.8;0.012078894428178482;-0.19160657555962188;-0.9745367143284748;0.996;0.0022554634816624773
51:45.8;0.012427730578319158;-0.1914270018090341;-0.972830503962728;0.9940000000000001;0.002314366885777123
51:45.9;0.012517662003089897;-0.19127520170306592;-0.97138126864537;0.992;0.002325795971585725
51:45.9;0.012371210296618555;-0.19115449466630008;-0.9702315241702374;0.99;0.002294415590321698
51:45.9;0.012025633573619705;-0.1910649478242767;-0.969427469035671;0.9890000000000001;0.0022274312485006972
51:45.9;0.01153027177799356;-0.19099930372337096;-0.9690157948192938;0.9890000000000001;0.0021340381755345175
51:45.9;0.01094386585616462;-0.19093954416910983;-0.9690390349973554;0.9890000000000001;0.002024920206709838
51:45.9;0.010331333306308529;-0.1908563930874942;-0.9695293847354294;0.988;0.0019117190206536427
51:45.9;0.009759290944236589;-0.1907130359667197;-0.9705010014426546;0.9840000000000001;0.0018063197606236754
51:45.9;0.009290175425976674;-0.19047251621902836;-0.971941574465691;0.9840000000000001;0.0017198730576639294
51:45.9;0.008975797019566738;-0.19010662994516728;-0.9738051208115369;0.988;0.0016616606671136203
51:45.9;0.00885179963363984;-0.18960352740982142;-0.9760084617742487;0.991;0.0016380666577061396
51:46.0;0.008934327851639778;-0.18897172185292135;-0.978433021413395;0.9940000000000001;0.0016519230260785423
51:46.0;0.009219588478505032;-0.18823935422088522;-0.980932140992832;0.998;0.0017023973145435841
51:46.0;0.00968627240413683;-0.18744911165374412;-0.9833429528835854;1.003;0.0017854392374904724
51:46.0;0.010299938994460526;-0.18665073914900748;-0.9855010817677494;1.0070000000000001;0.0018946171834104161
51:46.0;0.01101785204182199;-0.18589371896138224;-0.9872558731092949;1.01;0.0020220476140158494
51:46.0;0.011793008670281203;-0.18522199196401876;-0.9884837270227755;1.01;0.002159169279287337
51:46.0;0.012577081330053379;-0.18467118218494885;-0.9890976755206736;1.01;0.0022973024719581616
51:46.0;0.01332282107185815;-0.18426763981014166;-0.989052342605735;1.01;0.002428088681038691
51:46.0;0.013986511234490986;-0.184028256143024;-0.988344341950778;1.006;0.002543912619061309
51:46.0;0.014530517991369086;-0.18396029294519373;-0.9870087770783375;1.003;0.00263831230930224
51:46.1;0.01492539564542604;-0.18406095750644683;-0.985113026346021;1.0;0.002706285378467448
51:46.1;0.015150720967073324;-0.18431680273758372;-0.9827494118695304;0.998;0.0027443596207219084
51:46.1;0.01519415793235076;-0.18470319711829672;-0.980028278451125;0.996;0.002750360717588233
51:46.1;0.01504912037764749;-0.1851842084960994;-0.9770723668710057;0.9940000000000001;0.002722963354744154
51:46.1;0.014712039750775636;-0.18571333097348153;-0.9740125440193432;0.993;0.002661218410979469
51:46.1;0.014180144585388686;-0.18623554446907217;-0.9709843166312566;0.9890000000000001;0.002564220968655764
51:46.1;0.013450249279369763;-0.18669109493664934;-0.9681243244903207;0.987;0.0024310006126396794
51:46.1;0.012518903885793683;-0.18702087318562352;-0.9655663021527036;0.981;0.0022606768454415697
51:46.1;0.0113842491790074;-0.1871725180231704;-0.9634366308052594;0.981;0.002052908678040891
51:46.1;0.010049610831735922;-0.18710601855814593;-0.9618500695052287;0.98;0.0018086077285881283
51:46.2;0.008528222525472728;-0.1867978946859086;-0.9609061125813942;0.981;0.0015307753389285734
51:46.2;0.006847824532220331;-0.1862435269162604;-0.9606857232316768;0.982;0.0012252230189138652
51:46.2;0.0050535476637309125;-0.18545744050322147;-0.9612475150257765;0.981;0.000900898488125868
51:46.2;0.0032076933459623527;-0.18447145013323954;-0.9626223935157572;0.978;0.0005696104726467927
51:46.2;0.001385898627568396;-0.18333090505203217;-0.9648064786883569;0.976;0.00024513614844545826
51:46.2;-0.0003295228116805341;-0.18208982667135062;-0.967753560957206;0.976;5.806787658925843e-05
51:46.2;-0.0018572416543684372;-0.1808060755107179;-0.9713695646611872;0.9840000000000001;0.0003261864581578029
51:46.2;-0.0031235826879693306;-0.17953753475525927;-0.9755115211585457;0.9840000000000001;0.0005470671882544421
51:46.2;-0.004066924020556645;-0.17833975722287898;-0.9799923789175463;0.992;0.0007107828300933427
51:46.2;-0.004639672490250876;-0.17726484826066508;-0.9845916445963907;1.003;0.0008097782251193491
51:46.3;-0.00480852741753039;-0.17636083419002657;-0.9890707537682292;1.01;0.0008387675133448641
51:46.3;-0.004553981342719294;-0.17567069281651077;-0.9931908566270494;1.011;0.0007945537356495994
51:46.3;-0.0038698478791965737;-0.17523069080266201;-0.9967301000190434;1.013;0.0006758987452942023
51:46.3;-0.0027633828551788266;-0.17506831499592904;-0.9994984546937273;1.0170000000000001;0.00048353814216525005
51:46.3;-0.0012562420680236;-0.1752003115090686;-1.0013497123051136;1.021;0.000220391065230838
51:46.3;0.0006138731317199625;-0.1756310872771168;-1.002190786885873;1.023;0.00010805140571265539
51:46.3;0.00279122585140603;-0.17635151186105966;-1.001987851439495;1.022;0.0004932153926690608
51:46.3;0.005200176909160794;-0.17733820861110894;-1.000768316467525;1.021;0.0009228985913388178
51:46.3;0.007744340986756178;-0.17855349499302114;-0.9986178962989342;1.0170000000000001;0.0013808680054225946
51:46.4;0.010308039795750061;-0.1799461928398556;-0.9956727836275687;1.011;0.001846865995618773
51:46.4;0.012760929407084365;-0.18145367713357585;-0.9921078947541812;1.006;0.002297243256239411
51:46.4;0.0149657911589315;-0.18300551608415686;-0.9881229341768696;1.004;0.0027062931615014977
51:46.4;0.016788853326210815;-0.18452861047713567;-0.9839281688128251;1.0;0.003048232860651766
51:46.4;0.01811162568372387;-0.18595306128296019;-0.979731194685839;0.996;0.0032996486831776213
51:46.4;0.01884287089963138;-0.1872175165011183;-0.9757252469687684;0.992;0.0034420810712090717
51:46.4;0.01892923092709047;-0.1882727372832604;-0.9720793274218088;0.987;0.0034643528055900404
51:46.4;0.018363109810455556;-0.18908267709706475;-0.9689305683618488;0.983;0.003364268361159776
51:46.4;0.017186397392297374;-0.18962336715643;-0.9663794273582268;0.983;0.0031493750283198086
51:46.4;0.015488679564146443;-0.18988078878792983;-0.964488094461162;0.981;0.002836562083103044
51:46.4;0.013399110341911494;-0.1898490849947488;-0.9632818796235084;0.98;0.0024504049590213933
51:46.5;0.011072307162950174;-0.18952991489851603;-0.9627528498612831;0.983;0.0020203690444247865
51:46.5;0.008670295997343048;-0.18893290663783383;-0.9628648828419439;0.982;0.0015772730319060556
51:46.5;0.0063439551591824095;-0.18807642029011934;-0.9635593867660089;0.981;0.0011496693182895977
51:46.5;0.004217772420251133;-0.18698757961836818;-0.9647612046928347;0.983;0.0007608792383282028
51:46.5;0.002380746401998176;-0.18570098338760946;-0.9663846469304666;0.985;0.0004272453668944612
51:46.5;0.0008841738954684556;-0.18425638784639511;-0.9683396343314761;0.988;0.00015775674960568362
51:46.5;-0.0002552054887885655;-0.18269633829284226;-0.9705374296026482;0.99;4.525141277792332e-05
51:46.5;-0.001049265830840495;-0.1810647053953353;-0.9728950512063881;0.992;0.0001848354746144269
51:46.5;-0.001531613874940078;-0.1794063720693014;-0.975337689663421;0.991;0.0002680045472970542
51:46.6;-0.001750282065520598;-0.17776753826040076;-0.9777991215963271;0.992;0.0003042356787235926
51:46.6;-0.0017597643013134436;-0.17619586589603983;-0.9802208682385664;0.995;0.00030393041405769373
51:46.6;-0.0016124430336932984;-0.1747399444130887;-0.9825512214511396;0.998;0.00027684186953468015
51:46.6;-0.0013504576219652551;-0.1734479252495455;-0.9847449220336946;1.0;0.0002306608136264035
51:46.6;-0.0009998771090185675;-0.17236541573822647;-0.9867635141032957;1.002;0.00017006300156592008
51:46.6;-0.0005687485419994362;-0.1715327919555292;-0.9885759489053255;1.003;9.644450603968558e-05
51:46.6;-4.9359626305079724e-05;-0.17098209577180556;-0.9901591153549592;1.006;8.356559100549248e-06
51:46.6;0.0005761371252325539;-0.17073379426224533;-0.9914981190168057;1.0090000000000001;9.752978072340434e-05
51:46.6;0.001328252579627106;-0.1707938468303768;-0.9925858657657188;1.008;0.00022517541666118923
51:46.6;0.0022225781316811935;-0.17115164365929658;-0.9934212176847741;1.0070000000000001;0.0003778953454185545
51:46.7;0.0032636376967229517;-0.1717795317179369;-0.9940053949530289;1.006;0.0005572654228604085
51:46.7;0.004441260807414321;-0.17263465967915084;-0.9943372633546181;1.0070000000000001;0.0007623738398038841
51:46.7;0.005730130534975625;-0.173663324773342;-0.9944088250103066;1.006;0.000989549666263688
51:46.7;0.007092666217009082;-0.1748070351034131;-0.9942022901457247;1.006;0.00123265967368222
51:46.7;0.008484596707393197;-0.17600883859970123;-0.9936898478946872;1.008;0.0014839406583879334
51:46.7;0.009861610003737314;-0.17721854682622618;-0.9928367316508856;1.0090000000000001;0.001735141235274972
51:46.7;0.011184808496345811;-0.17839604105833523;-0.9916072866619382;1.008;0.001978579360338258
51:46.7;0.012422981105514314;-0.17951238509747225;-0.9899729286279183;1.0070000000000001;0.002207717807291468
51:46.7;0.013551302210965486;-0.1805488160034665;-0.9879206796368457;1.0070000000000001;0.002417117439783625
51:46.7;0.014548212357956631;-0.1814939751767326;-0.9854611929031313;1.004;0.0026020244388597884
51:46.7;0.015393148855308512;-0.18234006668907107;-0.9826353329317792;1.003;0.002758048853347541
51:46.8;0.01606669149005659;-0.18307893330334366;-0.9795183993890499;1.002;0.0028812266698506612
51:46.8;0.01655282052884649;-0.18369910895559213;-0.9762210728357209;0.9990000000000001;0.0029684328853432722
51:46.8;0.016841900503871046;-0.18418456949827863;-0.9728861473079398;0.995;0.0030179105294825073
51:46.8;0.016932990695081387;-0.18451535096757202;-0.969680320253517;0.9890000000000001;0.0030296660130508736
51:46.8;0.016834751044826343;-0.18466976589368977;-0.9667810355091428;0.981;0.003005596107659126
51:46.8;0.01656520345626615;-0.1846277146662087;-0.9643596960327351;0.9740000000000001;0.0029493935062395948
51:46.8;0.01615136263199344;-0.18437449473672632;-0.9625641217643066;0.972;0.0028664190480701735
51:46.8;0.015629582179887445;-0.18390449141447046;-0.9615039854987625;0.972;0.0027636993286028855
51:46.8;0.015046364190847837;-0.1832241290188766;-0.9612422886114557;0.975;0.002650007506840078
51:46.8;0.014458247333485306;-0.1823534913452633;-0.9617940329122202;0.9790000000000001;0.0025357813938807826
51:46.9;0.013929050176571528;-0.18132615754793688;-0.9631312071083084;0.981;0.0024325815943220764
51:46.9;0.01352338608195015;-0.18018703904398195;-0.9651918940669814;0.985;0.0023519206303336784
51:46.9;0.013296849788793525;-0.17898838895700606;-0.96789095847992;0.987;0.002303562789973958
51:46.9;0.01328507180935311;-0.17778471593267994;-0.971130132234664;0.992;0.002293695476031813
51:46.9;0.013494996416445797;-0.17662776331057406;-0.9748059017842766;0.993;0.0023235386063315032
51:46.9;0.013901652692262286;-0.1755626562119245;-0.9788142364086435;0.993;0.0023889048631911334
51:46.9;0.014452289965773647;-0.17462588592234018;-0.9830520688881743;0.9990000000000001;0.0024809717004597486
51:46.9;0.015077250702417678;-0.1738453856800946;-0.9874164327305743;0.9990000000000001;0.0025881275435210268
51:46.9;0.015704401859489993;-0.1732426913287169;-0.9918026858132416;1.008;0.0026983706337453672
51:47.0;0.016273068724649353;-0.17283678291505064;-0.99610300848423;1.014;0.002801624227239633
51:47.0;0.016744561848218337;-0.17264844105986638;-1.000205512030863;1.0190000000000001;0.002891516618679315
51:47.0;0.017107960779525096;-0.17270334041317212;-1.003993255562272;1.022;0.0029664004550496188
51:47.0;0.017380643239650218;-0.1730324918859207;-1.0073420163474296;1.02;0.003029496507848274
51:47.0;0.017603617472787218;-0.17366998920075055;-1.0101163861189815;1.018;0.0030881480749342665
51:47.0;0.017832700238621123;-0.17464919598550804;-1.0121655100206273;1.014;0.003152355835490378
51:47.0;0.01812761341881248;-0.17599863089458323;-1.0133217481289933;1.012;0.003232937316495502
51:47.0;0.0185414432612089;-0.17773818776764844;-1.0134065108567256;1.0270000000000001;0.003339703982338445
51:47.0;0.019112505039502733;-0.1798757380707625;-1.012246222925796;1.0270000000000001;0.003479976945641084
51:47.0;0.019859770662377926;-0.18240380428078345;-1.0096978257933857;1.034;0.0036576280727964507
51:47.0;0.020781958202732886;-0.18529590433755658;-1.005679530943424;1.038;0.003872682543510101
51:47.1;0.021859453737249616;-0.18850255769887822;-1.00020056070848;1.037;0.004121389362394312
51:47.1;0.023057720285974442;-0.19194771827620524;-0.9933832674048121;1.028;0.004396591954275171
51:47.1;0.024330917042476228;-0.19552712884873094;-0.9854720351044862;1.0170000000000001;0.004688239674556874
51:47.1;0.025624976601541578;-0.19911020015290407;-0.9768259224181352;1.0070000000000001;0.004983955575353328
51:47.1;0.0268800379776406;-0.20254613306052913;-0.9678952094463262;0.995;0.005269654894232694
51:47.1;0.028032691932790607;-0.20567365061451023;-0.9591844005197356;0.981;0.005530260233898754
51:47.1;0.029018780153165193;-0.20833292222821564;-0.9512057053804436;0.956;0.005750578078350533
51:47.1;0.029777242606479504;-0.2103782324631727;-0.9444286833510543;0.956;0.005916358061667326
51:47.1;0.030254851055642823;-0.21169011002724067;-0.9392333199519551;0.9470000000000001;0.0060154632644200175
51:47.1;0.030411248352180755;-0.2121858805334714;-0.9358733768155986;0.94;0.006039038830272956
51:47.2;0.03022375751700725;-0.2118280319592066;-0.9344544993299546;0.941;0.005982601107775085
51:47.2;0.029691387366533307;-0.21062996802892353;-0.9349295512278493;0.946;0.005846952154291352
51:47.2;0.028837244876837788;-0.20865837595418654;-0.9371122018981405;0.958;0.005638728457673922
51:47.2;0.027708801478561997;-0.20603087883762444;-0.9407073471043659;0.971;0.005370374748713886
51:47.2;0.026376045496813168;-0.2029076071692614;-0.9453535297148858;0.9790000000000001;0.005059437818816407
51:47.2;0.02492749849844412;-0.19947655306644088;-0.950669862456387;0.985;0.004727159761747262
51:47.2;0.023463433960317897;-0.19593490709733438;-0.9562995011405915;0.992;0.004396401198375289
51:47.2;0.022085885781177934;-0.19247054387008772;-0.9619434105694903;0.992;0.004089108360109123
51:47.2;0.02088661461008214;-0.18924783433420467;-0.9673808794285247;0.993;0.0038238114641997506
51:47.2;0.0199355744331443;-0.18639987147261894;-0.9724761872755069;0.996;0.0036137103401783174
51:47.3;0.019272548939466037;-0.18402651072262827;-0.9771733447628898;0.998;0.0034657015505029413
51:47.3;0.018904002063887277;-0.1821960957281674;-0.9814819762819361;1.0;0.0033804549374111983
51:47.3;0.018806058398221123;-0.18094879421428797;-0.9854572061925573;1.001;0.003353445429526076
51:47.3;0.018932775411160285;-0.18030036672311933;-0.9891759456186254;1.002;0.0033766375054337834
51:47.3;0.019227250586746313;-0.18024614446677723;-0.9927118706275686;1.004;0.003440379770408269
51:47.3;0.019632606059601165;-0.18076553166039613;-0.9961113619701595;1.006;0.0035350980906797124
51:47.3;0.02010053820942563;-0.18182719541730788;-0.9993725256524818;1.0070000000000001;0.0036525311803867703
51:47.3;0.020596346411218807;-0.18339438442386893;-1.0024293193149703;1.0090000000000001;0.003786430428225462
51:47.3;0.0211006569699711;-0.18542915769699617;-1.0051428569470908;1.011;0.00393279938713711
51:47.4;0.021608952063640188;-0.18789434312836342;-1.007301887966307;1.014;0.004089846978142426
51:47.4;0.02213022653017635;-0.1907527917288082;-1.0086339183823925;1.0190000000000001;0.004257849736799149
51:47.4;0.022685799289115793;-0.19396437641508096;-1.0088273317633452;1.024;0.004439079263655791
51:47.4;0.0233086574553625;-0.19748169756009182;-1.0075633159816073;1.0290000000000001;0.004637847437015761
51:47.4;0.024042707642357032;-0.20124555240974815;-1.0045547332868279;1.034;0.004860526003176792
51:47.4;0.02494038946042992;-0.20518113467887614;-0.9995875852252806;1.033;0.0051151869597660625
51:47.4;0.026057040083111754;-0.209195883427177;-0.9925597495295668;1.03;0.005410468524496752
51:47.4;0.027441400980869286;-0.21317983794393652;-0.9835117896410204;1.014;0.005753498151575104
51:47.4;0.02912326126653498;-0.21700885286523558;-0.9726462307929356;1.014;0.0061471295467872295
51:47.4;0.031100758054175434;-0.22055010054813115;-0.9603337144976725;1.005;0.006587193342949098
51:47.5;0.03333061544545347;-0.22366870956280988;-0.9471050167794715;0.99;0.007060682812845553
51:47.5;0.03572428102011013;-0.22623436733756155;-0.93362741938662;0.971;0.0075456329286573125
51:47.5;0.0381517505748352;-0.22812678578320772;-0.9206648371427884;0.953;0.008012947699864636
51:47.5;0.04045310488878642;-0.22923932585007015;-0.9090237838854215;0.938;0.008429779784855769
51:47.5;0.042455613036643934;-0.22948121469657495;-0.8994896043268438;0.9179999999999999;0.008763516419870606
51:47.5;0.043992469664914234;-0.22878015547282213;-0.8927586129696314;0.902;0.008985261951384872
51:47.5;0.04491900211295643;-0.22708779044582456;-0.8893728469862053;0.893;0.009072098365561122
51:47.5;0.04512389020609241;-0.22438959730503452;-0.8896652070962001;0.893;0.009008155192289391
51:47.5;0.04453554946747863;-0.2207181440675341;-0.8937226361321589;0.899;0.008785118185791224
51:47.5;0.04312571468311513;-0.21616552157591457;-0.901372968629355;0.91;0.008402862562332884
51:47.6;0.04091252420466813;-0.21088947616619055;-0.9121977519303781;0.9279999999999999;0.007870461175689234
51:47.6;0.03796408416221879;-0.20510933571284576;-0.9255695638119726;0.9490000000000001;0.007207214049903658
51:47.6;0.03440114997144587;-0.19909124212233845;-0.940708680018868;0.9690000000000001;0.006442883344100335
51:47.6;0.030395446723098015;-0.1931255583977231;-0.9567511093308043;0.988;0.005616260680956448
51:47.6;0.02615998300495252;-0.1875011952542593;-0.9728190008690353;1.006;0.004771704517245629
51:47.6;0.021930317816054583;-0.18248153748887277;-0.9880854716867964;1.02;0.003954197622613586
51:47.6;0.017939853144785967;-0.17828509225152242;-1.0018282403292278;1.0290000000000001;0.003204255832073601
51:47.6;0.014395102730964827;-0.17507212924687549;-1.0134691663816677;1.043;0.0025541260268884354
51:47.6;0.011456733888034686;-0.1729375507655766;-1.0225991096867346;1.043;0.002026075103055629
51:47.6;0.009229686397764484;-0.17190992895048088;-1.0289890577497791;1.0490000000000002;0.0016326709383363382
51:47.7;0.007762648360605523;-0.17195609327424186;-1.0325894869563412;1.056;0.001378336263125074
51:47.7;0.007054773238477474;-0.17298954457093782;-1.0335202831863763;1.055;0.0012613102305376505
51:47.7;0.007066273805506004;-0.17488032357919522;-1.03205277612778;1.053;0.0012753615398121056
51:47.7;0.007729549393921473;-0.17746478568629603;-1.0285843287768572;1.0490000000000002;0.0014109326029114232
51:47.7;0.008958398282526632;-0.18055540848199575;-1.0236057392832587;1.04;0.0016556692438289705
51:47.7;0.010654109177670129;-0.183951536247898;-1.0176625090649538;1.032;0.001994455437945818
51:47.7;0.012708516797096244;-0.18745133817143292;-1.0113121732792263;1.022;0.0024091766611439138
51:47.7;0.015005220449304881;-0.19086438532634029;-1.005080930520894;1.0090000000000001;0.0028785137705823875
51:47.7;0.017420865467956206;-0.1940237542439946;-0.9994235795016045;1.0090000000000001;0.00337811338341102
51:47.7;0.01982855409707528;-0.1967961256722208;-0.9946909517036319;1.002;0.003881465747974463
51:47.8;0.02210493460989179;-0.19908835583072432;-0.9911080547419773;0.998;0.004361703102543803
51:47.8;0.02414100963099145;-0.20084998151905817;-0.9887644972904975;0.997;0.0047942435165026645
51:47.8;0.02585442674891837;-0.20207241667913847;-0.9876176975353905;1.0;0.005159775570650294
51:47.8;0.027199361723280184;-0.20278620231489639;-0.9875087020477666;1.005;0.005446757575883097
51:47.8;0.028170528778017904;-0.20305713537840817;-0.9881891968008628;1.011;0.005652666401875316
51:47.8;0.028800094652650206;-0.20298073444580794;-0.9893566682878601;1.0190000000000001;0.005783644891126005
51:47.8;0.029148613850244656;-0.20267353891321044;-0.9906933502409585;1.024;0.005852672268648567
51:47.8;0.029292251843935916;-0.20226037062454763;-0.9919038174666205;1.024;0.005876694571693905
51:47.8;0.02930868070046379;-0.20185879797136436;-0.9927461896310061;1.024;0.005873299954201399
51:47.8;0.02926390128505123;-0.20156418302632584;-0.9930531995508932;1.023;0.005857578274644196
51:47.9;0.029202135250240055;-0.20143910076905003;-0.9927414228388659;1.0190000000000001;0.0058397536345832736
51:47.9;0.029140682721716625;-0.20150922603947866;-0.9918089371721817;1.014;0.0058240175469742314
51:47.9;0.029071027455221072;-0.20176543719811196;-0.9903232679163454;1.011;0.005808769415855231
51:47.9;0.028966108806381632;-0.20217041976413913;-0.9884026638610339;1.005;0.005788175327765556
51:47.9;0.028791656910608882;-0.20266779877984709;-0.9861943234713105;1.002;0.0057545836500839335
51:47.9;0.028517918837464136;-0.20319216942324747;-0.9838530814638619;0.9990000000000001;0.005701052574520035
51:47.9;0.02812814139947446;-0.20367861035758114;-0.9815234586790438;0.997;0.00562324678540681
51:47.9;0.027621813778975938;-0.20407035071665403;-0.9793270151218463;0.997;0.005520263884197701
51:47.9;0.027012933850193713;-0.20432371514357575;-0.9773557472741559;0.997;0.005394400697629352
51:47.9;0.026325255845748127;-0.2044102911027326;-0.9756711138623356;0.9940000000000001;0.005250235747028814
51:48.0;0.025586811703058397;-0.20431698150739103;-0.9743075508063463;0.9940000000000001;0.005093504630391652
51:48.0;0.024825270615690235;-0.204045029587656;-0.9732792255611341;0.995;0.0049301197137753975
51:48.0;0.02406494628969007;-0.20360916683215455;-0.9725888929291701;0.998;0.004765533524602735
51:48.0;0.023325831279234367;-0.20303746932427602;-0.9722375028989976;1.0;0.004604534073687803
51:48.0;0.022624522904764424;-0.2023714536254777;-0.9722326730093229;1.003;0.0044514232821334454
51:48.0;0.021976208970363544;-0.2016652196029384;-0.9725936567479203;1.002;0.004310376561768584
51:48.0;0.02139633224463745;-0.20098258873333547;-0.9733504705988177;0.998;0.0041856895326366555
51:48.0;0.020900573951154282;-0.20039190538177215;-0.9745359421596003;0.992;0.004081654575541379
51:48.0;0.020502749753360285;-0.19995906624012227;-0.9761716335877608;0.992;0.004002021287387478
51:48.0;0.020211638274848735;-0.1997402225108269;-0.9782507478084306;0.9890000000000001;0.003949273717789337
51:48.1;0.02002830337151454;-0.19977603770239302;-0.9807220856284881;0.988;0.003924040778702566
51:48.1;0.01994463519921048;-0.20008907848281082;-0.9834790818905655;0.988;0.0039247735890277895
51:48.1;0.0199428164889048;-0.20068511077331858;-0.9863576221602944;0.9940000000000001;0.003947626452329257
51:48.1;0.01999536469127587;-0.20155802309936427;-0.9891455134474059;1.005;0.00398648014246786
51:48.1;0.0200660939835911;-0.20269697806104597;-0.9916042985706243;1.022;0.0040331884681560435
51:48.1;0.020112842908526454;-0.20409365979439653;-0.9935003248248546;1.035;0.004078223177278231
51:48.1;0.02009251478267715;-0.20574752467599608;-0.9946378423543546;1.038;0.004111818100806122
51:48.1;0.01996815561450586;-0.20766775379565705;-0.9948848742292055;1.032;0.004125530916915249
51:48.1;0.01971718562554139;-0.209871850128973;-0.9941845058888265;1.021;0.0041140172337486005
51:48.1;0.019339742853874953;-0.21238194237713295;-0.9925494880792817;1.011;0.004076809829175626
51:48.2;0.018865955767790384;-0.2152202745050076;-0.9900439106486961;1.004;0.004019911109347297
51:48.2;0.018360361533386927;-0.2184050502764611;-0.9867593284051634;0.9990000000000001;0.003956900647847554
51:48.2;0.017920870599485307;-0.2219471800012264;-0.9827929819814833;0.996;0.0039090460075325625
51:48.2;0.017669621750112538;-0.22584787405162163;-0.9782335880418749;0.997;0.0039037844516964237
51:48.2;0.0177344052318597;-0.23009653568558208;-0.9731571975548818;0.998;0.003971089790030028
51:48.2;0.018221767088815077;-0.23466808065002856;-0.9676328752737423;0.993;0.00413766311133623
51:48.2;0.01918572126569686;-0.23951891166867847;-0.9617360363890627;0.991;0.004419507036854938
51:48.2;0.02059828748711585;-0.24458143197391546;-0.955566513344532;0.9940000000000001;0.004814104581372084
51:48.2;0.022329028712001753;-0.24975772018679598;-0.9492681999659531;0.993;0.005293923802792572
51:48.2;0.024140109578059017;-0.2549134736841237;-0.9430463836185944;0.9940000000000001;0.005803167182014929
51:48.3;0.025701092119228688;-0.2598740552756006;-0.9371776863755864;0.992;0.006259453846551336
51:48.3;0.026623777046194903;-0.2644255919008278;-0.9320070091622659;0.982;0.006561336804357062
51:48.3;0.02651272512919291;-0.26832446572088575;-0.9279271856966327;0.972;0.006601285881241972
51:48.3;0.02502308994924661;-0.2713171602467092;-0.9253406471186726;0.963;0.006282316896979426
51:48.3;0.021915276162449003;-0.2731696854917624;-0.9246071302912384;0.95;0.0055352429649892934
51:48.3;0.017096367303413476;-0.2737030098893898;-0.9259854741924686;0.943;0.004332989006117901
51:48.3;0.010640913957241233;-0.2728288431350812;-0.9295800028084794;0.946;0.0026987085536048735
51:48.3;0.0027874812642268115;-0.2705787512994266;-0.9353024792390541;0.95;0.0007054361816459385
51:48.3;-0.006088284495322297;-0.2671191569060416;-0.9428585465988492;0.961;0.0015333684230735849
51:48.3;-0.015518797925559458;-0.2627460317519427;-0.9517633387647962;0.981;0.0038808174622256236
51:48.4;-0.024999394146525012;-0.2578562028474488;-0.9613856973444744;0.998;0.0061973314440959375
51:48.4;-0.034044480272832356;-0.25289606787014884;-0.9710153566942181;1.004;0.008360165669828907
51:48.4;-0.04224038495311572;-0.24829312778566442;-0.9799442000690636;1.015;0.010277652123377086
51:48.4;-0.049294307413026144;-0.24438401798369289;-0.9875513370319418;1.064;0.011896775091875039
51:48.4;-0.05507561858368571;-0.24136264181433778;-0.9933795203150804;1.072;0.013205189461549109
51:48.4;-0.0596353851950636;-0.23926946470411203;-0.9971876297833826;1.072;0.014228797188591776
51:48.4;-0.06318688468497871;-0.23802133733199196;-0.9989663503360084;1.054;0.015024280882648304
51:48.4;-0.06604411500922047;-0.23746099301568013;-0.9989134542141033;1.0190000000000001;0.015665860942794655
51:48.4;-0.06853525902369273;-0.2374069700464155;-0.9973759490488429;1.008;0.01622805291390721
51:48.4;-0.07091737713862817;-0.23769717352398567;-0.994774288181257;1.008;0.01676877100653713
51:48.5;-0.0733150383702091;-0.23822347116217135;-0.9915264875455098;0.9990000000000001;0.01731736995863844
51:48.5;-0.07569592988453143;-0.23895255838072027;-0.9879862600804118;0.9940000000000001;0.017870434747617795
51:48.5;-0.07788649404557467;-0.23992988226047832;-0.9844026159266511;1.0;0.01839582439203718
51:48.5;-0.07962192703731392;-0.24126801563732814;-0.9809031485112658;1.01;0.018843369536274107
51:48.5;-0.08061670462650318;-0.24312279178990567;-0.9774994938289149;1.012;0.019158753811258537
51:48.5;-0.08063571792102324;-0.2456597676222553;-0.974110303367588;1.006;0.01929610397572628
51:48.5;-0.07954641588007376;-0.24901461018069415;-0.9705955719199729;1.004;0.019225770368861285
51:48.5;-0.07734058849725028;-0.2532548762469897;-0.9667967267525034;1.005;0.01893653260122854
51:48.5;-0.07412587141634104;-0.25835296339085534;-0.9625780082664063;1.0070000000000001;0.01843398350704183
51:48.5;-0.07009530384022203;-0.2641772199667158;-0.9578647999909193;1.021;0.017737340458858043
51:48.6;-0.06548596852841868;-0.27050261817914967;-0.9526735218782146;1.003;0.016875778747144455
51:48.6;-0.06053632821201292;-0.27703803953164824;-0.9471271951020902;1.008;0.015884142978793907
51:48.6;-0.055449376679079496;-0.28346425717121093;-0.9414528790514767;1.004;0.014797677620113624
51:48.6;-0.05036736665486868;-0.2894741269239486;-0.9359608168530789;0.987;0.013646355028431213
51:48.6;-0.045362324121463404;-0.2948062954693818;-0.9310078733923409;0.975;0.012450460207542135
51:48.6;-0.04044307760792256;-0.29926724677311134;-0.9269502116465207;0.96;0.011219145824415754
51:48.6;-0.03557585502672903;-0.30274125030498883;-0.9240929437447072;0.951;0.009952738670316071
51:48.6;-0.030713196696355298;-0.30519080141670135;-0.9226460470777101;0.955;0.008648316723011801
51:48.6;-0.025824599967276304;-0.30665069459205585;-0.9226947137301635;0.955;0.007306940788556333
51:48.6;-0.02092213237724894;-0.307217852280701;-0.9241888511135622;0.965;0.00594036484778775
51:48.7;-0.016075419173147226;-0.3070380194017406;-0.9269521025986122;0.9740000000000001;0.004575217618594805
51:48.7;-0.011412435728650899;-0.30629019059517426;-0.9307070070006154;0.9840000000000001;0.003253302271540515
51:48.7;-0.00710534069696033;-0.30516975066409574;-0.9351104948250196;0.9890000000000001;0.002027632860499781
51:48.7;-0.003343967010985969;-0.30387144714664305;-0.9397932165977515;0.993;0.0009549578090697661
51:48.7;-0.0003025987975225437;-0.3025736365189339;-0.9443971830828407;1.003;8.646751258753276e-05
51:48.7;0.001892545271535814;-0.30142573707924225;-0.9486076531284084;1.0070000000000001;0.0005411444799801081
51:48.7;0.0031875250453658483;-0.3005409615640347;-0.9521759838952072;1.0090000000000001;0.0009121673030969162
51:48.7;0.003610777097840668;-0.29999552965355175;-0.954930977961973;1.004;0.0010343974576267503
51:48.7;0.003267125109688285;-0.2998336493367082;-0.9567785168974117;1.001;0.0009372545370366541
51:48.7;0.0023185624718128563;-0.3000755533449788;-0.9576924988815657;1.001;0.0006663087301604633
51:48.8;0.0009580251833975324;-0.3007250752035421;-0.957702142953953;1.0;0.0002759160898516386
51:48.8;-0.0006176019680197415;-0.30177413965590405;-0.9568802353630913;1.003;0.0001783398002491426
51:48.8;-0.00223109051742881;-0.3032033263609255;-0.9553346505514989;1.002;0.0006462591157327416
51:48.8;-0.003742525868904947;-0.30497936230210726;-0.9532031153488825;1.002;0.0010879795091800382
51:48.8;-0.005059163092165062;-0.30705177159330344;-0.9506495511189013;1.005;0.0014767627696578329
51:48.8;-0.006136654800129553;-0.3093515531244345;-0.9478594625101785;1.003;0.001799400947272357
51:48.8;-0.0069723819344036835;-0.31179386293473177;-0.9450318374378465;0.9940000000000001;0.002054448085706322
51:48.8;-0.007593035288591532;-0.3142845964025866;-0.9423663803004317;0.9890000000000001;0.002248838657773617
51:48.8;-0.008039789500372745;-0.31672907364599834;-0.9400474176290312;0.9890000000000001;0.0023937697218301825
51:48.8;-0.008355467430326483;-0.3190407742500268;-0.9382276243580386;0.988;0.0025010660268764634
51:48.9;-0.008577965834565117;-0.321148826320924;-0.9370142711812249;0.991;0.002581290343714374
51:48.9;-0.008741766742786665;-0.323003545533844;-0.9364589520105301;0.988;0.0026442057732465707
51:48.9;-0.008885435596586453;-0.3245792445404829;-0.9365507214296163;0.9840000000000001;0.0027010384790670827
51:48.9;-0.009059991131513501;-0.32587343760724147;-0.937213032689629;0.9840000000000001;0.0027670375560102855
51:48.9;-0.009332691787583435;-0.3269021477968266;-0.9383060374776852;0.985;0.00286265629940022
51:48.9;-0.0097827449558747;-0.32769221129209614;-0.9396361453981467;0.99;0.0030122191481033885
51:48.9;-0.010488139458037959;-0.32827268642166235;-0.9409735818090265;0.9890000000000001;0.0032397435452118455
51:48.9;-0.011505939167577951;-0.32866811456865763;-0.9420769316448445;1.005;0.003562591410687979
51:48.9;-0.012851899411569922;-0.32889592005851875;-0.9427221338145275;1.005;0.003984827333485526
51:48.9;-0.014486788480603034;-0.3289684115217644;-0.9427320641356883;1.015;0.004492774233406625
51:49.0;-0.016314366921426914;-0.32889725622218535;-0.9420020690015178;1.014;0.005054548089192619
51:49.0;-0.018191533471101307;-0.32869653165712603;-0.9405171890009958;1.008;0.005623816848533315
51:49.0;-0.019947956085475255;-0.32838129560362933;-0.9383581491565409;1.001;0.006146748521648071
51:49.0;-0.02141157822290106;-0.32796210249369356;-0.9356949891721439;0.996;0.006570624451312815
51:49.0;-0.02243661055957556;-0.3274392676408946;-0.9327690719574853;0.988;0.006852706756594905
51:49.0;-0.022930511272514657;-0.326801098422602;-0.9298657557789272;0.9840000000000001;0.006968150144158397
51:49.0;-0.02287547152812429;-0.3260278157442219;-0.9272812001195072;0.977;0.006915700296977766
51:49.0;-0.022339061198005376;-0.3250995559618607;-0.925287773421254;0.9670000000000001;0.0067198273914971995
51:49.0;-0.021469817990674305;-0.3240048114106025;-0.9241033193824665;0.9670000000000001;0.006428362403211589
51:49.0;-0.020477001224698595;-0.3227459416411523;-0.9238695748702497;0.97;0.006105733032438857
51:49.1;-0.019597628942326764;-0.32134030467971925;-0.924643285351638;0.976;0.0058229485378063
51:49.1;-0.019057002675759774;-0.3198177354810161;-0.9264000003472264;0.98;0.005646192559289277
51:49.1;-0.01903106079169125;-0.31821650644659805;-0.9290471360495529;0.982;0.0056263072996950705
51:49.1;-0.01961900742402708;-0.3165799552009961;-0.9324417507514712;0.986;0.005791381253038666
51:49.1;-0.020831781946502034;-0.31495474815310737;-0.9364095316552314;0.992;0.0061438472091011834
51:49.1;-0.02259722086681067;-0.31339004705133;-0.9407630637061083;0.998;0.006662243285945151
51:49.1;-0.024778300470128183;-0.3119356129841882;-0.9453182613170362;1.002;0.007306586373136356
51:49.1;-0.027198198910505095;-0.3106370059335921;-0.9499078917099484;1.004;0.008025550521039863
51:49.1;-0.029665906014850058;-0.30952778816288257;-0.9543910998609136;1.005;0.008763622092157438
51:49.1;-0.03199820387073324;-0.3086209732530612;-0.958658281806001;1.0070000000000001;0.009467054255847986
51:49.2;-0.03403620227399754;-0.3079032158477622;-0.9626314804911296;1.01;0.010088239426962582
51:49.2;-0.03565589762349236;-0.30733457678416776;-0.9662612619097325;1.013;0.010588571322799082
51:49.2;-0.036772751585335516;-0.30685457905471025;-0.9695214973555365;1.016;0.010939971222280465
51:49.2;-0.03734086627605869;-0.3063928689183492;-0.9724036596194824;1.018;0.011125246101797982
51:49.2;-0.037347933512705836;-0.3058812748808452;-0.9749121957179527;1.022;0.011137429600044671
51:49.2;-0.03680736650894465;-0.3052640133100739;-0.9770620842004738;1.0290000000000001;0.010978234814105219
51:49.2;-0.035749108576845656;-0.30450402478091376;-0.9788784135301538;1.035;0.010655823188052468
51:49.2;-0.034211076119188596;-0.303585198930202;-0.9803958071274296;1.036;0.010182367665739303
51:49.2;-0.03223372602564196;-0.3025118098203815;-0.9816540293302883;1.032;0.009572189718274613
51:49.2;-0.02985972118253782;-0.301307286350305;-0.9826867389897674;1.026;0.008841184990020595
51:49.3;-0.027138623118244262;-0.3000140445125561;-0.9835033889156344;1.015;0.008007653203259947
51:49.3;-0.024133857912812154;-0.29869451450794593;-0.9840684217946748;1.006;0.007093805785748358
51:49.3;-0.02092736984910291;-0.2974315782082148;-0.9842853763025492;1.01;0.006126645585257605
51:49.3;-0.017617683913427006;-0.29632565805498845;-0.9839943233491533;1.018;0.005137012995223015
51:49.3;-0.014309950139497991;-0.29548633402688174;-0.9829877235767449;1.03;0.004156460087248544
51:49.3;-0.011100643917813794;-0.29501836067513415;-0.9810432127021658;1.038;0.0032128123064306133
51:49.3;-0.008062479758356897;-0.29500439397956896;-0.9779654184324401;1.037;0.002326058430959016
51:49.3;-0.005235075647735501;-0.29548831311387735;-0.9736262069295031;1.026;0.0015061059548230223
51:49.3;-0.002624161912525845;-0.29646287559896706;-0.9679948129801708;1.026;0.0007530676205245955
51:49.3;-0.00020841029225522452;-0.2978640432387137;-0.9611537846582816;1.018;5.966643957746488e-05
51:49.4;0.002049425548974482;-0.2995727927053179;-0.9532999848138685;1.008;0.0005852805611129493
51:49.4;0.004190357240237697;-0.30142410009705295;-0.9447312266193089;0.9940000000000001;0.0011932660730650147
51:49.4;0.0062478949619253375;-0.30322202709202334;-0.9358203501299704;0.981;0.0017729110688200422
51:49.4;0.00823833505738122;-0.30475932406101075;-0.9269804708191628;0.97;0.0023273786034635475
51:49.4;0.010153004732778683;-0.3058394239359845;-0.9186267055472725;0.9590000000000001;0.002852509650205598
51:49.4;0.01195354318338402;-0.3062979913403423;-0.9111401075836598;0.95;0.003335999431133023
51:49.4;0.013572049025745738;-0.30602071516682056;-0.9048389371518849;0.946;0.0037580930281089072
51:49.4;0.014917525847565104;-0.30495438390016405;-0.8999609189590083;0.946;0.004094070627642992
51:49.4;0.01588816890030363;-0.30310975967669646;-0.8966577168026661;0.946;0.004318177186559231
51:49.4;0.016386783427007837;-0.30055679941457714;-0.8950000003593788;0.9470000000000001;0.004408017467441571
51:49.5;0.016335615500090488;-0.29741404182472225;-0.8949893809021378;0.951;0.004348253488995942
51:49.5;0.015687384957111375;-0.2938341363538223;-0.8965727188943922;0.9490000000000001;0.00413274227419276
51:49.5;0.014430394194281375;-0.2899875525005093;-0.8996546856707777;0.9440000000000001;0.003764726210293088
51:49.5;0.01258693166309017;-0.28604683738256054;-0.9041061942079234;0.943;0.00325519095024566
51:49.5;0.010206058264779713;-0.2821734718821824;-0.9097692334960159;0.948;0.002620025214687856
51:49.5;0.007353752937419916;-0.2785079243538123;-0.9164609813285725;0.956;0.0018769840015320503
51:49.5;0.004104147042624373;-0.2751619456509602;-0.923980090118635;0.9620000000000001;0.0010434554146589317
51:49.5;0.0005345104879433789;-0.2722120123398922;-0.9321160413721598;0.98;0.00013562304764315453
51:49.5;-0.0032756481087161836;-0.2696942131521984;-0.9406599383945841;0.98;0.0008310009438693146
51:49.5;-0.00724307650610339;-0.2676021962550065;-0.9494135838675157;0.986;0.0018402133928443417
51:49.6;-0.011279278527779855;-0.2658896598656066;-0.9581945024853166;0.9940000000000001;0.0028736670243874377
51:49.6;-0.015290547039776737;-0.26447758489524;-0.9668371037111304;1.003;0.0039098959696398
51:49.6;-0.01917947761755585;-0.2632651357586124;-0.9751918077943263;1.01;0.004924024077047745
51:49.6;-0.022847060509087698;-0.2621425044616583;-0.983123666641127;1.018;0.005888110167668668
51:49.6;-0.026194815276754657;-0.26100402368575515;-0.990511141461994;1.0270000000000001;0.006772077314805087
51:49.6;-0.02912722329988944;-0.2597604168259619;-0.9972451036387321;1.032;0.007545255844925053
51:49.6;-0.03155510581170237;-0.2583494623874804;-1.0032277240318308;1.038;0.008178557817913268
51:49.6;-0.0334003375822469;-0.2567441252419757;-1.0083708647024467;1.044;0.00864712347006974
51:49.6;-0.034601540266584394;-0.25495664746396157;-1.01259392977043;1.045;0.008932995000607244
51:49.6;-0.03511970882666909;-0.25303710615217045;-1.0158215326741065;1.044;0.00902718895639103
51:49.7;-0.034942590462968943;-0.25106611980511895;-1.0179817259646666;1.045;0.008930652498043949
51:49.7;-0.03408699606941489;-0.24914321744041262;-1.0190059560851967;1.044;0.008653952789526215
51:49.7;-0.03259865906229249;-0.24737369431315828;-1.0188320236063328;1.044;0.00821591311545179
51:49.7;-0.030549475347259707;-0.24585680330064108;-1.01741088555324;1.047;0.00764156596707674
51:49.7;-0.028032115016490916;-0.2446770791782834;-1.014717104811607;1.05;0.006959757939754401
51:49.7;-0.02515251303543609;-0.24389937057684305;-1.0107611728519994;1.047;0.006200698472214858
51:49.7;-0.02202148936125101;-0.2435675151655924;-1.0056004375869383;1.044;0.005393758619945213
51:49.7;-0.0187469646233878;-0.2437063517191971;-0.9993451670363882;1.031;0.004565762583220934
51:49.7;-0.015427749037889517;-0.24432619063645225;-0.9921577699156897;1.031;0.003739842625720129
51:49.7;-0.01214927901003783;-0.24542802231092556;-0.984245125730901;1.018;0.002934796053031684
51:49.8;-0.0089812559945269;-0.24700757598296674;-0.9758449457722813;1.005;0.0021648517757177224
51:49.8;-0.005976913606451363;-0.2490571519057317;-0.9672075506239869;0.993;0.0014397784667917004
51:49.8;-0.0031736685280962123;-0.2515651689558557;-0.9585755707832996;0.981;0.0007653118389509458
51:49.8;-0.0005948838369566585;-0.2545139915209357;-0.9501653616454642;0.973;0.00014386098363163214
51:49.8;0.0017479255456375254;-0.25787678695060495;-0.942154136747337;0.9670000000000001;0.00042467543402269865
51:49.8;0.0038534439270019134;-0.2616139918076659;-0.9346756889762918;0.968;0.000942260440074876
51:49.8;0.005730069733396302;-0.2656696930841977;-0.9278253343799532;0.97;0.0014124339504697956
51:49.8;0.007396102801862852;-0.26996822868737114;-0.92167188053151;0.9640000000000001;0.001840314016011469
51:49.8;0.00887904372708368;-0.27441159849656094;-0.9162722797513888;0.9640000000000001;0.0022325089383993793
51:49.8;0.010212315713096668;-0.27887867898576724;-0.9116843426650362;0.96;0.0025964743781145922
51:49.9;0.011428807577097792;-0.2832275263079719;-0.907974166418668;0.951;0.002939069609943805
51:49.9;0.012552428750004167;-0.28730169275427386;-0.9052170034297141;0.9470000000000001;0.0032645148822413005
51:49.9;0.01359056212622916;-0.2909402433177034;-0.9034928107711016;0.9470000000000001;0.00357244802521886
51:49.9;0.014530791662974822;-0.2939898769440475;-0.9028794970796243;0.951;0.0038570160274597524
51:49.9;0.015343597450700132;-0.29631719760123093;-0.9034464290901342;0.955;0.00410758405524559
51:49.9;0.015989706043876353;-0.29781966160607587;-0.9052485816149951;0.9590000000000001;0.0043108379608590534
51:49.9;0.01642885741661537;-0.29843425252585437;-0.9083198787395506;0.961;0.004453432219225753
51:49.9;0.016626977132010137;-0.2981430648245294;-0.9126640977529356;0.9590000000000001;0.004524274821147323
51:49.9;0.01656007254967005;-0.29697508902345504;-0.9182430809745047;0.96;0.004515854295038587
51:49.9;0.016214482358349037;-0.2950040641257982;-0.9249640330650337;0.96;0.004424415786889623
51:50.0;0.015584277134260888;-0.29234297713383417;-0.932669330188763;0.966;0.0042491985412161344
51:50.0;0.01466770578008503;-0.2891360103907803;-0.9411327478097892;0.978;0.003991308155327757
51:50.0;0.013465048772970563;-0.28554857106119014;-0.9500648623114654;0.99;0.0036529285553226435
51:50.0;0.011979386719350204;-0.2817560735365423;-0.9591277897495887;1.0;0.0032373104261024244
51:50.0;0.010220068924093452;-0.27793250970481975;-0.9679567665991139;1.0090000000000001;0.002749470940438607
51:50.0;0.008207338375149002;-0.27424006504552584;-0.9761849052582462;1.0170000000000001;0.002197178446858949
51:50.0;0.005976209654569634;-0.27082068837877477;-0.983467900984649;1.023;0.0015917243208861253
51:50.0;0.0035781856633428704;-0.26778980432042804;-0.9895065234345586;1.031;0.0009481467721690398
51:50.0;0.0010805430009117542;-0.26523196987669967;-0.9940655406108329;1.031;0.0002848937649580763
51:50.0;-0.001436014084937369;-0.2631984222647913;-0.9969881908011949;1.036;0.00037681830821589764
51:50.1;-0.003880514587596753;-0.26170651879197804;-0.9982057502964148;1.0390000000000001;0.0010137338028543379
51:50.1;-0.006155791397998094;-0.26074081228473067;-0.9977419501058202;1.0390000000000001;0.001601441730146451
51:50.1;-0.008164199612059794;-0.2602555363073099;-0.9957116071197201;1.036;0.0021156662650721088
51:50.1;-0.009815248530877367;-0.2601786391929607;-0.9923125074845085;1.0290000000000001;0.002534086318045777
51:50.1;-0.011034184738569685;-0.2604175570565349;-0.9878102537831511;1.021;0.0028384682536363895
51:50.1;-0.011769715524167402;-0.2608666240160027;-0.9825172974107644;1.013;0.003016648358905182
51:50.1;-0.01199929672145985;-0.2614158626910519;-0.9767687759692869;1.0070000000000001;0.0030639346494879803
51:50.1;-0.011731378980955273;-0.2619608285842565;-0.970898353420789;0.997;0.00298372769091656
51:50.1;-0.011004865352550354;-0.2624127439615349;-0.9652170315842062;0.997;0.0027873700695765767
51:50.1;-0.009886176295232054;-0.2627073940524764;-0.959997093437004;0.995;0.0024932771983543264
51:50.2;-0.008463854001852253;-0.26281085526585973;-0.9554618574829167;0.991;0.002125322389581543
51:50.2;-0.006840368630231184;-0.2627205069209579;-0.9517802698311104;0.986;0.0017104491903754235
51:50.2;-0.0051214509386515224;-0.2624607619968004;-0.9490648118401313;0.98;0.0012757138589512503
51:50.2;-0.0034046682805222296;-0.2620743605932967;-0.9473719786715741;0.98;0.0008453175284685424
51:50.2;-0.0017698650449365972;-0.2616115196260082;-0.9467054358360967;0.981;0.0004383407902498558
51:50.2;-0.000273497002330664;-0.26111975342500227;-0.9470218846783273;0.983;6.763201281565847e-05
51:50.2;0.0010526527970193345;-0.2606363789230015;-0.9482388775559049;0.9840000000000001;0.0002601584517416766
51:50.2;0.0021989753946124874;-0.2601845353047379;-0.950243199144245;0.985;0.0005436715654444398
51:50.2;0.003172547229808632;-0.2597728802499052;-0.9528985729932391;0.9890000000000001;0.0007853234800012981
51:50.2;0.003989525099921759;-0.2593986813158047;-0.9560521652141346;0.991;0.0009893969224051824
51:50.3;0.004666918369856878;-0.2590532374279043;-0.9595400244273942;0.993;0.0011600649986107324
51:50.3;0.005215932504388122;-0.25872774539739374;-0.9631919737620254;0.997;0.0012998337879275522
51:50.3;0.005638857583344147;-0.25841764928484173;-0.9668366498051195;1.0;0.0014088553400461177
51:50.3;0.005930115158012063;-0.2581244231523153;-0.9703072428390339;1.0070000000000001;0.0014852566266917461
51:50.3;0.0060803782849071465;-0.2578550393313215;-0.9734478526178233;1.01;0.0015262262333907274
51:50.3;0.00608161540661337;-0.25762018333749004;-0.9761195176899492;1.012;0.0015293322049822436
51:50.3;0.005930978279436146;-0.2574322659632509;-0.9782046191620158;1.011;0.001493547441629718
51:50.3;0.0056324648638372025;-0.25730382056642226;-0.9796090019024909;1.01;0.0014197029782562999
51:50.3;0.005196561806969088;-0.2572464204602174;-0.9802624504224613;1.01;0.0013104118279895442
51:50.3;0.004638980194899382;-0.2572699516250556;-0.9801191127940592;1.012;0.001169742963696107
51:50.4;0.003979737748166465;-0.2573818985931768;-0.9791593172988661;1.014;0.0010029650866119004
51:50.4;0.0032431217550426463;-0.257586277141806;-0.9773930445167424;1.014;0.0008164981780040819
51:50.4;0.002458047709544386;-0.2578820220292108;-0.9748639328209862;1.012;0.0006179529046195326
51:50.4;0.001657818775456196;-0.25826096140055566;-0.9716520350035328;1.0070000000000001;0.0004160126932271748
51:50.4;0.0008785795047840999;-0.2587058988889519;-0.967873890833421;1.005;0.00021999163829445963
51:50.4;0.00015657960763914097;-0.25918961660502204;-0.9636792837825304;1.001;3.910977548161249e-05
51:50.4;-0.00047489206803751354;-0.2596755317345132;-0.9592445713119384;0.996;0.00011829197843092346
51:50.4;-0.0009879746057925918;-0.2601202305537799;-0.9547627672364469;0.9840000000000001;0.0002453665670736423
51:50.4;-0.0013616238609930774;-0.26047744151334634;-0.9504313374190533;0.9840000000000001;0.0003370916680685767
51:50.4;-0.001581766685082604;-0.2607025169792943;-0.9464397814906776;0.9790000000000001;0.0003902838989848403
51:50.5;-0.0016402494072338973;-0.26075648108384747;-0.9429591553363946;0.977;0.00040330897121500865
51:50.5;-0.0015330577227387803;-0.26060922956145716;-0.9401344145756473;0.976;0.0003756109549963417
51:50.5;-0.0012587974202616366;-0.2602419853244296;-0.9380792105706154;0.972;0.000307307188248887
51:50.5;-0.0008184546728233312;-0.2596490577396528;-0.9368724780723637;0.971;0.00019909569276091834
51:50.5;-0.000216847441813991;-0.25883856928933585;-0.9365564929510006;0.97;5.256749387557902e-05
51:50.5;0.000534823803465474;-0.25783175861827823;-0.9371364826120372;0.9690000000000001;0.0001292260246150991
51:50.5;0.0014168402791992205;-0.25666088260767905;-0.9385820226373803;0.973;0.00034131298408922463
51:50.5;0.002400947966701904;-0.25536620879459976;-0.9408301887827478;0.98;0.0005768427271434543
51:50.5;0.003453188280615237;-0.25399279394221175;-0.9437896544406803;0.98;0.0008277836918733068
51:50.5;0.004538662719080857;-0.25258763219493424;-0.9473441635111639;0.9790000000000001;0.0010860448883729887
51:50.6;0.0056263593925986715;-0.2511974138663335;-0.9513542505966905;0.981;0.0013445745812949602
51:50.6;0.006692537404807853;-0.24986680535545738;-0.9556577744019326;0.983;0.0015980919673139282
51:50.6;0.007722085343660399;-0.2486369706174548;-0.9600712818446937;0.986;0.0018433329312793159
51:50.6;0.00870792475309331;-0.247543926146993;-0.9643944268469713;0.992;0.002078842726320481
51:50.6;0.00964889275560848;-0.24661637897289168;-0.9684188436266955;0.998;0.002304425262546227
51:50.6;0.010546854086521971;-0.2458730949192423;-0.9719415053421184;1.005;0.002520426713924445
51:50.6;0.011404021345347496;-0.24532027690427;-0.9747811290048953;1.011;0.002727084410664574
51:50.6;0.01222121404594116;-0.24494960850992462;-0.9767950694967615;1.013;0.0029241157431767178
51:50.6;0.012997081010645258;-0.24473771589593102;-0.9778937183024595;1.015;0.0031105585807303577
51:50.6;0.013727921265337537;-0.24464784075449864;-0.9780498031844301;1.016;0.0032847864214175663
51:50.7;0.0144080439733391;-0.24463410594647697;-0.9773009107501439;1.013;0.0034446914996775014
51:50.7;0.015031006533216216;-0.24464791168377628;-0.9757446641514045;1.008;0.0035881101066149754
51:50.7;0.015591944200573473;-0.24464535914908572;-0.9735272621297368;1.002;0.0037135166151854204
51:50.7;0.01609061625359733;-0.2445945314248886;-0.9708274729830151;0.997;0.0038208631067743644
51:50.7;0.016534295285008823;-0.2444816350410542;-0.9678391495694803;0.9940000000000001;0.003912326725304171
51:50.7;0.016939661729926905;-0.2443149662137553;-0.9647553509084756;0.992;0.003992748924424801
51:50.7;0.017333202994196977;-0.24412555146382117;-0.9617562698578391;0.99;0.004069650246817149
51:50.7;0.01774982041399906;-0.2439636919330198;-0.9590018646265401;0.9890000000000001;0.004152777013268213
51:50.7;0.01822958402907875;-0.2438916289500635;-0.9566288657303432;0.986;0.004253213018444053
51:50.7;0.01881307439283904;-0.2439736127601192;-0.9547510170508849;0.985;0.004382205703766055
51:50.8;0.019536203837545674;-0.2442653083950219;-0.9534611347096458;0.987;0.004549932605656506
51:50.8;0.020425552631216523;-0.24480451742286086;-0.9528335568671398;0.988;0.0047644227196991466
51:50.8;0.0214951358118978;-0.2456046648837129;-0.9529254105830641;0.988;0.005030784482880039
51:50.8;0.022745114029680224;-0.24665181554763266;-0.9537750070859397;0.9890000000000001;0.005350795743353854
51:50.8;0.024162252260032435;-0.24790553708444746;-0.9553961587092689;0.987;0.005722781071413589
51:50.8;0.025721249717372198;-0.24930353991034357;-0.9577684908909898;0.982;0.006141593335341775
51:50.8;0.027386078706705622;-0.25076941699063726;-0.9608256739233685;0.983;0.006598557742100243
51:50.8;0.029111371855158618;-0.2522221313575711;-0.9644452626912305;0.987;0.007081470450505859
51:50.8;0.030844726970061555;-0.2535854188389399;-0.9684444149794599;0.993;0.007574952384520725
51:50.8;0.03253053570519824;-0.2547951964669436;-0.9725846413742906;1.0;0.008061388630232261
51:50.9;0.03411497215020431;-0.2558036252856674;-0.9765865960473946;1.0090000000000001;0.008522411014689426
51:50.9;0.035551104580220864;-0.2565795942848652;-0.98015365618168;1.018;0.0089406558335274
51:50.9;0.03680293643498156;-0.2571065432047788;-0.9830010988082998;1.024;0.009301427475778546
51:50.9;0.03784740092570837;-0.25737914001790335;-0.9848864270484874;1.0290000000000001;0.00959390820058327
51:50.9;0.038673996835314355;-0.2574000890556379;-0.9856361728256264;1.033;0.009811702779515728
51:50.9;0.039282570764752014;-0.2571775343800835;-0.9851651808062963;1.031;0.009952724527726362
51:50.9;0.039680134835129215;-0.2567228617794455;-0.9834854936010601;1.028;0.010018567833700222
51:50.9;0.03987753847223659;-0.2560486737254345;-0.980703338566724;1.0190000000000001;0.010013560522831023
51:50.9;0.03988670853315974;-0.25516711534254516;-0.9770044908673987;1.01;0.009943733207750233
51:50.9;0.039719056579223894;-0.254089032648703;-0.9726303400711466;1.001;0.009815957220700314
51:51.0;0.03938519832784226;-0.25282433286001776;-0.9678486948345859;0.9940000000000001;0.00963738869735272
51:51.0;0.03889538747398305;-0.251383485274875;-0.9629240380627369;0.987;0.009415141986098028
51:51.0;0.03825963437448841;-0.24977961804905172;-0.9580915193647154;0.982;0.009155979435295543
51:51.0;0.03748688014064646;-0.24803032030449537;-0.95353787929781;0.978;0.008865883531460417
51:51.0;0.03658357537574122;-0.24615819351096582;-0.9493911189404918;0.975;0.008549596300214417
51:51.0;0.0355526063807474;-0.2441895712561216;-0.9457192866954517;0.9740000000000001;0.00821033358705213
51:51.0;0.03439305568690258;-0.24215167757891462;-0.9425374303504992;0.973;0.007849768536619185
51:51.0;0.03310034422814809;-0.24006943016184007;-0.9398206772796968;0.972;0.007468172963774029
51:51.0;0.03166609174204332;-0.2379633766656723;-0.9375207572410003;0.971;0.00706456589793878
51:51.0;0.030077909577172542;-0.23584958108896947;-0.9355832898607808;0.968;0.006636899097506941
51:51.1;0.02832041820556724;-0.23374121895399605;-0.9339637848673128;0.966;0.006182512502391408
51:51.1;0.026378904298708764;-0.2316510131134353;-0.9326411772035481;0.966;0.005699090353513405
51:51.1;0.02424589618590484;-0.22959377419796673;-0.9316282344495688;0.9670000000000001;0.005186101240950022
51:51.1;0.021929424673432736;-0.22758880426824174;-0.9309779598663936;0.968;0.004646410023560208
51:51.1;0.01946097199128615;-0.22566208421189377;-0.9307845709644345;0.9670000000000001;0.004087636779912594
51:51.1;0.016901214004903062;-0.22384782322339475;-0.9311775653781815;0.9640000000000001;0.003522924050346042
51:51.1;0.014342108491365437;-0.22218853286260426;-0.9323082715395851;0.9570000000000001;0.0029709420590024764
51:51.1;0.011904571048651301;-0.2207327784831235;-0.9343299998920885;0.958;0.0024551660776011585
51:51.1;0.009731810648563884;-0.21953043281559673;-0.9373746074146867;0.958;0.0020026339237177834
51:51.1;0.007978734350757298;-0.21862633278489937;-0.9415288765142369;0.96;0.0016423666587134784
51:51.2;0.006797575007878275;-0.21805392055693498;-0.9468135093588789;0.963;0.0014034028495753933
51:51.2;0.0063201083064476325;-0.21783041786311638;-0.9531667072906789;0.968;0.00131223588506674
51:51.2;0.0066382729470278136;-0.21795461788715634;-0.9604339561009476;0.972;0.0013895964198748095
51:51.2;0.0077870063450426255;-0.21840753412633096;-0.9683657872544812;0.98;0.0016469392560449394
51:51.2;0.009734263017369108;-0.2191550955296535;-0.9766255224736686;0.99;0.002083448256725199
51:51.2;0.012382334627285711;-0.22015159453336575;-0.9848085996150024;1.004;0.002684579095887195
51:51.2;0.01558157667906667;-0.22134310487366557;-0.9924734436642926;1.02;0.003422916412293774
51:51.2;0.01915382817385606;-0.2226709116574518;-0.9991812082393906;1.036;0.004261508234031589
51:51.2;0.022919818637455045;-0.22407525724122;-1.004539051783616;1.046;0.005159075757021313
51:51.2;0.02672338807265013;-0.22549948947940576;-1.008240097244913;1.052;0.0060757661029797756
51:51.3;0.03044606810560777;-0.2268945359527198;-1.010093538426563;1.052;0.006977773127150556
51:51.3;0.03400911494295846;-0.22822332865856948;-1.0100403865278482;1.047;0.007839603618223619
51:51.3;0.03736515318222172;-0.2294640559402689;-1.0081534660518805;1.038;0.008643867088551015
51:51.3;0.04048516678880344;-0.23061073473247198;-1.0046235826809689;1.031;0.009379481278919603
51:51.3;0.043346829817862;-0.23167053485563366;-0.9997361558701586;1.025;0.010039533677099389
51:51.3;0.045927953824706054;-0.23265889863647968;-0.9938431328190811;1.0190000000000001;0.010619757658903764
51:51.3;0.04820599173498657;-0.23359432926938895;-0.9873338691562676;1.012;0.011118017486601841
51:51.3;0.05016211544789412;-0.2344944345407841;-0.9806071351001193;1.003;0.011534623729820826
51:51.3;0.05178693341365708;-0.23537406410835252;-0.9740456552344163;0.997;0.01187293566505765
51:51.3;0.05308505335732326;-0.23624553544735025;-0.9679946538589933;0.992;0.012139724388777503
51:51.4;0.05407717665875286;-0.2371200063693965;-0.9627458361966096;0.992;0.012345078509577997
51:51.4;0.054799807024930536;-0.23800847710794146;-0.9585273334122706;0.9890000000000001;0.012501898147994954
51:51.4;0.05530292185709291;-0.23892141672301742;-0.9554986897916993;0.985;0.012625054293631635
51:51.4;0.05564557821493789;-0.23986730570977327;-0.9537491550398911;0.981;0.012730219227828214
51:51.4;0.05588963641331898;-0.2408510948316211;-0.953298092252237;0.982;0.012832421997944807
51:51.4;0.05609291086826984;-0.24187303508881283;-0.9540975561109695;0.98;0.012944587498266885
51:51.4;0.05630386067717006;-0.24292749616889162;-0.9560379409737161;0.982;0.013076453586770426
51:51.4;0.05655908806859562;-0.24400145702629972;-0.958957612858757;0.998;0.013234094437308323
51:51.4;0.05688298651887243;-0.24507315979642708;-0.9626563362095772;0.998;0.013419904152029753
51:51.4;0.0572877586783046;-0.24611191912743074;-0.966910373552073;1.003;0.01363266296197409
51:51.5;0.057772707044483694;-0.247079808158459;-0.9714861864752541;1.0070000000000001;0.013867449815469604
51:51.5;0.058323544183425;-0.24793523908251025;-0.9761507669030224;1.0090000000000001;0.014115590945399267
51:51.5;0.05891391464996334;-0.24863786529767656;-0.9806784119442147;1.012;0.014365202909575043
51:51.5;0.05951099722534545;-0.2491541422382848;-0.9848548855390192;1.016;0.014602848623591668
51:51.5;0.060085046274767843;-0.24946315029588056;-0.9884804152898067;1.02;0.014816337817371883
51:51.5;0.06062063565769548;-0.24956226035201462;-0.9913730166331234;1.023;0.014998108480944577
51:51.5;0.06112649402221846;-0.2494716806215627;-0.9933732769470602;1.025;0.015148276112913495
51:51.5;0.06164102863600722;-0.2492365383072988;-0.9943512050963947;1.028;0.015276413048310936
51:51.5;0.06223146599933825;-0.2489254910748923;-0.9942152025656019;1.028;0.0154013859473543
51:51.5;0.06298601264486466;-0.24862552661063406;-0.9929226649830932;1.0290000000000001;0.015549099987998152
51:51.6;0.06400026845484637;-0.24843303209923065;-0.9904911771554145;1.03;0.015748592549007425
51:51.6;0.06536060552136633;-0.2484414834666122;-0.9870085869788101;1.031;0.016027327518472283
51:51.6;0.06712780685182199;-0.24872656393002054;-0.9826393573081404;1.026;0.01640660731435896
51:51.6;0.06932358327493758;-0.24933047974777456;-0.9776240018509397;1.0170000000000001;0.01689772473236478
51:51.6;0.07192102335004046;-0.25024859863819465;-0.972269000364047;1.0090000000000001;0.017499029022354742
51:51.6;0.07483892936892109;-0.25142221712763757;-0.9669265268570816;1.001;0.018193853471148366
51:51.6;0.0779402631425557;-0.2527401774717646;-0.9619656718133467;0.991;0.018949411554718104
51:51.6;0.08103592217425844;-0.25404964926540385;-0.9577386920295043;0.981;0.019717107821046336
51:51.6;0.0838954440112539;-0.25517406938003456;-0.9545470933314073;0.9790000000000001;0.020434888667885596
51:51.6;0.08626526291822272;-0.25593480241610544;-0.9526129609909396;0.978;0.02103205856161038
51:51.7;0.08789305514689287;-0.2561726791300459;-0.9520602990336587;0.982;0.021436398722983717
51:51.7;0.08855454399769756;-0.25576613948494364;-0.9529090175034194;0.9890000000000001;0.021582678235428924
51:51.7;0.08807815313946993;-0.25464379019676275;-0.9550813166109676;0.997;0.02142109359932316
51:51.7;0.08636350964894247;-0.25279020132261293;-0.9584175103806487;1.001;0.020924026357040614
51:51.7;0.08339122867155618;-0.25024479388045584;-0.9626966923891228;1.002;0.02008976716942522
51:51.7;0.07922277694888326;-0.24709499325247758;-0.9676578014761078;1.004;0.01894243516164692
51:51.7;0.07399060986959898;-0.24346589288218895;-0.9730184221481871;1.006;0.017528138629661776
51:51.7;0.06788069119715766;-0.23950859362164256;-0.9784907918164661;1.01;0.01590831198498859
51:51.7;0.06111142679192529;-0.23538828079256907;-0.9837957591494586;1.014;0.014151817083296051
51:51.7;0.053913619020171125;-0.23127219441509478;-0.9886755686519304;1.016;0.012327519804922037
51:51.8;0.046514728698098;-0.22731780071247182;-0.9929058501182773;1.022;0.01049861494196909
51:51.8;0.03912843369254751;-0.22366216236164602;-0.996306612308235;1.0270000000000001;0.00871922722211504
51:51.8;0.031948460166682444;-0.2204137230596327;-0.9987514305305835;1.028;0.007033086776169997
51:51.8;0.025144676133738723;-0.21764734938499283;-1.0001734580160972;1.0270000000000001;0.00547362139049956
51:51.8;0.018859719172022237;-0.2154029486011789;-1.0005669453267856;1.028;0.0040647423003178935
51:51.8;0.01320558359708333;-0.21368738893300213;-0.9999837670258533;1.025;0.0028218208709083863
51:51.8;0.008260725351486186;-0.21247888391344297;-0.9985252980477346;1.023;0.0017526412623295813
51:51.8;0.004068728149468257;-0.2117329053112949;-0.9963304223876731;1.014;0.0008583223509593571
51:51.8;0.0006394604593598824;-0.21138904416557214;-0.993560927526973;1.014;0.00013430453408092146
51:51.8;-0.002046729916138758;-0.21137840317719234;-0.9903861655250414;1.0090000000000001;0.00042847522492370287
51:51.9;-0.004031795719435292;-0.21163081711962212;-0.9869690031636208;1.005;0.0008421334955506272
51:51.9;-0.005370475956016389;-0.21208098206772566;-0.9834545878833842;1.002;0.0011201309906743032
51:51.9;-0.006119921100744702;-0.21267295709694245;-0.9799628845564197;1.0;0.0012754625760432532
51:51.9;-0.006330439725281512;-0.2133631974833672;-0.9765853963676728;0.998;0.0013190571574323697
51:51.9;-0.00603954992174792;-0.21412257976319443;-0.9733857350775196;0.998;0.001258786335736215
51:51.9;-0.005270950592019439;-0.21493779469134397;-0.9704029187287542;0.996;0.0010993951785940323
51:51.9;-0.004038527238698759;-0.2158124363635385;-0.9676558171154653;0.993;0.0008433743642673814
51:51.9;-0.0023537120947011822;-0.216767881820452;-0.9651473739353025;0.986;0.0004924270552375779
51:51.9;-0.00023342910338474944;-0.21784336688533582;-0.9628682434256186;0.986;4.896279553220842e-05
51:51.9;0.0022941582965155492;-0.21909412168169146;-0.9608006840082532;0.9840000000000001;0.0004829335861800459
51:52.0;0.005188116395846569;-0.22058672930328668;-0.9589238780453083;0.9840000000000001;0.0010974208960771493
51:52.0;0.008398158798647793;-0.22239180908587158;-0.9572210462840425;0.985;0.0017877842580139764
51:52.0;0.011872094258048332;-0.22457498991890246;-0.9556875639209563;0.987;0.002548030719188381
51:52.0;0.015564824553129323;-0.2271875755568018;-0.9543383445705345;0.988;0.0033746689874943393
51:52.0;0.019445499058239765;-0.23025836316675669;-0.9532122486664747;0.9840000000000001;0.004267997152281363
51:52.0;0.023499641154592934;-0.2337877531196379;-0.952371631812886;0.9840000000000001;0.005232261464562575
51:52.0;0.027724634372221328;-0.23774453705915785;-0.9518964412524135;0.983;0.006274311511392824
51:52.0;0.032119398847681564;-0.2420649302993679;-0.9518736316478467;0.98;0.007400798489826097
51:52.0;0.03667118197757202;-0.24665312824021554;-0.952383477407659;0.9790000000000001;0.008614367363817106
51:52.0;0.04134312868997007;-0.25138302654359856;-0.9534849537168862;0.9790000000000001;0.00990953176345104
51:52.1;0.04606554397433786;-0.25610135650221527;-0.955202889180835;0.983;0.011268956700969057
51:52.1;0.05073205438267308;-0.26063301906685116;-0.9575194365279952;0.988;0.012660751434578305
51:52.1;0.05520017301813063;-0.2647895239942663;-0.9603712755757365;0.995;0.014037197158906408
51:52.1;0.05929519667677243;-0.26838070255032426;-0.9636525177959402;1.0;0.01533526410358653
51:52.1;0.06281736985102909;-0.2712284327450229;-0.9672223693169826;1.006;0.016479396196895372
51:52.1;0.06555377835573818;-0.27318010469930315;-0.9709164082774538;1.01;0.01738715942208331
51:52.1;0.06729656125224018;-0.2741198125488103;-0.9745604879381782;1.016;0.017978029916772116
51:52.1;0.06786684778361365;-0.27397642142784395;-0.9779862827741774;1.03;0.018184594878431208
51:52.1;0.0671404323195126;-0.27272872170731244;-0.9810467607170763;1.03;0.017964069161332703
51:52.1;0.06506884530567465;-0.27040812495508987;-0.9836286504497435;1.032;0.017307088191887695
51:52.2;0.06168981807625708;-0.2670988043315189;-0.9856588623998568;1.03;0.01624097375591837
51:52.2;0.057124004913093496;-0.2629345478274798;-0.9871035296527648;1.024;0.014826171037075429
51:52.2;0.05155878624503971;-0.2580914953143184;-0.9879606115628375;1.018;0.013146677490337069
51:52.2;0.04522367324206701;-0.2527764363875188;-0.9882487472044402;1.013;0.011297144763368024
51:52.2;0.03836401490891835;-0.2472113289034255;-0.9879959931082425;1.013;0.00937017287697409
51:52.2;0.03121926739584129;-0.24161594496048522;-0.9872317858777712;1.011;0.0074467612242619715
51:52.2;0.024009204892304563;-0.236191506106851;-0.9859838770930826;1.012;0.005591288050945095
51:52.2;0.01692784020672166;-0.23110821539735438;-0.9842799910757392;1.013;0.003850663704365948
51:52.2;0.010142437849293145;-0.22649860283387735;-0.9821524602180977;1.01;0.0022562477770862745
51:52.2;0.0037946495216483285;-0.2224569671723003;-0.9796434939221177;1.0070000000000001;0.0008269623563268516
51:52.3;-0.0019982038864629513;-0.21904358842299637;-0.9768091325819364;1.004;0.0004275432519728089
51:52.3;-0.007142468659595206;-0.2162914624626891;-0.973720922245672;1.0;0.001504257627524424
51:52.3;-0.011567964887693696;-0.21421332098190396;-0.9704651542428542;0.996;0.0024048244682043987
51:52.3;-0.015227604205199705;-0.21280739304852594;-0.9671398280508713;0.992;0.00313406182976124
51:52.3;-0.01809624811482611;-0.21206130121042002;-0.9638495814587394;0.986;0.003698786187809143
51:52.3;-0.020168853589159673;-0.21195428095290525;-0.9606990185850729;0.982;0.004106868082705465
51:52.3;-0.02145844249706601;-0.21245831475956228;-0.9577852427752898;0.9790000000000001;0.004366566416563859
51:52.3;-0.02199427888611882;-0.21353870594168167;-0.955190768182324;0.975;0.004486177475686274
51:52.3;-0.02182011598927746;-0.21515424714391462;-0.9529780562039644;0.975;0.004473937149403792
51:52.3;-0.02099206963271246;-0.21725686662411514;-0.9511865989126769;0.9740000000000001;0.004338049396313289
51:52.4;-0.019575792343249358;-0.21979077066435007;-0.9498328638912337;0.973;0.00408673044498793
51:52.4;-0.01764297204371924;-0.22269149377238578;-0.9489128523345602;0.9740000000000001;0.003728221471320129
51:52.4;-0.015267520227438538;-0.22588551777712215;-0.9484067679044832;0.975;0.003270781527972917
51:52.4;-0.012522014029864277;-0.22929099767408664;-0.9482851842220178;0.976;0.0027227022818131752
51:52.4;-0.00947489427554675;-0.23281970671641986;-0.9485159255161211;0.9790000000000001;0.0020923712186887607
51:52.4;-0.006188584012584497;-0.23637989311181828;-0.9490707018922835;0.983;0.0013883545559562488
51:52.4;-0.002718378356426497;-0.23987963393527792;-0.9499303429307222;0.985;0.0006194340025524609
51:52.4;0.000887973804663121;-0.24323045693773754;-0.9510872636574355;0.9840000000000001;0.00020541799022155444
51:52.4;0.004589643807475094;-0.24635114315871648;-0.952544083339611;0.9840000000000001;0.001077007302171369
51:52.4;0.008350465563148585;-0.24917159640295344;-0.9543084545104813;0.9840000000000001;0.001985628489604683
51:52.5;0.01213501183842933;-0.25163671013047734;-0.956385524678643;0.985;0.0029204326640664253
51:52.5;0.015903953605078475;-0.2537101908056163;-0.9587701857699833;0.988;0.003868633005163216
51:52.5;0.019610059080147943;-0.2553778942625856;-0.9614412120532834;0.993;0.0048148741252719415
51:52.5;0.023195815555028056;-0.25664960264499365;-0.964358732847582;0.998;0.005741017366052935
51:52.5;0.026593114714852206;-0.25755805865544673;-0.967465412082292;1.001;0.00662643279005157
51:52.5;0.029725008178996752;-0.25815481811203633;-0.970690656623553;1.005;0.007448744317449956
51:52.5;0.03250911082418975;-0.258503645582605;-0.9739566539146113;1.0090000000000001;0.008184862578948257
51:52.5;0.03486198530280679;-0.2586729139128494;-0.9771850314546422;1.016;0.008812109328781546
51:52.5;0.03670407425207663;-0.25872830468854907;-0.9803029819320426;1.016;0.00930933248071476
51:52.5;0.03796529443632832;-0.25872641771074534;-0.9832477069035749;1.02;0.009658073140119848
51:52.6;0.03859170062088786;-0.2587094459140933;-0.9859683766735586;1.021;0.009843945231252718
51:52.6;0.038553181442923946;-0.25870125036600644;-0.9884254415323379;1.023;0.009858314420073462
51:52.6;0.03785110151046076;-0.258705732917764;-0.9905875471616146;1.025;0.009700127424711717
51:52.6;0.03652397541828044;-0.2587086753233228;-0.9924264360386098;1.025;0.00937750616730089
51:52.6;0.03464935301421298;-0.2586835923731802;-0.9939104297631088;1.025;0.008908636958797265
51:52.6;0.03234098354523457;-0.25860078880287074;-0.994997549049135;1.025;0.008321566337889118
51:52.6;0.029741302132049206;-0.2584376628735477;-0.995629851370945;1.023;0.007652682460097016
51:52.6;0.027009892032137918;-0.25818806378844056;-0.9957308631451693;1.025;0.006943860338695138
51:52.6;0.02430916922608211;-0.2578689147925054;-0.995207823429874;1.025;0.006238538950004448
51:52.7;0.021789437986233878;-0.2575227181891237;-0.9939596519636472;1.03;0.005577381242300413
51:52.7;0.019575934906690025;-0.2572148351455497;-0.9918901380837429;1.0290000000000001;0.004994385923871994
51:52.7;0.01775985383615388;-0.2570250758829669;-0.9889242956426493;1.0270000000000001;0.004514170204545807
51:52.7;0.016394198507435544;-0.25703459289473807;-0.9850248481302821;1.024;0.004150772704049604
51:52.7;0.015494299685364839;-0.257310870890291;-0.9802057522372881;1.0190000000000001;0.00390793501462531
51:52.7;0.015042070508529263;-0.257894548052872;-0.9745402902273425;1.014;0.0037805029387880437
51:52.7;0.014992743193958036;-0.2587912841376989;-0.9681621241049277;1.008;0.003756460583576778
51:52.7;0.015283007620132856;-0.2599703887803567;-0.9612585713256769;0.9990000000000001;0.003819204722206778
51:52.7;0.01583976256739726;-0.2613701091492349;-0.9540564611181356;0.981;0.00394983236078034
51:52.7;0.01658868886417267;-0.2629077138585361;-0.9468027597042096;0.981;0.004129285446164218
51:52.8;0.017461668383357377;-0.2644913361555274;-0.939743955650424;0.973;0.004340169871498475
51:52.8;0.018402104138924603;-0.266030730940223;-0.9331080678289306;0.965;0.0045680540742982795
51:52.8;0.01936753726704309;-0.2674455110508857;-0.9270912394742337;0.96;0.004802110954983542
51:52.8;0.020329405955527746;-0.2686707226150873;-0.9218495027556751;0.955;0.005035064722376257
51:52.8;0.021270295941613435;-0.26965997620649573;-0.9174960393682179;0.956;0.0052625256117913195
51:52.8;0.02217958845860574;-0.2703862358774809;-0.914103801057699;0.955;0.0054819311697809
51:52.8;0.023048700208573934;-0.2708404112438737;-0.9117121797026297;0.956;0.005691381008329292
51:52.8;0.023866793874075264;-0.27102813145672666;-0.9103352636503483;0.956;0.005888569695518493
51:52.8;0.024617144362603528;-0.2709652694578574;-0.9099689316916375;0.95;0.0060698487137318975
51:52.8;0.025273861779974108;-0.27067291559772516;-0.9105949328961782;0.95;0.006229334275434226
51:52.9;0.025798710908205662;-0.2701726328041972;-0.912181758586748;0.9490000000000001;0.0063580032284623975
51:52.9;0.026138307262355786;-0.2694827341911952;-0.9146835486676147;0.9520000000000001;0.006442868567975326
51:52.9;0.02622276573987969;-0.26861587167718126;-0.9180387141625818;0.956;0.006466527985485752
51:52.9;0.02596736489620277;-0.267577759311347;-0.9221694810779248;0.9590000000000001;0.006407500351205368
51:52.9;0.025278480277838505;-0.2663667540747636;-0.9269827526616496;0.966;0.006241696295254118
51:52.9;0.024063998506739646;-0.26497429084203833;-0.9323719428821267;0.971;0.005945121389911525
51:52.9;0.022247001070831978;-0.26338660542566994;-0.9382188642929653;0.976;0.005497551692099483
51:52.9;0.01978015497102174;-0.2615884577501719;-0.9443945961157185;0.98;0.004886543402874582
51:52.9;0.016657743784124962;-0.2595693487377539;-0.9507587838949236;0.986;0.004110928580144154
51:52.9;0.012923264570451775;-0.2573319267215854;-0.9571577496986076;0.986;0.0031830937303147736
51:53.0;0.008672352861778391;-0.2549012496836235;-0.9634226518904115;0.992;0.0021297359311810015
51:53.0;0.004051750672425596;-0.2523328986909397;-0.9693695716195807;1.0;0.0009910737485209517
51:53.0;-0.0007454682227595163;-0.24971795510916878;-0.9748033640415703;1.006;0.00018146627506089057
51:53.0;-0.005488906257690838;-0.24718336026894536;-0.9795259400091842;1.012;0.0013289877785013298
51:53.0;-0.009924407844822082;-0.2448868051497617;-0.9833480521321502;1.0170000000000001;0.002389886359881836
51:53.0;-0.013791490330262026;-0.24300597130817614;-0.9861027444505953;1.0190000000000001;0.003304839039685624
51:53.0;-0.016842644576594065;-0.2417228054312921;-0.9876585448760282;1.02;0.00402100613274456
51:53.0;-0.01886186254564946;-0.2412045539191987;-0.9879308811144245;1.0190000000000001;0.004494657874701051
51:53.0;-0.019680431770826286;-0.24158419590966101;-0.9868908380345549;1.016;0.004692154019289695
51:53.0;-0.019189366764655862;-0.242943237377257;-0.98457102942393;1.016;0.004589998152288195
51:53.1;-0.01734840286466577;-0.24529936068458702;-0.9810687279785083;1.015;0.00417498911659619
51:53.1;-0.014191019965598718;-0.24860041446882036;-0.9765461752300073;1.013;0.003445150850512615
51:53.1;-0.00982457578418141;-0.25272510308666485;-0.971227316902759;1.0090000000000001;0.0024114767459184824
51:53.1;-0.004425055915981982;-0.2574898593549153;-0.9653897576401325;1.004;0.0010999718721466897
51:53.1;0.0017731485914668195;-0.26266099330867276;-0.9593510070122757;0.996;0.0004468052314779462
51:53.1;0.00849147519876302;-0.2679711116172261;-0.953449091838397;0.988;0.002169544851040549
51:53.1;0.015424669560821506;-0.273138559340554;-0.9480190251191339;0.982;0.003994072431192384
51:53.1;0.022261140336134116;-0.27788826357251606;-0.9433678541396497;0.978;0.005835776970099601
51:53.1;0.028705361360675478;-0.28197218845453753;-0.9397514775132859;0.976;0.007606455180222621
51:53.1;0.03449979595142293;-0.28518759810440925;-0.9373560559104;0.976;0.009222565567563519
51:53.2;0.03944229590624331;-0.2873913640372885;-0.936285916914954;0.976;0.010613152182610244
51:53.2;0.04339569601327518;-0.2885089406909787;-0.9365586855876102;0.977;0.011725758094365081
51:53.2;0.04628915030412117;-0.2885373464034907;-0.9381074614387482;0.9790000000000001;0.012529502654014268
51:53.2;0.048113289936671716;-0.28754211035496124;-0.9407894953386984;0.9840000000000001;0.013015443458824735
51:53.2;0.048912289870244846;-0.2856487276587441;-0.9444005194285904;0.9890000000000001;0.013194912250350788
51:53.2;0.04877564856118258;-0.28302988331326834;-0.9486931583681635;0.9940000000000001;0.013096676910307711
51:53.2;0.04783117669979257;-0.2798902790002372;-0.9533970550126727;1.0;0.012763585332611625
51:53.2;0.0462388847517614;-0.2764510191373668;-0.9582381290236934;1.002;0.012248953719780858
51:53.2;0.04418425881038731;-0.27293513533095065;-0.962954931702971;1.004;0.011612694003294807
51:53.2;0.041869711635079514;-0.26955515701690613;-0.9673111670716159;1.004;0.010917264095917876
51:53.3;0.039504380853657255;-0.26650298787696397;-0.971104780633076;1.0070000000000001;0.010223825635537103
51:53.3;0.03729333355091658;-0.2639417575168098;-0.9741749993714784;1.012;0.009589065598774689
51:53.3;0.03542685255294113;-0.26199887163820373;-0.9764086519587319;1.015;0.009062825328962605
51:53.3;0.03406968338081552;-0.26075966726428557;-0.9777459451883677;1.0170000000000001;0.008686294294763775
51:53.3;0.03334987085505242;-0.26026194328987895;-0.9781845620878358;1.0170000000000001;0.008490350692823296
51:53.3;0.03334726931900809;-0.26049241908344156;-0.9777804420255617;1.016;0.008493695979291472
51:53.3;0.034082628662904964;-0.26138623349116324;-0.976643971772801;1.014;0.00870065738587529
51:53.3;0.03550886057976639;-0.2628300762660973;-0.9749311251515106;1.012;0.009098833825997379
51:53.3;0.03750639085643745;-0.26466899414597783;-0.9728300142593249;1.004;0.009657068305147702
51:53.3;0.039884298632175595;-0.26671656922208437;-0.9705442823777147;1.004;0.010324459166965012
51:53.4;0.04238841954437857;-0.2687679027161195;-0.9682756150810193;1.001;0.011031221913762306
51:53.4;0.044717293245147054;-0.27061455009930635;-0.9662078810597963;0.997;0.011692226686552532
51:53.4;0.04654657375995267;-0.27206013499780146;-0.964495021247012;0.997;0.012213851009043947
51:53.4;0.04756103580529442;-0.2729349759086168;-0.9632543199087267;1.001;0.01250407191030244
51:53.4;0.04749029146468829;-0.2731082565668817;-0.9625658623842389;1.0070000000000001;0.012484470288818992
51:53.4;0.04614159282113049;-0.27249700619505085;-0.9624771849368838;1.0090000000000001;0.01210165481943611
51:53.4;0.043422874643311134;-0.27107166575825586;-0.9630100461900998;1.01;0.011335312906795961
51:53.4;0.03935197209068472;-0.26885808511157233;-0.9641654572541069;1.0070000000000001;0.010200962964255033
51:53.4;0.03405225614898873;-0.2659358639791487;-0.9659242778549775;1.0;0.008747136091747989
51:53.4;0.027738725037296342;-0.26243338405081085;-0.968243128391357;1.0;0.007048391190938649
51:53.5;0.020700143385123656;-0.25852046504376314;-0.9710477171653212;1.0;0.005196475138406103
51:53.5;0.013281269283702313;-0.2543994664415346;-0.9742267621949485;1.003;0.0032916665484064795
51:53.5;0.005865809844480968;-0.25029469103096724;-0.9776292191917302;1.006;0.0014353367059309094
51:53.5;-0.0011419647271608989;-0.24643931922018486;-0.9810661752063045;1.0090000000000001;0.00027609655810432283
51:53.5;-0.007339815513405894;-0.24305961943784124;-0.9843174589558115;1.01;0.0017560349120151499
51:53.5;-0.01235608141179614;-0.24035733913340115;-0.9871423485143219;1.013;0.0029316892344743396
51:53.5;-0.01588297066859202;-0.23849223239943967;-0.9892937058479856;1.015;0.0037474100629477716
51:53.5;-0.017709691368397947;-0.2375672369845657;-0.9905349493183192;1.0170000000000001;0.004167420683255935
51:53.5;-0.01774831172397726;-0.2376187403898643;-0.9906591400961732;1.021;0.004177937973413774
51:53.5;-0.016045986894189783;-0.2386136629821276;-0.9895090862814946;1.021;0.003788624185520738
51:53.6;-0.012780155676072007;-0.24045390294093255;-0.9869968189658509;1.024;0.003033079039001858
51:53.6;-0.008236686193770418;-0.24298750782391487;-0.9831201612671855;1.026;0.001967628341669909
51:53.6;-0.0027739748232714755;-0.24602507462831605;-0.977973491533338;1.023;0.0006674349897650234
51:53.6;0.003221203670537286;-0.24935921054153887;-0.9717494998654748;1.016;0.0007805449628313543
51:53.6;0.009378503264236955;-0.2527844226827432;-0.9647294823168546;1.004;0.002287122322647735
51:53.6;0.015382155454856996;-0.25611479558992545;-0.9572618688131166;0.991;0.003771226560998553
51:53.6;0.020997177139599903;-0.2591973526546213;-0.9497315091760224;0.9790000000000001;0.005168830853536493
51:53.6;0.02608092589123503;-0.26191994041717626;-0.9425245174865391;0.97;0.0064384929502774475
51:53.6;0.030579625228093207;-0.2642135077836319;-0.9359943440418437;0.96;0.007562413147540061
51:53.6;0.03451163541538572;-0.26604947362161724;-0.9304340978620208;0.96;0.008543062066365618
51:53.7;0.03794137815113568;-0.2674333493403836;-0.9260583778299505;0.9570000000000001;0.009396519737141373
51:53.7;0.0409494638070022;-0.26839596366098967;-0.9229955110255456;0.9570000000000001;0.010144339811449864
51:53.7;0.04360524708599133;-0.26898372078454424;-0.92128894090016;0.9590000000000001;0.010805891597149096
51:53.7;0.04594770009522862;-0.26924937478565814;-0.9209053204622932;0.958;0.011392878433683496
51:53.7;0.04797874859947344;-0.26924472086008666;-0.9217466766617393;0.9620000000000001;0.011907146404359288
51:53.7;0.04966977806579;-0.2690163725791604;-0.923664377864528;0.965;0.012341988196949575
51:53.7;0.0509779799592168;-0.2686053266549518;-0.9264731665489682;0.968;0.012686157193367076
51:53.7;0.05186661540210223;-0.26805001423943636;-0.9299640871516985;0.971;0.012929148416453765
51:53.7;0.05232328285227751;-0.2673911557766935;-0.933915835404347;0.976;0.01306621386429139
51:53.7;0.05237211977183431;-0.26667598193158576;-0.9381047007395718;0.976;0.013101932796093129
51:53.8;0.052077892750479325;-0.26595994936275164;-0.942313621384283;0.9790000000000001;0.013051640818063885
51:53.8;0.051541525136628095;-0.26530525864589055;-0.9463411459166622;0.983;0.012940493734218721
51:53.8;0.05088826479187856;-0.26477621970168264;-0.9500112922906683;0.9890000000000001;0.012800454412184572
51:53.8;0.050251410421313834;-0.26443182945522264;-0.9531848540020846;0.992;0.012665989341425193
51:53.8;0.04975536135367525;-0.2643164473037874;-0.9557715290473229;0.9990000000000001;0.012569504633904178
51:53.8;0.04950099627723142;-0.26445030270534026;-0.9577409355256151;1.003;0.012537358907492257
51:53.8;0.04955445498828771;-0.26482224979585234;-0.9591296866369575;1.004;0.012586776138443964
51:53.8;0.049938706859521724;-0.26538708173072684;-0.9600416389155509;1.005;0.012723516015899161
51:53.8;0.050627050315469914;-0.26606857293316716;-0.9606394477895606;1.0;0.012940069880559266
51:53.8;0.05153891344023338;-0.26676758103178466;-0.9611273793801987;1.0;0.013214455055822402
51:53.9;0.052539901544675555;-0.26737303924675704;-0.9617271776505153;0.996;0.013510105996710256
51:53.9;0.05344862046398597;-0.2677735500213004;-0.9626500143318365;0.992;0.013777569112826666
51:53.9;0.054051964570784476;-0.2678683571572164;-0.9640681925043125;0.99;0.01395856110284924
51:53.9;0.054128846452130334;-0.2675773891558314;-0.9660907269721032;0.992;0.013992525185881361
51:53.9;0.05348016153384068;-0.26685005672551754;-0.9687469538619129;0.996;0.01382516616265407
51:53.9;0.05196024166365308;-0.2656720519168816;-0.971981291977431;1.005;0.013417603015567308
51:53.9;0.04950303700128242;-0.26406915484000704;-0.975660115522524;1.015;0.012754048693099472
51:53.9;0.046136266596051384;-0.2621068925542794;-0.9795890240014675;1.021;0.011845811020000036
51:53.9;0.04197953935510984;-0.25988484785826965;-0.9835365909776117;1.024;0.01073023293812632
51:53.9;0.0372272038872854;-0.2575253731583894;-0.9872598305007869;1.024;0.0094648102101798
51:54.0;0.032121011410417726;-0.25515852579076875;-0.9905274448320525;1.024;0.008118313330634959
51:54.0;0.02691893736670128;-0.2529064685973429;-0.9931389158471854;1.026;0.006761263309481622
51:54.0;0.021865088359645853;-0.25087024122232693;-0.9949394150838735;1.0290000000000001;0.0054575411647362964
51:54.0;0.01716428147389635;-0.24912056327763088;-0.9958311114978099;1.033;0.004258149404064365
51:54.0;0.012964239807335612;-0.24769307363237875;-0.9957807480805692;1.034;0.0031976037442370286
51:54.0;0.009346796118053665;-0.24658742202903808;-0.9948223764056027;1.031;0.0022928689599075866
51:54.0;0.006326891144298285;-0.24576935614860473;-0.9930538520893865;1.0270000000000001;0.0015441550088433123
51:54.0;0.0038563374050779105;-0.24517530920508426;-0.9906264339684232;1.021;0.0009366162085161467
51:54.0;0.0018297949737139366;-0.2447190878730586;-0.9877283431884594;1.011;0.0004422906838274484
51:54.0;9.266693664243093e-05;-0.24429970820209604;-0.98456488502234;1.011;2.2289077645151626e-05
51:54.1;-0.0015474606833943887;-0.24380895776305453;-0.9813388186046522;1.006;0.0003702441967476295
51:54.1;-0.0033042871939443362;-0.24313762705623204;-0.9782341656577316;1.003;0.0007859099512850196
51:54.1;-0.005391287567033284;-0.2421803634581867;-0.9754050380575237;0.9990000000000001;0.0012735512265326778
51:54.1;-0.007997023974546328;-0.24083988032309603;-0.9729698667541602;0.9990000000000001;0.0018739421982517566
51:54.1;-0.011259999894509723;-0.23903124785973212;-0.9710110262114826;0.998;0.0026134682396983166
51:54.1;-0.015246155922739132;-0.23668664650145183;-0.9695794062857319;0.9990000000000001;0.003498786933577867
51:54.1;-0.019932151067971637;-0.23376096463314394;-0.9687025764088795;1.002;0.004513532932931143
51:54.1;-0.025197141547549793;-0.2302387309892376;-0.96839412952471;1.005;0.005618000928270827
51:54.1;-0.03082460248858165;-0.22614245849726505;-0.9686610771075824;0.9990000000000001;0.006752295548687664
51:54.1;-0.03651379984968664;-0.22154170676476284;-0.9695065425033527;0.9990000000000001;0.00784265791268757
51:54.2;-0.04189872937097824;-0.21656151768167678;-0.9709267995427348;0.997;0.0088098523057827
51:54.2;-0.04657210644286159;-0.21138825524239815;-0.972903827759521;0.995;0.009578040027054398
51:54.2;-0.050113078129154165;-0.20627027047508947;-0.9753957338802851;0.9940000000000001;0.01008250786262179
51:54.2;-0.05211804828115162;-0.20151072707813653;-0.978327721948642;0.996;0.010274736044593545
51:54.2;-0.05223362538695174;-0.19745067360408172;-0.9815861601690775;1.001;0.010123652192326917
51:54.2;-0.05018961953817193;-0.1944419327657767;-0.9850174149920101;1.004;0.009612752080690271
51:54.2;-0.045828769452237926;-0.1928115670052964;-0.9884317236326513;0.9990000000000001;0.008734095896596935
51:54.2;-0.03912898119143966;-0.19282247654717607;-0.9916116663540245;1.001;0.007481657524836694
51:54.2;-0.030213593705269888;-0.19463718117726095;-0.9943253741720381;1.0070000000000001;0.005847318003977284
51:54.3;-0.019345897755664428;-0.19829236069177156;-0.9963451545546975;1.0170000000000001;0.003822123223212497
51:54.3;-0.006906378022668377;-0.20368950864883728;-0.9974710080110438;1.028;0.0014031990694394554
51:54.3;0.0066449097687384835;-0.21060306951372765;-0.9975557682714189;1.035;0.0013960178422134208
51:54.3;0.020813481635954433;-0.2187031592568858;-0.9965263718958726;1.035;0.004536162323446521
51:54.3;0.03511253625398468;-0.2275871210149143;-0.9943957833260406;1.032;0.007946376839645098
51:54.3;0.0490934944080978;-0.23681437499441546;-0.9912623559219294;1.0270000000000001;0.011524460949600008
51:54.3;0.06236259569315272;-0.24594120796102995;-0.9872966089863559;1.02;0.015142693448700867
51:54.3;0.07458631202313175;-0.25455338446637055;-0.9827182655516062;1.015;0.01865808372556113
51:54.3;0.08549021828420485;-0.2622943639979036;-0.9777681663861514;1.0090000000000001;0.021925084634586194
51:54.3;0.09485604340297618;-0.26888714401018843;-0.972680102413612;1.005;0.024808761025983693
51:54.4;0.10252062914767895;-0.27414873946646284;-0.9676569416544257;1.005;0.02719687044615651
51:54.4;0.10837847570714391;-0.2779972878452128;-0.9628540363505018;1.003;0.029009754454555642
51:54.4;0.11238729960975664;-0.2804521780578042;-0.9583710927098401;1.003;0.03020715048590901
51:54.4;0.1145743865704701;-0.28162746871302413;-0.9542520435258964;1.003;0.030791131686275463
51:54.4;0.1150408337678936;-0.28171862980785667;-0.9504914618301811;0.9990000000000001;0.030804616616229942
51:54.4;0.11396126506028692;-0.2809828040481934;-0.9470455940207034;0.997;0.03032549452485526
51:54.4;0.11157781658012494;-0.2797135249455211;-0.9438459484434802;0.9940000000000001;0.029457266293971215
51:54.4;0.10818806375731253;-0.2782119103507847;-0.940813472220573;0.988;0.028317740290853842
51:54.4;0.10412675377570321;-0.2767574042570552;-0.9378716484483243;0.985;0.02702744456740432
51:54.4;0.09974150959393155;-0.27558183773770023;-0.9349573863879642;0.976;0.025699125541147325
51:54.4;0.09536404994360477;-0.2748503925028938;-0.9320292844061562;0.976;0.024429276560820383
51:54.5;0.09128054695901279;-0.2746516583955885;-0.9290734044919475;0.973;0.02329219877240833
51:54.5;0.08770571386606128;-0.2749970148839878;-0.9261067567727117;0.972;0.022336592444593784
51:54.5;0.0847644946172053;-0.27582808046784096;-0.9231782884001292;0.9690000000000001;0.02158430335732372
51:54.5;0.08248406665808572;-0.2770303343194317;-0.9203668661497126;0.966;0.02103092458477504
51:54.5;0.08079773723011396;-0.2784508494706745;-0.9177760074107243;0.9620000000000001;0.020648306854785754
51:54.5;0.07956073499666917;-0.27991789436795694;-0.9155258852585355;0.96;0.020389194888060073
51:54.5;0.07857589277046328;-0.2812599691535626;-0.9137439643185595;0.9590000000000001;0.020193972950244273
51:54.5;0.07762499745081047;-0.2823221123370342;-0.912555938265318;0.961;0.019998894492304447
51:54.5;0.07649963066409236;-0.2829781810791763;-0.9120781529608525;0.9590000000000001;0.01974441825467
51:54.6;0.07502499401194898;-0.2831387672921832;-0.9124117977993474;0.9590000000000001;0.019381893308725667
51:54.6;0.07307241595315318;-0.2827549076925846;-0.9136385887003967;0.9590000000000001;0.01887722065411749
51:54.6;0.07055993627447489;-0.2818177415871606;-0.9158177095394807;0.9620000000000001;0.018211073515421238
51:54.6;0.06744386422155264;-0.28035414675172965;-0.9189838894966408;0.965;0.017376300859779502
51:54.6;0.0637066460725734;-0.2784185894925723;-0.9231461795522761;0.9670000000000001;0.016373949524646866
51:54.6;0.05934696138466957;-0.27608228152277375;-0.928286530139712;0.9690000000000001;0.015209644790963699
51:54.6;0.05437598834524732;-0.273422071819412;-0.9343572867535391;0.971;0.013891646089697101
51:54.6;0.04882018094757038;-0.2705123476974308;-0.9412773902421088;0.977;0.012430943862741226
51:54.6;0.042728056643140444;-0.2674224719886066;-0.9489280024223401;0.9840000000000001;0.010842871285524665
