Time;AccX;AccY;AccZ;Acc-old;Acc-trns
58:02.5;-0.09639284362922267;-0.2421846044634384;-0.9789736535857121;1.013;0.022854005537168536
58:02.5;-0.09409793397425184;-0.2429033535391599;-0.9776089282367304;1.033;0.022344917630108613
58:02.5;-0.09192201998104718;-0.24361251502947368;-0.9759248465574599;1.06;0.021854231029113543
58:02.5;-0.08998648008488142;-0.24429666013660223;-0.9736732506840001;1.052;0.021404645172305066
58:02.5;-0.08835052180822749;-0.2449220908335295;-0.9707391859939976;1.028;0.021005819933358212
58:02.5;-0.08700424673521759;-0.24543918002237042;-0.9671588005255948;1.008;0.020652951761188514
58:02.5;-0.08588174340730484;-0.24579102586974136;-0.9630995646141962;0.992;0.020330031934026757
58:02.5;-0.08488857210510597;-0.2459254958855534;-0.958814488193764;0.9790000000000001;0.020016464564698848
58:02.6;-0.08393353831788966;-0.24580755883562191;-0.9545865380043579;0.971;0.019694550400828903
58:02.6;-0.08295512534815198;-0.2454287655880293;-0.9506775206225166;0.971;0.019355389343987055
58:02.6;-0.0819368615531442;-0.2448114641859372;-0.9472908356284127;0.966;0.019001785542125033
58:02.6;-0.0809099821698494;-0.24400694557468736;-0.9445521801717207;0.972;0.01864791362022608
58:02.6;-0.07994464267856956;-0.24308846412873666;-0.9425077843011558;0.977;0.018316338507974785
58:02.6;-0.07913304975077058;-0.242141341030844;-0.9411363609337583;0.9740000000000001;0.01803347406615674
58:02.6;-0.0785692211368509;-0.24125250122257025;-0.9403690571993834;0.978;0.017824715338280242
58:02.6;-0.07833027459999414;-0.24050074136023075;-0.9401119668073731;0.98;0.017710289050995733
58:02.6;-0.07846316638078736;-0.23994803565890283;-0.9402673072694048;0.977;0.017702490302021336
58:02.6;-0.07897903335925333;-0.23963233414785792;-0.9407505726017524;0.981;0.01780457959046746
58:02.7;-0.07985532666819285;-0.23956301798717536;-0.9415017049219033;0.983;0.018011288265842577
58:02.7;-0.08104414336572204;-0.23972026518605472;-0.9424889276215653;0.983;0.018310602822569962
58:02.7;-0.08248383621367435;-0.24005883564007596;-0.9437044838264094;0.9740000000000001;0.018686267646493383
58:02.7;-0.08411066413899172;-0.2405158912116333;-0.9451530299322296;0.9690000000000001;0.01912039980985686
58:02.7;-0.0858679775307073;-0.24102182452143525;-0.9468362151623553;0.973;0.019595775911686444
58:02.7;-0.08771145746999248;-0.24151240387289666;-0.9487390644700782;0.978;0.020097523785800018
58:02.7;-0.08960989521586787;-0.24193969359208833;-0.950822957882804;0.982;0.020614022945526746
58:02.7;-0.09154203842323293;-0.24227882027180145;-0.9530269099643601;0.991;0.02113689513990515
58:02.7;-0.09349097927864132;-0.24252872492939329;-0.9552756961657289;0.998;0.02166015804022451
58:02.8;-0.09543804857501996;-0.24270739300728186;-0.957491156357902;0.996;0.02217886551502296
58:02.8;-0.09735794863043681;-0.2428439080062847;-0.9596022644879892;0.998;0.022687669756968447
58:02.8;-0.09921595821838099;-0.2429698350230579;-0.9615508906200078;0.998;0.02317961212144347
58:02.8;-0.1009670416154105;-0.24311165060075934;-0.9632926309995841;0.997;0.023645235367904617
58:02.8;-0.1025563281287585;-0.243285184406198;-0.9647939111254235;0.996;0.024072027961687868
58:02.8;-0.10392070568061426;-0.2434923926203819;-0.9660274384586518;0.997;0.024444262925874954
58:02.8;-0.10499144090847039;-0.24372025461994468;-0.9669683065037286;1.0;0.02474330787734046
58:02.8;-0.10569753715005903;-0.243941432812436;-0.9675924508484545;1.003;0.02494841212925123
58:02.8;-0.1059694839800419;-0.24411643742781397;-0.9678778791594164;1.004;0.02503792920135638
58:02.8;-0.10574332195893127;-0.2441969694402441;-0.9678079817206201;1.004;0.024990930066389874
58:02.9;-0.10496511577220859;-0.24412984647467995;-0.9673758479274034;1.006;0.024789119865249225
58:02.9;-0.10359576295645842;-0.24386089491027763;-0.9665886497937465;1.001;0.02441888601123979
58:02.9;-0.1016159171157409;-0.2433386131875534;-0.9654714491387544;1.001;0.02387328623536888
58:02.9;-0.09903093686095076;-0.2425178454471817;-0.9640701716616307;1.002;0.023153851036907466
58:02.9;-0.09587575773738885;-0.2413636763921028;-0.9624536193722337;1.004;0.02227206737256522
58:02.9;-0.09221906524554759;-0.2398553493050901;-0.9607137909067759;1.001;0.02125025517237537
58:02.9;-0.0881655105968435;-0.2379896995632397;-0.9589630040981877;0.9940000000000001;0.02012142529435747
58:02.9;-0.08385445990266212;-0.23578374337407604;-0.9573266671666235;0.988;0.018927801866832572
58:02.9;-0.07945407671667432;-0.23327653770347778;-0.9559322503499543;0.985;0.017717986233973578
58:02.9;-0.07515040943315195;-0.23053063402932697;-0.9548966812759162;0.982;0.016543080372855234
58:03.0;-0.07113235232225011;-0.22763283720391986;-0.9543148200004125;0.977;0.015452322038078408
58:03.0;-0.0675745186209377;-0.22469290470105027;-0.95425118009832;0.981;0.014488886985327444
58:03.0;-0.06462096867809948;-0.2218385983483737;-0.9547362088768144;0.981;0.013686549427375329
58:03.0;-0.06237295090713576;-0.21920667415288678;-0.9557671395438255;0.982;0.013067790371716603
58:03.0;-0.060882850898500616;-0.21693070797020134;-0.9573121902904144;0.983;0.01264356668040172
58:03.0;-0.06015477113695775;-0.2151271421535284;-0.9593165625834763;0.986;0.012414442729862469
58:03.0;-0.06015056758145133;-0.2138812549683544;-0.9617089840640114;0.988;0.012372461940914965
58:03.0;-0.06079922620370311;-0.21323530641793853;-0.9644077593834698;0.99;0.012503104544359284
58:03.0;-0.062007253910341315;-0.2131811735424671;-0.9673255385767611;0.991;0.012786862667132677
58:03.0;-0.06366835440555084;-0.21365889917380856;-0.9703725227769998;0.997;0.013200278742072212
58:03.1;-0.06567166507282153;-0.2145613475599426;-0.9734582740910176;0.998;0.01371661208610183
58:03.1;-0.06790849663034801;-0.21574440981247686;-0.9764923735228924;1.0;0.014306471146798288
58:03.1;-0.07027756087722063;-0.21704182074757755;-0.9793843322423154;1.0;0.014938715490250694
58:03.1;-0.07268849800230545;-0.21828307190263085;-0.982043847775615;1.008;0.01558176431861082
58:03.1;-0.07506356670986288;-0.21931232035707054;-0.9843829496878507;1.012;0.01620527140712108
58:03.1;-0.0773376124516081;-0.2200059739751611;-0.9863208679060654;1.015;0.01678198992075095
58:03.1;-0.07945676475008119;-0.22028663516987268;-0.9877911192280053;1.02;0.017289568092939567
58:03.1;-0.08137674546053489;-0.2201314157928083;-0.9887494214054662;1.023;0.017712040071493174
58:03.1;-0.08306186038351618;-0.21957356196794495;-0.9891806656336998;1.022;0.018040863487955337
58:03.1;-0.08448525024542974;-0.21869745017050923;-0.9891031170850978;1.021;0.0182753702731845
58:03.2;-0.08562999326108202;-0.21762786387245667;-0.9885686067289965;1.0190000000000001;0.018422443101691367
58:03.2;-0.08648988432076035;-0.21651510127081636;-0.987658595703051;1.014;0.018495256408019276
58:03.2;-0.08706875882615506;-0.2155178990714937;-0.9864769406655887;1.014;0.018511117445736004
58:03.2;-0.08737807635124434;-0.21478612282579332;-0.985140601168028;1.012;0.018488723012101565
58:03.2;-0.08743338276599945;-0.21444474238581493;-0.9837694040836347;1.006;0.01844531158734746
58:03.2;-0.08725057520214224;-0.21458024772929735;-0.9824757470023698;1.003;0.018394156594988994
58:03.2;-0.08684276703576128;-0.21523064180108223;-0.9813553946125216;1.004;0.018342733980159245
58:03.2;-0.08621832537988307;-0.21638026038370664;-0.9804808445360219;1.006;0.018291795430225653
58:03.2;-0.08538034797444477;-0.2179604677530974;-0.9798980949222527;1.005;0.018235453363123766
58:03.2;-0.08432759992681245;-0.21985649461970277;-0.9796264308003155;1.006;0.018162245147260475
58:03.3;-0.08305685024627356;-0.22191960319695375;-0.9796603646363446;1.006;0.018057044244704605
58:03.3;-0.08156632935716197;-0.22398301292192718;-0.979973204668076;1.012;0.01790359322177965
58:03.3;-0.07985957369116971;-0.2258796513799275;-0.9805218625604197;1.012;0.01768729330888295
58:03.3;-0.07794864124176241;-0.22745942951597697;-0.9812521260336012;1.012;0.017397750785766424
58:03.3;-0.07585587426959318;-0.22860370863647983;-0.9821034495475142;1.012;0.017030591276447862
58:03.3;-0.073613978166195;-0.2292353703703043;-0.9830128142267207;1.013;0.01658827002016761
58:03.3;-0.07126479177605627;-0.22932392967847556;-0.9839178760933167;1.013;0.016079896416054163
58:03.3;-0.06885724831039962;-0.2288858423595029;-0.9847598840533323;1.015;0.015520258207652748
58:03.3;-0.06644464528894302;-0.2279804643299657;-0.9854866713953098;1.018;0.014928232006692906
58:03.3;-0.06408101778347793;-0.22670219008971176;-0.9860554704263435;1.0190000000000001;0.014324730611563578
58:03.4;-0.06181662178262452;-0.2251694920790691;-0.9864345465218473;1.015;0.01373039683371084
58:03.4;-0.05969316122993208;-0.22351208366379746;-0.9866025067805243;1.0070000000000001;0.013163391578655424
58:03.4;-0.05773992823372504;-0.22185803259374987;-0.986545344402686;1.0070000000000001;0.012637711841989072
58:03.4;-0.05597210410971314;-0.22032295576093375;-0.9862530215709826;1.01;0.012162412512448862
58:03.4;-0.05439201821735183;-0.21900287300003937;-0.9857177857075577;1.012;0.011741878403278283
58:03.4;-0.052993392009237264;-0.21797090312561337;-0.9849349269614013;1.012;0.011377000593395295
58:03.4;-0.05176781089556574;-0.21727679699987085;-0.9839049181081224;1.0090000000000001;0.011066907557049727
58:03.4;-0.05071198185242341;-0.21694806080571552;-0.9826354615403514;1.0070000000000001;0.010810823795085876
58:03.4;-0.04983394825766459;-0.21699175952745628;-0.9811427794424042;1.008;0.010609642503927607
58:03.4;-0.049156690885341775;-0.21739654155846203;-0.9794522492021724;1.005;0.010466911165133784
58:03.4;-0.04871832347127748;-0.21813487376888288;-0.9775984873199051;1.004;0.010389100761506934
58:03.5;-0.048568881449115246;-0.2191656808687877;-0.9756247032301905;1.001;0.010385165908511997
58:03.5;-0.048764263427228664;-0.22043730407505333;-0.9735812040064646;1.001;0.01046547490127262
58:03.5;-0.049358229546199325;-0.22189018420707657;-0.971523119650318;1.001;0.010640224815602213
58:03.5;-0.05039348319042887;-0.2234586144599642;-0.9695071921322638;0.9990000000000001;0.010917482754212265
58:03.5;-0.05189279867305104;-0.22507157147578058;-0.9675870097337986;0.992;0.011301023187229937
58:03.5;-0.05385098353521339;-0.2266533799381237;-0.9658063227998605;0.9890000000000001;0.011788156250080353
58:03.5;-0.056228216189018715;-0.2281251733167145;-0.964191379758459;0.986;0.012367751828984384
58:03.5;-0.058945100315758454;-0.22940794977843848;-0.9627444321892822;0.988;0.013018687143012088
58:03.5;-0.06188008883344521;-0.23042770454067396;-0.9614403383186914;0.9940000000000001;0.013709068974675548
58:03.5;-0.06487119233390701;-0.23112242498713198;-0.9602265603190687;0.988;0.01439685665395339
58:03.6;-0.06772500402506872;-0.23144971135996145;-0.9590255007025541;0.976;0.015032660117277394
58:03.6;-0.07023441730795182;-0.2313931188641851;-0.9577390522162773;0.983;0.015564946054869588
58:03.6;-0.07220183703625532;-0.2309656978487002;-0.956257534201674;0.983;0.015946691857626222
58:03.6;-0.07346150647581726;-0.2302104668445069;-0.9544752496654052;0.993;0.016141710982558635
58:03.6;-0.07389596756537675;-0.22919849743415097;-0.952311740969835;0.991;0.01612915609367344
58:03.6;-0.07344539403367177;-0.2280250164559683;-0.9497344875799515;0.993;0.01590557118468544
58:03.6;-0.07211103017461591;-0.22680313135585398;-0.9467776997250438;0.991;0.015484556331454895
58:03.6;-0.06995443981433655;-0.225654795544551;-0.9435526173020006;0.985;0.014894501560066414
58:03.6;-0.06709361074809027;-0.2246995539374038;-0.9402462328619811;0.977;0.014175062325806067
58:03.6;-0.06369609633271954;-0.22404243448168717;-0.9371074139843122;0.9670000000000001;0.013373111759597392
58:03.7;-0.059968729473704005;-0.2237625816622163;-0.9344219784757746;0.955;0.012538782143052494
58:03.7;-0.05614325902039596;-0.22390414383652488;-0.9324807800881949;0.9520000000000001;0.011721943922085431
58:03.7;-0.05245807140088387;-0.22447065574309394;-0.931546273967602;0.9520000000000001;0.01096923468460144
58:03.7;-0.04913761327954262;-0.2254237235148192;-0.9318224349556171;0.953;0.010321595605500328
58:03.7;-0.04637190474739075;-0.22668641023283922;-0.9334307439992975;0.951;0.009812112550614161
58:03.7;-0.044298490091321155;-0.22815125026356775;-0.9363933586739613;0.946;0.009463899101677836
58:03.7;-0.04298899510968362;-0.2296921409409951;-0.9406250196721924;0.956;0.009287951854926603
58:03.7;-0.04244195541623276;-0.2311787665381616;-0.9459363595467557;0.9690000000000001;0.009281223822159903
58:03.7;-0.04258268379305255;-0.23249186333405597;-0.9520504063209307;0.9790000000000001;0.009425420409776794
58:03.7;-0.043270446861830986;-0.23353709271715947;-0.958631033813299;0.993;0.009687210434729181
58:03.8;-0.044313179827173886;-0.23425465845706483;-0.9653191590717053;1.014;0.01002056195007023
58:03.8;-0.04548900408955894;-0.2346224205669861;-0.9717705870567896;1.014;0.010371455056958414
58:03.8;-0.04657148605756951;-0.23465253830591082;-0.9776885941225743;1.014;0.010684295752940538
58:03.8;-0.04735417574277827;-0.23438362857893905;-0.9828461025152746;1.016;0.01090865168391137
58:03.8;-0.0476711680707395;-0.23387044501874907;-0.9870965289357941;1.021;0.011005018075741177
58:03.8;-0.047412433723582885;-0.23317242996490775;-0.9903754854133759;1.0270000000000001;0.010948870751579475
58:03.8;-0.046533435072980835;-0.23234283291057534;-0.9926952278786567;1.0270000000000001;0.010732733051175633
58:03.8;-0.045058429239824276;-0.23142057202234326;-0.9941321661118607;1.021;0.010366260939482385
58:03.8;-0.04307686381108476;-0.2304261613987251;-0.9948079290468219;1.008;0.00987449968795104
58:03.8;-0.040732799940064054;-0.2293615734349946;-0.994866920177433;1.013;0.009294583085798903
58:03.9;-0.038208337893174966;-0.22821329367770948;-0.9944555651907917;1.0170000000000001;0.008671305102038859
58:03.9;-0.03570314298476109;-0.22695784971683314;-0.9937076709206089;1.0170000000000001;0.008052121134328752
58:03.9;-0.033412763079871885;-0.22556890299039606;-0.992736836932545;1.02;0.0074821387230656535
58:03.9;-0.03150818073290054;-0.2240245216984588;-0.9916340096702938;1.016;0.006999552896115922
58:03.9;-0.030118443942054183;-0.22231301632389608;-0.9904678989524072;1.013;0.0066318978199082735
58:03.9;-0.02931813434751775;-0.22043628204273613;-0.9892869660807131;1.018;0.006393544544944069
58:03.9;-0.029121759050787562;-0.21841080018259235;-0.9881222690853032;1.016;0.006284958309978984
58:03.9;-0.02948682733068228;-0.21626709699229008;-0.9869901505042359;1.008;0.006294066338682066
58:03.9;-0.030325746652358175;-0.21404800187012862;-0.9858937880492401;1.008;0.006399599720142883
58:03.9;-0.03152413110510626;-0.2118057968250793;-0.9848237228049295;1.01;0.006575661800593931
58:04.0;-0.0329608081409194;-0.2095991226516785;-0.9837584337497166;0.99;0.006796350690654476
58:04.0;-0.03452422634982528;-0.207490722399901;-0.9826667485451712;0.99;0.007039290669951932
58:04.0;-0.03612182406494633;-0.20554553728661118;-0.9815153033030392;1.015;0.007287436782224557
58:04.0;-0.03768206999038369;-0.2038272569232992;-0.9802832679673321;1.037;0.007529195979391825
58:04.0;-0.03915144340898183;-0.2023923315006834;-0.978979786221119;1.0170000000000001;0.007757388749972682
58:04.0;-0.04048980765430052;-0.20128243247335623;-0.9776529613373124;1.004;0.007967761135708264
58:04.0;-0.04166744827308033;-0.2005172347831033;-0.976382000625762;0.982;0.00815771214307399
58:04.0;-0.042665308383034485;-0.20008938464859846;-0.9752549462899631;0.963;0.008325629862384623
58:04.0;-0.04347714619093067;-0.19996335548762867;-0.9743440790119269;0.9590000000000001;0.008470787668855468
58:04.0;-0.04411037026122745;-0.20007941795045614;-0.9736935743776686;1.008;0.00859340781706369
58:04.1;-0.044582798975563005;-0.20036311809111143;-0.9733272136014556;1.0270000000000001;0.00869448732018727
58:04.1;-0.04491523800948911;-0.20073878261415287;-0.9732701326433475;1.0270000000000001;0.008775227561577472
58:04.1;-0.045122832493696;-0.20114214189648236;-0.9735677462620647;1.0270000000000001;0.008836201314112726
58:04.1;-0.04520953716565214;-0.20152523017599533;-0.9742863288007609;0.978;0.008876588663788501
58:04.1;-0.045168766065892235;-0.20185027960338048;-0.9754914398322347;0.97;0.008893875476418638
58:04.1;-0.044990166268922036;-0.20207697212780953;-0.9772137291429587;0.97;0.008884315727418648
58:04.1;-0.04466900025193746;-0.2021526876059296;-0.9794185029667186;0.976;0.0088441083904757
58:04.1;-0.04421256441647518;-0.2020132742940343;-0.9819927103470029;0.991;0.00877069234674204
58:04.1;-0.04363904076470053;-0.2015943889530486;-0.9847547075977171;1.015;0.008663267039208871
58:04.1;-0.042967704813771976;-0.2008477061533875;-0.9874835298697314;1.0290000000000001;0.008521948251993495
58:04.2;-0.042203245151859275;-0.19975600086185422;-0.9899576199379604;1.035;0.008345690681360044
58:04.2;-0.04131951513638321;-0.1983434269212906;-0.9919900634955447;1.035;0.008129809162861896
58:04.2;-0.040248716569789615;-0.19667867886113025;-0.993449918789784;1.02;0.007864213536111749
58:04.2;-0.038880430635272155;-0.19486932150674094;-0.9942657038900017;1.0070000000000001;0.007533156651885386
58:04.2;-0.03707160390541787;-0.1930472846180062;-0.9944144014457157;0.9990000000000001;0.007116598729531034
58:04.2;-0.03466515759909134;-0.19134862371090827;-0.9939045192655618;0.993;0.006592698079981151
58:04.2;-0.031512733389717475;-0.189893392606551;-0.9927626769868005;1.0070000000000001;0.005940751279587794
58:04.2;-0.027496791997454244;-0.18877181088889436;-0.9910294455586259;1.024;0.005144056486706262
58:04.2;-0.02254856206846663;-0.1880401974117796;-0.9887632649609587;1.024;0.00419239190091362
58:04.2;-0.016660115760737972;-0.18772559870274252;-0.9860451297571006;1.011;0.0030838859274410564
58:04.3;-0.009890015729702618;-0.1878343286438417;-0.9829763850632574;0.986;0.0018260599598618826
58:04.3;-0.002362391444561672;-0.18835928219264647;-0.9796682567707538;0.986;0.00043593117106355717
58:04.3;0.005740603481083143;-0.18928373817092134;-0.9762290008321658;0.983;0.0010607732499514537
58:04.3;0.014192912194944247;-0.19058249826918106;-0.9727564351049242;0.99;0.002631228982186582
58:04.3;0.02274439277512865;-0.19222230095938522;-0.9693395854335771;0.996;0.0042379328088098765
58:04.3;0.031143381278444147;-0.19416281996197146;-0.9660674506166075;0.9990000000000001;0.005841700449518322
58:04.3;0.039157298675313874;-0.1963586030297625;-0.9630390789968822;0.997;0.0074046846584737
58:04.3;0.04658717294155647;-0.19876168323281126;-0.9603685429071881;0.986;0.00889276772779426
58:04.3;0.0532746325772973;-0.2013242635389344;-0.9581809969455394;0.977;0.010276947448262602
58:04.3;0.05910297266822328;-0.20400089469786478;-0.9566003664837934;0.977;0.011533787348560677
58:04.4;0.06399559162104845;-0.20674999691658733;-0.9557325647775854;0.976;0.012645382022971458
58:04.4;0.06791436191179331;-0.20953472282901997;-0.9556486706041042;0.976;0.01359927908752057
58:04.4;0.0708581135064297;-0.2123224879812355;-0.9563711245864869;0.976;0.014388384515793747
58:04.4;0.07286006617243225;-0.21508217694748988;-0.9578646445033567;0.977;0.015010602633143895
58:04.4;0.07398392201702385;-0.2177793033096871;-0.9600328162195223;0.981;0.015468209053675267
58:04.4;0.0743195014634933;-0.2203712525329343;-0.9627207944037143;0.985;0.01576732720879829
58:04.4;0.0739785877496299;-0.22280525838758744;-0.9657239865815509;0.991;0.015917853055468265
58:04.4;0.07309066719350649;-0.2250204791687488;-0.9688020169987407;0.997;0.015933786943031856
58:04.4;0.07179789890912536;-0.22695361135399122;-0.9716967764943327;0.9990000000000001;0.015833597292503943
58:04.4;0.07024935085678648;-0.22854636613515053;-0.974153183121697;1.002;0.015640257172110813
58:04.5;0.0685952746160586;-0.22975310113934055;-0.9759414988056967;1.016;0.015380815639466508
58:04.5;0.06698174012409173;-0.23054712364537405;-0.9768798805359536;1.016;0.015085416290836798
58:04.5;0.0655448101298655;-0.230924336417524;-0.9768546000744359;1.0170000000000001;0.014785565516261341
58:04.5;0.06440319795032458;-0.2309035472412552;-0.9758343797160614;1.0090000000000001;0.014511561688631772
58:04.5;0.06364952182231638;-0.2305238782509697;-0.9738762830736684;1.012;0.014289428253570319
58:04.5;0.06334183914605963;-0.22984028558667116;-0.9711227496749956;1.005;0.014138096765275675
58:04.5;0.06349791194009641;-0.22891809699394705;-0.9677906480837388;0.9990000000000001;0.014067631785139582
58:04.5;0.0640942317811019;-0.22782758201221823;-0.9641534271350147;0.995;0.014078986638694313
58:04.5;0.06507065904695858;-0.22663972800352614;-0.9605176750693625;0.987;0.014165327071740562
58:04.5;0.06634021733148716;-0.22542368459655912;-0.9571960375973299;0.9790000000000001;0.014314537684880724
58:04.6;0.06780232855819798;-0.2242450490845244;-0.9544792671229081;0.976;0.014512223955389524
58:04.6;0.06935679682911838;-0.2231635290018423;-0.952610733786085;0.976;0.014744420859771625
58:04.6;0.07091578773827213;-0.22222905512326374;-0.9517662093294154;0.973;0.01499940573887055
58:04.6;0.07241195471676555;-0.22147655621177595;-0.9520402587755763;0.971;0.015268393594129855
58:04.6;0.07380186574660427;-0.22092067605237004;-0.9534395507115643;0.9740000000000001;0.01554521983735008
58:04.6;0.0750646607291605;-0.22055241880372398;-0.9558832978632164;0.978;0.015825309936225804
58:04.6;0.07619683386605036;-0.22033965653949883;-0.9592107942489754;0.986;0.01610436671457671
58:04.6;0.07720493896717827;-0.22023235141036365;-0.9631950191267995;0.992;0.01637722923015063
58:04.6;0.07809819986940586;-0.22017171813844402;-0.9675603320585601;0.991;0.01663721427682457
58:04.6;0.07888259962874264;-0.22010121291430645;-0.9720025269356187;0.998;0.016876059365198568
58:04.7;0.07955752023042831;-0.2199766877897673;-0.9762107555932173;1.011;0.01708446898556098
58:04.7;0.08011539718147645;-0.21977341408118028;-0.9798912427325719;1.011;0.017253174757166135
58:04.7;0.08054402854800664;-0.21948865587792024;-0.9827915081568293;1.018;0.01737428023222261
58:04.7;0.08083046274754602;-0.2191395548763098;-0.9847226733689147;1.02;0.017442542023872624
58:04.7;0.08096499957112548;-0.2187570816601054;-0.9855773693341378;1.028;0.017456218190844648
58:04.7;0.08094373935582794;-0.21837760878936535;-0.985340779037193;1.023;0.017417179455869722
58:04.7;0.08076869992396117;-0.21803385866224234;-0.9840924243586062;1.0090000000000001;0.017330173944424238
58:04.7;0.0804460447275313;-0.2177466020724082;-0.9819979239090738;1.011;0.01720151317099304
58:04.7;0.07998439099267224;-0.21751829435617032;-0.9792925937106246;1.013;0.017037799434825116
58:04.7;0.07939506180696684;-0.21732997393027118;-0.976259556380596;1.006;0.01684528709792056
58:04.8;0.07869464155323673;-0.21714227088806273;-0.9732036846270097;0.9890000000000001;0.016630039527199773
58:04.8;0.07790880902384122;-0.21690005980263588;-0.9704226441120948;0.9890000000000001;0.01639861459630271
58:04.8;0.07707604520261879;-0.21653932197121645;-0.9681784640390954;0.987;0.016158893306052326
58:04.8;0.07624997569889551;-0.21599492930235542;-0.9666740457130262;0.9890000000000001;0.01592074270337805
58:04.8;0.07549918882939514;-0.21520874237107077;-0.9660370608374224;0.988;0.015696252739412105
58:04.8;0.07490360229358492;-0.2141377997986678;-0.9663111277562676;0.987;0.015499333437577282
58:04.8;0.07454740023064683;-0.21276229059361976;-0.967453219630464;0.991;0.01534465519524525
58:04.8;0.07450990935004889;-0.21109261039503943;-0.9693366619737771;0.986;0.0152462032206984
58:04.8;0.07485641606395611;-0.20917421650538623;-0.9717597749736051;0.992;0.015215845828329138
58:04.8;0.07563039118289103;-0.2070886324273423;-0.9744605728922346;1.004;0.01526219081084786
58:04.9;0.07684766903030209;-0.20494948635355345;-0.9771372211772251;0.997;0.015389804036925518
58:04.9;0.07849282082098365;-0.2028937112953118;-0.9794726055436811;0.997;0.015598786606130444
58:04.9;0.08051834193266146;-0.20106886778430916;-0.9811614447774882;1.005;0.015884740690808807
58:04.9;0.08284758691980809;-0.19961768654098874;-0.9819396695673475;1.012;0.016239164715718006
58:04.9;0.08538206864349573;-0.1986613517748293;-0.9816153122038257;1.0170000000000001;0.01665027394544113
58:04.9;0.08801288538430435;-0.19828398558601332;-0.9800974622631686;1.024;0.01710421565012576
58:04.9;0.09063495748412893;-0.19852113957338158;-0.9774175726577733;1.022;0.017586630444960085
58:04.9;0.09316167636457232;-0.19935435683620822;-0.9737371509112586;1.015;0.01808442755334745
58:04.9;0.09553686396948981;-0.20071260141960215;-0.9693376911020596;1.005;0.018587488851011368
58:04.9;0.09774097690388961;-0.20247989705571245;-0.9645921063891426;0.998;0.019089840086330453
58:05.0;0.09978944128504472;-0.2045071546707671;-0.9599207344910169;0.9670000000000001;0.019589730892117255
58:05.0;0.10172308758464811;-0.20662568656321487;-0.9557385433331705;0.96;0.020088288833969094
58:05.0;0.10359345894983864;-0.20866070410727172;-0.9524032269290544;0.96;0.020587037755841333
58:05.0;0.10544749030410243;-0.2104445276057014;-0.950174331511232;0.965;0.021085173483983515
58:05.0;0.10731533185558513;-0.21183009798657276;-0.9491896004584499;0.97;0.021577563896700954
58:05.0;0.10920289265748631;-0.21270478015607444;-0.9494590070961774;0.971;0.02205401224048613
58:05.0;0.11108888345999463;-0.21300272579416296;-0.9508735531700628;0.9790000000000001;0.022499793453668166
58:05.0;0.112925550434509;-0.2127128343623725;-0.9532254004305712;0.982;0.022897154630584032
58:05.0;0.1146426386634534;-0.21187997459265112;-0.9562362293895471;0.988;0.023227436400200852
58:05.0;0.11615452949286875;-0.21059922256356625;-0.9595905873880722;1.0;0.02347355639083664
58:05.1;0.11737008226305733;-0.20900481389468162;-0.9629704302890049;1.002;0.023622543076802394
58:05.1;0.11820366338069008;-0.20725616424790388;-0.9660866422971911;1.002;0.023667613585607802
58:05.1;0.11858535026554735;-0.2055228099927958;-0.9687040102507035;1.002;0.02360924872331258
58:05.1;0.11846896529122052;-0.2039693177091582;-0.970658195808694;1.004;0.023455017665468595
58:05.1;0.11783768854800818;-0.2027409209521688;-0.9718651688812946;1.006;0.02321836571138309
58:05.1;0.11670744326534269;-0.20195092289872904;-0.9723239348189816;1.006;0.022916873828763704
58:05.1;0.11512784527120462;-0.20167110247078956;-0.9721127774305837;1.004;0.02257047507727792
58:05.1;0.11318005936554802;-0.2019261611946087;-0.9713789413205587;1.001;0.02219990880962122
58:05.1;0.11097118405305678;-0.2026928709636693;-0.9703220534047355;1.0;0.02182551982235019
58:05.1;0.10862553931268291;-0.20390406899646865;-0.9691722995312562;0.991;0.02146638088440751
58:05.2;0.10627381055083783;-0.20545695151978627;-0.9681652877417938;0.988;0.02113959196873934
58:05.2;0.10404146112893041;-0.20722443397541757;-0.9675165519024653;0.988;0.020859591931320823
58:05.2;0.10203826066780733;-0.20906791573761138;-0.9673990963855554;0.985;0.020637453803213163
58:05.2;0.10035067172104348;-0.21084987761353152;-0.9679268016782139;0.986;0.020480292393655255
58:05.2;0.09903810999384789;-0.2124453431161701;-0.969145499813458;0.993;0.02039100085921453
58:05.2;0.09813323440035245;-0.21375173811915196;-0.9710323643701521;1.001;0.02036851996700414
58:05.2;0.09764552262843977;-0.21469650425758147;-0.9735025410290472;1.002;0.020408655597585333
58:05.2;0.09756643686122311;-0.21524117597580564;-0.9764204609883371;1.005;0.0205051368682747
58:05.2;0.09787393175486159;-0.21538047164615537;-0.9796134349037211;1.0070000000000001;0.020650382067693027
58:05.2;0.09853440132303054;-0.2151361399852088;-0.9828863551706138;1.014;0.020835530395122426
58:05.3;0.09950151068525118;-0.21454752766842586;-0.9860367903880107;1.016;0.021049719267118825
58:05.3;0.10071308169939457;-0.2136623071328852;-0.9888692432933597;1.016;0.021279071211136744
58:05.3;0.10208819534522948;-0.2125300188886551;-0.9912073711626226;1.018;0.02150603412216811
58:05.3;0.1035265769092766;-0.21119906831137233;-0.9929040011922194;1.021;0.02170956458585894
58:05.3;0.10491163184394006;-0.20971674575573648;-0.9938494449641928;1.0270000000000001;0.021866403195452497
58:05.3;0.10611745166710213;-0.20813171521392343;-0.9939780121563424;1.0270000000000001;0.021953403153757833
58:05.3;0.10701886709410194;-0.20649789992459525;-0.9932716562991655;1.023;0.02195048048718268
58:05.3;0.10750280749118492;-0.20487791025419277;-0.9917597485516992;1.02;0.021843459414623474
58:05.3;0.10747915596554743;-0.20334410666108685;-0.9895151272463936;1.02;0.02162610340827603
58:05.3;0.10688955924018208;-0.20197608935806619;-0.9866474517731838;1.018;0.02130086520002615
58:05.4;0.10571297285358329;-0.2008542952178846;-0.9832946762374594;1.002;0.020878202111164562
58:05.4;0.1039674641767863;-0.20005054776349163;-0.9796131718228585;1.002;0.020374727653147507
58:05.4;0.10170901958429608;-0.19961797862554165;-0.9757675235306829;1.002;0.01981095816598875
58:05.4;0.09902867475106036;-0.1995835177060335;-0.9719211190607313;0.998;0.019209526463652152
58:05.4;0.09604840915191516;-0.1999449414506223;-0.9682275325308745;0.993;0.018594222575154376
58:05.4;0.09291505933156928;-0.20067221990378478;-0.9648219866145158;0.9840000000000001;0.01798956058245279
58:05.4;0.08979156013260636;-0.20171154766455873;-0.9618131946030156;0.975;0.01742035534988966
58:05.4;0.08684605387045707;-0.2029907285536172;-0.9592776030982646;0.981;0.016911050902940115
58:05.4;0.08424046433689845;-0.20442567763482056;-0.957258485286756;0.983;0.016484866056964805
58:05.4;0.08211994108789067;-0.20592823207320465;-0.955770628267371;0.982;0.016162859594819914
58:05.5;0.08060352341951266;-0.20741470134018233;-0.954808970370612;0.982;0.01596283602755808
58:05.5;0.07977586770626666;-0.208813636658537;-0.9543587035369439;0.982;0.015897983144085293
58:05.5;0.07968047855891464;-0.21007130797882964;-0.9544051461742873;0.982;0.015975389135695378
58:05.5;0.08031551619358585;-0.2111542218327319;-0.9549425792052971;0.985;0.016194833311438932
58:05.5;0.08163287568448796;-0.21204872715449957;-0.9559814546458357;0.991;0.016548179875197605
58:05.5;0.08354020336212332;-0.212758007094098;-0.9575530103419492;0.991;0.01701940087214642
58:05.5;0.08590494039296996;-0.2132969874825626;-0.9597097430569724;0.993;0.017585015940978086
58:05.5;0.08856004508131513;-0.21368606713987784;-0.9625201453780459;0.9940000000000001;0.018214777181034005
58:05.5;0.09131221122899491;-0.2139448545566203;-0.9660569650555152;0.991;0.01887267416377336
58:05.5;0.09395378900631528;-0.21408722751153253;-0.9703796368203295;0.996;0.019518513147738455
58:05.6;0.09627864183100891;-0.21411902246741574;-0.9755129096510277;0.997;0.02011028513444977
58:05.6;0.09810060312512332;-0.21403917780585985;-0.9814246207949474;0.997;0.020607338279867538
58:05.6;0.09927215533338737;-0.21384402157878288;-0.988006098575834;1.006;0.020974141309341734
58:05.6;0.09970104342408853;-0.21353329934933926;-0.9950588840566036;1.013;0.021184298898858988
58:05.6;0.099363381957533;-0.21311620224491126;-1.0022908810582343;1.015;0.021224458179967542
58:05.6;0.09831243022793919;-0.2126158255866034;-1.009323886397152;1.0270000000000001;0.021097673650628455
58:05.6;0.09668200001427608;-0.21207086793733643;-1.0157134545951325;1.042;0.02082561546218473
58:05.6;0.09468271187647691;-0.2115342143454195;-1.0209806066179727;1.048;0.020448845940398242
58:05.6;0.09258909697864895;-0.21106911127170222;-1.0246525436158818;1.054;0.020024475637724803
58:05.6;0.09071681207028238;-0.21074423739486225;-1.026307762836235;1.064;0.019620998382358458
58:05.7;0.08939164018430128;-0.2106288484441281;-1.0256205863478411;1.065;0.019310854372495023
58:05.7;0.08891417293844672;-0.2107883192332991;-1.0224000873484187;1.065;0.019161893053965765
58:05.7;0.08952513747416836;-0.21127901698305096;-1.0166186113496296;1.057;0.019229120468932655
58:05.7;0.09137612290483159;-0.21214068563152239;-1.0084263434423275;1.047;0.019547934604550943
58:05.7;0.0945095367653361;-0.2133856594840756;-0.998150338830049;1.035;0.020129677750698616
58:05.7;0.09885041416892819;-0.21498675609387208;-0.9862781300207929;1.021;0.020959919150831216
58:05.7;0.10421112789071715;-0.21686769382827373;-0.9734272082650238;1.002;0.021999481166841035
58:05.7;0.11030824158052505;-0.21889984271533097;-0.9603028951281958;0.985;0.023187912307001766
58:05.7;0.11678898048176764;-0.2209072150836552;-0.9476487135868227;0.973;0.024448889928486865
58:05.7;0.12326324359324371;-0.22267932131695578;-0.9361946070802581;0.958;0.025696833808641417
58:05.8;0.12933646345661615;-0.22399003999994987;-0.9266084072157386;0.9490000000000001;0.026843919336473357
58:05.8;0.13463927915682564;-0.22462006495946796;-0.9194550900823709;0.9490000000000001;0.027806789401632077
58:05.8;0.13885117735507627;-0.22438051120962801;-0.9151668127547956;0.951;0.028512477948121125
58:05.8;0.1417165580869967;-0.2231355903593445;-0.9140242074054349;0.9490000000000001;0.028903280663891574
58:05.8;0.1430531493676142;-0.22082226421951648;-0.9161470971788281;0.948;0.028940464137837917
58:05.8;0.1427539450081012;-0.21746412009966468;-0.9214926275269888;0.9540000000000001;0.028606689080122455
58:05.8;0.14078449147178904;-0.21317622315658893;-0.9298602384193724;0.965;0.027906878227564498
58:05.8;0.1371773450887033;-0.20815861158544544;-0.940903396405453;0.976;0.026867163117243003
58:05.8;0.13202499617225466;-0.202678663931875;-0.9541467072418179;0.985;0.025531677625343828
58:05.8;0.1254718509651368;-0.1970457162506501;-0.9690057111769708;0.9940000000000001;0.02395739753106908
58:05.9;0.1177054053766723;-0.1915832238936912;-0.9848070273659705;1.01;0.022207773709873972
58:05.9;0.10894699057217766;-0.1866033111413292;-1.0008081963785407;1.01;0.020346299706298726
58:05.9;0.09944307686370807;-0.18238630887623425;-1.0162185293647035;1.025;0.018431212103453647
58:05.9;0.08945769579732808;-0.17916542453848924;-1.03022413529997;1.038;0.016512150206321314
58:05.9;0.07926513114810615;-0.17711536918595822;-1.042021016417189;1.052;0.014629009082493186
58:05.9;0.06914176328505044;-0.17634401293805216;-1.0508583565375846;1.071;0.01281283851391965
58:05.9;0.059357493190772645;-0.1768873711021487;-1.056090412399222;1.088;0.011088517310776761
58:05.9;0.05016873267864773;-0.17870965612529024;-1.0572313025392082;1.099;0.009478752046857263
58:05.9;0.04181498107586648;-0.18171095848459787;-1.0540037626222962;1.099;0.008008573855296143
58:05.9;0.034519415762779226;-0.18574390071356822;-1.0463720972652621;1.093;0.006709098199532198
58:06.0;0.028491656232533177;-0.19063670765471336;-1.0345522734922088;1.05;0.005619228132299312
58:06.0;0.023929309270808583;-0.19621571988449302;-1.0189982061954201;1.05;0.004784509048701113
58:06.0;0.02101484063380439;-0.2023190014308988;-1.0003698835700219;1.025;0.004253274206816996
58:06.0;0.019905873667446755;-0.20879608435088598;-0.979491319420195;0.993;0.004071028894740485
58:06.0;0.020720093346805663;-0.21549557531331917;-0.9573041372104536;0.971;0.004274447633095443
58:06.0;0.023519142113777345;-0.22224858428211874;-0.934820492230796;0.958;0.004886396491477116
58:06.0;0.02829677197514373;-0.2288578586262871;-0.9130781482390999;0.94;0.0059130380617656905
58:06.0;0.03497437740305638;-0.23509885085343424;-0.8930985620656552;0.929;0.007343445711808821
58:06.0;0.04340384250811145;-0.24073284210996512;-0.8758462926657563;0.917;0.009151481753661875
58:06.0;0.05337560336373605;-0.24552849647016667;-0.8621867515168593;0.903;0.011299157097366156
58:06.1;0.06462932632015725;-0.24928776087813043;-0.8528399437451001;0.8740000000000001;0.013740360224391322
58:06.1;0.07686476418136784;-0.25187179762722894;-0.8483313498500458;0.8740000000000001;0.016423751201688767
58:06.1;0.08975108258667674;-0.25322143562105687;-0.8489464324350577;0.87;0.01929391896140629
58:06.1;0.10293481348672545;-0.25336696523931906;-0.8546979158447254;0.8740000000000001;0.022290762080819912
58:06.1;0.11604850820093962;-0.25242525071927346;-0.8653128914154936;0.89;0.0253481070259245
58:06.1;0.12872212431407898;-0.2505856565381713;-0.88024280807214;0.915;0.0283930398656363
58:06.1;0.14059745042372812;-0.24808808326985027;-0.8986956712754568;0.938;0.03134700108353926
58:06.1;0.15134442718808963;-0.2451971787897415;-0.9196864155549739;0.9520000000000001;0.03412885157008355
58:06.1;0.1606779772606071;-0.24217727874630082;-0.9420999112474225;0.981;0.03665951488270183
58:06.1;0.16837433978304855;-0.23927212641042356;-0.9647621135304437;1.022;0.038867647491582794
58:06.2;0.17428582521127856;-0.23669157294518153;-0.9865151819728336;1.065;0.04069571058533634
58:06.2;0.17835198219234255;-0.23460499393450798;-1.0062893879822998;1.065;0.04210542794349056
58:06.2;0.1806045971931084;-0.23313913416092996;-1.023162112077998;1.079;0.04308126329269312
58:06.2;0.18116516125629492;-0.23237756985151053;-1.0363974515937218;1.0859999999999999;0.04363100603474032
58:06.2;0.18023582572532795;-0.23236017086242197;-1.045466781987307;1.089;0.04378375914345552
58:06.2;0.17808626052056173;-0.23308258159075057;-1.050054925223273;1.092;0.043586525495775796
58:06.2;0.1750382686272634;-0.23449651257418938;-1.0500569888887963;1.092;0.043100495896277256
58:06.2;0.17144857169330077;-0.23651164284535955;-1.0455696216826864;1.094;0.042397412527535976
58:06.2;0.167689208969741;-0.23899984246737643;-1.0368783507601667;1.087;0.041555693803681695
58:06.2;0.16412499416628287;-0.24180234997033173;-1.024440363468656;1.067;0.040655744881582974
58:06.3;0.16108859611134205;-0.24474032940848706;-1.0088613649107252;1.0390000000000001;0.03977423428971227
58:06.3;0.15885587342624596;-0.24762873996052198;-0.9908671021535748;1.0390000000000001;0.03897801641415672
58:06.3;0.1576257659806702;-0.25029255420187474;-0.9712723445494384;1.021;0.038319176152116746
58:06.3;0.15750857401164003;-0.25258338874731656;-0.9509491104616792;0.998;0.037832606369061786
58:06.3;0.15852394329131733;-0.2543941107424672;-0.9307932104985372;0.982;0.03753661679609187
58:06.3;0.1606071915080716;-0.255669187018512;-0.9116877084397921;0.963;0.03743600338208065
58:06.3;0.1636211109309584;-0.2564093329616193;-0.894463503081362;0.94;0.03752630384051279
58:06.3;0.1673703272052702;-0.2566699129379168;-0.8798587191348367;0.9209999999999999;0.037797786760290115
58:06.3;0.17161653957108514;-0.25655324413918806;-0.8684799483243374;0.907;0.03823811255738758
58:06.3;0.17609471663370893;-0.25619570263729907;-0.8607696127175412;0.903;0.03883337116077416
58:06.4;0.18053111129062033;-0.2557512802737881;-0.8569836497555138;0.898;0.03956784594727912
58:06.4;0.18466292514730812;-0.2553735480291044;-0.8571820720639679;0.9109999999999999;0.040423014770542394
58:06.4;0.18825751809173033;-0.2551979564248573;-0.8612325395488497;0.9109999999999999;0.04137613796889049
58:06.4;0.19112831430730437;-0.25532653648831366;-0.868824743502779;0.925;0.04239876087927718
58:06.4;0.19314583335406174;-0.255817134697625;-0.8794920905626085;0.935;0.04345571621508719
58:06.4;0.1942441025413243;-0.2566786584128692;-0.8926374439261492;0.943;0.04450539943574355
58:06.4;0.1944235334230969;-0.25787250463300443;-0.9075611981703791;0.955;0.045501927058557844
58:06.4;0.19375116206567528;-0.2593192855639851;-0.9234920252551784;0.972;0.046399391156974966
58:06.4;0.1923583369424824;-0.26090960964222343;-0.9396220454270868;0.995;0.047157881450413906
58:06.4;0.1904346337533227;-0.2625172245305435;-0.9551476783317794;1.018;0.04775009757960516
58:06.5;0.18821597967054482;-0.2640118305268392;-0.969314915924468;1.042;0.04816646528653916
58:06.5;0.185966273726321;-0.2652689102943996;-0.9814644121825596;1.042;0.04841669038826655
58:06.5;0.1839547447977557;-0.2661761289638789;-0.9910699328296865;1.054;0.04852710683431131
58:06.5;0.18243298433252614;-0.26663822667100157;-0.997765200514061;1.063;0.04853489871984745
58:06.5;0.18161472688531083;-0.2665823787150147;-1.0013573457521523;1.06;0.048481002185423255
58:06.5;0.18165995861476877;-0.2659641425855592;-1.0018271583374625;1.056;0.04840331435437705
58:06.5;0.18266428001967472;-0.26477239980428097;-0.9993175480270723;1.05;0.04833145335833446
58:06.5;0.18465396782447618;-0.26303146691720036;-0.9941131481911221;1.05;0.0482838807902488
58:06.5;0.18758639541408761;-0.26079964827402685;-0.9866143725547878;1.04;0.0482676080421459
58:06.5;0.19135499949769774;-0.2581645917592825;-0.9773078152284475;1.028;0.048280066770278476
58:06.5;0.19579808819662853;-0.2552360682449112;-0.966733890423894;1.004;0.04831226921720466
58:06.5;0.20071090118875642;-0.2521370001392293;-0.9554537332452945;1.004;0.04835230743458244
58:06.6;0.20586022058749467;-0.24899421533652538;-0.9440189438429253;0.9940000000000001;0.048388526888491
58:06.6;0.2110008806499846;-0.24593043201465992;-0.9329470139518569;0.983;0.04841205517804829
58:06.6;0.21589356733505524;-0.24305787921965083;-0.9227027870915093;0.976;0.048418489764193336
58:06.6;0.2203227553396777;-0.24047307452687194;-0.9136848914345054;0.968;0.04840857000894606
58:06.6;0.2241128366361318;-0.2382524942341354;-0.9062163330762575;0.9590000000000001;0.0483878219408067
58:06.6;0.2271403090402092;-0.23644930559278662;-0.900539066437553;0.956;0.048365403242130206
58:06.6;0.22934052802867336;-0.23509129059043865;-0.8968127674474201;0.9520000000000001;0.048352521941951075
58:06.6;0.23070849640630822;-0.23418010983457396;-0.8951179454482141;0.956;0.0483608424991912
58:06.6;0.23129386018047574;-0.23369247359291412;-0.8954626890681734;0.958;0.048401221809937216
58:06.6;0.23119075021326507;-0.2335838700854244;-0.8977911905686826;0.958;0.04848290606943282
58:06.7;0.23052387165478713;-0.23379467124129105;-0.9019917126316189;0.96;0.048613071363880246
58:06.7;0.2294330483214849;-0.2342574592226137;-0.9079024738941831;0.9640000000000001;0.04879649221165061
58:06.7;0.22805862472429675;-0.234904299363392;-0.915315464776271;0.968;0.049035235644675344
58:06.7;0.2265296967703691;-0.23567309668084502;-0.9239794425175057;0.975;0.04932844903691876
58:06.7;0.22495633589702263;-0.2365121587718592;-0.9336040525164796;0.9840000000000001;0.049672318312989155
58:06.7;0.22342598250088608;-0.2373818675001219;-0.9438671348482478;0.996;0.05006014265770605
58:06.7;0.22200332019957678;-0.23825312388522957;-0.9544263785500691;1.01;0.05048245969518316
58:06.7;0.2207325022097802;-0.239103857196457;-0.9649346551423195;1.025;0.050927314172518674
58:06.7;0.219640611992571;-0.23991555927544048;-0.9750563728095153;1.045;0.051380790835639706
58:06.7;0.21874123907888438;-0.2406706753883046;-0.9844807992887964;1.045;0.051827599603557144
58:06.8;0.21803676525607144;-0.24135014954418232;-0.9929285107691163;1.038;0.05225108146686136
58:06.8;0.21751826867997126;-0.24193027302998427;-1.000150097796381;1.0390000000000001;0.05263215291533614
58:06.8;0.21716373346061257;-0.2423794577480878;-1.005920786442833;1.048;0.052947674639476194
58:06.8;0.2169374293762567;-0.24265722826640504;-1.0100368412248877;1.052;0.053169789047835286
58:06.8;0.21679377293610624;-0.24271803100867603;-1.012317843949575;1.058;0.05326791966603131
58:06.8;0.21668702175158924;-0.24252107377781465;-1.0126157731299723;1.0659999999999998;0.0532141428171142
58:06.8;0.2165850253805637;-0.24204507018416663;-1.010829666468656;1.072;0.05299106493120789
58:06.8;0.21648260891806592;-0.2413043072164316;-1.0069232625298563;1.0759999999999998;0.05259984464492906
58:06.8;0.2164092185827193;-0.24036074067097427;-1.0009419186413677;1.055;0.052065275170418486
58:06.8;0.21642695083670693;-0.23932726203003524;-0.9930252239168329;1.055;0.05143559800617563
58:06.8;0.21661839412748338;-0.23836029932390015;-0.98341337070681;1.044;0.05077680409663556
58:06.9;0.21706674809760546;-0.23764314025683975;-0.97244673149397;1.033;0.05016310418733287
58:06.9;0.2178322751550728;-0.23736253760400264;-0.960557944354603;1.0190000000000001;0.04966586137524377
58:06.9;0.21892988287872775;-0.23768129052855966;-0.94825537169945;1.003;0.049342977572333024
58:06.9;0.22031281498524558;-0.2387102864512338;-0.9360973435135953;0.991;0.04923023470928239
58:06.9;0.22186653184569358;-0.2404846370885718;-0.9246577251457326;0.973;0.04933556822015262
58:06.9;0.22341483165984904;-0.24294904611565435;-0.9144845149207924;0.961;0.04963677480370598
58:06.9;0.22473755057478034;-0.2459567870444788;-0.9060546436062209;0.9470000000000001;0.05008282810106073
58:06.9;0.22559656122562977;-0.2492841681889018;-0.8997301161794661;0.9390000000000001;0.050598708368127195
58:06.9;0.22576542590948406;-0.2526583985945185;-0.8957224147561449;0.9390000000000001;0.05109337786031279
58:06.9;0.22505849858670937;-0.2557933311702204;-0.8940721787252801;0.946;0.05147036119540661
58:07.0;0.22335653087356672;-0.2584267888008065;-0.8946485055113788;0.9540000000000001;0.05164028465034941
58:07.0;0.22062640150021248;-0.2603543691365331;-0.8971677843397337;0.966;0.051534257385215186
58:07.0;0.21693222666197384;-0.2614553624503477;-0.9012282320912287;0.973;0.05111594753730218
58:07.0;0.21243512997317754;-0.2617066787568618;-0.9063544432013609;0.977;0.050389402753972246
58:07.0;0.20738049351725277;-0.26118242789288504;-0.9120458834782377;0.982;0.04940018164372364
58:07.0;0.2020741131925642;-0.2600401368423006;-0.9178237336455379;0.991;0.0482292325479193
58:07.0;0.19685086834695517;-0.25849740054741316;-0.9232712143185835;0.992;0.04698105991475218
58:07.0;0.19204046488804286;-0.25680374519585814;-0.9280632682709951;0.987;0.04576902763132168
58:07.0;0.1879349254960307;-0.25521221888597057;-0.9319830289181591;0.987;0.04470097167784599
58:07.0;0.1847621389526107;-0.2539543863326346;-0.9349252049966583;0.987;0.043867771032235194
58:07.1;0.18266843379846287;-0.2532210711347795;-0.9368888492021578;0.9890000000000001;0.043336258856077774
58:07.1;0.18171093367024957;-0.2531496353380599;-0.9379625216218564;0.987;0.04314632907912151
58:07.1;0.181858839859893;-0.25381723596548883;-0.9383042960429302;0.9840000000000001;0.04331110174191396
58:07.1;0.18300250069273302;-0.25523882055432606;-0.9381187826688341;0.985;0.04381891146467043
58:07.1;0.1849692313578541;-0.25736905829346934;-0.9376333303983346;0.9890000000000001;0.04463636932354463
58:07.1;0.1875443906835852;-0.2601084035713806;-0.9370749937640932;0.987;0.045712272455933
58:07.1;0.19049541254960523;-0.2633137793903966;-0.9366489711833373;0.985;0.04698237518279126
58:07.2;0.19359607441461377;-0.2668134810193581;-0.9365192497060065;0.987;0.04837500515096186
58:07.2;0.1966483972356514;-0.2704244312414801;-0.9367932382831052;0.987;0.04981728824108195
58:07.2;0.19949989201187387;-0.27396897895103967;-0.9375128588815429;0.992;0.05124143568320887
58:07.2;0.2020545292678485;-0.2772887846592213;-0.9386539542346022;0.997;0.05259039204588404
58:07.2;0.20427677098814315;-0.2802543838217784;-0.9401343838454714;1.004;0.05382218635010575
58:07.2;0.20618853768045642;-0.28276977073168047;-0.9418295136570739;1.012;0.05491232015059179
58:07.2;0.2078590593336811;-0.28477184997968963;-0.9435922621571725;1.014;0.05585349898014603
58:07.2;0.20938818100876452;-0.2862252003975237;-0.9452738984951421;1.014;0.05665231982853912
58:07.2;0.21088518279963056;-0.2871131759132453;-0.9467421145280601;1.013;0.05732326068602677
58:07.2;0.21244665744039962;-0.28742691131569414;-0.9478944589685382;1.012;0.05788117182589829
58:07.2;0.21413751597280226;-0.2871545074813991;-0.9486668247764858;1.015;0.058334047604187506
58:07.2;0.2159782821652046;-0.2862733050970346;-0.9490373394628372;1.015;0.058677855669519885
58:07.3;0.21793977911239973;-0.2847478581808338;-0.9490259064603123;1.0190000000000001;0.05889454086375516
58:07.3;0.21994442085036847;-0.28253457754078687;-0.9486893403519029;1.0190000000000001;0.05895336193997665
58:07.3;0.2218725212579878;-0.2795919858105498;-0.9481118845766091;1.011;0.0588149629399961
58:07.3;0.22357191354126676;-0.2758944434673087;-0.9473914096841235;1.01;0.058437232511800004
58:07.3;0.22486937534828128;-0.2714472229427856;-0.9466228445346812;1.0090000000000001;0.057782016954859135
58:07.3;0.22558290020186092;-0.26630107789293056;-0.9458813432415171;1.002;0.05682190106232793
58:07.3;0.22553433524514618;-0.2605645045905695;-0.9452077964599204;0.995;0.05554631042021189
58:07.3;0.22456204514974973;-0.25441194254276206;-0.9445994850816113;0.995;0.05396616456649682
58:07.3;0.22253333802108957;-0.24808631916790957;-0.944008960902131;0.9990000000000001;0.052116352734175315
58:07.3;0.2193565472553708;-0.24189439562043308;-0.9433530920217731;0.9990000000000001;0.05005537107450554
58:07.4;0.2149926517273039;-0.23619325368060623;-0.9425315610011575;1.001;0.04786157728974814
58:07.4;0.20946589602831597;-0.23136645119727184;-0.9414516969885959;1.005;0.04562593229454323
58:07.4;0.20287217846932196;-0.22778983930610178;-0.9400549770632362;1.006;0.04344202828940583
58:07.4;0.19538334366448157;-0.22579007441684384;-0.9383393446621794;0.998;0.041395421684120436
58:07.4;0.18724523183986097;-0.2256020704890233;-0.9363713675465272;0.992;0.03955505327134929
58:07.4;0.1787677203817355;-0.22733316267973333;-0.9342842990902128;0.981;0.03796915626335749
58:07.4;0.17030633763482916;-0.23094100509654686;-0.9322616225248156;0.9690000000000001;0.03666651784756456
58:07.4;0.1622372140914057;-0.2362297784041181;-0.9305090814658387;0.9590000000000001;0.03566200353447084
58:07.4;0.15492925763629892;-0.24286572884792182;-0.9292209413631103;0.956;0.03496380293556505
58:07.4;0.14871813392058167;-0.2504088291558079;-0.928548012276293;0.956;0.03457943791655043
58:07.5;0.14388527182994426;-0.25835411797718805;-0.9285748017061284;0.9640000000000001;0.034518238420434603
58:07.5;0.14064266995995522;-0.266176325578281;-0.9293103364342095;0.975;0.03478942859957872
58:07.5;0.13912268027680572;-0.27337390323001504;-0.930692635670999;0.9840000000000001;0.035396577098812575
58:07.5;0.1393719757016274;-0.2795101643287082;-0.932602813171595;0.993;0.036330366850543014
58:07.5;0.14134941358027373;-0.28424890156934873;-0.9348830821079551;0.9990000000000001;0.03756212096141467
58:07.5;0.1449276519403168;-0.2873811510088789;-0.9373535633357152;0.995;0.03904028420314519
58:07.5;0.1498988658265254;-0.2888398810858728;-0.9398249904602208;0.9940000000000001;0.04069138699753317
58:07.5;0.15598592942745496;-0.2887004663640307;-0.9421074925419813;0.993;0.04242612509303886
58:07.5;0.1628605031697601;-0.2871666342526127;-0.9440183296330544;0.998;0.0441499460474203
58:07.5;0.17016744283257976;-0.2845439339003638;-0.9453920880893847;0.998;0.045775992306884714
58:07.5;0.1775523434902419;-0.281205108577102;-0.9460952526116713;1.004;0.04723723605573704
58:07.6;0.18468865461285405;-0.27755259817827593;-0.9460446897684346;1.013;0.048495022714982294
58:07.6;0.1913023134365525;-0.2739823013882168;-0.9452273393287608;1.0170000000000001;0.04954262408905186
58:07.6;0.19719205362218323;-0.2708512842997704;-0.9437164445644765;1.021;0.05040363198585707
58:07.6;0.2022418974590286;-0.26845143806832916;-0.9416785331671544;1.025;0.05112573165582796
58:07.6;0.20642164449192713;-0.2669905272747021;-0.9393657070490883;1.011;0.05177090873286051
58:07.6;0.20977342088498696;-0.2665809667974475;-0.9370900869698614;0.982;0.05240357827062348
58:07.6;0.21238693498356706;-0.2672358575167951;-0.9351823437319285;0.9690000000000001;0.05307852274746381
58:07.6;0.21437040447232508;-0.2688725468511053;-0.9339429110376547;0.971;0.053830897211370056
58:07.6;0.215825308322415;-0.2713249211460176;-0.9335981562226561;0.971;0.05467037348434378
58:07.6;0.21683071223065428;-0.27436430509656723;-0.934271608966096;0.987;0.055580385760008906
58:07.7;0.21743889812923572;-0.27772631649600604;-0.9359743713222441;1.003;0.05652209229148309
58:07.7;0.21768011698411927;-0.2811399554320212;-0.9386125739689918;1.011;0.05744175518339599
58:07.7;0.2175714907967744;-0.28435531568487;-0.9420056229083258;1.015;0.058279636448370066
58:07.7;0.21712468828241419;-0.28716653204745096;-0.9459083962324459;1.0170000000000001;0.058978281211765085
58:07.7;0.21634928565493297;-0.28942744963342243;-0.9500328041159023;1.022;0.059488604987432074
58:07.7;0.21525204376267;-0.2910590378329799;-0.9540668279003836;1.02;0.059773291160996576
58:07.7;0.2138347040448461;-0.29204878557558234;-0.9576909937175336;1.0170000000000001;0.05980796118022169
58:07.7;0.2120935343388956;-0.2924430866163075;-0.9605935780183377;1.024;0.0595810931675303
58:07.7;0.21002294283886117;-0.2923345680877316;-0.9624866292068015;1.024;0.059093759121549405
58:07.7;0.2076237151660793;-0.29184709996695235;-0.9631242920761887;1.03;0.058359918528018764
58:07.8;0.2049146021018952;-0.2911207823962193;-0.9623232324079999;1.035;0.057407295512103725
58:07.8;0.20194453734424458;-0.29029776048559186;-0.959983324190934;1.032;0.05627810745258651
58:07.8;0.19880195697524725;-0.2895089511592195;-0.9561056199209996;1.031;0.05502860737485791
58:07.8;0.19561782779498818;-0.28886237947647386;-0.9508040700767642;1.03;0.05372673493592601
58:07.8;0.19256003546610043;-0.2884344263390573;-0.944307588815532;1.0170000000000001;0.05244773431000891
58:07.8;0.18981836042028113;-0.2882647231711887;-0.936949945145961;1.005;0.05126796818248567
58:07.8;0.1875810849095642;-0.288354555038607;-0.9291468412933712;0.993;0.050257422818431555
58:07.8;0.18600615373134016;-0.28866854321177543;-0.9213621826682022;0.9640000000000001;0.049471736599007034
58:07.8;0.18519175436578927;-0.289139452796459;-0.9140683331191027;0.9640000000000001;0.04894492464481047
58:07.8;0.18515285275160306;-0.28967547990780573;-0.9077072445089455;0.953;0.04868418954252391
58:07.9;0.18581010399874218;-0.2901691494344065;-0.9026589802037974;0.9590000000000001;0.04866808638372872
58:07.9;0.18699460257126158;-0.29050753668681906;-0.8992206797091745;0.966;0.04884867194784461
58:07.9;0.18846748937746832;-0.29058378561367876;-0.897594636520101;0.966;0.04915730570972516
58:07.9;0.18994965131674943;-0.290309123417277;-0.8978815746531184;0.963;0.04951288639577364
58:07.9;0.19115483090308508;-0.28962369303469016;-0.9000757231342322;0.958;0.04983086351827837
58:07.9;0.1918198355998696;-0.28850443144727633;-0.9040614628381005;0.9540000000000001;0.050031550246579126
58:07.9;0.19172786050312912;-0.2869688042062932;-0.9096149562704857;0.958;0.05004693745085283
58:07.9;0.1907240526208434;-0.2850741447018251;-0.9164154471900643;0.9890000000000001;0.04982596256611507
58:07.9;0.18872479025389943;-0.28291340639985096;-0.9240679109810324;0.9890000000000001;0.04933854846894683
58:07.9;0.18572258434445044;-0.2806087238911983;-0.9321331770539443;0.995;0.04857847230053209
58:08.0;0.18178737218599156;-0.27830371614116267;-0.9401590292677158;1.003;0.04756462077809452
58:08.0;0.17706380415173611;-0.2761544606304152;-0.9477082122928407;1.008;0.04634004991574143
58:08.0;0.17176389487987248;-0.27431874823872293;-0.9543824884014758;1.011;0.044968648140959085
58:08.0;0.16615473899785693;-0.27294382160433595;-0.9598428702643509;1.015;0.0435297470857445
58:08.0;0.16054123962128258;-0.2721533211498354;-0.9638262866790024;1.014;0.04211133575568558
58:08.0;0.15524423511582747;-0.2720340611580058;-0.9661593613414198;1.016;0.04080257138193914
58:08.0;0.15057559307935361;-0.2726232323181462;-0.9667700940163607;1.018;0.039686303798313435
58:08.0;0.1468132999581367;-0.2738974423824088;-0.9656974244801321;1.023;0.03883241949333521
58:08.0;0.14418007711239772;-0.27576615265366355;-0.9630969423502609;1.023;0.038292720130281684
58:08.0;0.14282799063864565;-0.278072407186225;-0.9592392701903957;1.0190000000000001;0.038097648700531804
58:08.1;0.1428295714655661;-0.2806029260643399;-0.9544974069082803;1.011;0.03825472475127782
58:08.1;0.14417443012946618;-0.28310791297391047;-0.9493212698021061;1.004;0.03874837223968944
58:08.1;0.1467700544986183;-0.2853286132531472;-0.9442007724770989;0.996;0.03954095302340217
58:08.1;0.15044638966326193;-0.2870284752462178;-0.939621237993723;0.99;0.04057509810982529
58:08.1;0.15496500012803147;-0.2880226939831619;-0.9360160679820829;0.9790000000000001;0.041777614023401105
58:08.1;0.1600335731139358;-0.28820121381356617;-0.9337221616229969;0.9740000000000001;0.04306501217537137
58:08.1;0.16532487916411967;-0.2875415780210412;-0.9329443071322489;0.9690000000000001;0.044350098090935014
58:08.1;0.17049774928648337;-0.2861100231272337;-0.9337348289232879;0.9790000000000001;0.04554862606127273
58:08.1;0.17521758912334565;-0.28405147081668347;-0.9359928281542055;0.9790000000000001;0.046585124865017126
58:08.1;0.17917503327090076;-0.28157078295087495;-0.9394837384076523;0.992;0.04739738150721146
58:08.2;0.18210250653677176;-0.27890835977597506;-0.94387633893485;1.008;0.04793939563580221
58:08.2;0.18378882504014174;-0.2763133616220579;-0.9487914270858893;1.022;0.048182767341010437
58:08.2;0.18409116793964833;-0.2740180342571495;-0.9538537058624034;1.032;0.048116482459270915
58:08.2;0.18294270484001213;-0.27221636236254926;-0.9587370761188518;1.033;0.047745104120730124
58:08.2;0.1803542554164579;-0.27104917931605366;-0.9631949839271442;1.0290000000000001;0.0470856643833669
58:08.2;0.1764097785916999;-0.27059651047121985;-0.9670716033677702;1.023;0.04616400482250855
58:08.2;0.17125720618083975;-0.27087695041079074;-0.9702947046107685;1.0190000000000001;0.04501161209153179
58:08.2;0.16509696147804112;-0.27185311332228723;-0.9728551601121975;1.0170000000000001;0.04366380493579666
58:08.2;0.15817016001866507;-0.27344118299800585;-0.9747800095183439;1.0170000000000001;0.04215946513854858
58:08.2;0.1507474825439762;-0.2755217725085807;-0.9761056743525613;1.0190000000000001;0.04054178156665176
58:08.3;0.14311842313799877;-0.27794990842716166;-0.9768559612370151;1.0170000000000001;0.03885908846916413
58:08.3;0.1355796898572199;-0.2805639347872246;-0.977027137534861;1.0170000000000001;0.03716491180299223
58:08.3;0.12842183759002082;-0.28319468344270954;-0.976580755166455;1.0170000000000001;0.03551666160952955
58:08.3;0.12191444605953143;-0.2856760750942131;-0.9754442660606942;1.0190000000000001;0.033972812352714134
58:08.3;0.11629126831763906;-0.28785702950250197;-0.9735191153638738;1.0190000000000001;0.032588804581794265
58:08.3;0.11173734921544516;-0.2896134778491203;-0.9706954133152002;1.018;0.03141232706412109
58:08.3;0.10838006492575593;-0.2908587676030526;-0.9668717130816402;1.021;0.030478979451179486
58:08.3;0.10628524999134284;-0.2915506247394083;-0.9619779962896434;1.015;0.029809323015551337
58:08.3;0.10545839006262506;-0.2916931789248667;-0.9559994776112118;1.015;0.029407971278373312
58:08.3;0.105849922221931;-0.2913333995937463;-0.9489983585701031;1.012;0.02926484856779108
58:08.4;0.1073633367115097;-0.29055234442987365;-0.9411302841585485;1.003;0.029358247876516096
58:08.4;0.1098647981998618;-0.2894527558403557;-0.932652022287526;0.997;0.029658957888087676
58:08.4;0.11319304800525497;-0.28814547939688245;-0.9239172481306507;0.9890000000000001;0.03013454509529017
58:08.4;0.11716849096530904;-0.2867372108202308;-0.9153584398211072;0.973;0.03075290050751118
58:08.4;0.12160090593960869;-0.2853212101300365;-0.907454540575972;0.958;0.0314844235251489
58:08.4;0.12629591381280192;-0.28397180928524185;-0.9006863502081088;0.948;0.03230264682840773
58:08.4;0.1310605562234768;-0.2827430492707563;-0.8954842507521384;0.935;0.03318347748790266
58:08.4;0.13570799151183305;-0.28167094032291967;-0.8921749217573485;0.9159999999999999;0.03410338422374882
58:08.4;0.14006112278879757;-0.2807777233944659;-0.890935188714998;0.9159999999999999;0.035036955713312425
58:08.4;0.143955537192576;-0.2800761301856603;-0.8917620532408664;0.9179999999999999;0.03595451706118534
58:08.5;0.14724308192066374;-0.2795722604939274;-0.8944668034161216;0.92;0.03682079864221393
58:08.5;0.14979785697278475;-0.2792666582240711;-0.8986973788702228;0.9440000000000001;0.03759569897116605
58:08.5;0.15152574864237495;-0.27915405023700135;-0.9039879665375418;0.9740000000000001;0.03823781090588956
58:08.5;0.15237643776803106;-0.27922270745780897;-0.9098284201327727;0.996;0.03871043476878684
58:08.5;0.15235373302048547;-0.27945401519066293;-0.9157396149943291;1.006;0.038988403862246473
58:08.5;0.15151862970527927;-0.2798219878233846;-0.9213380681362872;1.005;0.03906311636343426
58:08.5;0.14998142633600448;-0.2802924831500092;-0.9263765245520221;0.998;0.03894363368949474
58:08.5;0.14788329963697616;-0.28082307212726704;-0.9307548329372399;0.9840000000000001;0.03865335703309312
58:08.5;0.14537181540658164;-0.2813652833549958;-0.9345036297552627;0.9840000000000001;0.038223611376857834
58:08.5;0.14257730705623017;-0.28187009214101194;-0.9377491898604684;0.98;0.03768652577139067
58:08.6;0.13959650771591617;-0.28229590740735044;-0.9406696773519884;0.983;0.037069461773096266
58:08.6;0.13648685088390267;-0.28261691650513754;-0.9434515969080405;0.98;0.03639222351285185
58:08.6;0.13327181417181166;-0.2828286845221465;-0.9462529613433441;0.98;0.0356671998194027
58:08.6;0.12995553885881578;-0.2829481204481777;-0.9491780915998118;0.985;0.034901919561792685
58:08.6;0.12654317781284977;-0.2830070103240431;-0.9522674010099833;0.995;0.03410317764822135
58:08.6;0.12306205717951546;-0.28304114256151597;-0.9555027506459091;1.0090000000000001;0.033281713755010524
58:08.6;0.11957832014879957;-0.2830786095552326;-0.9588250955447255;1.018;0.03245629142493507
58:08.6;0.11620455558631135;-0.2831305272585263;-0.9621577924387105;1.022;0.031656008461496105
58:08.6;0.11309609842816845;-0.28318599480881157;-0.9654279364107188;1.022;0.030919983670733318
58:08.6;0.11043652911493647;-0.2832116236791;-0.96857999929863;1.02;0.03029418823007666
58:08.7;0.10841502987378682;-0.28315501743320076;-0.971579669581664;1.0170000000000001;0.02982580499073203
58:08.7;0.10719938024249351;-0.28295128630269334;-0.9744092145921889;1.0170000000000001;0.02955597764456167
58:08.7;0.10690909953907655;-0.2825316210423354;-0.9770576648662086;1.0190000000000001;0.02951222334830763
58:08.7;0.10759328835507094;-0.2818327320686957;-0.979509530583562;1.018;0.029701971544816387
58:08.7;0.10921668421200842;-0.2808057137183784;-0.9817352141408523;1.0190000000000001;0.030108512288966317
58:08.7;0.1116560248341914;-0.2794229793125383;-0.9836855443087448;1.021;0.030690260186894292
58:08.7;0.11470765125130471;-0.277682367313501;-0.9852920490196881;1.033;0.03138381019690403
58:08.7;0.11810605192641427;-0.27560824485944396;-0.9864730628744939;1.033;0.032110686325637135
58:08.7;0.12155116252015705;-0.2732504045382602;-0.9871436267356047;1.033;0.03278689397908496
58:08.7;0.12474022033820845;-0.2706822186992051;-0.9872259750156991;1.04;0.033333645164621895
58:08.8;0.12739935036361028;-0.267999134626272;-0.9866580632596309;1.03;0.033687383028670775
58:08.8;0.1293109731219945;-0.2653174727181525;-0.9853991302024924;1.0290000000000001;0.03380752721752061
58:08.8;0.1303341183646405;-0.262772615273093;-0.9834330103556366;1.024;0.0336808469519204
58:08.8;0.13041545001733065;-0.2605153836569493;-0.9807713399112651;1.023;0.03332193282779913
58:08.8;0.1295900348425676;-0.2587055592476889;-0.9774587506702078;1.026;0.03276995212093792
58:08.8;0.1279725009569016;-0.2575021107290022;-0.9735801591695461;1.0290000000000001;0.03208257110048521
58:08.8;0.1257404139846955;-0.2570504922307146;-0.9692673707623272;1.024;0.031328306473781924
58:08.8;0.12311223053140047;-0.25746787502959545;-0.9647004387525234;1.003;0.03057853850561398
58:08.8;0.12032268214618153;-0.25882752494826333;-0.9601005599538524;0.998;0.029900240855176112
58:08.8;0.1175993048873181;-0.261144275590947;-0.9557151782059167;0.998;0.0293503813452327
58:08.9;0.1151441207795413;-0.26436378196418925;-0.9517986450030458;0.992;0.02897268911562274
58:08.9;0.11312296810433128;-0.2683580266364032;-0.948591124910432;0.987;0.028796813799116357
58:08.9;0.11166227960824372;-0.27292847725842634;-0.9462968554112489;0.9840000000000001;0.028839168790759945
58:08.9;0.11085104786170019;-0.27781725760718995;-0.9450629232010631;0.983;0.02910447354715458
58:08.9;0.11074511631069091;-0.28272589386257324;-0.9449606765232103;0.985;0.029587202601670814
58:08.9;0.11137139395454282;-0.2873401104565191;-0.9459722836369796;0.986;0.030272502369680685
58:08.9;0.11273042783612368;-0.29135787898452736;-0.9479846521144636;0.991;0.031136459537340698
58:08.9;0.11479650523765818;-0.2945173009188385;-0.9507922327808902;1.001;0.032145864072900605
58:08.9;0.11751520837508364;-0.2966211691737819;-0.9541090926657199;1.001;0.03325785627016981
58:08.9;0.12079942741264324;-0.2975557278675814;-0.9575893266759815;1.01;0.034420128492094346
58:09.0;0.1245258456484811;-0.29730194054330616;-0.9608540747337523;1.02;0.035572523899829726
58:09.0;0.12853410338652344;-0.2959383089723161;-0.9635229184980736;1.024;0.036650643949242445
58:09.0;0.132630239033599;-0.293634815232419;-0.9652465623841487;1.0270000000000001;0.037591388118692046
58:09.0;0.1365951625589851;-0.2906381678619142;-0.965737058712277;1.026;0.03833953697219201
58:09.0;0.1401981190092603;-0.28724948412407797;-0.9647924260692069;1.021;0.03885396366937475
58:09.0;0.1432142548523539;-0.28379658927685414;-0.9623140315267771;1.021;0.03911201922305624
58:09.0;0.14544446997784263;-0.28060382705209763;-0.9583163721357622;1.0190000000000001;0.03911107122014922
58:09.0;0.1467349669349303;-0.277962514898172;-0.9529291440302498;1.003;0.03886694988268007
58:09.0;0.14699358814780272;-0.27610512593588005;-0.9463915218436545;0.997;0.038409946457780536
58:09.0;0.14620031343022216;-0.2751858550501344;-0.9390395215256139;0.997;0.03777968054626516
58:09.1;0.1444101701581791;-0.27526911431014234;-0.9312880180307075;0.987;0.03702024431660436
58:09.1;0.1417479818830573;-0.27632610595841445;-0.9236079468034096;0.976;0.03617649290231603
58:09.1;0.13839548910179045;-0.2782388133722353;-0.916498075165637;0.968;0.03529158832273859
58:09.1;0.134572377688466;-0.2808106521607342;-0.910451441007678;0.9590000000000001;0.034405374664249554
58:09.1;0.13051363212873662;-0.28378308854190093;-0.9059181481364926;0.95;0.03355299923637824
58:09.1;0.12644617687145052;-0.2868575174020164;-0.9032672522824533;0.946;0.03276334263774787
58:09.1;0.12256781025429063;-0.28972166519197606;-0.9027510870460105;0.941;0.032057187691564286
58:09.1;0.11903098649688737;-0.2920793687249311;-0.9044759472612006;0.94;0.031445458855088516
58:09.1;0.11593322934464231;-0.2936812377091842;-0.9083836147256849;0.94;0.03092811326077743
58:09.1;0.11331506119885565;-0.29435208800041357;-0.9142484597717538;0.956;0.030494322984956027
58:09.2;0.1111654524622591;-0.2940106820041021;-0.9216936163321262;0.971;0.030124477923346132
58:09.2;0.10943407683056203;-0.2926784507949753;-0.9302261903178601;0.988;0.02979421099478292
58:09.2;0.10804888947875765;-0.29047538472733536;-0.9392869971923251;1.0;0.029480032196166735
58:09.2;0.10693622164849788;-0.2876029367153901;-0.9483073054044103;1.016;0.029165353705594258
58:09.2;0.10603908156530172;-0.2843161213039227;-0.9567640914333244;1.03;0.02884511738323352
58:09.2;0.10532905256671053;-0.28088950342441077;-0.9642255700009901;1.02;0.02852740923648422
58:09.2;0.10480885527977474;-0.2775830124422493;-0.9703806650332506;1.021;0.028231437793681487
58:09.2;0.10450560936372;-0.2746128606535916;-0.9750504459008158;1.022;0.027982567459114226
58:09.2;0.10445756702653987;-0.27213119431707794;-0.9781841453742256;1.022;0.027806021442365873
58:09.2;0.10469821517666383;-0.2702164113425876;-0.9798440419679563;1.02;0.027720940223302015
58:09.2;0.1052410335228519;-0.2688742261019452;-0.9801828098741026;1.023;0.027735842311920424
58:09.3;0.10606714002018817;-0.2680475704108458;-0.9794161823607757;1.0190000000000001;0.027845819857005242
58:09.3;0.10711749544145693;-0.26763223414042103;-0.9777933318509359;1.013;0.02803147175681955
58:09.3;0.10829076802224222;-0.26749531785564773;-0.9755672190934576;1.0070000000000001;0.028259522368183576
58:09.3;0.10944701622185155;-0.2674942923376569;-0.9729677772866426;1.003;0.028485044577882628
58:09.3;0.11041676973054863;-0.26749477485806933;-0.97018151399268;1.005;0.028655192871602238
58:09.3;0.11101509008819821;-0.26738524796509056;-0.9673405195289376;1.005;0.028714339989898148
58:09.3;0.11105991685190555;-0.2670874840879044;-0.9645217888600286;1.006;0.028610333752693774
58:09.3;0.11039303238902153;-0.2665623097654158;-0.961755452183939;1.006;0.028301213855122426
58:09.3;0.10890086382103034;-0.26581099846114287;-0.9590390564217521;1.011;0.02776134897247112
58:09.3;0.10653168896579185;-0.2648725931600635;-0.9563543964946143;1.0070000000000001;0.026985762543811274
58:09.4;0.10330577445341708;-0.2638170706254538;-0.9536833134953455;0.997;0.02599151984327843
58:09.4;0.09931584348005683;-0.262734421639641;-0.9510198307957882;0.9940000000000001;0.024815617310914497
58:09.4;0.09471743672607848;-0.2617208023150227;-0.9483779091123887;0.99;0.023509836496281692
58:09.4;0.08971142193842685;-0.2608640549679578;-0.9457954497248358;0.987;0.02213396411258585
58:09.4;0.08452240775934881;-0.2602312372801026;-0.9433350866135457;0.9840000000000001;0.02074900497070749
58:09.4;0.07937639405827296;-0.2598602624133963;-0.9410817003573502;0.983;0.01941147633916479
58:09.4;0.07447977616058472;-0.25975669650299404;-0.9391363964610737;0.972;0.018169115565024003
58:09.4;0.07000155785671394;-0.2598955285289202;-0.9376072091999236;0.972;0.017057974101529077
58:09.4;0.06606130451277127;-0.26022661091843663;-0.9365979600374112;0.972;0.016100970662311608
58:09.4;0.06272500823414885;-0.2606819907547995;-0.9361973789243081;0.9740000000000001;0.015308025493588144
58:09.5;0.06000899269186771;-0.26118376711657787;-0.9364697037898265;0.975;0.014677640630246519
58:09.5;0.05789004278459036;-0.26165166978775967;-0.9374465143934451;0.973;0.014199527063363561
58:09.5;0.05631917620606721;-0.2620095462782287;-0.9391193166576595;0.971;0.013857796590346248
58:09.5;0.055236313658519186;-0.26218979953143334;-0.9414335382296384;0.9740000000000001;0.01363421519588055
58:09.5;0.05458335681567755;-0.26213516607712634;-0.9442857512729693;0.975;0.013511045726213417
58:09.5;0.054313980753934454;-0.26179784537612527;-0.9475259127657966;0.983;0.013473139231537083
58:09.5;0.054399257219485145;-0.2611364030701927;-0.9509652406968958;0.99;0.01350905689067479
58:09.5;0.054828620217014866;-0.2601113190999475;-0.9543887226853931;0.988;0.01361105745750515
58:09.5;0.05560608524737344;-0.25868103352304517;-0.9575701488965808;0.988;0.013773918457414
58:09.5;0.0567424152967528;-0.25680123249047215;-0.9602880113198368;0.993;0.013992858058720515
58:09.6;0.05824469504628979;-0.25442966957814667;-0.9623420394892875;1.002;0.014261118475976782
58:09.6;0.06010508373068775;-0.25153692332914185;-0.9635704228055527;1.002;0.014567881889565471
58:09.6;0.06229043468460219;-0.24812105131432535;-0.9638665913161985;1.0;0.014897105780699034
58:09.6;0.06473433882176743;-0.24422213071752036;-0.9631938009684173;1.006;0.015227668413490388
58:09.6;0.06733325558732066;-0.2399322012590691;-0.9615961448091456;1.0090000000000001;0.015534985965521851
58:09.6;0.06994843044369618;-0.2353974283576308;-0.9592042113764121;1.005;0.01579395021699854
58:09.6;0.07241442708864172;-0.23081149061541298;-0.9562325665095547;0.986;0.01598254939229957
58:09.6;0.07455314998795301;-0.22640131847449185;-0.9529671482401649;0.986;0.01608506717277286
58:09.6;0.07619039883609284;-0.2224076924960184;-0.949743775539796;0.981;0.01609372244747635
58:09.6;0.07717174200812092;-0.21906322960261246;-0.9469210747227383;0.972;0.016008165742758113
58:09.7;0.07737571529853919;-0.21656957338261282;-0.944850819875466;0.9640000000000001;0.015833078396488624
58:09.7;0.0767236754940145;-0.21507564019332237;-0.9438481115020941;0.9620000000000001;0.0155748092099767
58:09.7;0.07518635762177019;-0.21465940539742234;-0.9441641855891579;0.9590000000000001;0.015238298993661494
58:09.7;0.07278742568123413;-0.21531574505853518;-0.9459647783369044;0.9620000000000001;0.014825423732985977
58:09.7;0.06960412590072478;-0.21695236930235234;-0.949316203389826;0.968;0.01433541516381869
58:09.7;0.06576469135744337;-0.21939533230640187;-0.9541801205890833;0.9740000000000001;0.013767355727784225
58:09.7;0.061441900368675036;-0.22240428691599493;-0.9604167808927287;0.99;0.013124039643470219
58:09.7;0.05684266783650542;-0.2256953302736531;-0.9677954322993432;0.99;0.012415968276344311
58:09.7;0.05219452902869207;-0.22896749524781948;-0.9760099562237832;1.002;0.011664149148825832
58:09.7;0.04773028045813687;-0.2319291188834943;-0.9846981597589813;1.016;0.010900649878244604
58:09.8;0.043671667998444234;-0.23432174354973614;-0.9934637730352295;1.025;0.010166334731540631
58:09.8;0.04021309305878145;-0.23594022008168627;-1.0018998983702174;1.034;0.009505912045652695
58:09.8;0.0375071796601057;-0.23664794543072146;-1.0096120374553845;1.041;0.008961313421135372
58:09.8;0.035654513644071406;-0.23638634232001135;-1.0162391139091895;1.05;0.008565107218031448
58:09.8;0.03469917770509416;-0.23517806215483142;-1.0214716896982328;1.053;0.008335704780724333
58:09.8;0.034630344237279564;-0.23312372997836717;-1.0250670196622247;1.055;0.008275524954627664
58:09.8;0.03538905087092411;-0.23039223629744396;-1.026860840908254;1.058;0.00837236874547231
58:09.8;0.0368786656261513;-0.2272050080650702;-1.026775934559941;1.058;0.008603373545838131
58:09.8;0.03897719294405092;-0.223815418181541;-1.0248272123193838;1.054;0.008940281809447437
58:09.8;0.041549637787661166;-0.22048487372292197;-1.021122698899079;1.0490000000000002;0.009354573093094598
58:09.9;0.044459269534993115;-0.21745734926960114;-1.0158598782216477;1.044;0.009821328125360029
58:09.9;0.04757713781018008;-0.21493495916273697;-1.0093171416987672;1.037;0.010321267171756587
58:09.9;0.05078921175980482;-0.21305782482698754;-1.0018400905500855;1.0270000000000001;0.010840950673794562
58:09.9;0.05400052888218091;-0.21189086871902;-0.9938226191958747;1.016;0.011371536032272088
58:09.9;0.05713600800210042;-0.21141891043643998;-0.9856834684304611;1.008;0.011906694117619708
58:09.9;0.06013795834718841;-0.21155052154176995;-0.977839828500812;0.9990000000000001;0.012440289954360997
58:09.9;0.06296086709262816;-0.21213022285322922;-0.9706799916634244;0.986;0.012964307586909338
58:09.9;0.0655647099542421;-0.21295745428806506;-0.9645371978697738;0.986;0.01346734457084781
58:09.9;0.0679083454682115;-0.21380988912319332;-0.9596669046855464;0.9790000000000001;0.013933860413131565
58:09.9;0.06994429794815324;-0.21446856296884503;-0.9562293520196923;0.973;0.014344256009726171
58:10.0;0.07161564911241651;-0.2147425059011054;-0.9542787937178062;0.97;0.01467578099772088
58:10.0;0.07285523849798714;-0.21449064147564953;-0.9537608935694769;0.973;0.014904199105201342
58:10.0;0.07358719727644866;-0.21363882543239937;-0.9545197944249699;0.978;0.015006084333906999
58:10.0;0.0737308432745877;-0.21219012917789942;-0.9563151231213896;0.9840000000000001;0.014961509131575587
58:10.0;0.07320674363927693;-0.21022665435977322;-0.9588472827643203;0.987;0.014756668111792806
58:10.0;0.0719442986221854;-0.2079015470009561;-0.9617881171811389;0.993;0.014385783202704968
58:10.0;0.0698898751745432;-0.20542099221305873;-0.9648135675030223;1.002;0.013851681258432537
58:10.0;0.06701465630245584;-0.20301801237996603;-0.9676344800327036;1.001;0.013164843522722203
58:10.0;0.06332190187427761;-0.20092231179934106;-0.9700212561685977;1.001;0.012341369862366171
58:10.0;0.05885351386137737;-0.1993316782896972;-0.9718188089553634;0.9990000000000001;0.011400765720750375
58:10.1;0.053695183332550606;-0.19838940759604423;-0.9729507006485637;0.9940000000000001;0.010364411446496033
58:10.1;0.04797872584723065;-0.19816983594152027;-0.9734140140261499;0.991;0.009255158370582384
58:10.1;0.04188037650628778;-0.19867221600554524;-0.9732682459475176;0.9890000000000001;0.008098046524654103
58:10.1;0.03561455802278863;-0.19982233943566893;-0.9726220461071071;0.99;0.006921746785183736
58:10.1;0.029423366994152992;-0.20148094183623277;-0.9716208690417756;0.993;0.005760009176314959
58:10.1;0.023562565669276326;-0.20345765402284285;-0.970436750803134;0.997;0.004652258580323245
58:10.1;0.018285128058675174;-0.20552893812384948;-0.9692593499754162;0.993;0.0036425958108995764
58:10.1;0.013823648175558974;-0.20745807040715677;-0.9682863282854796;0.993;0.002776878040536995
58:10.1;0.010373470678017497;-0.20901527677814596;-0.967711637476457;0.988;0.002098205770262602
58:10.1;0.008078552032909287;-0.20999693865290284;-0.967711649197846;0.988;0.0016416949385679436
58:10.2;0.0070213888665432165;-0.21024354820347785;-0.9684302624752651;0.99;0.001429598408143792
58:10.2;0.007217755108787775;-0.20965567264202112;-0.9699646385434652;0.9890000000000001;0.0014677924927420758
58:10.2;0.008616895516848815;-0.2082058968112842;-0.9723531533085183;0.991;0.001744487570242837
58:10.2;0.011107666550675653;-0.2059439838928472;-0.9755669962690373;0.993;0.0022316652100110674
58:10.2;0.01453056468884738;-0.20299310921379543;-0.9795067094510881;0.998;0.002889157402699633
58:10.2;0.018694605880578544;-0.19953648135749985;-0.9840044152696299;1.004;0.003670588253816942
58:10.2;0.023396750626753827;-0.1957953133796584;-0.9888314008352818;1.006;0.004529811057289242
58:10.2;0.028440530055637077;-0.19200112259992827;-0.9937097827666472;1.006;0.005426265251631356
58:10.2;0.03365044697873938;-0.1883673800040192;-0.9983269266898585;1.021;0.006328041513011933
58:10.2;0.03887993677834226;-0.18506577144718436;-1.002351717841178;1.018;0.007212266916072645
58:10.3;0.04401251672970378;-0.182210372115869;-1.0054517577748285;1.016;0.00806325762454396
58:10.3;0.04895729847408268;-0.1798511785648875;-1.0073108211506072;1.0170000000000001;0.00886939981360738
58:10.3;0.05364110597356107;-0.1779777260030143;-1.0076473278362676;1.022;0.009619930504292397
58:10.3;0.0579999304278623;-0.17653228089108366;-1.0062355422826252;1.028;0.01030270485447265
58:10.3;0.06197199303716289;-0.1754296199838111;-1.0029298746017292;1.031;0.01090357597379486
58:10.3;0.06549353025421831;-0.1745783688892515;-0.9976898363479466;1.032;0.011407339842411627
58:10.3;0.0684973480767045;-0.17389892202625534;-0.9906010091320485;1.0190000000000001;0.011799657831661902
58:10.3;0.07091356340003901;-0.1733350118024203;-0.9818871440652689;1.0190000000000001;0.012069163685660817
58:10.3;0.07267171409693003;-0.17285865608220635;-0.9719099488812959;1.002;0.012209069442349169
58:10.3;0.073703715536309;-0.1724699342998807;-0.961154969143741;0.9840000000000001;0.012217889569518917
58:10.4;0.07394782600026706;-0.17219336919155365;-0.9502039819593634;0.966;0.012099256406852513
58:10.4;0.07335406777134876;-0.1720723266090016;-0.9396969242492972;0.955;0.011861047316902814
58:10.4;0.0718911062509375;-0.17216225796350318;-0.930288378003858;0.946;0.01151411895294062
58:10.4;0.06955392892320272;-0.17252288475853034;-0.922603401022345;0.938;0.011070912793656724
58:10.4;0.06637116524956777;-0.17320899087449868;-0.9171955989590633;0.9309999999999999;0.01054415632567199
58:10.4;0.06241063015819808;-0.17425967282060914;-0.914508707151715;0.925;0.009945882100575282
58:10.4;0.05778192074983969;-0.17568668857592729;-0.9148426495179687;0.917;0.009287038253556852
58:10.4;0.05263580715643484;-0.17746380960603786;-0.9183259340374567;0.917;0.00857803742300414
58:10.4;0.0471611244514925;-0.1795200599110894;-0.9248975437328252;0.927;0.007830522863030575
58:10.4;0.04157995433443853;-0.18173939932007716;-0.9343017854672846;0.945;0.007060253180526699
58:10.5;0.036141138501626806;-0.183967945422156;-0.9460977373860561;0.955;0.006290425039019388
58:10.5;0.031111384940179152;-0.18602838867824106;-0.9596820703453198;0.97;0.005554256727644281
58:10.5;0.026762856460555248;-0.18774028767229017;-0.974322654067293;0.988;0.004895451409705621
58:10.5;0.023356603206976273;-0.18894386643957997;-0.9892009334358842;1.006;0.004365429697453209
58:10.5;0.021122754135267086;-0.18952354871116572;-1.0034616188556633;1.023;0.004017117080223346
58:10.5;0.020240008854635023;-0.1894265906432152;-1.016267816880787;1.04;0.0038963666146881203
58:10.5;0.020817362936827313;-0.1886728607843673;-1.0268588514073507;1.064;0.004033164162304944
58:10.5;0.02288017246562707;-0.18735404160047262;-1.0346067531731138;1.064;0.004435041303054245
58:10.5;0.026361640279309338;-0.18562289567386714;-1.0390661253790796;1.077;0.005084487212393904
58:10.5;0.031100372182125195;-0.1836744598921642;-1.040012117242326;1.08;0.0059409070433742795
58:10.5;0.03684467853182834;-0.1817214677384633;-1.0374623527578934;1.074;0.006946297085004271
58:10.6;0.04326409666683548;-0.1799669876221469;-1.031679686920697;1.063;0.0080327706495047
58:10.6;0.049967934254712985;-0.1785781635828238;-1.023154122723358;1.0490000000000002;0.009129790386891486
58:10.6;0.05652987052973757;-0.17766532764066384;-1.0125647605755468;1.034;0.010169590859997437
58:10.6;0.06251715336195558;-0.17727018546567055;-1.0007251264252404;1.0190000000000001;0.011090463532202343
58:10.6;0.06752260723489516;-0.17736513184566688;-0.9885166035121647;1.0;0.011838629185484457
58:10.6;0.07119706169714893;-0.1778632629672587;-0.9768155802969253;0.9690000000000001;0.012369749478154448
58:10.6;0.07327875934833161;-0.17863610987601947;-0.9664215241257299;0.9690000000000001;0.012650682450117951
58:10.6;0.07361573270516858;-0.17953467479829652;-0.9579946451004756;0.96;0.012661409639307893
58:10.6;0.07217822740750185;-0.18040972848532655;-0.9520103291726809;0.956;0.012396749500417848
58:10.6;0.06906049426565744;-0.18112885150611666;-0.9487332913054703;0.9520000000000001;0.011867560543710316
58:10.7;0.06447289984998847;-0.18158898104374385;-0.948211167518678;0.956;0.011101246901006783
58:10.7;0.05872573580849391;-0.18172390748157208;-0.9502863086907795;0.9620000000000001;0.01014133212098714
58:10.7;0.05220624821833577;-0.18150681813096894;-0.9546238138359839;0.97;0.009045814789544363
58:10.7;0.04535079731485692;-0.18094863480714118;-0.9607524143671824;0.983;0.007884092703418463
58:10.7;0.03861431719981014;-0.18009306604503683;-0.9681135085525726;0.992;0.006732426670720754
58:10.7;0.03243913299009903;-0.17900910914423374;-0.9761129246231737;1.0090000000000001;0.005668190432845652
58:10.7;0.027225104183459622;-0.17778171691700037;-0.9841698247716333;1.0090000000000001;0.0047635057259927
58:10.7;0.023303063409230926;-0.17650142545820327;-0.9917579222052031;1.016;0.004079124046240075
58:10.7;0.020913076516678383;-0.17525367826602684;-0.99843625774929;1.024;0.003659362321717575
58:10.7;0.020188469939061527;-0.17410872545352557;-1.0038691058101137;1.0290000000000001;0.0035285886334191032
58:10.8;0.021146688084937658;-0.17311350369080328;-1.0078354945123618;1.028;0.0036894612660175897
58:10.8;0.023688422537330132;-0.1722873031330567;-1.0102287254024254;1.028;0.004122960056191158
58:10.8;0.027606141028561546;-0.1716226724793735;-1.0110468255309264;1.025;0.004790177788725424
58:10.8;0.03260213713801123;-0.1710916449237699;-1.0103762148235584;1.022;0.005635831312388053
58:10.8;0.03831494714131639;-0.1706556091220928;-1.0083718703464777;1.022;0.006593401462023962
58:10.8;0.044351604422053645;-0.1702761768503995;-1.0052372121224378;1.015;0.007591573177440895
58:10.8;0.05032178139206129;-0.16992463664070082;-1.001206130206019;1.015;0.008561223929503098
58:10.8;0.055869117224402486;-0.1695885468035549;-0.9965285938457661;1.015;0.009441871652774155
58:10.8;0.06069630554265391;-0.16927501662079003;-0.9914599916918286;1.013;0.010186624940365695
58:10.8;0.06458326778474568;-0.1690107221770761;-0.9862526856859184;1.005;0.01076520915380638
58:10.9;0.06739909068956063;-0.16883871731870959;-0.9811474705887481;0.997;0.011165042228859256
58:10.9;0.06910745195335856;-0.16881207409470256;-0.9763636702430322;0.996;0.011390426804170415
58:10.9;0.06976413770302842;-0.1689846538116683;-0.9720882521554592;0.985;0.011460015146505714
58:10.9;0.06950553789136989;-0.16939994686048984;-0.9684651548432422;0.9740000000000001;0.011402935765866373
58:10.9;0.06852863858775518;-0.1700798243129122;-0.9655865752289992;0.971;0.011254238686041524
58:10.9;0.06706538956203353;-0.1710157902137926;-0.9634887447070751;0.9790000000000001;0.011050484220678449
58:10.9;0.06535598727641419;-0.17216506342924748;-0.9621541908008983;0.978;0.010826175980137893
58:10.9;0.06362515076624642;-0.17345229506002674;-0.9615200982320941;0.978;0.010611266982274591
58:10.9;0.06206337312576778;-0.1747762405376473;-0.9614904803873768;0.978;0.010429482452180786
58:10.9;0.06081337213025665;-0.17602040791437343;-0.9619500255964406;0.983;0.010297092629659691
58:11.0;0.059961695911805904;-0.17706680858578858;-0.962778386519856;0.982;0.010222035845159985
58:11.0;0.05953611192185986;-0.17781144186196846;-0.96386397716273;0.985;0.010203658669930048
58:11.0;0.05950975987506462;-0.17817958980494003;-0.9651162640265686;0.993;0.01023353753963183
58:11.0;0.05981238243452865;-0.17813893579528345;-0.966475285435511;0.995;0.010297711198536489
58:11.0;0.06034742768861491;-0.17770833190176327;-0.9679166506413737;0.991;0.010380171147829785
58:11.0;0.061012168398783845;-0.1769596594870211;-0.9694505241844104;0.988;0.01046685924663966
58:11.0;0.0617171751853959;-0.1760109411818747;-0.971114844846256;0.988;0.010549121594676808
58:11.0;0.062401947634937484;-0.1750109380083945;-0.972964968035108;0.992;0.010625773172726363
58:11.0;0.06304454751789558;-0.17411726122827587;-0.975062302643203;0.99;0.010703399255544933
58:11.0;0.06366380279999984;-0.17347077983971196;-0.97746349002729;0.993;0.0107949205959097
58:11.1;0.06431330573987291;-0.173169879726583;-0.980210649624233;0.992;0.010916730903102911
58:11.1;0.06506791479793118;-0.1732492670733349;-0.9833229411179031;0.9940000000000001;0.011084968588468554
58:11.1;0.06600566572185733;-0.17366825864926394;-0.986789894591491;1.0;0.011311660412547896
58:11.1;0.0671894953235986;-0.1743119414699343;-0.9905670399999568;1.005;0.011601453196046205
58:11.1;0.06865284800845559;-0.1750057092394374;-0.9945740037976999;1.011;0.011949448964077836
58:11.1;0.07039137300421369;-0.17554065724016202;-0.9986947211216854;1.016;0.01234041914023886
58:11.1;0.07236082706965231;-0.1757051016466357;-1.0027792722889153;1.0190000000000001;0.012749502606069921
58:11.1;0.07448010006296986;-0.1753167414813607;-1.006647263044266;1.0190000000000001;0.013144405806330082
58:11.1;0.07663824535233926;-0.17425078195439397;-1.010093436375464;1.024;0.01348906469703675
58:11.1;0.07870491891476195;-0.17246078474311033;-1.0128968706755623;1.028;0.013748567909081114
58:11.2;0.08054372880003823;-0.1699900099428636;-1.0148350399398098;1.033;0.013894745126460354
58:11.2;0.08202727980463143;-0.16697155558588678;-1.0157029273209082;1.0390000000000001;0.01391129329609511
58:11.2;0.083051827990672;-0.16361656095227284;-1.0153356602593657;1.044;0.013797045465069024
58:11.2;0.08354929935730863;-0.16019143849667491;-1.0136313437445932;1.042;0.013566322751742086
58:11.2;0.08349514315228931;-0.15698689195785684;-1.0105696226663463;1.038;0.013246185857789665
58:11.2;0.08291158408511913;-0.15428286766980043;-1.0062218344949265;1.025;0.012871425648122404
58:11.2;0.0818665528407197;-0.15231443269964942;-1.0007505590682477;1.025;0.012478816617452634
58:11.2;0.08046855675698435;-0.15124333051137853;-0.9943988096793654;1.008;0.012102164176630199
58:11.2;0.07885756725122932;-0.1511384958916437;-0.9874707506031534;0.998;0.011769085321300716
58:11.2;0.07719246415737212;-0.1519672743200973;-0.9803068184671542;0.9840000000000001;0.011499713012625633
58:11.3;0.07563656976935937;-0.1535982874871727;-0.973257143372067;0.98;0.011306958504178517
58:11.3;0.074343330331724;-0.15581613056828506;-0.9666574946053026;0.978;0.011197654148836899
58:11.3;0.07344369363554609;-0.1583467474615703;-0.9608105297560233;0.975;0.011173813320944494
58:11.3;0.07303582422546204;-0.16089074268677386;-0.9559726110644733;0.97;0.011233431488695761
58:11.3;0.07317747817658075;-0.1631604495126362;-0.9523448470363614;0.9690000000000001;0.011370683422179576
58:11.3;0.07388162222557135;-0.16491548219520544;-0.9500670962895357;0.97;0.011575829703137374
58:11.3;0.07511578057229792;-0.16599134867630103;-0.9492142541006288;0.97;0.011835344110333672
58:11.3;0.07680475700709243;-0.16631702033216242;-0.9497941348149406;0.97;0.012132611706938806
58:11.3;0.07883574633270155;-0.16591959025650818;-0.9517460470375073;0.97;0.012449213977099615
58:11.3;0.08106508425099845;-0.16491623322509652;-0.9549395055481268;0.968;0.012766536918214026
58:11.4;0.08332634778456939;-0.1634953624462708;-0.9591735406450099;0.966;0.013067273329654983
58:11.4;0.08543976178882533;-0.16189040814901612;-0.9641783832629539;0.972;0.013336397678968366
58:11.4;0.08722311365478001;-0.1603507883852788;-0.9696221898931677;0.976;0.013561422025140634
58:11.4;0.08850435336703578;-0.15911483827270265;-0.9751251927817502;0.983;0.01373205998492064
58:11.4;0.08913552630486608;-0.15838835900999182;-0.9802824049403194;0.9940000000000001;0.013839656147447716
58:11.4;0.08900717122045967;-0.1583302650100896;-0.9846943502927976;1.01;0.01387683369466202
58:11.4;0.0880620320999183;-0.1590444546724492;-0.9880032477011998;1.01;0.013837754024788674
58:11.4;0.08630654166621037;-0.16057566369466308;-0.9899302021839179;1.022;0.013719175598048118
58:11.4;0.08381812177498019;-0.16290737845048872;-0.9903084091117706;1.021;0.013522255780278861
58:11.4;0.08074638909323609;-0.1659613963117988;-0.9891080740341072;1.02;0.013254823139488715
58:11.5;0.07730699335416692;-0.16959974644910109;-0.9864498216797373;1.021;0.012933586743917834
58:11.5;0.0737677700738136;-0.17362953151161417;-0.9826044935370555;1.016;0.01258545713053958
58:11.5;0.07042789592210016;-0.17781076742391924;-0.9779781495015705;1.0070000000000001;0.012247062150820508
58:11.5;0.0675918698301009;-0.18186770577324993;-0.9730818740738099;0.9990000000000001;0.011961879740799082
58:11.5;0.06554143823851255;-0.18550492573672497;-0.9684872557921679;0.993;0.011775119507282704
58:11.5;0.06450941939786177;-0.18842918308430556;-0.9647702537617333;0.965;0.01172722352587284
58:11.5;0.06465887926084511;-0.19037601739215174;-0.9624487302532557;0.965;0.011847262570674113
58:11.5;0.06606932754953511;-0.19113753436794034;-0.9619219504841827;0.965;0.012147466252375184
58:11.5;0.06872994366364049;-0.19058675038428483;-0.9634212884412032;0.96;0.012619871466412975
58:11.5;0.07253955302089814;-0.18869508795573747;-0.9669789268102004;0.961;0.01323586959859354
58:11.6;0.07731366559465691;-0.185541157029903;-0.9724184347172412;0.9740000000000001;0.013949213083887182
58:11.6;0.08279890038760376;-0.1813096141755206;-0.9793694079440953;0.991;0.014702525352571192
58:11.6;0.0886938507529821;-0.17627949494254283;-0.9873056727039652;1.008;0.0154364325858115
58:11.6;0.09467365370298607;-0.17080250674945535;-0.995602203527482;1.028;0.016099382819282602
58:11.6;0.10041474098911153;-0.16527303954801967;-1.0036021720419463;1.0390000000000001;0.016655630563630053
58:11.6;0.10561699324628417;-0.16009298198945818;-1.0106840505953656;1.053;0.01708919108797534
58:11.6;0.11002163082381913;-0.15563576297654153;-1.016319397661451;1.05;0.017402742406625836
58:11.6;0.11342369266487806;-0.15221473295926435;-1.020114518865009;1.05;0.017612029372429474
58:11.6;0.11567856132771767;-0.1500600844843582;-1.0218331522163195;1.05;0.01773773058254555
58:11.6;0.11670334141530565;-0.1493061511385509;-1.0214012200398723;1.042;0.01779743286240387
58:11.7;0.11647506165907834;-0.14998873681072367;-1.0188969564844264;1.04;0.017800076203398338
58:11.7;0.11502766307540062;-0.15205109425809085;-1.0145303464428526;1.033;0.017744218991928986
58:11.7;0.11244888529884181;-0.15535666711592552;-1.0086156466876959;1.026;0.017620196666371383
58:11.7;0.10887720867011873;-0.15970608712778814;-1.0015401698051127;1.022;0.017415133990311703
58:11.7;0.10449822916952047;-0.1648555635845866;-0.9937315606979616;1.014;0.01711912734196992
58:11.7;0.0995393226601229;-0.17053430029699201;-0.9856248863058722;0.991;0.016730853073773148
58:11.7;0.0942614185253735;-0.17645964356654606;-0.9776310745787661;0.991;0.01626126645552645
58:11.7;0.08894714959264753;-0.1823496572688905;-0.9701096192886504;0.983;0.01573467574407187
58:11.7;0.08388526803390974;-0.1879338200067863;-0.9633487169469136;0.978;0.015187075826367186
58:11.7;0.0793520943578885;-0.1929635148042771;-0.9575540894753638;0.973;0.01466212474665762
58:11.8;0.07559187056046071;-0.19722397051545087;-0.9528458978983914;0.9690000000000001;0.014205530559016976
58:11.8;0.07279835487508228;-0.2005478695806567;-0.9492629599463489;0.9670000000000001;0.013858816773430514
58:11.8;0.071099558479293;-0.2028288817591378;-0.9467739710323475;0.972;0.013653469037433271
58:11.8;0.07054706802355923;-0.20403224756886099;-0.9452951235688657;0.9740000000000001;0.013606461593892172
58:11.8;0.0711112205440883;-0.20419989749852824;-0.9447120313654844;0.98;0.013718072664181383
58:11.8;0.07268294683994023;-0.20344894476466718;-0.9449021853005887;0.977;0.013972522638682365
58:11.8;0.07508227129958335;-0.20196361491691103;-0.9457537905496786;0.977;0.014341303541467705
58:11.8;0.07807277314204136;-0.19998120039936454;-0.94717819162237;0.978;0.0147883754074891
58:11.8;0.08138101650836076;-0.19777269699059508;-0.9491150162133014;0.981;0.015275952199052036
58:11.8;0.0847195987499215;-0.19561902346904259;-0.9515302163948429;0.978;0.01576948683432175
58:11.9;0.08781178905768078;-0.19378451124309345;-0.9544075003220419;0.973;0.01624073690678807
58:11.9;0.0904152194266442;-0.19249040795829336;-0.9577345313304639;0.975;0.016668471615895023
58:11.9;0.09234204957726398;-0.19189189231003373;-0.9614867774135566;0.977;0.017037248243650015
58:11.9;0.09347316697558343;-0.1920621667569142;-0.965612631841796;0.9790000000000001;0.01733531428909561
58:11.9;0.09376436615174814;-0.19298658705201258;-0.9700228607503926;0.9840000000000001;0.01755282073173619
58:11.9;0.093243649705314;-0.1945684725560653;-0.9745862805830802;0.9990000000000001;0.01768121182502065
58:11.9;0.09200071242884227;-0.1966458911198115;-0.9791321187696722;0.9990000000000001;0.01771402951048679
58:11.9;0.09017117943205215;-0.19901598853324895;-0.9834579997330446;1.003;0.017648651840022875
58:11.9;0.08791838914232797;-0.2014623122801781;-0.9873420242797857;1.012;0.01748804083977328
58:11.9;0.08541492722113798;-0.20378142841811217;-0.9905580325209772;1.0170000000000001;0.017241629219177972
58:12.0;0.0828257983166587;-0.20580590504407864;-0.9928933776407517;1.0190000000000001;0.01692489862604507
58:12.0;0.08029525478450596;-0.2074206799195938;-0.9941680886579785;1.023;0.016557766462843775
58:12.0;0.07793918527368827;-0.20857039036094024;-0.9942540305731217;1.0290000000000001;0.016162400930955296
58:12.0;0.07584394924277958;-0.20925689393873276;-0.9930923262439421;1.031;0.015761238455638083
58:12.0;0.07407070381374006;-0.20952792177611806;-0.9907063506275121;1.026;0.015375644305666618
58:12.0;0.07266259309395412;-0.20945922505027362;-0.9872071532214118;1.01;0.015025145224936125
58:12.0;0.07165167311062536;-0.20913403520228985;-0.9827897432971362;1.01;0.01472691121128537
58:12.0;0.07106313599066197;-0.2086245695850809;-0.9777214942571009;1.003;0.01449522581251889
58:12.0;0.07091560947436495;-0.20797955087005793;-0.9723253393140704;0.997;0.014340823131566236
58:12.0;0.07121758723519098;-0.2072195636081734;-0.9669596673483937;0.993;0.014270078779356887
58:12.1;0.07196120847434803;-0.206340069199051;-0.9619956434043594;0.987;0.01428417377944058
58:12.1;0.07311542151526071;-0.20532067022590042;-0.9577922628688164;0.982;0.014378480268575543
58:12.1;0.07462083411005314;-0.2041382760007633;-0.9546696462883087;0.977;0.014542452582001184
58:12.1;0.076388240162416;-0.20278110505020328;-0.9528816990310005;0.9690000000000001;0.01476022494772094
58:12.1;0.0783019910751313;-0.20126044333080306;-0.9525902199296223;0.9670000000000001;0.01501195828348674
58:12.1;0.08022819759298554;-0.19961788339752767;-0.953843537707752;0.966;0.01527578803371483
58:12.1;0.08202644652616836;-0.1979270779208211;-0.9565631652588269;0.966;0.015530046790247018
58:12.1;0.08356280953986543;-0.19629031846688136;-0.9605413844393204;0.975;0.015755347773136533
58:12.1;0.08472207115849031;-0.19483090835680303;-0.9654513150058619;0.982;0.01593620097007182
58:12.1;0.08541814681044634;-0.19368220743530545;-0.9708692815202014;0.987;0.01606203734433932
58:12.1;0.08560248445795639;-0.19297388602970822;-0.9763079182801061;0.991;0.01612767353737996
58:12.2;0.08527023135250691;-0.192815985361367;-0.9812581699513194;1.005;0.01613332056217901
58:12.2;0.08446361800844607;-0.1932821343964005;-0.985238165041598;1.021;0.016084316859748433
58:12.2;0.08327207957289318;-0.1943941766068813;-0.9878450507453709;1.03;0.015990847797108274
58:12.2;0.08182898458060592;-0.1961106100218315;-0.9888028953874958;1.035;0.015867846188057422
58:12.2;0.08030477582252818;-0.19832069930597102;-0.9879984804631291;1.0290000000000001;0.015734961906853133
58:12.2;0.07889597176720436;-0.200845556051723;-0.9854985734145105;1.0290000000000001;0.015616117087149136
58:12.2;0.07780966057386972;-0.20344695370276977;-0.9815456671318112;1.02;0.015538003768788368
58:12.2;0.07724375028920179;-0.20584395548605275;-0.9765322599185849;1.004;0.015527018295185659
58:12.2;0.07736367834854845;-0.20773655585989645;-0.9709564754266373;0.988;0.015604497935292803
58:12.2;0.07827683849410573;-0.2088343509465182;-0.9653649948765933;0.9790000000000001;0.01578071804653084
58:12.3;0.08000727327859118;-0.20888714937791097;-0.9602919109237021;0.9670000000000001;0.01604887015363444
58:12.3;0.08247482385240888;-0.20771423295777205;-0.9562024328285237;0.9620000000000001;0.01638089012095219
58:12.3;0.08548396778222393;-0.20522962451625176;-0.9534486431874387;0.9570000000000001;0.016727152932898757
58:12.3;0.08872753492268068;-0.20146115299120396;-0.9522422650613527;0.961;0.017021474740858047
58:12.3;0.09180897297577782;-0.19656079047478123;-0.9526469155386995;0.983;0.017191508440828722
58:12.3;0.09428284871932165;-0.19080352142236484;-0.9545886590282262;0.983;0.01717257224761191
58:12.3;0.09570758671681738;-0.1845725354952195;-0.9578793977606891;0.991;0.016920931847114455
58:12.3;0.0957009020888675;-0.1783293769125087;-0.9622457845655108;0.98;0.01642195814313789
58:12.3;0.09398883120914597;-0.17256964340102726;-0.9673585682403143;0.988;0.015690187495896124
58:12.3;0.09044119997918638;-0.16776937856016821;-0.9728609481957285;0.998;0.014761475921267602
58:12.4;0.08508827041819507;-0.16433182810048394;-0.9783958907788629;1.001;0.013680627011479641
58:12.4;0.07811625095420932;-0.16254410420184315;-0.9836311509895633;1.004;0.012489495258567318
58:12.4;0.06984339665958737;-0.16254929298527;-0.9882797313260385;1.005;0.01121993459802023
58:12.4;0.06068208358467162;-0.1643359696072106;-0.9921143654186995;1.008;0.009893611531760682
58:12.4;0.05109423907822362;-0.16774473149497757;-0.9949762546373326;1.016;0.00852773195153822
58:12.4;0.04154760761632097;-0.17248879549734514;-0.9967790633446141;1.016;0.007143413961322523
58:12.4;0.03247893499697058;-0.17818390635908535;-0.9975087543999659;1.0170000000000001;0.005772806117031986
58:12.4;0.02426755002262927;-0.18438336925231125;-0.9972192809341539;1.014;0.004462090218457844
58:12.4;0.0172199066494839;-0.1906158478233267;-0.9960244446640563;1.0170000000000001;0.00326933779385829
58:12.4;0.01156362837406257;-0.1964244359334365;-0.9940868709644339;1.018;0.0022579482225348313
58:12.5;0.007448325548792853;-0.20140484999776254;-0.9916049816367396;1.015;0.0014875352803112502
58:12.5;0.004949742409700619;-0.20523924375108832;-0.9887983313054249;1.0090000000000001;0.00100450182217787
58:12.5;0.004074537968115564;-0.2077213160290169;-0.9858918811742845;1.005;0.0008344277231455655
58:12.5;0.004764995332671999;-0.20876904583281325;-0.9831007494546462;1.0070000000000001;0.000977972432904784
58:12.5;0.006904503508010583;-0.20842348632799254;-0.9806173010902106;1.0;0.0014111678123877134
58:12.5;0.010324936957860319;-0.2068346896884359;-0.978601431735196;1.0;0.002089857309462089
58:12.5;0.014816590915759981;-0.20423801250814758;-0.977173611616184;0.9990000000000001;0.0029570358939586144
58:12.5;0.020140735237149147;-0.20092488732731964;-0.976409736583954;0.9940000000000001;0.0039513104709638525
58:12.5;0.026044139434681004;-0.19721182158382575;-0.9763371028872319;0.99;0.005014674519143817
58:12.5;0.03227389840184784;-0.19341100904952732;-0.976931730058966;0.987;0.006098132179318778
58:12.6;0.038589981987456896;-0.1898056131425226;-0.9781184588454727;0.99;0.007164321761147852
58:12.6;0.04477312198175402;-0.18663174359781204;-0.9797757375095785;0.995;0.008187090148720266
58:12.6;0.0506273620857944;-0.18406758625134884;-0.9817461306078176;0.998;0.009148751150937722
58:12.6;0.055978924249428005;-0.18222901434613722;-0.9838520015436304;1.001;0.01003625871317467
58:12.6;0.060674363972014325;-0.18117066112919722;-0.985914627615895;1.012;0.010837582380877323
58:12.6;0.06458038737989968;-0.18089138766639495;-0.9877742502870003;1.018;0.011539214242263958
58:12.6;0.06758582154861009;-0.1813428359138189;-0.9893077208715648;1.018;0.012125157787116491
58:12.6;0.0696047614258998;-0.18243947757041223;-0.9904401352745755;1.014;0.012577258874426959
58:12.6;0.0705797517961461;-0.1840687209835099;-0.99114833047774;1.015;0.012876527957742636
58:12.6;0.07048423489891739;-0.18610014326949084;-0.9914566625124479;1.013;0.013005062176825104
58:12.7;0.06932379774641939;-0.18839337234523643;-0.9914271388580702;1.01;0.012948181239868009
58:12.7;0.06713630027505257;-0.19080463632796624;-0.9911461686373473;1.011;0.012696500510325873
58:12.7;0.06399150247169874;-0.19319272781526275;-0.9907097863048789;1.01;0.012247840860435252
58:12.7;0.05999053058904821;-0.19542558181680655;-0.9902087077311552;1.008;0.011608894323985229
58:12.7;0.05526446168016575;-0.1973880454638397;-0.9897142202986294;1.006;0.010796341193444548
58:12.7;0.04997066203763041;-0.19898990165997502;-0.9892661266097477;1.002;0.009836923168138754
58:12.7;0.044286408875821574;-0.20017213346443494;-0.9888645920957808;1.002;0.008766190615521694
58:12.7;0.03840088465130738;-0.20090980861851748;-0.9884680145110539;1.003;0.007626143798930144
58:12.7;0.03250686391967357;-0.20121126407738874;-0.9879984513943073;1.005;0.00646224808526523
58:12.7;0.026792474581809906;-0.20111418184577864;-0.9873548165609949;1.0070000000000001;0.005320209973889527
58:12.8;0.021433135827301608;-0.20067925962546496;-0.9864325043568541;1.011;0.004242829509275866
58:12.8;0.016584315533338976;-0.1999820449928195;-0.9851467316494598;1.0170000000000001;0.0032673035002380303
58:12.8;0.012375811384752597;-0.19910363721328822;-0.9834555572984327;1.024;0.002423302410791178
58:12.8;0.008907451464455141;-0.19812119881763868;-0.9813771987767212;1.016;0.0017318902816724619
58:12.8;0.006245327976557498;-0.19709910031167716;-0.9789961981525231;0.9990000000000001;0.0012050939264203375
58:12.8;0.004417986357569853;-0.19608138282279797;-0.9764558439427773;0.9990000000000001;0.0008458889280143859
58:12.8;0.0034132983423087577;-0.1950867246063203;-0.9739388055909967;0.99;0.0006485353259731926
58:12.8;0.0031776285103160004;-0.19410751592546033;-0.9716406258855436;0.986;0.0005993094700041502
58:12.8;0.003618469733073602;-0.19311379612776328;-0.9697406630547634;0.977;0.0006776319149936328
58:12.8;0.004610660506433252;-0.1920612481902794;-0.9683745387947434;0.976;0.0008575239421118011
58:12.9;0.006005482486703278;-0.19090154562478884;-0.9676121681894546;0.971;0.001109324668425244
58:12.9;0.007641506589384067;-0.1895932426087718;-0.9674452020605654;0.972;0.001401613337235155
58:12.9;0.009355900934241376;-0.1881115410595734;-0.9677867354985975;0.9790000000000001;0.001703259113086315
58:12.9;0.01099502701109319;-0.18645554398163933;-0.9684843687403499;0.983;0.001985474059167861
58:12.9;0.012423487654026321;-0.18465201894274336;-0.9693451412023831;0.996;0.0022236991547579595
58:12.9;0.013531049914206362;-0.18275526396820804;-0.9701681054349528;0.996;0.0023991001838602486
58:12.9;0.014236850654681507;-0.18084341209339905;-0.9707784281604174;1.003;0.002499405603145847
58:12.9;0.014490366771021647;-0.17901183975410684;-0.9710567173214898;1.002;0.0025188698669130695
58:12.9;0.014269102902833983;-0.1773639360004284;-0.9709586755217511;1.001;0.0024573257656827245
58:12.9;0.013573592072169368;-0.17599937632860185;-0.9705222472440062;0.9940000000000001;0.0023185230463473477
58:13.0;0.012420941930700325;-0.17500093673687095;-0.9698615774021991;0.9890000000000001;0.0021081652928918553
58:13.0;0.010838770261023305;-0.17442190276327027;-0.9691492884161804;0.981;0.00183219507821004
58:13.0;0.008861569893086587;-0.1742764018405673;-0.9685905698807887;0.973;0.0014958549691125524
58:13.0;0.006530679315521076;-0.17453465659870607;-0.9683939697392645;0.9740000000000001;0.0011038043742739958
58:13.0;0.0038971074930912245;-0.1751243835517388;-0.9687440477123637;0.983;0.0006611470304487663
58:13.0;0.0010246946081912385;-0.17593812050798002;-0.9697794732890911;0.983;0.00017483460097353115
58:13.0;-0.002009196361596865;-0.1768445906551406;-0.9715771999485885;0.986;0.00034521644647015113
58:13.0;-0.005117074952193961;-0.17770169938506727;-0.9741412612352355;0.9840000000000001;0.0008857992297641747
58:13.0;-0.008208555379609633;-0.1783699472641143;-0.9773950651175265;0.98;0.0014310623579820649
58:13.0;-0.011199437371573572;-0.17872642260904978;-0.981178057337523;0.987;0.0019639607103648497
58:13.1;-0.01401986791601543;-0.17867947354715374;-0.9852493961261516;0.992;0.0024681114320705593
58:13.1;-0.016619246141642702;-0.1781827973491392;-0.9893013784951822;0.997;0.0029295823271289576
58:13.1;-0.018966641926351058;-0.17724625679017095;-0.9929838764713945;1.0070000000000001;0.003338179717793099
58:13.1;-0.021046808487147687;-0.17594028051501237;-0.9959390427218482;1.02;0.003687943739951278
58:13.1;-0.022853222790340983;-0.17439164898239534;-0.9978431588799732;1.033;0.003976815308198214
58:13.1;-0.024380607265670956;-0.17277054587669746;-0.9984495331232804;1.033;0.004205719870713052
58:13.1;-0.02561947013117211;-0.17127096427345084;-0.9976243345028126;1.032;0.004377447238960015
58:13.1;-0.02655427914176388;-0.17008757464971444;-0.9953682673025328;1.022;0.00449563346988156
58:13.1;-0.027165525685897206;-0.169391869186192;-0.9918208120351422;1.011;0.004563981665198036
58:13.1;-0.027434756777247805;-0.16931007794260305;-0.9872480476948943;1.006;0.00458574823456671
58:13.2;-0.027351027116657184;-0.16990532320397775;-0.9820177675972599;0.9990000000000001;0.004563520137913031
58:13.2;-0.026917055428144956;-0.1711658166902783;-0.9765661106465297;0.99;0.004499313290782091
58:13.2;-0.026153297726379227;-0.17299985190607295;-0.9713591430912937;0.981;0.00439493060003736
58:13.2;-0.02509837183536929;-0.17523811999598699;-0.9668522281402141;0.975;0.0042524012471054935
58:13.2;-0.023805299781471622;-0.17764433255594905;-0.9634501509192769;0.965;0.00407431178979271
58:13.2;-0.022334687756620928;-0.17993461518609907;-0.9614714580826187;0.965;0.003863945580302767
58:13.2;-0.02074724235664493;-0.18180401642846394;-0.9611208569896769;0.9640000000000001;0.003625282506978547
58:13.2;-0.019098007824187798;-0.18295655947466352;-0.9624730878710404;0.97;0.003362982802845089
58:13.2;-0.017433646018423992;-0.1831351789609467;-0.9654700054204399;0.978;0.003082469490433639
58:13.2;-0.015793090829946524;-0.1821487296274224;-0.9699303506633477;0.985;0.002790190328968334
58:13.3;-0.014211288097000068;-0.17989355282803657;-0.9755699062269523;0.995;0.002494063104539176
58:13.3;-0.012724922206524004;-0.1763670832114864;-0.9820287253093347;1.0070000000000001;0.002203925247200305
58:13.3;-0.011378183720680493;-0.17167177572686748;-0.9889014584969525;1.013;0.001931634078433799
58:13.3;-0.01022645625851073;-0.1660092675920399;-0.9957664848257651;1.013;0.0016904993319212449
58:13.3;-0.0093363445963891;-0.15966611949189446;-1.0022105991568924;1.0170000000000001;0.001493993247491891
58:13.3;-0.008781293622031408;-0.15299314099712089;-1.0078485598994371;1.0170000000000001;0.00135402205840162
58:13.3;-0.008632915496248738;-0.14638019624445903;-1.012339198256446;1.022;0.0012792807595970856
58:13.3;-0.008948979373038828;-0.14022757242869469;-1.0154005536396211;1.026;0.0012742197102137574
58:13.3;-0.009759891264624667;-0.13491449992612878;-1.0168255134085535;1.032;0.0013389058583708547
58:13.3;-0.011056412684881903;-0.13076647542193137;-1.016497357912036;1.034;0.0014696601316007173
58:13.4;-0.012781799656867796;-0.12802495643723413;-1.014402608795746;1.03;0.0016599576198228572
58:13.4;-0.014830862021255995;-0.1268239772558084;-1.0106378930524813;1.025;0.0019009178154690326
58:13.4;-0.017056862480595344;-0.12717755131561315;-1.0054085406357536;1.016;0.0021809824802018186
58:13.4;-0.019285473298397318;-0.12897987796048985;-0.9990186087076953;1.008;0.002484996842451646
58:13.4;-0.02133360051820343;-0.13201825587326;-0.9918538763374244;1.0;0.002793481787757616
58:13.4;-0.023029781440040333;-0.13599659895191793;-0.9843602677771909;1.0;0.0030829887478170774
58:13.4;-0.0242323837937233;-0.14056580412865094;-0.97701968239163;0.993;0.0033279679331371824
58:13.4;-0.024842576706876764;-0.1453568762841444;-0.9703236191338508;0.985;0.0035038767699184397
58:13.4;-0.02481079339740952;-0.15001359385794946;-0.9647437782094029;0.978;0.003590734167768435
58:13.4;-0.024137116561502046;-0.15422201741401523;-0.9606993153875224;0.97;0.003576179002159968
58:13.5;-0.02286703371511445;-0.1577341082916256;-0.9585221334329154;0.9620000000000001;0.0034573041920029635
58:13.5;-0.02108429770812513;-0.1603833931847767;-0.9584233930797494;0.955;0.003240976952403258
58:13.5;-0.018902249760179117;-0.16209208457530797;-0.9604659113188023;0.955;0.00294277637216928
58:13.5;-0.016454167497399093;-0.16287033375793922;-0.9645479479885636;0.9540000000000001;0.0025848879484249247
58:13.5;-0.013882641612147362;-0.1628087816714663;-0.9704032823544612;0.982;0.002193320993454519
58:13.5;-0.011328401359381164;-0.1620656192041325;-0.977619708285942;0.982;0.0017948554100856938
58:13.5;-0.008920199618956782;-0.160849467295121;-0.9856738278240021;1.0;0.0014142540309890108
58:13.5;-0.006767921138435609;-0.15939934681924134;-0.9939769395298491;1.013;0.0010723045178518931
58:13.5;-0.0049601078164488365;-0.157962672981564;-1.0019262324229061;1.024;0.00078502111496726
58:13.5;-0.0035651925326714547;-0.15677227468578306;-1.0089558995234769;1.032;0.000563929004341261
58:13.6;-0.002634034404694193;-0.15602429839009635;-1.0145832942402966;1.036;0.00041696671550636976
58:13.6;-0.002201034142853345;-0.15585960062356266;-1.018446422175051;1.045;0.00034938039006332126
58:13.6;-0.002282569436630269;-0.1563508709243956;-1.020330466401796;1.047;0.0003641372911674651
58:13.6;-0.0028734771503048013;-0.15749661765202522;-1.0201817217392948;1.046;0.00046169643123801073
58:13.6;-0.0039434456216457525;-0.15922228308777217;-1.0181075976942995;1.0390000000000001;0.0006392538934982646
58:13.6;-0.005435336567176288;-0.1613882570762325;-1.0143622638601724;1.0390000000000001;0.0008897980658073561
58:13.6;-0.007266973285389172;-0.1638040763772881;-1.009318892273122;1.0270000000000001;0.0012014526822527105
58:13.6;-0.009337022773028525;-0.16624776643507738;-1.003430503536952;1.012;0.0015575842117807129
58:13.6;-0.011534428816195942;-0.16848910547107782;-0.9971827277635128;0.996;0.0019379504343928235
58:13.6;-0.01374961967999872;-0.17031509392691688;-0.9910441381964089;0.988;0.0023207952187586966
58:13.7;-0.01588489017777749;-0.17155506635990417;-0.9854217327180885;0.988;0.0026854056656509958
58:13.7;-0.01786151911387413;-0.1721021073406815;-0.9806283371608254;0.986;0.0030144564898317346
58:13.7;-0.019622409198956463;-0.17192701306812402;-0.9768652814707859;0.986;0.00329557440269191
58:13.7;-0.021130690041041015;-0.17108141085178;-0.9742199694390433;0.987;0.003521871694154381
58:13.7;-0.022365906210243175;-0.16968842066931078;-0.9726756402805685;0.987;0.003691532927051813
58:13.7;-0.023319651295897012;-0.16792240838806624;-0.972129619796525;0.987;0.0038067546092677026
58:13.7;-0.02399198183574306;-0.16598259099945115;-0.972416163697449;0.987;0.003872405540104403
58:13.7;-0.024389204799386846;-0.16406634904912043;-0.9733306017689312;0.9890000000000001;0.0038947315830971064
58:13.7;-0.02452308623530096;-0.16234654358394082;-0.9746526420711911;0.992;0.0038803244164183027
58:13.7;-0.02441109151183497;-0.16095501698171572;-0.9761675374437894;0.9940000000000001;0.003835447814558813
58:13.7;-0.024076836102547284;-0.15997340575451824;-0.9776839809184734;0.9940000000000001;0.0037656998987609363
58:13.8;-0.023549790454523288;-0.15943166236260256;-0.9790477594547927;0.9940000000000001;0.0036759153302068086
58:13.8;-0.02286359110447806;-0.15931360474881515;-0.9801508965950395;0.997;0.0035701811320281505
58:13.8;-0.022052752851070345;-0.15956798885673018;-0.9809366749066546;1.0;0.003451831230676149
58:13.8;-0.02114792160079162;-0.16012307849897453;-0.9814008406664906;1.0;0.003323288529521023
58:13.8;-0.02017031012360456;-0.1609019051209766;-0.9815887838719253;1.0;0.0031856888040891784
58:13.8;-0.019126745550799285;-0.1618348710737465;-0.9815882839511545;1.001;0.0030383832457512474
58:13.8;-0.018007097469873407;-0.16286712294288194;-0.9815176443382544;0.995;0.0028785597672399445
58:13.8;-0.016785187394505983;-0.163959978117862;-0.9815095963546487;0.9940000000000001;0.0027012115373037555
58:13.8;-0.015423222809327798;-0.1650873216939181;-0.9816922740361157;0.991;0.0024995638064146952
58:13.8;-0.013878921309418061;-0.16622868122393544;-0.9821695271714963;0.987;0.002265938551788897
58:13.9;-0.012113699932156196;-0.16736108847428416;-0.9830033888254347;0.986;0.001992903722368814
58:13.9;-0.010099923282445855;-0.16845222352866968;-0.984201625174175;0.987;0.0016744758977509638
58:13.9;-0.007825732843475212;-0.16945730173746684;-0.985712930922996;0.99;0.0013071810955507343
58:13.9;-0.005297090555192577;-0.17032107511578254;-0.9874312649934308;1.002;0.0008908665682205107
58:13.9;-0.0025376771699987025;-0.17098431211048568;-0.9892089993316928;1.008;0.00042922073786667543
58:13.9;0.0004121747930272892;-0.17139238384951241;-0.9908763517277397;1.008;6.999909279496864e-05
58:13.9;0.0034965301510632998;-0.17150329752597676;-0.9922631895293612;1.013;0.0005950269451308681
58:13.9;0.006644750860699197;-0.1712934865357179;-0.9932196505384469;1.016;0.001130485131096977
58:13.9;0.009772800881910541;-0.17076074439061362;-0.9936332098464675;1.014;0.001658185785503584
58:13.9;0.012785430068908542;-0.16992436559232388;-0.9934405787545957;1.0170000000000001;0.0021583053826891843
58:14.0;0.015579323575040566;-0.16882308494775572;-0.9926332353064002;1.014;0.002610773775102774
58:14.0;0.01804727456539524;-0.16751171208467827;-0.9912559154545737;1.003;0.0029966953578160105
58:14.0;0.020083694373443237;-0.16605717614176443;-0.9893984791659709;1.002;0.0032996850614175417
58:14.0;0.02159173998402129;-0.1645344242524006;-0.9871832886179469;0.997;0.0035070520565934657
58:14.0;0.022491679435502007;-0.16302260377188388;-0.9847513191136718;0.997;0.0036107405363011804
58:14.0;0.022729244589894837;-0.1616016302491704;-0.9822496047942952;0.993;0.0036078843055397446
58:14.0;0.022282436647751494;-0.16034837237545777;-0.979821169088903;0.992;0.0035008544457039137
58:14.0;0.021165696300336705;-0.15933130203677198;-0.9775975549967465;0.988;0.0032968088865403104
58:14.0;0.01943092069920788;-0.15860332031488059;-0.9756936499846973;0.9890000000000001;0.003006901022624155
58:14.0;0.0171650763924298;-0.1581938485698534;-0.9742043292583096;0.988;0.002645363686238866
58:14.1;0.014484218649626318;-0.15810202137609808;-0.973202162234743;0.988;0.0022286176202350083
58:14.1;0.011523981536656161;-0.15829287156577868;-0.9727350562803085;0.985;0.001774428396987247
58:14.1;0.00842738240231058;-0.15869836553635777;-0.9728227979999144;0.981;0.0013010647019974452
58:14.1;0.005331768666669022;-0.1592247168097635;-0.97345246238995;0.98;0.0008264118410868985
58:14.1;0.002357120995451276;-0.15976572583863677;-0.9745742211295068;0.98;0.0003670121252095931
58:14.1;-0.00040267266930181755;-0.16021964565751443;-0.9761000749552958;0.986;6.297414309716707e-05
58:14.1;-0.002885200689005985;-0.16050600236733356;-0.9779075606347442;0.991;0.00045286119605701024
58:14.1;-0.0050621835674407225;-0.16057925963415168;-0.9798487895154143;0.993;0.0007965011393698001
58:14.1;-0.00693983874531703;-0.16043734367930232;-0.9817635213519627;0.997;0.0010931046290473373
58:14.1;-0.008556425961456103;-0.16012424328526387;-0.9834943433281305;1.001;0.0013474769768149874
58:14.2;-0.009976351133132413;-0.1597266314613063;-0.9849021503550611;1.003;0.0015694307040298448
58:14.2;-0.011281443407610378;-0.15936458751601118;-0.985880303378748;1.003;0.0017724773011099733
58:14.2;-0.012560943740032741;-0.15917695643928254;-0.9863660017560184;1.006;0.0019721528040136703
58:14.2;-0.013901336609141014;-0.1593031001048504;-0.9863476402171506;1.004;0.0021842925114986794
58:14.2;-0.015376430382135995;-0.15986372831157367;-0.9858671033951466;1.004;0.002423392942570487
58:14.2;-0.017038048155797604;-0.16094335838605975;-0.9850162331543604;1.002;0.0027010727940971866
58:14.2;-0.018908074446248587;-0.16257645015492292;-0.9839273233724086;0.996;0.003024600092265117
58:14.2;-0.020972849080169817;-0.1647391859609074;-0.9827583137268707;0.9990000000000001;0.003395479195128965
58:14.2;-0.023180939558457788;-0.16734853200659097;-0.9816739882827704;0.995;0.003808204177922235
58:14.2;-0.025445302207582496;-0.17026883934355305;-0.9808247838050312;0.983;0.004249464642695347
58:14.3;-0.02765044309411139;-0.17332476120132242;-0.9803254469126524;0.9840000000000001;0.004698216023896506
58:14.3;-0.0296640455280356;-0.1763188707961788;-0.9802370851857475;0.987;0.005126964424533886
58:14.3;-0.03135130421328623;-0.17905250666482703;-0.9805566368526132;0.987;0.005504383711920712
58:14.3;-0.03258984988142308;-0.18134789358175238;-0.9812163456395399;0.9940000000000001;0.005799087340707047
58:14.3;-0.03328341075853318;-0.18306860836579053;-0.9820937173984874;0.9940000000000001;0.005984042064775515
58:14.3;-0.03337247870357734;-0.18413510172623782;-0.9830309374270912;1.004;0.006040769111878203
58:14.3;-0.03284039781265673;-0.18453279047141893;-0.9838616106079865;1.01;0.0059623295068434315
58:14.3;-0.031714095715246596;-0.184311558274608;-0.9844413497517154;1.016;0.005754329820543804
58:14.3;-0.030060071803905856;-0.18357665788698604;-0.9846772451579611;1.021;0.00543377153791354
58:14.3;-0.027977445060727673;-0.18247206833688726;-0.9845504152683502;1.0170000000000001;0.00502623055697466
58:14.4;-0.025590003600521435;-0.18115855972689196;-0.9841265222771776;1.011;0.0045622611626159855
58:14.4;-0.023038294748453772;-0.1797900430407575;-0.9835514477354621;1.006;0.004073925179738977
58:14.4;-0.020471732900832124;-0.17849287360866276;-0.98303239624457;0.9990000000000001;0.003592057817624492
58:14.4;-0.01804017036241928;-0.17735267166926824;-0.9828073894927272;0.987;0.00314446512815025
58:14.4;-0.01588454852066508;-0.17641125407186564;-0.9831081671439315;0.987;0.002754878609163101
58:14.4;-0.01412700539999756;-0.17567337803199132;-0.9841228211287945;0.992;0.0024423357498881415
58:14.4;-0.012861450341012631;-0.17512080451471457;-0.985963961266867;0.992;0.002220694055200922
58:14.4;-0.012145502307455366;-0.17473003690776986;-0.9886458362209914;0.99;0.00209808844098546
58:14.4;-0.011994264277450099;-0.1744895691750472;-0.992071894783904;0.998;0.0020762814810175996
58:14.4;-0.012376418288796182;-0.17441280289747235;-0.9960338667731176;1.003;0.0021500444853791586
58:14.5;-0.013213649214240784;-0.17454397467740168;-1.0002230580471558;1.006;0.002306877306640724
58:14.5;-0.014384862407896446;-0.17495583612010557;-1.004253518757572;1.01;0.002527420527186074
58:14.5;-0.015736327883593235;-0.17573923135017497;-1.0076960275755558;1.025;0.0027867734551185975
58:14.5;-0.017097591456130035;-0.1769861627278529;-1.0101210131659364;1.041;0.0030566636650762283
58:14.5;-0.01830106540805309;-0.1787692891805291;-1.011146101053121;1.041;0.003308134801447333
58:14.5;-0.01920134494251878;-0.18112198224131792;-1.0104810442299355;1.041;0.0035142364829887727
58:14.5;-0.019689914043239713;-0.1840235028715765;-1.0079626082010769;1.037;0.0036522587234008143
58:14.5;-0.0197026710282951;-0.1873927648682624;-1.0035750233121978;1.035;0.0037053374787013142
58:14.5;-0.019220092245662124;-0.19109179782660504;-0.9974549600423636;1.028;0.0036634545538170647
58:14.5;-0.018261205155700618;-0.1949375969709483;-0.9898816606536137;1.0170000000000001;0.0035237762324703908
58:14.6;-0.01687297796214065;-0.19871953650134477;-0.9812536738015195;1.0;0.0032901341090044367
58:14.6;-0.015117002804536128;-0.20221922332771416;-0.9720549932442917;0.988;0.0029715221178425264
58:14.6;-0.01305564670249233;-0.20523031682761073;-0.9628152107853242;0.978;0.002579781045400668
58:14.6;-0.01074005310282114;-0.20757676439303732;-0.9540691544068557;0.9670000000000001;0.0021269879125883377
58:14.6;-0.00820240093179564;-0.209128289223863;-0.9463206404786065;0.9670000000000001;0.0016232749663287248
58:14.6;-0.005454432890222071;-0.20981184291636526;-0.9400129430648559;0.963;0.0010757551518586377
58:14.6;-0.0024930790746612187;-0.20961787133926735;-0.9355061394755353;0.9570000000000001;0.0004888898287617387
58:14.6;0.000687957197954362;-0.20860079180750649;-0.9330597865833865;0.9490000000000001;0.00013390193221390868
