Time;AccX;AccY;AccZ;Acc-old;Acc-trns
54:26.1;0.0420904518991171;-0.30346974808398985;-0.9534144417538479;1.002;0.012178133167980151
54:26.1;0.030204150950635784;-0.2936545181726981;-0.963750952348288;1.002;0.008548071370618224
54:26.1;0.018791581282728426;-0.28425320501842327;-0.9732778168779919;1.002;0.005198828869916341
54:26.1;0.0083309451904833;-0.2756506399384194;-0.9812953291058943;1.04;0.002253476398689516
54:26.1;-0.000730978145637231;-0.26820805272509274;-0.987236768204956;1.056;0.0001935519395075569
54:26.1;-0.008015683950512002;-0.2622342919439562;-0.9907311632158875;1.065;0.002082504228881673
54:26.2;-0.013253116182679292;-0.2579501575066376;-0.9916526959087685;1.064;0.0033901069506800485
54:26.2;-0.01631296641781748;-0.2554559341246168;-0.9901412404503103;1.053;0.004126160217290648
54:26.2;-0.017216956668955955;-0.25471289017332455;-0.9865843604475174;1.031;0.004326548105117537
54:26.2;-0.0161288397605369;-0.255545378662687;-0.9815603762233741;1.004;0.004045648780101358
54:26.2;-0.013326359888545148;-0.25766416444035783;-0.9757516613595641;0.972;0.003350463249762444
54:26.2;-0.009164130215207806;-0.26070553597630514;-0.9698455031680996;0.972;0.0023170961806464785
54:26.2;-0.0040365874813872195;-0.2642762857699141;-0.9644435234097428;0.972;0.001028843609678462
54:26.2;0.0016536213438484127;-0.26799486156587476;-0.9599965213797563;0.972;0.00042543400060956506
54:26.2;0.0075211862242093985;-0.2715240672009708;-0.9567718448296255;0.978;0.001953903266973866
54:26.2;0.013218832822825906;-0.2745953542192602;-0.9548517656587324;0.996;0.003465949662217333
54:26.3;0.01845321907913606;-0.27702486361789647;-0.9541567385064763;1.004;0.004877649723091499
54:26.3;0.02299516206845926;-0.2787194049972106;-0.9544847152848079;1.005;0.006117481422797179
54:26.3;0.02668403241351731;-0.2796711861212386;-0.955556392941768;1.001;0.007131083244990282
54:26.3;0.02942723268816922;-0.27994345486539446;-0.9570582070656362;1.0;0.007884208362409693
54:26.3;0.03119651159204892;-0.279651645871033;-0.9586792683943732;1.0070000000000001;0.008363667311351672
54:26.3;0.03202293878005515;-0.2789442582882283;-0.9601417998889735;1.0070000000000001;0.008576576953765297
54:26.3;0.03199095313553001;-0.27798570211137225;-0.9612252252672246;1.012;0.008548202427927788
54:26.3;0.03123023189919064;-0.2769413853644822;-0.9617831939341096;1.013;0.008318408683839118
54:26.3;0.02990405218185763;-0.2759642597630713;-0.9617521565611055;1.0090000000000001;0.007936811223065674
54:26.4;0.02819411388442801;-0.2751822791266836;-0.961150187634369;1.005;0.0074571034503664825
54:26.4;0.026283244308188607;-0.2746874549582377;-0.960065749434709;0.9990000000000001;0.006931365077292995
54:26.4;0.024338409848569175;-0.27452828475148694;-0.9586377668582834;0.992;0.006405216760618185
54:26.4;0.02249665745151172;-0.274707325501973;-0.9570300516531514;0.986;0.0059144424664998845
54:26.4;0.020855731014808098;-0.2751847274713651;-0.9554043850755118;0.9790000000000001;0.005483236454221381
54:26.4;0.01946975733406977;-0.27588722269834465;-0.9538972182352541;0.987;0.005123818154883663
54:26.4;0.018349666413987623;-0.27672071578508667;-0.9526042933677421;0.987;0.00483707008918941
54:26.4;0.017468008061685646;-0.27758376467289625;-0.9515751644168251;0.987;0.004614031380190953
54:26.4;0.016767768210814833;-0.27837954564318557;-0.9508168445214771;0.993;0.004438226381054429
54:26.4;0.01617433412908052;-0.27902514410800144;-0.9503041599654036;0.995;0.004288766303544996
54:26.5;0.015609140074400684;-0.27945810329423826;-0.949993710095672;0.996;0.004143968208087854
54:26.5;0.015003047999249022;-0.27964054700122576;-0.9498380932386653;0.996;0.003985008248306033
54:26.5;0.014307464902334583;-0.27956115063835335;-0.9497975772071129;0.995;0.003799011130289133
54:26.5;0.013501628332402343;-0.2792350539187659;-0.9498476041261471;0.995;0.0035810469676818275
54:26.5;0.012595159670330253;-0.2787016699302127;-0.9499816595148648;0.9940000000000001;0.0033347130510419194
54:26.5;0.01162570391041166;-0.27802043192827697;-0.9502097307782914;0.988;0.0030712519498136285
54:26.5;0.0106522693981056;-0.2772647299695857;-0.9505531897428479;0.988;0.0028074575134476344
54:26.5;0.00974558904829082;-0.2765143159109822;-0.9510377567639056;0.988;0.0025628516860190407
54:26.5;0.008976934417814641;-0.2758462530598761;-0.9516866702700836;0.9890000000000001;0.0023566176604984564
54:26.5;0.008406313413988316;-0.2753245107911223;-0.9525156267088524;0.99;0.002204563249627763
54:26.6;0.008070718642084538;-0.2749890810258915;-0.9535298708239215;0.991;0.0021162255798311295
54:26.6;0.007973571620477847;-0.27484675063402747;-0.9547229034586939;0.99;0.0020922850296376683
54:26.6;0.008077369770960113;-0.274866314747707;-0.9560760379236678;0.993;0.0021226770190387145
54:26.6;0.00830227666328702;-0.2749803116413756;-0.9575583407195217;0.9940000000000001;0.00218606990235707
54:26.6;0.008533433369083248;-0.2750936330108533;-0.9591269796073906;0.995;0.0022515440506306215
54:26.6;0.008638283806801175;-0.2750975433715056;-0.9607283597928796;1.003;0.0022830466808664825
54:26.6;0.008491736960871568;-0.2748863601522016;-0.9623003454030425;1.003;0.0022462617683520246
54:26.6;0.008002941939601384;-0.2743734830348638;-0.9637752639001512;1.003;0.0021162529581158144
54:26.6;0.00713598834748952;-0.27350381054295636;-0.9650829916002027;1.004;0.0018835717812188848
54:26.6;0.00591910949324687;-0.2722608306874455;-0.9661537950312615;1.005;0.001556997097965394
54:26.7;0.004440606214632447;-0.27066814281418844;-0.9669211185615708;1.005;0.0011621721160424002
54:26.7;0.0028328303387823075;-0.2687860984114315;-0.9673245295318125;1.003;0.0007365454805866646
54:26.7;0.0012482559197249672;-0.26670457975653605;-0.9673128899109061;1.004;0.0003220335225955862
54:26.7;-0.0001665296106990039;-0.2645331142422095;-0.9668477741451178;1.004;4.2592154902035685e-05
54:26.7;-0.001293150637327956;-0.262389725340659;-0.9659069027937057;1.003;0.0003277413308128081
54:26.7;-0.002056037981438059;-0.2603899079264861;-0.9644869518433642;0.998;0.0005163588653741528
54:26.7;-0.002427683358940138;-0.25863687340124975;-0.9626050619962483;0.998;0.0006044085845181032
54:26.7;-0.0024254304430954264;-0.25721398417197444;-0.9602987581381313;0.995;0.0005990868241435557
54:26.7;-0.0021025251399194554;-0.25618003853806814;-0.9576242307582138;0.993;0.0005158003238771072
54:26.7;-0.0015368429869732332;-0.2555676704176886;-0.9546528426047454;0.99;0.0003749564976882097
54:26.8;-0.0008202816596553092;-0.2553847650626115;-0.9514656719575283;0.9840000000000001;0.00019932010685413143
54:26.8;-5.0380562953260345e-05;-0.2556185657346398;-0.9481461902376815;0.98;1.221042313455707e-05
54:26.8;0.0006762728223428304;-0.2562419856953979;-0.9447717943658432;0.976;0.0001637190232330088
54:26.8;0.001270732475119805;-0.257221427081224;-0.9414055503288917;0.97;0.0003077074610948064
54:26.8;0.0016602428674162037;-0.2585250609259791;-0.9380898081929363;0.9690000000000001;0.00040264164333536217
54:26.8;0.0017988896427721078;-0.26013016943220696;-0.9348432828144062;0.968;0.00043745567707579284
54:26.8;0.0016786735490579084;-0.26202797571566455;-0.931662714105492;0.968;0.00040980063219271093
54:26.8;0.0013380217571800708;-0.2642245307802936;-0.928529260151147;0.965;0.0003282705363210688
54:26.8;0.0008648096417773157;-0.2667369839034352;-0.9254187098201763;0.9640000000000001;0.0002134725484419847
54:26.8;0.00039245941638027044;-0.26958584744692243;-0.9223139624674871;0.9640000000000001;9.758220471520525e-05
54:26.9;8.961083297883568e-05;-0.27278485540786185;-0.9192180294914836;0.9640000000000001;2.2469805006757314e-05
54:26.9;0.00014505300323275328;-0.2763301941985282;-0.9161656674875985;0.963;3.672223286112519e-05
54:26.9;0.0007498224938492373;-0.2801906504652175;-0.9132315683597825;0.961;0.00019186379028610133
54:26.9;0.002078116813971211;-0.28429999308446857;-0.910533206136929;0.9590000000000001;0.0005379508449841198
54:26.9;0.004268388641126713;-0.28855273088016226;-0.9082271607513794;0.9570000000000001;0.0011186227042807321
54:26.9;0.0074057864481656315;-0.2928042064908722;-0.9064987421663878;0.9490000000000001;0.0019656930496714264
54:26.9;0.011507100973689972;-0.29687543581419634;-0.9055460151008107;0.9490000000000001;0.0030935042164262094
54:26.9;0.01650981328229424;-0.30056212929311044;-0.9055608467218991;0.9490000000000001;0.004493596341513527
54:26.9;0.022267588183455166;-0.3036470522337117;-0.9067103660197963;0.9470000000000001;0.006130710817079902
54:26.9;0.028554619310040035;-0.30591562787496324;-0.9091217239661928;0.95;0.007941454900004639
54:27.0;0.03507976043469728;-0.3071745260246887;-0.9128725032862197;0.958;0.009836756965619612
54:27.0;0.04150914583485953;-0.3072709223258004;-0.9179888862284687;0.975;0.011708538385337636
54:27.0;0.04749437396411658;-0.3061083574841665;-0.9244519280891179;0.99;0.013440074841338913
54:27.0;0.05270265390401604;-0.30365588801992166;-0.9322082642977134;1.004;0.014918568084203563
54:27.0;0.05684549083757724;-0.29994971789895286;-0.9411776999389514;1.008;0.016047822317219646
54:27.0;0.059703091493495536;-0.29508862336673664;-0.9512498858426822;0.99;0.01675883804323594
54:27.0;0.06114191283326465;-0.2892256608853255;-0.9622672952069039;0.99;0.01701655215910025
54:27.0;0.061123061834759414;-0.28255906991772406;-0.9739998924712207;0.99;0.016821830882370613
54:27.0;0.05970089245671934;-0.2753240932853126;-0.986123125113084;0.9990000000000001;0.01620899858586249
54:27.0;0.057013807822487585;-0.26778475509421806;-0.9982114066239094;1.0170000000000001;0.015240121343132833
54:27.1;0.053270697874666297;-0.2602230630122472;-1.0097546401670536;1.038;0.01399748556862218
54:27.1;0.04873529302574373;-0.252924364174773;-1.020198251093991;1.06;0.01257531357242057
54:27.1;0.04370858954570776;-0.24616006779058267;-1.0290002187470997;1.078;0.011071331690772358
54:27.1;0.03850882398657025;-0.24017011094241472;-1.0356939123652538;1.091;0.009578789693090062
54:27.1;0.033449437739955915;-0.23514689935362287;-1.0399442145333424;1.097;0.00817971405011047
54:27.1;0.028816662488611554;-0.23122156625929502;-1.0415861911557818;1.081;0.00694012403372125
54:27.1;0.02484892071690754;-0.2284538077651789;-1.0406398319921697;1.081;0.005907535996702129
54:27.1;0.021720104418487176;-0.22682776820952982;-1.0372999663432139;1.067;0.00511048940553826
54:27.1;0.019528259268155324;-0.22625627393821277;-1.0319052045742683;1.05;0.004559360852951767
54:27.1;0.018290862584808783;-0.2265933863386541;-1.0248926527570985;1.037;0.0042477582943028875
54:27.2;0.01794768023756296;-0.22765268358769047;-1.0167468928347858;1.0270000000000001;0.004154262654184367
54:27.2;0.018371148744177147;-0.22922766612003592;-1.0079520860998534;1.022;0.0042446631811315005
54:27.2;0.019382404616011196;-0.23111095287224828;-0.9989540651862321;1.0170000000000001;0.004474800749406874
54:27.2;0.02076999478183747;-0.2331096811296861;-0.9901355632621741;1.012;0.00479392634691804
54:27.2;0.022308785544648147;-0.2350557212409189;-0.9818041105445295;1.0070000000000001;0.00514839193140426
54:27.2;0.023777851325736746;-0.23681096502511037;-0.9741899989518035;0.996;0.005485523521508168
54:27.2;0.024976967702033014;-0.23826915461202025;-0.9674514789226498;0.996;0.00575753688668937
54:27.2;0.02574139421083762;-0.23935568731527543;-0.9616851820073953;0.993;0.005925278134287936
54:27.2;0.025954356304290098;-0.2400260948150256;-0.9569401340493019;0.992;0.005961471759031525
54:27.2;0.025556326405262727;-0.2402633817443154;-0.9532331731952591;0.99;0.005853089426530678
54:27.3;0.02454981636343918;-0.24007427690566732;-0.9505630968733433;0.986;0.005602409209797459
54:27.3;0.0229982420655457;-0.23948465041499006;-0.948921158653014;0.985;0.005226397700670364
54:27.3;0.021018112447808004;-0.23853479854511406;-0.9482964440584524;0.981;0.004754332792643023
54:27.3;0.01876534065193497;-0.23727540267516564;-0.9486758216023037;0.9790000000000001;0.004224030096045355
54:27.3;0.016418078862317317;-0.23576440150330769;-0.950039327683052;0.978;0.0036774108395059455
54:27.3;0.014159242771444371;-0.23406442298188818;-0.9523526639500766;0.98;0.0031562633797219066
54:27.3;0.012161443519253766;-0.23224054153029763;-0.9555586262280479;0.98;0.002698860891283783
54:27.3;0.01057562749788065;-0.2303587121690749;-0.9595689096925981;0.983;0.002337690196556003
54:27.3;0.009523054360599584;-0.22848535999908928;-0.9642574617931335;0.986;0.0020981070833143312
54:27.3;0.00908930754547677;-0.22668797398984955;-0.9694565647398813;0.991;0.0019975038971203466
54:27.4;0.009319567829259039;-0.22503586458680114;-0.9749568403819796;0.993;0.002044715562983837
54:27.4;0.010215950068411094;-0.22360006461308776;-0.9805123617208525;0.9990000000000001;0.0022397717347402936
54:27.4;0.011738614004167853;-0.222451604559769;-0.9858519722169277;1.01;0.002574329150217185
54:27.4;0.013811451891589766;-0.22165801472325564;-0.9906971025532081;1.0170000000000001;0.003032938939674221
54:27.4;0.016331271972022384;-0.22127881945403455;-0.9947845970175735;1.023;0.0035949173435723338
54:27.4;0.01917826623897576;-0.22136124989475625;-0.9978913865122392;1.035;0.004236373235949781
54:27.4;0.022225818155410144;-0.22193675955506503;-0.9998571839916659;1.035;0.004932021587625784
54:27.4;0.025348728957866752;-0.22301786845022253;-1.0006014951344486;1.037;0.005656619884129158
54:27.4;0.028429818799577716;-0.2245946214305225;-1.0001319818582772;1.034;0.006386027119130827
54:27.4;0.0313650623799241;-0.2266307142342813;-0.9985426955129288;1.0290000000000001;0.007097927551368937
54:27.5;0.03406710598444958;-0.22906037126046935;-0.9960024636292101;1.022;0.007772229473532675
54:27.5;0.0364669329088967;-0.23178765050059297;-0.9927352823781052;1.0170000000000001;0.008391179058895883
54:27.5;0.03851387747926293;-0.23468963025381706;-0.9889957323672246;1.013;0.008939342206619447
54:27.5;0.04017448680341747;-0.23762390276889553;-0.9850428731235682;1.0090000000000001;0.009403631355549447
54:27.5;0.04143050088473316;-0.24043953396129875;-0.9811156599829353;1.003;0.009773413398770098
54:27.5;0.04227598858204602;-0.2429898793545846;-0.9774122483190775;0.997;0.010040601583235048
54:27.5;0.04271394516846331;-0.245145483475861;-0.9740753200361835;0.997;0.010199670026203941
54:27.5;0.042753220676047025;-0.24680537855755816;-0.971185468665946;0.9990000000000001;0.010247681808239506
54:27.5;0.04240691908754692;-0.24790533247109658;-0.9687636336790436;1.0;0.010184516537012843
54:27.5;0.04169293826632951;-0.24842205468577008;-0.9667815789613807;1.0;0.010013387408158736
54:27.6;0.04063627410570655;-0.24837300033358783;-0.965177766194024;1.004;0.009741494141640501
54:27.6;0.03927191634139938;-0.24781199775801863;-0.9638753527987717;1.003;0.009380485097701894
54:27.6;0.037647065853319686;-0.2468213287213775;-0.9627990057966372;1.001;0.008946423502172429
54:27.6;0.035821474950205226;-0.2455014981200599;-0.9618875616807916;1.001;0.008459056378106275
54:27.6;0.0338647258840413;-0.24396080735764544;-0.9611003882241851;0.9990000000000001;0.007940290272744302
54:27.6;0.03185000312970784;-0.24230688299798328;-0.960416536627335;0.983;0.007411990593562574
54:27.6;0.029845723803674257;-0.2406410388562881;-0.9598277212813635;0.983;0.006893584418257048
54:27.6;0.027908044265194883;-0.239055037312026;-0.9593286716747815;0.983;0.006400217414360185
54:27.6;0.02607710420647289;-0.23762933380923634;-0.9589094774268505;0.986;0.0059420598794854345
54:27.6;0.024377882425941688;-0.2364317747923277;-0.958552830679137;0.987;0.005524816708829588
54:27.7;0.02282433705427404;-0.2355157915106299;-0.9582362061326044;0.988;0.005150990875277542
54:27.7;0.021424321283616113;-0.23491778959194992;-0.9579372638100717;0.987;0.004821254374707203
54:27.7;0.02018285895239824;-0.2346544746010977;-0.9576404721744252;0.99;0.00453538351743768
54:27.7;0.019102753704443278;-0.2347213779514037;-0.9573432268354515;0.992;0.004292559180222709
54:27.7;0.018183520697351234;-0.23509338057060455;-0.9570597787928512;0.992;0.004091263405204134
54:27.7;0.017420593130079043;-0.23572721758175527;-0.95682125035735;0.9840000000000001;0.003929194068620649
54:27.7;0.01680577982550115;-0.2365656973068883;-0.9566708493549888;0.9840000000000001;0.0038034085745262286
54:27.7;0.016328357495484964;-0.237543583794208;-0.9566551703197088;0.985;0.0037105751153079652
54:27.7;0.015975847232392308;-0.23859492013844247;-0.9568137723015728;0.985;0.003647140632244834
54:27.7;0.01573439860868625;-0.2396607288978302;-0.9571691879044079;0.98;0.0036094059830549564
54:27.8;0.015589126325914483;-0.24069532960579185;-0.9577191596533757;0.98;0.003593582465966928
54:27.8;0.01552411176293631;-0.2416697978330397;-0.9584330791803682;0.9840000000000001;0.0035957619623699093
54:27.8;0.015521514261586386;-0.2425720300207222;-0.959254422486588;0.9890000000000001;0.0036116746516127885
54:27.8;0.015560201455547568;-0.24340372707836255;-0.9601093984743978;0.995;0.0036363289242240435
54:27.8;0.015615097873314034;-0.2441753031079403;-0.9609197124491248;0.996;0.0036638151052012288
54:27.8;0.015657848722526083;-0.2449001836504687;-0.96161592702976;0.998;0.003687422076601557
54:27.8;0.01565847176744531;-0.24558967206560742;-0.96214820195617;0.998;0.003699997625810104
54:27.8;0.015587700076602548;-0.2462487623436698;-0.962492623503531;0.9940000000000001;0.003694481592884385
54:27.8;0.015420131276005205;-0.24687302282024187;-0.9626528747323563;0.993;0.003664640845363292
54:27.8;0.015138178143447577;-0.24744717166415103;-0.9626580980552025;0.997;0.003606020358933474
54:27.9;0.01473638324136958;-0.24794610112564036;-0.9625581055885712;0.997;0.003517022498409842
54:27.9;0.014225236966327603;-0.24833829105281152;-0.962416593962053;0.992;0.00339990122801796
54:27.9;0.013633121479486338;-0.24859067367173418;-0.962302736835024;0.9890000000000001;0.003261308307799114
54:27.9;0.013004940991618563;-0.24867382054090592;-0.9622823005321355;0.991;0.0031120097611632177
54:27.9;0.012397180020120887;-0.24856643464626155;-0.9624103217158834;0.992;0.002965689385191206
54:27.9;0.011870813558727046;-0.2482583392777722;-0.9627269538642657;0.996;0.002837183732214016
54:27.9;0.011484001767320279;-0.24775179532627825;-0.9632564396776866;0.996;0.002740639936903795
54:27.9;0.011285625959056028;-0.2470616940709162;-0.9640076798495117;0.996;0.0026878904301523357
54:27.9;0.011309792596616157;-0.24621521575219513;-0.9649746685669128;0.9940000000000001;0.00268710997943989
54:27.9;0.011571424080407412;-0.2452510690428139;-0.966136121973173;0.995;0.0027418016868906926
54:28.0;0.012063771239930255;-0.2442181082307151;-0.9674548803184071;0.998;0.002850307238940255
54:28.0;0.01275909833022428;-0.2431731018455128;-0.9688780445324172;0.9990000000000001;0.003006108375151665
54:28.0;0.01361297353226331;-0.24217748875286776;-0.9703382663630932;0.998;0.003198968253743401
54:28.0;0.014570905685671607;-0.24129309924446599;-0.971756126991001;0.997;0.0034165575168155454
54:28.0;0.015575029515401047;-0.24057698347408218;-0.9730438863539823;0.9990000000000001;0.0036459892325282394
54:28.0;0.01656912041786059;-0.24007555540743966;-0.9741114664916676;1.006;0.0038748603224273647
54:28.0;0.01750166397077719;-0.23981859008297313;-0.974875025734589;1.006;0.0040917692231049576
54:28.0;0.018327573765070337;-0.23981442114544602;-0.9752668954921236;1.006;0.00428650914460305
54:28.0;0.019009112760830886;-0.24004809536109512;-0.9752446446062608;1.01;0.004450140118047183
54:28.0;0.01951627911109973;-0.24048341443733473;-0.9747974041945249;1.01;0.004575057050516612
54:28.1;0.019826688838824692;-0.24106828068220412;-0.9739482708817;1.008;0.004655069315697849
54:28.1;0.01992492658845278;-0.24174170917062318;-0.9727520319866437;1.003;0.004685440907748873
54:28.1;0.019801749267117114;-0.24244076113895302;-0.971288346184476;0.997;0.0046629136587215195
54:28.1;0.019454170531403834;-0.24310623968972353;-0.9696519930640133;0.996;0.004585901462318813
54:28.1;0.018887370847356283;-0.24368685018176323;-0.9679427828687999;0.997;0.004455057237095104
54:28.1;0.018118148909724956;-0.24414226649969473;-0.9662572852447752;0.995;0.0042741482147327595
54:28.1;0.017178273350275667;-0.24444559518905204;-0.9646831973332435;0.995;0.004050852586609568
54:28.1;0.016115959896704425;-0.2445849099372587;-0.9632962119467509;0.995;0.003797044522424513
54:28.1;0.014994563305321484;-0.24456279672813344;-0.9621589643326404;0.9940000000000001;0.0035283450089006155
54:28.1;0.013888233800412321;-0.24439332297175134;-0.9613213925869453;0.993;0.0032629090039741045
54:28.2;0.01287464853811241;-0.24409723577548487;-0.9608215368123986;0.992;0.003019541290851201
54:28.2;0.012025681649713672;-0.24369714483661778;-0.9606858396703771;0.991;0.002815409249831436
54:28.2;0.011397951609982956;-0.2432141121769015;-0.9609284782870307;0.99;0.0026638308484872824
54:28.2;0.011025763334714053;-0.24266601330122547;-0.9615498738604076;0.991;0.0025727017192097054
54:28.2;0.010918438810469566;-0.2420674074978162;-0.962534931143807;0.992;0.0025439780680942808
54:28.2;0.011062643082227043;-0.24143069536130768;-0.9638515213034123;0.995;0.002574314027797601
54:28.2;0.011428831907971103;-0.2407683683310255;-0.9654493348600295;0.995;0.002656628103325575
54:28.2;0.011979904119511865;-0.24009584999772038;-0.9672589545506284;0.993;0.002782151366319838
54:28.2;0.012679720963233582;-0.23943418539042421;-0.9691913665264159;0.993;0.0029424249222186867
54:28.2;0.013499341647304576;-0.23881192127321355;-0.9711390452766009;0.998;0.00313076166166876
54:28.3;0.014419485001902623;-0.23826564058234662;-0.9729801523320006;1.003;0.003342836609418567
54:28.3;0.0154288451468476;-0.23783853581135397;-0.9745864417397562;1.005;0.003576317007897646
54:28.3;0.016519279544829266;-0.23757653060870168;-0.9758338445866271;1.0070000000000001;0.0038297507950852748
54:28.3;0.01767991043868136;-0.2375222347643921;-0.9766137719377486;1.0070000000000001;0.004101164370312214
54:28.3;0.01889238350494402;-0.23770808700905624;-0.9768433204889609;1.0090000000000001;0.004386878650452969
54:28.3;0.020128991946120577;-0.238150519915864;-0.9764732087006329;1.0070000000000001;0.0046809488145103445
54:28.3;0.021354208707021198;-0.23884645736402482;-0.9754929071697461;1.0070000000000001;0.004975381684437671
54:28.3;0.02252873151932527;-0.2397724388417427;-0.9739329062066261;1.0070000000000001;0.005260960483822617
54:28.3;0.023614469813628542;-0.24088607313487193;-0.971864212724112;1.004;0.005528349377375507
54:28.3;0.02457936193742806;-0.24212959141513682;-0.9693949772724194;1.001;0.005769248410526671
54:28.4;0.025401397522215652;-0.24343529877821055;-0.9666641332607842;0.998;0.005977461236470679
54:28.4;0.026071071413842024;-0.24473220698021497;-0.963832391222126;0.997;0.0061496659187958965
54:28.4;0.02659153866894777;-0.24595249730364105;-0.9610713700137588;0.993;0.006285652162519655
54:28.4;0.02697655201018535;-0.2470364754282274;-0.9585516196945949;0.9890000000000001;0.006387972349771333
54:28.4;0.027247112911510673;-0.24793557323072313;-0.9564300706442186;0.988;0.006461190656538572
54:28.4;0.027427766601209873;-0.24861408057779044;-0.9548374508763511;0.981;0.006510968761018979
54:28.4;0.027542834679396347;-0.2490505710919607;-0.953866620585374;0.981;0.006543104081976093
54:28.4;0.02761256086312785;-0.24923914573907432;-0.9535634397515058;0.98;0.006562548586604274
54:28.4;0.027649527941442875;-0.24918971140635868;-0.9539220382256807;0.982;0.006572501750489503
54:28.4;0.027656281961758265;-0.24892654707522446;-0.9548856566642773;0.985;0.006573798365572997
54:28.5;0.02762514300074342;-0.24848518169616118;-0.9563529529358237;0.988;0.006564826199877744
54:28.5;0.027540289120986168;-0.24790840409005288;-0.958188594782916;0.987;0.006542003046004846
54:28.5;0.027380930935736847;-0.24724264907756507;-0.9602366537840776;0.9890000000000001;0.006500546625955315
54:28.5;0.027124097375022867;-0.24653579799662984;-0.9623358151007186;0.997;0.006435198289680854
54:28.5;0.026746615970488587;-0.24583647709750955;-0.9643357743811302;1.004;0.006340791081285539
54:28.5;0.026226993660055983;-0.24519374374345207;-0.9661133778343172;1.0090000000000001;0.006212780238960325
54:28.5;0.025547884391843106;-0.24465559901710282;-0.9675856217070145;1.004;0.006047829061061692
54:28.5;0.02469904626971125;-0.24426548343123602;-0.9687163419263605;1.004;0.005844386274096004
54:28.5;0.02368020330927378;-0.2440571524086574;-0.9695150920370321;1.0;0.00560314085873834
54:28.5;0.022503323686030287;-0.24404917206096932;-0.9700291798876247;0.996;0.005327320242305729
54:28.6;0.021194025402976206;-0.24424051266109845;-0.9703315898297201;0.997;0.005022862895617388
54:28.6;0.019791641870873993;-0.24460858962383994;-0.9705079989413533;0.9990000000000001;0.0046984287635652815
54:28.6;0.018347046160469952;-0.2451105952435974;-0.9706452591603895;1.003;0.004365045509388995
54:28.6;0.016917429877011295;-0.2456880608494268;-0.9708219503955691;1.003;0.0040351345880962446
54:28.6;0.015558346491295508;-0.2462737583464375;-0.9711000944640267;0.9990000000000001;0.0037208792258054462
54:28.6;0.014314837646076106;-0.2467997635551717;-0.9715170898890779;0.995;0.00343227131465464
54:28.6;0.013214295566365622;-0.24720555779615222;-0.9720785177747341;0.995;0.003175437671665706
54:28.6;0.012263352095394293;-0.24744503617712443;-0.9727542894801174;0.998;0.002951828341670144
54:28.6;0.011449784049234676;-0.24749136242702657;-0.9734808025575622;1.004;0.002758574603286027
54:28.6;0.010748865105181488;-0.2473390359185491;-0.9741699655161428;1.006;0.0025899418427826697
54:28.7;0.010132279792586766;-0.2470032034509536;-0.974723564945112;1.01;0.0024394460923037476
54:28.7;0.009576913564989922;-0.24651684239459862;-0.9750499667623412;1.014;0.0023019666946839197
54:28.7;0.009070928215308197;-0.24592658785015478;-0.9750797668758436;1.016;0.0021751908065535275
54:28.7;0.008615630854008465;-0.24528758331963282;-0.974777221669288;1.011;0.0020600037901138514
54:28.7;0.008223087682337185;-0.24465748196285675;-0.9741451644824517;1.003;0.001959824135937749
54:28.7;0.00791053473783929;-0.24409027407358985;-0.9732230489550453;1.002;0.0018791813900283032
54:28.7;0.007693485864603744;-0.24363123205188655;-0.9720800096443728;1.002;0.0018220409516004565
54:28.7;0.007580152474214239;-0.24331370227165333;-0.9708056608351737;1.005;0.0017905102379754299
54:28.7;0.00756953790966502;-0.24315726762066803;-0.9695001678596092;1.0;0.001784450525490029
54:28.7;0.007653640223757159;-0.2431666682005929;-0.9682634808621515;0.993;0.0018020450335650851
54:28.8;0.00782180152641526;-0.24333190018494097;-0.9671835750467483;0.988;0.0018408345292119624
54:28.8;0.008064646333627853;-0.24363041186770634;-0.966325277698657;0.988;0.0018986292455434027
54:28.8;0.00837662887297121;-0.24403138344961955;-0.9657228383174161;0.991;0.0019740923182924443
54:28.8;0.008757684135441873;-0.24450093095495004;-0.9653789556712953;0.995;0.002067129200130438
54:28.8;0.00921400312771659;-0.24500710851965193;-0.9652706043572372;1.002;0.002179094783290963
54:28.8;0.009756763709159491;-0.24552423697210293;-0.9653592241368211;1.005;0.002312539225543308
54:28.8;0.010398022477903742;-0.2460361098936831;-0.9656011993031203;0.9990000000000001;0.002470286927578356
54:28.8;0.01114472580619439;-0.24653730680445538;-0.9659550025894732;0.9990000000000001;0.0026540489675659184
54:28.8;0.011992896095899068;-0.24703216094333766;-0.9663836564729955;0.995;0.0028630382158035756
54:28.8;0.012923718769744987;-0.24753178399436077;-0.9668536409547791;0.995;0.0030929949273935053
54:28.9;0.013902438521046247;-0.24805017780140598;-0.9673325345556758;0.997;0.0033358485157627352
54:28.9;0.014880433694700476;-0.2486004774552766;-0.9677873270384209;1.001;0.0035801191303097314
54:28.9;0.015800420324111934;-0.24919193515199212;-0.9681840432435023;1.001;0.003812067162973892
54:28.9;0.016604112799088615;-0.2498278780103989;-0.9684879686027795;0.9990000000000001;0.004017452995151884
54:28.9;0.017240935136792587;-0.2505048077966391;-0.9686634735595792;0.997;0.004183596654710549
54:28.9;0.017675986146748503;-0.2512127530945692;-0.968673448284032;0.997;0.0043013296850723075
54:28.9;0.01789563414083629;-0.25193667717128665;-0.968479653755665;0.997;0.004366455020976224
54:28.9;0.017909559555849924;-0.25265840261949285;-0.9680457013267603;0.9990000000000001;0.004380407484847717
54:28.9;0.017748601617631178;-0.25335843094940164;-0.9673435422556137;1.0070000000000001;0.004349909674432485
54:28.9;0.017458606317723686;-0.2540171595514651;-0.9663625346837953;1.0090000000000001;0.004285610640202871
54:29.0;0.017091559096892042;-0.25461523191001706;-0.9651181042701724;1.005;0.004199973251019722
54:29.0;0.016696193269753714;-0.2551332241607551;-0.9636561727358353;1.002;0.004104937870365701
54:29.0;0.01631059721205433;-0.25555144508746525;-0.9620508602188844;0.995;0.004010017209040317
54:29.0;0.015958742449036886;-0.255850833709297;-0.9603956119323943;0.991;0.003921350564408115
54:29.0;0.01565127178585228;-0.2560155577673523;-0.9587901784513438;0.987;0.0038418425954494877
54:29.0;0.015389102743220525;-0.25603712181772487;-0.957326900354769;0.986;0.0037720418128152924
54:29.0;0.015167652553305676;-0.2559189027796444;-0.9560794969213693;0.986;0.0037112032655458745
54:29.0;0.014980175802345348;-0.25567945835454237;-0.9550964513613879;0.986;0.0036581371102158223
54:29.0;0.014819868071510674;-0.2553530546525793;-0.9543996841748359;0.988;0.003611733371110413
54:29.0;0.01468098071684798;-0.2549866289353354;-0.9539879222917389;0.988;0.0035712096961181853
54:29.1;0.01455922602139579;-0.2546335234696561;-0.9538432355228996;0.988;0.0035361515700854432
54:29.1;0.014451669563237075;-0.25434533687887084;-0.9539388842280058;0.988;0.003506407240256167
54:29.1;0.014356234576552713;-0.25416364545704995;-0.9542469766147679;0.99;0.0034818877773237825
54:29.1;0.014270961344278622;-0.25411307486946255;-0.9547449339999237;0.992;0.0034623231834520216
54:29.1;0.014193290113813583;-0.2541968031087472;-0.955419783072485;0.992;0.0034470484994807834
54:29.1;0.014119601007949258;-0.25439544977854356;-0.9562690704334806;0.992;0.0034348824009893665
54:29.1;0.01404503325488889;-0.2546700131955593;-0.9572975036552357;0.992;0.0034241084313608953
54:29.1;0.013963612991336945;-0.25496851532865433;-0.9585094140877638;0.992;0.003412563500398683
54:29.1;0.013868911470356113;-0.25523483783818696;-0.9598982331229714;0.987;0.003397875957943161
54:29.1;0.013755327584142987;-0.25541781038481837;-0.9614351273039506;0.985;0.00337786353918662
54:29.2;0.013619639444162127;-0.25547890184147076;-0.9630599197241065;0.988;0.003350996391619779
54:29.2;0.013462314943555124;-0.2553972938192347;-0.9646778716128516;0.992;0.003316792892625878
54:29.2;0.01328843277915126;-0.2551715459521788;-0.9661647778464201;0.998;0.0032761004513837096
54:29.2;0.013108314168087706;-0.2548176939811836;-0.967380352710581;1.003;0.00323127325116147
54:29.2;0.01293763134610363;-0.25436453341126025;-0.9681874708333158;1.006;0.0031861835178492418
54:29.2;0.012796446138499404;-0.2538476557792007;-0.9684734849675791;1.01;0.00314593876709547
54:29.2;0.012707039891230263;-0.2533038740100263;-0.9681695709590417;1.011;0.0031162884790768572
54:29.2;0.01269102434801906;-0.25276696256196657;-0.9672645081966623;1.008;0.00310286041928474
54:29.2;0.012766207048148865;-0.25226494340489697;-0.9658103723605962;1.004;0.0031103599480877017
54:29.2;0.012943326134079407;-0.2518188828902774;-0.9639192418957527;1.001;0.0031417732457020902
54:29.3;0.013222966990140087;-0.2514428359256872;-0.9617517002054977;0.996;0.003197651595015122
54:29.3;0.013593565114683896;-0.2511441304756938;-0.9594989991514558;0.9890000000000001;0.003275675938273962
54:29.3;0.014031416197938755;-0.2509234103488308;-0.9573612748866679;0.983;0.0033706879203453037
54:29.3;0.01450298295955664;-0.2507747565009016;-0.9555246922335248;0.98;0.0034752261255291406
54:29.3;0.014969350482837448;-0.2506866748339659;-0.9541408194716041;0.978;0.003580524770406671
54:29.3;0.015392600608974872;-0.25064424414333347;-0.9533113888187734;0.975;0.0036779389668664814
54:29.3;0.015743416930098432;-0.2506319657800876;-0.953080787686586;0.98;0.0037606695395608135
54:29.3;0.01600813839667669;-0.25063661538962356;-0.9534373735235021;0.985;0.0038254058632487477
54:29.3;0.016192605728700387;-0.25064956906279656;-0.9543229659968413;0.99;0.003873281656387691
54:29.3;0.016320540697831558;-0.25066810832375197;-0.9556479085533474;0.995;0.0039095929248880125
54:29.4;0.01642598789567536;-0.25069518141474256;-0.9573077560773655;0.9990000000000001;0.003942112940439351
54:29.4;0.016541647898588988;-0.25073760028752806;-0.9591974459062532;0.998;0.003978379891065902
54:29.4;0.016686554020949113;-0.250803467456064;-0.9612197626169519;0.996;0.004022748546196387
54:29.4;0.016856820926827814;-0.2508998750643269;-0.9632869329525228;0.993;0.0040741009635805285
54:29.4;0.017022341450597757;-0.2510314298934133;-0.965316713139995;0.99;0.004124936079917512
54:29.4;0.017130884726879674;-0.2511995970181167;-0.9672263179626569;0.991;0.004162237293339856
54:29.4;0.017119319386181876;-0.25140272608724723;-0.9689282215021487;0.996;0.004170115488582708
54:29.4;0.016929849931657557;-0.2516366890335553;-0.9703309691704075;1.002;0.004133776226546457
54:29.4;0.01652758983264406;-0.2518958559692718;-0.9713460117247447;1.005;0.004043938204623899
54:29.4;0.015914904286604522;-0.2521738380193418;-0.971899276477771;1.008;0.0039005452298073538
54:29.5;0.015138171479584208;-0.25246353474636724;-0.9719448025088816;1.011;0.0037146139096809693
54:29.5;0.014284269982149;-0.25275647481034574;-0.9714774179083568;1.011;0.0035074626054123685
54:29.5;0.01346699706343995;-0.253041772569798;-0.9705416704720686;1.011;0.0033073272812868077
54:29.5;0.012806753522201128;-0.25330511298676556;-0.9692347823802552;1.011;0.003144213285181634
54:29.5;0.01240871351199026;-0.2535281786509312;-0.967702101706042;1.008;0.0030443506872602495
54:29.5;0.012344408047902038;-0.2536889382883872;-0.9661243044417541;0.997;0.0030255532959744475
54:29.5;0.012639746415383573;-0.253763143707831;-0.9646969340160172;0.997;0.0030942671388412978
54:29.5;0.013270546035915565;-0.25372700734754633;-0.963604793626627;0.988;0.003244549780252604
54:29.5;0.014165666683069539;-0.2535604630174139;-0.9629952184853906;0.981;0.0034589372674968073
54:29.5;0.015217540329648612;-0.2532501833644398;-0.9629549354370482;0.98;0.0037110789464870667
54:29.6;0.01629921389703357;-0.25279186090080513;-0.9634953863174768;0.983;0.00396989833810837
54:29.6;0.017285352709996392;-0.2521918114589606;-0.9645504138704696;0.991;0.004204691710402623
54:29.6;0.018072728880517006;-0.25146813615218117;-0.9659875248779358;0.9990000000000001;0.0043901384256972735
54:29.6;0.018595276489831017;-0.2506511100818419;-0.9676306395762067;1.006;0.004510055478373229
54:29.6;0.018830545856173428;-0.2497817159578958;-0.969289724610334;1.012;0.004559079475884979
54:29.6;0.018797182725681098;-0.24890750364244973;-0.9707914193027434;1.0170000000000001;0.004542099893768043
54:29.6;0.01854548990475195;-0.24807644855439304;-0.9720045838859928;1.0170000000000001;0.004471900781729541
54:29.6;0.01814452600421606;-0.24733082276080867;-0.9728556733377883;1.013;0.004365884935665801
54:29.6;0.017669200472749013;-0.24670297753330908;-0.9733311583914654;1.0070000000000001;0.004242793703465099
54:29.6;0.017189702115264455;-0.2462137286684946;-0.9734675011179568;1.0;0.004120046078869089
54:29.7;0.016764315737165927;-0.24587289960932057;-0.9733323585651369;0.995;0.0040119698111679555
54:29.7;0.016435703668177145;-0.24568102504182093;-0.9730026652707638;0.993;0.003928926892525206
54:29.7;0.0162298480900489;-0.24563127062791387;-0.9725454626033825;0.9940000000000001;0.0038771090970388645
54:29.7;0.016156356693261497;-0.24571111478984126;-0.9720058448110829;0.996;0.0038586653171604527
54:29.7;0.016209424743940805;-0.24590370433461448;-0.9714038841415911;1.002;0.003871974684627347
54:29.7;0.016369995000807703;-0.24618876127345193;-0.9707397436107617;1.006;0.003912186774791445
54:29.7;0.016609968637593116;-0.24654302997448269;-0.9700039541627656;1.006;0.003972236028403745
54:29.7;0.016898144057937433;-0.2469407912461433;-0.9691886508257328;1.006;0.004044270201178798
54:29.7;0.017206257592428612;-0.24735515584552334;-0.9682960134774408;1.005;0.004121122569481135
54:29.7;0.017513262231839268;-0.2477601287954292;-0.9673418542048274;1.002;0.004197381534198616
54:29.8;0.017806552092408456;-0.24813261084539132;-0.9663540981746807;0.998;0.004269725670485086
54:29.8;0.01807973359250568;-0.24845353663870423;-0.9653672095757478;0.9940000000000001;0.004336404166980537
54:29.8;0.018327764491261705;-0.24870802050302165;-0.9644144918408334;0.992;0.004396053956318564
54:29.8;0.01854155098704116;-0.24888493491950747;-0.9635206197703455;0.991;0.004446370851091623
54:29.8;0.01870459462873037;-0.24897647134647163;-0.962696571783227;0.988;0.004483281755378534
54:29.8;0.018793479169211386;-0.24897807407158498;-0.9619384485752082;0.9940000000000001;0.004501067997979484
54:29.8;0.018782164150508627;-0.2488888883319351;-0.9612306565895681;0.9940000000000001;0.0044934379934990784
54:29.8;0.018648212364000563;-0.2487125118756611;-0.960552621390943;0.995;0.004455085071662011
54:29.8;0.01837849661856793;-0.24845748277024343;-0.9598870704688943;0.997;0.004383108339377352
54:29.8;0.01797292190563435;-0.24813691100583304;-0.9592276092857732;0.997;0.004277910844601031
54:29.9;0.017446034170411594;-0.24776706630927547;-0.9585836151837205;0.9940000000000001;0.004143528198909765
54:29.9;0.01682689066171364;-0.2473653845586778;-0.9579810624223549;0.99;0.0039874910621351236
54:29.9;0.016157440335526383;-0.24694890692094595;-0.9574589508512197;0.987;0.0038203207960868487
54:29.9;0.015489472003541721;-0.24653408544585476;-0.9570624430771113;0.983;0.003654717903717185
54:29.9;0.01487991477038961;-0.24613801996718257;-0.9568350185063826;0.983;0.003504420463407625
54:29.9;0.014384184261864287;-0.2457801657106043;-0.9568123067658489;0.99;0.0033826637015104593
54:29.9;0.014048141418251864;-0.2454831428160224;-0.9570192681181219;0.99;0.003300359331798636
54:29.9;0.013900756362783477;-0.2452716784189472;-0.9574703439123183;0.992;0.0032644586047066663
54:29.9;0.013950056623576674;-0.24516962083547908;-0.9581705997711584;0.991;0.003277068102539459
54:29.9;0.014183572657063902;-0.24519597526782633;-0.9591158243233338;0.9890000000000001;0.003335569786894731
54:30.0;0.014572490692371792;-0.2453614696287966;-0.9602906696591811;0.987;0.003433545920562389
54:30.0;0.015077691253774632;-0.24566679246019038;-0.9616654743081479;0.987;0.00356209358957818
54:30.0;0.015656104740741247;-0.24610263208505712;-0.9631937218190929;0.99;0.003711193679086665
54:30.0;0.016266501439045948;-0.246650832263054;-0.9648123092908878;0.995;0.0038709679612706992
54:30.0;0.01687407401031314;-0.24728587672913388;-0.9664456165724636;1.0;0.00403270713258804
54:30.0;0.01745292991461393;-0.2479763401615914;-0.9680125525222112;1.003;0.004189474773625054
54:30.0;0.01798561643210612;-0.2486862878583697;-0.9694345425872697;1.003;0.004336063735335131
54:30.0;0.018459609393676593;-0.24937654757715436;-0.9706425433722771;1.002;0.004468249730497695
54:30.0;0.018862031164143242;-0.25000567168129756;-0.9715823516552777;1.002;0.00458160808818894
54:30.0;0.019175035724091627;-0.25053067748891944;-0.9722186776052707;1.004;0.004670475032421711
54:30.1;0.01937458655515006;-0.25090816880121813;-0.9725387361448096;1.0070000000000001;0.004727746183678361
54:30.1;0.01943407783796627;-0.251096678668899;-0.9725553643021252;1.011;0.004745907175673477
54:30.1;0.01933174004547256;-0.25106065245296816;-0.9723085144942729;1.012;0.004719040325700742
54:30.1;0.019058713436690747;-0.25077560101206725;-0.9718632154523286;1.0090000000000001;0.004644981671420483
54:30.1;0.018624393164380765;-0.25023321509465674;-0.971302389908417;1.004;0.00452669823963261
54:30.1;0.01805696360631621;-0.24944513982785022;-0.970714469637408;0.995;0.004372313287019202
54:30.1;0.017399247953358142;-0.24844459477668424;-0.9701780074064971;0.995;0.004193836115332891
54:30.1;0.01670223321818182;-0.24728549015397253;-0.9697472350621295;0.993;0.0040052693553998325
54:30.1;0.01601926474192361;-0.24603874156238073;-0.9694425928071642;0.993;0.0038209220034543406
54:30.1;0.015402240734689696;-0.24478549135661087;-0.9692487421602136;0.9940000000000001;0.0036543052880828857
54:30.2;0.01489895290218019;-0.24360745984336474;-0.9691206686015763;1.0;0.003517419658845729
54:30.2;0.014549974777375392;-0.24257562587922654;-0.9689966874012226;1.006;0.0034200440000506996
54:30.2;0.014384241617721578;-0.24173932980171248;-0.9688151257225702;1.008;0.003368799731929738
54:30.2;0.0144137904711198;-0.24111832265115435;-0.9685296773992955;1.0070000000000001;0.003366056110219793
54:30.2;0.014629223120795098;-0.24070014914197005;-0.9681183675291812;1.002;0.0034089927914167976
54:30.2;0.014997769166063846;-0.24044427558419976;-0.96758340002741;0.991;0.003489229342034157
54:30.2;0.01546534501775209;-0.24029237403819856;-0.966943066980562;0.991;0.0035933581473961995
54:30.2;0.015963133537614704;-0.24018194349085725;-0.9662203718020846;0.9890000000000001;0.003704543436327633
54:30.2;0.016418164475261444;-0.24005944756225572;-0.9654338677914079;0.992;0.003805098770156345
54:30.2;0.016765965798203778;-0.23988986571161633;-0.9645941379401703;0.9940000000000001;0.003879583427689763
54:30.3;0.016961852503903706;-0.2396611342008879;-0.9637063200504015;0.995;0.003917559486675269
54:30.3;0.016987177262292468;-0.23938350100959885;-0.9627769438545964;0.996;0.003915084269946709
54:30.3;0.016848825165889727;-0.23908497173120224;-0.9618223899205075;0.998;0.0038745099878870425
54:30.3;0.016573320248328232;-0.23880461134104053;-0.9608760750372147;0.996;0.003802941205415768
54:30.3;0.016199030670630696;-0.23858550930073466;-0.9599917655282515;0.993;0.003710227998390487
54:30.3;0.01576990334673485;-0.2384689027275419;-0.9592414012159557;0.986;0.0036073534748076843
54:30.3;0.01533229297578305;-0.23849034252834608;-0.9587076035373043;0.986;0.003505613869576702
54:30.3;0.014934287444489203;-0.2386779168772001;-0.9584729005794856;0.986;0.003416461910210662
54:30.3;0.014625804983906804;-0.2390518093733421;-0.958608381340067;0.985;0.0033516065878338858
54:30.3;0.014457715567426291;-0.2396242244139715;-0.9591638418911753;0.9840000000000001;0.0033229453225180556
54:30.4;0.014478722270773266;-0.2403988426734685;-0.9601606748802081;0.985;0.00334200061011945
54:30.4;0.01472955523163749;-0.2413693569104119;-0.9615884649505677;0.987;0.003418700153983795
54:30.4;0.015235259797071424;-0.24251725849504674;-0.9634060089215989;0.992;0.0035596054684427303
54:30.4;0.015997555420106505;-0.2438096047171988;-0.9655467656154446;0.997;0.0037659777266563234
54:30.4;0.01698954112680232;-0.24519774874985462;-0.9679276376455281;1.003;0.004032190278117985
54:30.4;0.018154237534767293;-0.24661797738519023;-0.9704589103467528;1.008;0.004344901117204605
54:30.4;0.019407462348921045;-0.2479946782534429;-0.9730525874294419;1.0090000000000001;0.004683250902181999
54:30.4;0.020645020179029132;-0.249246049485078;-0.9756267265069579;1.0070000000000001;0.005020272418278494
54:30.4;0.021753726554267588;-0.25029170984435656;-0.9781049193445873;1.0070000000000001;0.005325563574107405
54:30.4;0.022624819114600486;-0.25106120332793164;-0.9804121806201688;1.01;0.005568951300006426
54:30.5;0.023167213298434138;-0.2515022510577652;-0.9824698977461306;1.011;0.005724465291142078
54:30.5;0.023317743549002404;-0.2515873555762807;-0.984192492984019;1.012;0.005773715496857224
54:30.5;0.023046408863568426;-0.25131725495793517;-0.9854876267210032;1.015;0.005707905123613261
54:30.5;0.02235628713421512;-0.25072031031745234;-0.9862608036635873;1.0170000000000001;0.005528164644606456
54:30.5;0.021279400019762196;-0.24984797628677655;-0.9864242062316593;1.0190000000000001;0.005244437762320607
54:30.5;0.01987075000552371;-0.24876739668460765;-0.9859084837004515;1.022;0.0048735376396667794
54:30.5;0.018202602363275224;-0.24755273837351469;-0.9846752618929137;1.023;0.004437049195941739
54:30.5;0.01635987474736811;-0.246277083306424;-0.9827275047104961;1.021;0.003959470277547114
54:30.5;0.014436070219521414;-0.2450061938547957;-0.9801149218898395;1.015;0.0034665945566226416
54:30.5;0.012528637066816943;-0.2437944465442225;-0.9769327540668522;1.0070000000000001;0.0029839552636513832
54:30.6;0.010733116032214066;-0.24268257846568195;-0.9733142305903111;1.001;0.0025352307753537962
54:30.6;0.009136256244877195;-0.24169698187946398;-0.9694187882372046;0.996;0.002140675958216117
54:30.6;0.007808943277920841;-0.2408506163942027;-0.9654187912609021;0.992;0.001815748851722817
54:30.6;0.006800141713332124;-0.24014558794631052;-0.9614869929842437;0.9890000000000001;0.001570131363947232
54:30.6;0.006133038255632665;-0.23957691427715516;-0.9577860778529504;0.985;0.00140730801328484
54:30.6;0.005804338195491865;-0.23913638731587802;-0.9544608864650255;0.981;0.0013248188808887627
54:30.6;0.005787418366914994;-0.23881545402881343;-0.9516335300690315;0.977;0.0013152764403587568
54:30.6;0.00603946581042033;-0.2386068038833968;-0.9494015055907071;0.978;0.0013681422875405416
54:30.6;0.006511446122192174;-0.23850517463785303;-0.9478386853149477;0.982;0.001472006363704576
54:30.6;0.007158264879028089;-0.23850804136279743;-0.9469981825926684;0.983;0.001616813534986551
54:30.7;0.007946010637258565;-0.2386164160510007;-0.9469149423764901;0.981;0.0017953967320306933
54:30.7;0.008854276676591671;-0.23883562180206383;-0.9476055869679033;0.9790000000000001;0.0020039173367108233
54:30.7;0.00987362142198054;-0.2391758559555306;-0.9490641732937445;0.977;0.0022412452776563395
54:30.7;0.011000178815967888;-0.23965221378851198;-0.9512545155763539;0.975;0.0025077135205971083
54:30.7;0.012230364551973856;-0.24028354951544395;-0.9541015648613129;0.9740000000000001;0.0028038711320062834
54:30.7;0.013557872298100761;-0.24108969288333704;-0.9574853895847154;0.976;0.0031296973230615613
54:30.7;0.014973131849852241;-0.24208721645826436;-0.961241317119261;0.985;0.003484311189770376
54:30.7;0.016463799325801574;-0.24328440568262022;-0.9651685798808749;0.9940000000000001;0.0038658723644896956
54:30.7;0.01801477191967558;-0.24467603676739755;-0.9690473991287814;1.006;0.004271350648754899
54:30.7;0.019607079720055275;-0.24623870716529833;-0.972661490436285;1.013;0.004696031036983598
54:30.8;0.021215759805647317;-0.24792804962513662;-0.9758207823682405;1.016;0.005132799701623035
54:30.8;0.022807254501475888;-0.24967937543250313;-0.978379030500164;1.015;0.0055713804255396295
54:30.8;0.024337354830118174;-0.25141248704316355;-0.9802432230197548;1.014;0.0059978288200905495
54:30.8;0.025751225487562562;-0.2530399350514189;-0.9813748455998674;1.015;0.006394725271869205
54:30.8;0.026987054206466122;-0.25447673569214324;-0.9817852831748266;1.016;0.006742486481692139
54:30.8;0.027983804435209272;-0.25564924151373924;-0.9815280171130611;1.016;0.007021889104029351
54:30.8;0.028691486599731173;-0.2565016526347732;-0.9806893996978439;1.016;0.007217299032393248
54:30.8;0.02908054261826532;-0.25699995544159737;-0.9793787277379418;1.013;0.007319580992609418
54:30.8;0.02914703650799093;-0.25713384770993275;-0.9777177662378321;1.011;0.007327691219960223
54:30.8;0.02891246608314508;-0.25691701236459985;-0.9758299186521089;1.0070000000000001;0.007248566518416592
54:30.9;0.028419343545386843;-0.2563855883308559;-0.9738296725224628;1.003;0.007095624993051921
54:30.9;0.027724679826159778;-0.25559474703542634;-0.9718134333593261;1.0;0.0068865445521290505
54:30.9;0.026893297825658073;-0.25461386103159483;-0.9698531132852486;0.9990000000000001;0.006640978410375526
54:30.9;0.025992333697620898;-0.2535210000629076;-0.9679936510726416;0.997;0.0063786933182268255
54:30.9;0.025087566901436244;-0.2523970805536616;-0.9662550221401084;0.998;0.006118354477713245
54:30.9;0.024241247035207292;-0.2513196195953702;-0.9646384657300837;0.997;0.005876867873398348
54:30.9;0.0235103356048703;-0.25035639125359493;-0.9631357773051273;0.997;0.005668981336530211
54:30.9;0.022944169164530428;-0.2495600383638083;-0.9617398017741361;0.998;0.005506871841480199
54:30.9;0.022581362942221697;-0.24896490637148644;-0.9604539849054514;0.997;0.00539964052234113
54:30.9;0.022446721420857067;-0.24858669660770294;-0.959299003303598;0.998;0.005352846543625079
54:31.0;0.022549396394869674;-0.24842463397362624;-0.9583149085614182;0.996;0.005368312935625314
54:31.0;0.022883112586682578;-0.24846530748258108;-0.9575578182931711;0.992;0.0054443478069296555
54:31.0;0.02342828440945099;-0.24868715444371833;-0.9570911061203621;0.987;0.0055763127206116285
54:31.0;0.024155160289470266;-0.24906464170687936;-0.956972442015069;0.981;0.00575733410587762
54:31.0;0.02502710191590981;-0.249571585420012;-0.9572396260931347;0.981;0.005978969920364676
54:31.0;0.02600331174717757;-0.250183498991195;-0.9578990002984434;0.987;0.006231707274890693
54:31.0;0.027040374069941954;-0.25087896815868;-0.9589194228761208;0.987;0.006505176214314917
54:31.0;0.028092039162481503;-0.25163989981304197;-0.9602327106963524;0.992;0.006787959853620684
54:31.0;0.029107193587580425;-0.2524505520250186;-0.9617395818901009;0.995;0.00706698467433074
54:31.0;0.03002695002513751;-0.25329563937758665;-0.9633193166048;0.997;0.007326713396350389
54:31.1;0.030782700778373;-0.25415823853198827;-0.9648412320582186;0.9990000000000001;0.00754860616274487
54:31.1;0.03129718907346569;-0.255018474722165;-0.9661762635366999;1.001;0.007711401955297486
54:31.1;0.031489854495668046;-0.2558538299196793;-0.9672074510886828;1.002;0.007792596872316851
54:31.1;0.03128606933019851;-0.25664121878852175;-0.967838847798371;1.002;0.007771063586595218
54:31.1;0.030628200497460945;-0.25736005888504654;-0.9680030696198613;1.003;0.007630260464298635
54:31.1;0.029485701021842285;-0.25799501522900786;-0.9676680784625639;1.006;0.0073612096583428295
54:31.1;0.027861978517517386;-0.25853716324936954;-0.9668434551565094;1.006;0.006964518462738796
54:31.1;0.025796991096771773;-0.25898286419646976;-0.9655854684499207;1.0070000000000001;0.0064510558916359585
54:31.1;0.023365587667229338;-0.2593305771131228;-0.9639993311135722;1.0070000000000001;0.005841268473235971
54:31.1;0.020672444762937094;-0.2595768779226714;-0.9622366217416813;1.004;0.005163447034356843
54:31.2;0.01784513707108156;-0.25971346006991747;-0.9604860174805652;1.0;0.004451489909837218
54:31.2;0.015026799232438432;-0.2597265225418496;-0.9589564165791128;0.991;0.0037426710189667925
54:31.2;0.012368673716010904;-0.2595991034294745;-0.9578534301557738;0.983;0.003075568329166479
54:31.2;0.010021689673660213;-0.2593159029125407;-0.9573527115450232;0.9790000000000001;0.002487952436603536
54:31.2;0.00812632742126277;-0.2588690656486593;-0.9575755167086584;0.981;0.002014408319348379
54:31.2;0.006801131679035123;-0.2582628100391717;-0.9585718559216316;0.988;0.001683711698095364
54:31.2;0.006131237484482088;-0.25751528711721233;-0.9603142293856557;0.988;0.0015162280187640247
54:31.2;0.006158649212443514;-0.2566572527275903;-0.962701798139671;0.991;0.0015217061375004909
54:31.2;0.00687582224853713;-0.25572805902950496;-0.9655731037306494;0.997;0.0016978064657277555
54:31.2;0.008223574470547553;-0.2547698901928863;-0.9687252500713293;1.006;0.0020295948369028357
54:31.3;0.01009393321526938;-0.2538215668510942;-0.9719370735191412;1.013;0.0024901591006568605
54:31.3;0.012338408568071509;-0.25291353712902526;-0.9749926593044155;1.0170000000000001;0.0030425138826450163
54:31.3;0.014781900924672275;-0.2520654036720244;-0.9777008694325591;1.0190000000000001;0.0036429191332614983
54:31.3;0.017241354721489483;-0.25128672451639494;-0.9799073842315457;1.013;0.004245471823106288
54:31.3;0.01954659250657958;-0.2505812746588661;-0.9814981134657735;1.0070000000000001;0.004807387639060102
54:31.3;0.021559617139446225;-0.24995418785090662;-0.9823959970234385;1.012;0.005294050088732541
54:31.3;0.023188853365983784;-0.24941998056123918;-0.9825555475113725;1.012;0.005682868770715713
54:31.3;0.024396104190604822;-0.24900800395543918;-0.9819592714508014;1.014;0.005965230936215797
54:31.3;0.02519551989110175;-0.2487621607589304;-0.9806176777610852;1.015;0.006146209544106907
54:31.4;0.025644996835339256;-0.2487345273300296;-0.9785719480032701;1.013;0.0062421109902919495
54:31.4;0.025831645355989766;-0.24897571718784958;-0.9758968905602035;1.012;0.006276434426905146
54:31.4;0.0258547486485983;-0.2495257060512678;-0.9727017026656597;1.0090000000000001;0.00627531150950933
54:31.4;0.02581069196665976;-0.25040743189248055;-0.9691268617702351;1.002;0.00626365016053565
54:31.4;0.025783059328683244;-0.2516237584919248;-0.9653365779428233;0.9990000000000001;0.006262746826681991
54:31.4;0.025838055383970077;-0.25315747514664255;-0.9615072992156529;0.9940000000000001;0.006289312379328952
54:31.4;0.02602290243990823;-0.25497358375217066;-0.9578136109923343;0.9840000000000001;0.006355239562031091
54:31.4;0.02636453512819606;-0.25702267422462627;-0.9544136247180053;0.9840000000000001;0.00646737712874324
54:31.4;0.02686753140506869;-0.25924386517090703;-0.951436573131941;0.98;0.006626986635102739
54:31.4;0.027512133899792613;-0.261566218883723;-0.9489750754760852;0.98;0.006829056987897735
54:31.5;0.028253956988484034;-0.26390885540336356;-0.947083138415972;0.981;0.007061896487684783
54:31.5;0.029026377920825505;-0.26618132458974963;-0.9457793226354989;0.985;0.0073073556029188925
54:31.5;0.02974545654736223;-0.2682860477345461;-0.9450533085247976;0.988;0.007541800389057499
54:31.5;0.030316394439822526;-0.27012356461697556;-0.9448733964854723;0.987;0.00773773126511239
54:31.5;0.030640530707456926;-0.2715998095862861;-0.9451925447019163;0.986;0.007865856728702332
54:31.5;0.030622488606470412;-0.2726338224934824;-0.9459515881090806;0.9840000000000001;0.00789749073478232
54:31.5;0.030177518566095397;-0.2731644923037166;-0.9470798006233906;0.985;0.007807182762151092
54:31.5;0.029238741712141185;-0.27315563365136253;-0.9484941202549158;0.985;0.0075753636181227725
54:31.5;0.02776328141809835;-0.27259922749344195;-0.9500987447841647;0.987;0.0071905839390144595
54:31.5;0.025736010271459768;-0.2715166879653274;-0.9517865537231279;0.988;0.006650852458812084
54:31.6;0.023170105853941397;-0.26995776177959874;-0.9534431922116294;0.992;0.005963739415536793
54:31.6;0.020104507703077732;-0.26799659296569744;-0.9549538737302834;0.992;0.005145233761578251
54:31.6;0.01659926773282277;-0.26572489072196576;-0.956212248270143;0.993;0.0042176978986404046
54:31.6;0.012730176925799214;-0.2632429376921999;-0.9571302880847392;0.995;0.0032074672291248644
54:31.6;0.00858359368923549;-0.2606499348872393;-0.9576480812032345;0.9940000000000001;0.002142558631930565
54:31.6;0.004251477671988459;-0.25803534569339137;-0.9577424817778192;0.996;0.0010506736817413698
54:31.6;-0.00017382144004752506;-0.25547230948454347;-0.9574336224497783;0.995;4.251633812699802e-05
54:31.6;-0.0046049574751230934;-0.2530133973582722;-0.956788295865575;0.995;0.001114769290385377
54:31.6;-0.008964167354735923;-0.2506886014813228;-0.9559191484239105;0.9940000000000001;0.002148155445348323
54:31.6;-0.01318572771925794;-0.2485054233073798;-0.9549787458505582;0.9890000000000001;0.0031292025863083844
54:31.7;-0.017215513325078816;-0.24645104599065668;-0.9541481638522465;0.986;0.004048241954801746
54:31.7;-0.021007575588510453;-0.24449690039532845;-0.9536207283706323;0.983;0.004898069860882185
54:31.7;-0.02451817604528288;-0.2426060464519899;-0.9535824889777923;0.9790000000000001;0.00567215443658191
54:31.7;-0.027698279198131982;-0.24074302630436337;-0.9541917284546296;0.9790000000000001;0.006362710327393766
54:31.7;-0.03048626497009243;-0.23888456766836844;-0.9555601753198874;0.98;0.006959056394788749
54:31.7;-0.03280337454008928;-0.23702888645538314;-0.957738333435419;0.982;0.007446748202542471
54:31.7;-0.03455447085430542;-0.23520180103262678;-0.9607064785647103;0.986;0.007807924572229719
54:31.7;-0.03563519770136905;-0.2334588221759076;-0.9643719201361995;0.986;0.00802294877142841
54:31.7;-0.03594397157108923;-0.23188310032910292;-0.9685726138128827;0.992;0.008072858601290984
54:31.7;-0.03539547861094833;-0.23057938339934883;-0.9730871494237463;0.997;0.00794181927434106
54:31.8;-0.03393258969712853;-0.22966432241190562;-0.9776509552882109;1.004;0.007618936763456222
54:31.8;-0.031534843608019565;-0.2292539469472462;-0.9819777940291802;1.011;0.00709919605317414
54:31.8;-0.02822293403343499;-0.22944966816190746;-0.9857846474415879;1.015;0.006383687880857634
54:31.8;-0.024059823141072016;-0.23032443282350837;-0.9888175063193745;1.023;0.0054795966018795625
54:31.8;-0.01914961122848366;-0.2319108664848264;-0.9908753443403145;1.0270000000000001;0.004400480310299341
54:31.8;-0.013634526279391372;-0.23419345621307525;-0.9918292881857437;1.03;0.0031670267957653498
54:31.8;-0.007689141835979685;-0.23710656394966784;-0.9916339479219881;1.0270000000000001;0.0018078934660651933
54:31.8;-0.0015109628937442763;-0.24053899293619613;-0.9903287709864727;1.0270000000000001;0.0003599305282301621
54:31.8;0.004691873468638861;-0.24434436508857185;-0.9880290549547864;1.022;0.0011327089591996735
54:31.8;0.01071381214427487;-0.24835557638736175;-0.9849079338374104;1.014;0.0026206774926744916
54:31.9;0.016364186541313542;-0.252401164755511;-0.9811719235030609;1.0070000000000001;0.00405257339065872
54:31.9;0.021477090482684643;-0.256321060174021;-0.9770339070703065;1.0;0.005378601557589337
54:31.9;0.02591727424874445;-0.2599792018953567;-0.972688467248951;0.995;0.006553928470271878
54:31.9;0.029581144910983775;-0.26327132391675917;-0.9682944249517852;0.992;0.007540948376230246
54:31.9;0.03239338789481288;-0.26612737885725535;-0.9639681881608553;0.993;0.008310145543427553
54:31.9;0.03430115399966097;-0.2685091392696852;-0.9597892755490608;0.9990000000000001;0.008839825594230284
54:31.9;0.03526844508612982;-0.2704043388254224;-0.9558162536545902;1.006;0.009115371648391601
54:31.9;0.03527305658713367;-0.27181905644026355;-0.9521078801463725;1.006;0.00912870463209765
54:31.9;0.034307439717656735;-0.2727699812154483;-0.9487419485750457;1.002;0.008878364807805154
54:31.9;0.032383607324298964;-0.27327812880599667;-0.9458247271665741;0.993;0.0083702949889047
54:32.0;0.029541009770694637;-0.27336541842664525;-0.9434871162884548;0.9840000000000001;0.0076191212413572055
54:32.0;0.025855168742496427;-0.273054755002821;-0.9418681660694319;0.976;0.006649473182776239
54:32.0;0.021443941251638822;-0.27237297829609564;-0.9410904435485932;0.9690000000000001;0.0054966741447231345
54:32.0;0.016468142495557454;-0.2713549538924367;-0.9412338286612711;0.966;0.0042061029497247725
54:32.0;0.01112440858095189;-0.27004663471774765;-0.942314558073015;0.9670000000000001;0.0028308157394514215
54:32.0;0.005630430374437323;-0.2685051999266342;-0.9442749759186799;0.971;0.0014275547512410938
54:32.0;0.00020514444681093267;-0.26679548269652914;-0.9469867040641062;0.985;5.183010858083451e-05
54:32.0;-0.004951726927278691;-0.26498360205137683;-0.950266323184124;0.985;0.0012468695653776742
54:32.0;-0.009675945846110253;-0.26313004643566296;-0.9538995469146078;0.9940000000000001;0.002428658847347414
54:32.0;-0.013847410561401699;-0.2612843981142913;-0.9576687748758617;1.003;0.0034649532062433082
54:32.1;-0.017390387965445262;-0.2594826910409617;-0.9613793824390856;1.008;0.004338228950513957
54:32.1;-0.020266993633497366;-0.2577473819993051;-0.9648805069725097;1.011;0.005040308587338481
54:32.1;-0.022467222879597328;-0.25608966045714027;-0.9680765282341537;1.01;0.005569947841978949
54:32.1;-0.023999208086829378;-0.254513699260666;-0.9709271018902645;1.008;0.0059305462689207234
54:32.1;-0.02488209403404385;-0.25302192311379207;-0.973436353659537;1.002;0.0061284781293384025
54:32.1;-0.025141864619495333;-0.2516197662391602;-0.9756346199279101;0.9990000000000001;0.006172050072218853
54:32.1;-0.02480917247266616;-0.250318503373385;-0.9775579508933923;1.003;0.006070825423859894
54:32.1;-0.0239182357318578;-0.24913583554582952;-0.9792305826179775;1.003;0.005835126977692214
54:32.1;-0.022506519149771434;-0.24809506432126097;-0.9806537279956772;1.0070000000000001;0.005475731447612911
54:32.1;-0.020615299712774326;-0.24722373157932698;-0.9818017304622841;1.01;0.005003842180005705
54:32.2;-0.018291050236629466;-0.2465516997528259;-0.9826250920247542;1.012;0.004431334085592313
54:32.2;-0.015587319655322701;-0.2461080835296795;-0.9830590477584874;1.014;0.0037711770734506146
54:32.2;-0.0125668134596449;-0.24591691669338553;-0.9830357797670395;1.018;0.0030379659278461334
54:32.2;-0.009303371871760628;-0.24599233292933398;-0.9824979142218581;1.0190000000000001;0.0022485036097792117
54:32.2;-0.005883087929202112;-0.24633448726570525;-0.9814106758929981;1.0170000000000001;0.0014222676616191445
54:32.2;-0.0024032748701507895;-0.24692734521275475;-0.9797703306820726;1.014;0.0005814293041856782
54:32.2;0.0010317391917520156;-0.24773911009393335;-0.9776076218135097;1.008;0.000249878609223206
54:32.2;0.004317788462719483;-0.24872541696481645;-0.9749864408798441;1.008;0.0010470805806297291
54:32.2;0.007359610176649486;-0.24983452677102622;-0.9719990831215541;1.005;0.0017871998675323907
54:32.2;0.010079458820045727;-0.2510132244604532;-0.9687595013437273;1.0;0.002451036577770504
54:32.3;0.0124241705430381;-0.25221234301428275;-0.9653954360906254;0.997;0.003025094752497216
54:32.3;0.014369383742092085;-0.253391258183942;-0.9620400722298267;0.995;0.0035028612352019377
54:32.3;0.01592010390774534;-0.2545208192590606;-0.9588239591403039;0.992;0.0038851526586359615
54:32.3;0.017108021587801597;-0.2555842869320458;-0.9558677627460604;0.9890000000000001;0.004179571459529042
54:32.3;0.017986920597699792;-0.2565762792473571;-0.953276061502529;0.9840000000000001;0.004399385384029874
54:32.3;0.018627261192412627;-0.2575002383096601;-0.9511323897631315;0.98;0.004562129521195688
54:32.3;0.019110073068297442;-0.2583651561292938;-0.9494961404639087;0.9840000000000001;0.004688020416845497
54:32.3;0.019519646059324634;-0.25918218495697665;-0.948402054934169;0.9840000000000001;0.00479810305446501
54:32.3;0.019934699382968282;-0.25996144032566226;-0.9478621995857957;0.987;0.004912061882892119
54:32.3;0.020418516285502612;-0.2607091049626941;-0.9478690714021472;0.9840000000000001;0.005045784892673424
54:32.4;0.02100936813288543;-0.26142519256409963;-0.9483979788288931;0.9840000000000001;0.005208960298288543
54:32.4;0.021713145770232093;-0.2621027314222777;-0.9494075790931791;0.983;0.005403149561738328
54:32.4;0.02250035634837555;-0.2627289337122072;-0.9508388760129395;0.982;0.005620878911022761
54:32.4;0.023309144151848184;-0.2632880743169284;-0.9526142072618752;0.986;0.005846212135237767
54:32.4;0.024054409029999606;-0.2637650654431889;-0.9546380960428731;0.99;0.006056904520596282
54:32.4;0.024640820578857588;-0.26414851724029775;-0.9568011335517221;0.993;0.006227661872910009
54:32.4;0.02497584200574515;-0.26443230720736616;-0.9589867830669347;0.998;0.006333551035287972
54:32.4;0.02497916876588496;-0.26461531108199204;-0.9610799431410516;0.998;0.0063526139773364115
54:32.4;0.024587290675918985;-0.26469977264992567;-0.9629757535095169;1.0;0.00626728719044184
54:32.4;0.02375446632624966;-0.2646891663445124;-0.9645875143985075;1.002;0.006064892118946113
54:32.5;0.022452543671544846;-0.26458616505662635;-0.9658532460195985;1.006;0.005737779111887989
54:32.5;0.0206714536292762;-0.26439110067745125;-0.966740544882013;1.006;0.005283573868576708
54:32.5;0.01842046120434505;-0.2641013661963905;-0.9672489355428867;1.0070000000000001;0.004705539332822106
54:32.5;0.015728756661380943;-0.2637120027272305;-0.9674087781864343;1.004;0.0040126780317088955
54:32.5;0.012644099557486034;-0.2632170515105125;-0.9672765544543888;1.001;0.0032192343112395863
54:32.5;0.009229646999168941;-0.26261083792795586;-0.9669276040168868;0.997;0.0023436442824974744
54:32.5;0.005560228800143426;-0.26188871094077415;-0.9664482986582844;1.001;0.001407304468894286
54:32.5;0.001719499291289418;-0.26104750726105125;-0.9659294702574053;1.001;0.0004335777308451352
54:32.5;-0.0022011023060730757;-0.2600864346136127;-0.9654615620562076;1.001;0.0005527043948136067
54:32.5;-0.006101706705996108;-0.2590088420376214;-0.9651305185617816;1.003;0.0015252883997916257
54:32.6;-0.00987311182526039;-0.2578247058855945;-0.9650129631091795;1.0;0.002456471525196241
54:32.6;-0.013397518653967282;-0.2565531161126749;-0.9651697020328017;0.996;0.003317457323904694
54:32.6;-0.016551906676201086;-0.2552239347476451;-0.9656377040462714;0.993;0.004079281197478785
54:32.6;-0.019213760835716267;-0.25387812377395597;-0.9664221697579529;0.993;0.004714162455328505
54:32.6;-0.02126841954519097;-0.2525666959388914;-0.9674912599302354;0.9940000000000001;0.005197067433684697
54:32.6;-0.022617776764691937;-0.25134841298173105;-0.9687757263317515;0.997;0.005507434100973721
54:32.6;-0.023190369080113564;-0.2502861884854896;-0.9701743714169622;1.005;0.005631114305684582
54:32.6;-0.022952041258346448;-0.24944206663052754;-0.9715645974533411;1.005;0.0055624061072695775
54:32.6;-0.021914823219091325;-0.24887095033401926;-0.9728158582902651;1.0070000000000001;0.005305701581102256
54:32.6;-0.0201409892261759;-0.24861375633349916;-0.9738033899193314;1.006;0.004876151995146527
54:32.7;-0.01774042661272731;-0.24869114218958088;-0.9744203866040094;1.006;0.004299032594536335
54:32.7;-0.014861559922744827;-0.24909924709090173;-0.9745879317381649;1.008;0.003607927824567121
54:32.7;-0.011677766512824893;-0.24980859065708158;-0.9742626549314904;1.0090000000000001;0.002842125246977591
54:32.7;-0.008371861926577072;-0.25076620479058986;-0.9734421436058781;1.0090000000000001;0.0020436250086769236
54:32.7;-0.00512095808930694;-0.25190004712170266;-0.9721677887351613;1.01;0.0012540668780174483
54:32.7;-0.002083191353791862;-0.25312466848854;-0.9705242927852682;1.008;0.0005117643705210252
54:32.7;0.0006131150161493275;-0.2543477381716721;-0.968634884277142;1.005;0.00015105320289241644
54:32.7;0.0028778475679291397;-0.2554773880907253;-0.9666516146153702;1.005;0.0007107064140010769
54:32.7;0.004664985313007838;-0.256430044955003;-0.964740762674178;0.9990000000000001;0.0011540637990763792
54:32.7;0.005975562739048637;-0.25713802357648774;-0.9630640607027514;0.992;0.0014797906820682388
54:32.8;0.006857030728197971;-0.2575560821955369;-0.9617575226747336;0.985;0.0016985310790722911
54:32.8;0.007398232674961385;-0.25766616312753554;-0.9609112883223563;0.983;0.001831760423633312
54:32.8;0.0077196973517046075;-0.2574795167190456;-0.9605550447633046;0.9840000000000001;0.0019092606280637877
54:32.8;0.007959904633571257;-0.25703562316800854;-0.9606529807291448;0.988;0.0019654758708244693
54:32.8;0.008258743697265123;-0.2563979370282311;-0.9611098868468624;0.993;0.002035174065541686
54:32.8;0.008739553244771565;-0.2556471473973727;-0.9617871636075378;0.996;0.0021488651380276408
54:32.8;0.00949171503286343;-0.25487294131594107;-0.9625253885769817;1.005;0.0023285234483090803
54:32.8;0.010556576535450985;-0.25416526432307873;-0.9631690046720416;1.005;0.0025842932670386526
54:32.8;0.011919542597310307;-0.25360610664353467;-0.9635883776462109;1.005;0.002912801234229931
54:32.8;0.01351035717710523;-0.253262725399248;-0.9636952453224671;1.002;0.0032974469942176465
54:32.9;0.015212292732014665;-0.25318272217650994;-0.9634496666474573;0.996;0.0037107164525673436
54:32.9;0.01687912590440869;-0.2533909662113816;-0.9628590970750736;0.996;0.004118165710568751
54:32.9;0.01835666982571838;-0.2538884306256583;-0.9619718936868562;0.996;0.0044833143512416195
54:32.9;0.019504366507261898;-0.2546533057397182;-0.9608677216069964;0.995;0.004772487195420923
54:32.9;0.020212717027134532;-0.25564467973687327;-0.9596463836678092;0.993;0.00495875539584569
54:32.9;0.02041383465727751;-0.25680851570680024;-0.958415734914018;0.99;0.005024443290011697
54:32.9;0.020084541938851896;-0.2580850104059226;-0.9572793762061387;0.986;0.004962076040962262
54:32.9;0.019243544767037844;-0.2594159919861298;-0.9563255297577121;0.986;0.004774056663500014
54:32.9;0.017945441758191738;-0.2607508365242912;-0.9556191184887959;0.986;0.004471617981788869
54:32.9;0.016273980285426405;-0.2620497031854049;-0.9551988079958473;0.99;0.0040735329117159375
54:33.0;0.014335312444257642;-0.2632838005765612;-0.9550794063436409;0.9940000000000001;0.0036047137431842948
54:33.0;0.012250333135046731;-0.2644332450371459;-0.9552581799810173;0.997;0.003094458900248929
54:33.0;0.010144853610775172;-0.26548334311857535;-0.9557223055930029;0.9940000000000001;0.0025740369958747148
54:33.0;0.008137651697217472;-0.266420229383575;-0.9564546213413733;0.993;0.002073627125410708
54:33.0;0.0063282686879969985;-0.2672270562384816;-0.9574361445595231;0.9940000000000001;0.0016191055315921432
54:33.0;0.004787359795381809;-0.26788195916259083;-0.9586455597111515;0.992;0.0012294124300348116
54:33.0;0.0035518745695839247;-0.2683584939489359;-0.9600569545325611;0.998;0.0009151029694585268
54:33.0;0.0026257071566224907;-0.2686284448080708;-0.9616371583098636;0.998;0.000678280797441263
54:33.0;0.001984587635372246;-0.26866620893632653;-0.9633434262522569;1.0;0.0005136466577597557
54:33.0;0.0015829281675940204;-0.26845357667346076;-0.9651216074492905;0.9990000000000001;0.00041012140892178163
54:33.1;0.0013605976632614482;-0.26798370914853314;-0.9669049709983009;1.0;0.00035255096489511653
54:33.1;0.001248770310353823;-0.26726337555552415;-0.9686144099676237;1.002;0.0003232756099245932
54:33.1;0.0011752028098785422;-0.26631300946329295;-0.9701610430410383;1.005;0.0003036330450475712
54:33.1;0.001069785368310228;-0.2651648407525253;-0.9714517879830815;1.0070000000000001;0.0002755712107456494
54:33.1;0.0008708154427659407;-0.26385987445445797;-0.9723974365655287;1.013;0.0002234309225986722
54:33.1;0.0005316311794424136;-0.26244439036916606;-0.9729216304309825;1.013;0.00013574554862264576
54:33.1;2.6536932296658197e-05;-0.26096619147271616;-0.9729685346451531;1.006;6.738042711446044e-06
54:33.1;-0.0006453825884604507;-0.25947083251858816;-0.9725075663418997;1.006;0.00016285413073317202
54:33.1;-0.0014598207956499959;-0.2579986127571292;-0.9715350825600809;1.006;0.00036591094876303607
54:33.1;-0.002370928047777623;-0.2565832569981657;-0.9700740463470638;1.004;0.0005901352727762707
54:33.2;-0.0033190142069479053;-0.2552524304969597;-0.9681724970578645;1.003;0.0008202226141646263
54:33.2;-0.004240822834861758;-0.25402933627873486;-0.9659009329060844;1.001;0.001040558709747679
54:33.2;-0.0050795760380879865;-0.2529344439999573;-0.9633483495250416;0.998;0.0012377097099137001
54:33.2;-0.005791913084285716;-0.25198676564486705;-0.9606167078031518;0.992;0.0014020061032676513
54:33.2;-0.006350465464021441;-0.25120449998433164;-0.957814017671954;0.987;0.001527967659300036
54:33.2;-0.006743009735389935;-0.25060498023948163;-0.9550470552111077;0.982;0.0016138689049179824
54:33.2;-0.006970270359007325;-0.25020370743776943;-0.9524154696501528;0.983;0.001661000660225739
54:33.2;-0.007043795415071294;-0.2500123077364134;-0.9500088381021905;0.983;0.00167299933381001
54:33.2;-0.006983828356331208;-0.25003587704714686;-0.9479068521334998;0.983;0.0016552421949975649
54:33.2;-0.006816277134063166;-0.2502708155561966;-0.9461811661507827;0.983;0.0016141048686766162
54:33.3;-0.006568222505943565;-0.2507040988321674;-0.9448966631483655;0.98;0.0015559427247879528
54:33.3;-0.00626230259281117;-0.2513141801186556;-0.9441103212396738;0.976;0.0014858459611956443
54:33.3;-0.005911086767978789;-0.25207310423734636;-0.9438671703929055;0.9740000000000001;0.001406386615956608
54:33.3;-0.005512877704894346;-0.25294922881958415;-0.9441944203928693;0.973;0.001316658501836539
54:33.3;-0.005050156723519507;-0.25391015404000944;-0.9450958401198731;0.975;0.0012118832321081142
54:33.3;-0.004491215834376033;-0.2549257833012533;-0.9465483405545102;0.9790000000000001;0.0010837284817169558
54:33.3;-0.0037946874842676105;-0.2559713815303737;-0.9485017100143233;0.985;0.0009213094918266655
54:33.3;-0.002916055104085113;-0.257030016860012;-0.9508811634692867;0.985;0.0007126984520249554
54:33.3;-0.0018150286831435513;-0.2580934991685568;-0.9535915469089605;0.987;0.0004467071984757351
54:33.3;-0.0004627967319844491;-0.2591613437327362;-0.956522288673447;0.988;0.0001147243487201995
54:33.4;0.001151714868986769;-0.2602381285582978;-0.9595531100148493;0.993;0.00028759737533143504
54:33.4;0.003017520741457948;-0.26133030319928735;-0.9625609720418015;0.997;0.0007590463305892597
54:33.4;0.00510018549808103;-0.2624436570933109;-0.9654282886852663;1.004;0.0012922367065411223
54:33.4;0.0073440244773991204;-0.26358212927968067;-0.9680515400446912;1.0090000000000001;0.0018739092625669669
54:33.4;0.009677671323112496;-0.26474770948852794;-0.9703486437397225;1.011;0.002486170351027639
54:33.4;0.012021586654754406;-0.26594055355088153;-0.9722632156010433;1.01;0.0031083521495497194
54:33.4;0.014295365150806306;-0.2671584915936321;-0.973764598857266;1.0090000000000001;0.003718931830377094
54:33.4;0.016423193314630116;-0.2683954333074088;-0.9748441560657979;1.0090000000000001;0.004297025387772794
54:33.4;0.01833711404297095;-0.26963846851765566;-0.9755097815577415;1.0090000000000001;0.0048233021234140305
54:33.4;0.01997874400558592;-0.2708640517333512;-0.9757808540862929;1.011;0.005280461071426002
54:33.5;0.021300200628783305;-0.27203462038795273;-0.9756848990600047;1.013;0.005653500766061124
54:33.5;0.022264533882246428;-0.27309759454846544;-0.9752559049532941;1.013;0.005929936882894225
54:33.5;0.02284556453805878;-0.2739881413299158;-0.9745333885411877;1.013;0.006100007707091586
54:33.5;0.02302714149441658;-0.2746355212996627;-0.9735613009129167;1.012;0.006156870797964808
54:33.5;0.022802298887246726;-0.27497137500390145;-0.9723864495082738;1.011;0.006096843083370699
54:33.5;0.022172998127041963;-0.27493784527812576;-0.971056654812518;1.011;0.005919752013741154
54:33.5;0.021150822422072474;-0.2744938974837538;-0.9696190049701685;1.006;0.005629386561017765
54:33.5;0.019758492959403868;-0.27361913980870384;-0.9681184780110162;1.006;0.00523394071623927
54:33.5;0.018031595794933977;-0.2723154582584258;-0.9665970917120894;1.006;0.00474626456362784
54:33.5;0.016019472692128632;-0.2706072024261133;-0.9650935201468753;1.004;0.004183665633828771
54:33.6;0.013784196276266026;-0.2685400974011615;-0.9636428292829388;1.0;0.0035670293653552254
54:33.6;0.011397200662854495;-0.26617835644752863;-0.9622760709077057;0.996;0.0029192455042393794
54:33.6;0.008934043726895947;-0.263599755001102;-0.9610199787771166;0.996;0.0022632133300679387
54:33.6;0.00646828463401977;-0.2608893878710013;-0.959897266508937;0.997;0.0016198331825283464
54:33.6;0.004065499361976587;-0.2581332700508255;-0.9589275400749091;0.995;0.0010063375358735
54:33.6;0.0017782837866296556;-0.2554126174579511;-0.9581279678710174;0.995;0.0004351780021420762
54:33.6;-0.0003571513799557338;-0.25279922746420247;-0.9575124785382239;0.986;8.64514968977882e-05
54:33.6;-0.002322309071570138;-0.2503521873527068;-0.9570889932410147;0.986;0.0005564469043174461
54:33.6;-0.004115131446967506;-0.24811602570469693;-0.9568557100356525;0.9840000000000001;0.0009769784429084776
54:33.6;-0.005745834697027454;-0.24612026815092722;-0.956798475889162;0.986;0.001353072233577239
54:33.7;-0.007230415411088933;-0.2443802320699382;-0.9568908846400856;0.986;0.001690798056858086
54:33.7;-0.00858356741847587;-0.2428989230879422;-0.9570973912390391;0.9890000000000001;0.001995489947885929
54:33.7;-0.009813519891423494;-0.24166990755530332;-0.9573784652022846;0.992;0.0022705498301725147
54:33.7;-0.010920859300083977;-0.24068070029734315;-0.9576961141841736;0.992;0.0025172468358436013
54:33.7;-0.011901634885603647;-0.2399157351087395;-0.9580180788233856;0.988;0.002735514746389403
54:33.7;-0.012753055075474496;-0.23935815676329672;-0.9583196761507075;0.987;0.002925316576932271
54:33.7;-0.013479134548235905;-0.23899068656926456;-0.9585833989562014;0.987;0.0030879686941756644
54:33.7;-0.01409412453438264;-0.23879652828301504;-0.9587973037984643;0.987;0.003226955059658076
54:33.7;-0.01462285375876882;-0.2387607168776274;-0.9589534575506756;0.988;0.003348054664756845
54:33.7;-0.015098187729352813;-0.2388712264887948;-0.9590473468259845;0.988;0.0034588259506200965
54:33.8;-0.015556182900320733;-0.2391188567133903;-0.9590785865637481;0.987;0.003567558150947575
54:33.8;-0.016029604389153133;-0.23949561515001958;-0.9590528612481843;0.988;0.0036818230806633153
54:33.8;-0.016540771388331554;-0.23999226886330632;-0.9589848148216704;0.992;0.003806841026858005
54:33.8;-0.017095116291190423;-0.24059611354359003;-0.9589011995374228;0.993;0.003943978411952082
54:33.8;-0.01767713551133811;-0.24128960196048604;-0.9588428960403355;0.9940000000000001;0.0040897612257559885
54:33.8;-0.018250309476695915;-0.2420498026566573;-0.9588640358679095;0.993;0.004235766351807747
54:33.8;-0.0187617137547333;-0.2428482910229077;-0.9590270360856235;0.985;0.004369567050164466
54:33.8;-0.019150398621925743;-0.24365119303993774;-0.959393890314674;0.985;0.004476548654184354
54:33.8;-0.019357046673975656;-0.24441954411241193;-0.9600158353831704;0.985;0.004542065823485737
54:33.8;-0.01933214460409074;-0.24511049154798956;-0.9609243185556825;0.988;0.004553350901996955
54:33.9;-0.019041013581211536;-0.24567975949115273;-0.9621254253828775;0.992;0.004500814693782211
54:33.9;-0.018465459999438067;-0.24608515762529057;-0.963598387739807;0.9940000000000001;0.004378663955254053
54:33.9;-0.01760281636502455;-0.2462903307094036;-0.9652975471834326;0.997;0.004184954329809985
54:33.9;-0.016463690210483165;-0.2462681088601001;-0.96715654067581;0.998;0.00392131864317475
54:33.9;-0.015069715667390762;-0.24600344659123516;-0.9690934951474185;0.9990000000000001;0.0035926253369317693
54:33.9;-0.0134518961026202;-0.24549610629927524;-0.9710165777102971;1.0;0.003206673606218589
54:33.9;-0.011649160752569505;-0.24476283184175257;-0.9728299506525372;1.005;0.0027738121132993327
54:33.9;-0.009706476377096132;-0.24383847667702926;-0.9744404252913571;1.005;0.002306317694983569
54:33.9;-0.007672581901178509;-0.24277566581890384;-0.9757647445447158;1.008;0.001817572777155176
54:33.9;-0.0055981472991714215;-0.24164270333681484;-0.9767369207062764;1.0090000000000001;0.0013212822828720598
54:34.0;-0.003535035307321626;-0.24051954136680925;-0.9773147469465027;1.01;0.0008309570462431516
54:34.0;-0.001536638402397487;-0.2394920507489646;-0.9774844353859451;1.011;0.0003597266689238001
54:34.0;0.00034161304395229503;-0.23864537091700888;-0.9772623595583182;1.0090000000000001;7.967069973577094e-05
54:34.0;0.0020431101350471196;-0.23805719402348224;-0.9766932120305261;1.006;0.0004750411786837345
54:34.0;0.003513385502040056;-0.23779149235842675;-0.975844523883016;1.004;0.0008152724123816898
54:34.0;0.0047053498951952575;-0.23789282271590512;-0.9747983806219028;0.9990000000000001;0.0010911590577478616
54:34.0;0.005584445880105785;-0.2383810712984484;-0.9736420665490125;0.998;0.0012961378201438488
54:34.0;0.006131791111681827;-0.23924657713101885;-0.9724597610411747;0.998;0.0014266082282291936
54:34.0;0.006344690224530859;-0.24044627145595254;-0.9713268675346386;0.9990000000000001;0.0014818146069894152
54:34.0;0.00623507357585863;-0.24190234446091802;-0.9703072746574655;1.0;0.0014634940042971677
54:34.1;0.005826760800213685;-0.24350518071839533;-0.9694526168352405;1.0;0.0013755043957535853
54:34.1;0.005152341104444764;-0.24512160651168624;-0.9688021065350396;0.9990000000000001;0.0012235487452472839
54:34.1;0.004250318971266242;-0.24660807058688825;-0.9683819471194984;0.998;0.0010150220889582396
54:34.1;0.003162878854474339;-0.24782672737408568;-0.9682043764650664;0.9990000000000001;0.0007589230459437341
54:34.1;0.0019342161161886675;-0.24866119837399853;-0.9682672350673931;1.001;0.0004657021640299376
54:34.1;0.0006092017584494917;-0.2490286287922805;-0.9685549535945603;1.001;0.00014693819212695364
54:34.1;-0.0007677373034884118;-0.24888585384042325;-0.9690411736934207;1.002;0.0001851633741467216
54:34.1;-0.00215343550717189;-0.24822973000460635;-0.9696924543740733;1.002;0.0005183459155878759
54:34.1;-0.0035063247188291194;-0.2470936274297396;-0.9704720724828276;1.004;0.000840807778021857
54:34.1;-0.004786226860652079;-0.24554239879468642;-0.9713429315401867;1.003;0.001141543217990175
54:34.2;-0.005953708651690383;-0.24366706468867416;-0.9722690099112892;1.003;0.0014104927340440655
54:34.2;-0.006969150778903463;-0.241579220833967;-0.9732153819701596;1.004;0.0016385073781547649
54:34.2;-0.007791768447965035;-0.2394044887083283;-0.9741472701599405;1.003;0.0018171590639921777
54:34.2;-0.008379180122667758;-0.23727442952311917;-0.9750286265013929;1.001;0.0019385179681039098
54:34.2;-0.008688566754318958;-0.23531730533589296;-0.9758206836964817;1.002;0.0019951338083213266
54:34.2;-0.00868029965087021;-0.2336490610455286;-0.9764810582355836;1.003;0.0019804440656154367
54:34.2;-0.008323762027955981;-0.23236572268513492;-0.9769640454116855;1.003;0.0018896018267482006
54:34.2;-0.007603816680336686;-0.23153748382518047;-0.9772224324002333;1.003;0.0017204671117509195
54:34.2;-0.006526200306476872;-0.23120449225263529;-0.9772107519236355;1.003;0.0014745004319510154
54:34.2;-0.005120873936848408;-0.23137473450675297;-0.9768896715712502;1.006;0.0011574587864574594
54:34.3;-0.0034429227946126176;-0.2320244112637316;-0.9762309726775401;1.006;0.0007798544339264837
54:34.3;-0.0015707290350545438;-0.23310067848543578;-0.9752221940604919;1.005;0.00035706590738305037
54:34.3;0.0003985403086495075;-0.2345262457909314;-0.973869837976145;1.003;9.102582415676404e-05
54:34.3;0.0023553831735253156;-0.23620537579318993;-0.9722003692347982;1.001;0.000540887727204444
54:34.3;0.004185106677043254;-0.23803100408506855;-0.970258909007795;0.9990000000000001;0.0009665575115108914
54:34.3;0.0057746216251047;-0.23989256510937187;-0.9681061869585933;0.995;0.0013411066523724064
54:34.3;0.0070184265805925;-0.24168374121178357;-0.9658148296418159;0.9940000000000001;0.0016382533539485357
54:34.3;0.007823761693736445;-0.24330919757829125;-0.9634663051786339;0.9940000000000001;0.0018340478874538844
54:34.3;0.008115212134853753;-0.24468957873918648;-0.9611494820488943;0.9940000000000001;0.0019085620606251236
54:34.3;0.007839348481200312;-0.24576448436626264;-0.9589607111701359;0.993;0.0018475657711490771
54:34.4;0.006970035152631951;-0.24649366519758806;-0.9570042308863125;0.992;0.001644199791297943
54:34.4;0.0055144092942945085;-0.24685706201210764;-0.9553912586579686;0.99;0.0013005462966678356
54:34.4;0.0035183644727023425;-0.24685431693718016;-0.9542364262117015;0.99;0.0008287767212584111
54:34.4;0.001069483364680368;-0.2465039733442557;-0.9536508174675505;0.988;0.00025141277581954257
54:34.4;-0.001704552623767767;-0.2458420522461399;-0.9537315175027707;0.983;0.0003996618745074546
54:34.4;-0.004643174939043862;-0.2449196057585872;-0.954548371845638;0.981;0.0010855167760359472
54:34.4;-0.007565739922228514;-0.24379934672761397;-0.956129645590584;0.981;0.0017636025969285727
54:34.4;-0.010288662376434358;-0.2425519551477716;-0.9584490504574619;0.981;0.002391843319110636
54:34.4;-0.012644449135123834;-0.24125259699174018;-0.961416752117121;0.981;0.0029328077548283708
54:34.4;-0.014500035151536672;-0.23997769735277832;-0.9648766599357923;0.985;0.0033574668859709667
54:34.5;-0.015772597954510793;-0.23880163222181003;-0.9686118161060818;0.991;0.003648297846472928
54:34.5;-0.016441438744138316;-0.23779293587002226;-0.9723588393217104;0.998;0.0038015905042275548
54:34.5;-0.016554081933097407;-0.2370096754471994;-0.975830952459132;1.005;0.003828650869981196
54:34.5;-0.016224564960370665;-0.23649389754046696;-0.9787474581196223;1.013;0.003755464374832837
54:34.5;-0.015622877526899042;-0.23626570180517278;-0.9808661321689379;1.0190000000000001;0.003620524144508887
54:34.5;-0.014956190488360104;-0.2363182174969156;-0.9820141487270082;1.024;0.003470850719319647
54:34.5;-0.014443955760035503;-0.23661502830573067;-0.9821128859577657;1.025;0.00335652498047326
54:34.5;-0.014290005101721626;-0.2370912773773142;-0.9811923597695962;1.025;0.003324314609333241
54:34.5;-0.014655523821427726;-0.23765898335779934;-0.9793921261407611;1.02;0.0034112393192170733
54:34.5;-0.015636761949995585;-0.23821631403666213;-0.976947227678953;1.01;0.0036390617906105795
54:34.6;-0.01725041309649063;-0.23865984464483783;-0.974160172899399;1.0;0.004010598834785441
54:34.6;-0.019428315990529646;-0.23889815259131078;-0.9713628274165389;0.991;0.004508472546059686
54:34.6;-0.022021913419721317;-0.23886464696739396;-0.9688745251136963;0.983;0.005096528590641632
54:34.6;-0.024815743264951375;-0.23852756719949117;-0.966963661889535;0.98;0.005723688892595322
54:34.6;-0.027548073852406704;-0.23789551183693494;-0.965819320747248;0.981;0.006329557889956763
54:34.6;-0.0299357141402092;-0.23701741449094194;-0.9655373687893228;0.987;0.006850763356641229
54:34.6;-0.03169953426103241;-0.23597671180667024;-0.9661221408542005;1.0;0.007226933554022779
54:34.6;-0.032587800922223555;-0.23488074264146425;-0.9675007795941055;1.0;0.00740548982521573
54:34.6;-0.03239575993238785;-0.23384755190743353;-0.9695441595383251;1.004;0.007344945781274816
54:34.6;-0.03098110334093527;-0.23299234688110937;-0.9720880202846479;1.004;0.0070168812591321185
54:34.7;-0.028275356022727106;-0.23241512717895177;-0.9749502878513792;1.006;0.006407003265027666
54:34.7;-0.024290787289367708;-0.23219056593289766;-0.9779432597093572;1.008;0.005515689610985758
54:34.7;-0.019121825488525167;-0.23236137264045983;-0.9808808147319948;1.0090000000000001;0.0043582237583263995
54:34.7;-0.012939893248183017;-0.2329364726248926;-0.9835813467978849;1.01;0.0029646844267288293
54:34.7;-0.005981307512661119;-0.23389475542466348;-0.9858675373772214;1.008;0.0013792251926444074
54:34.7;0.001470993629502485;-0.2351937986245118;-0.987564897516252;1.006;0.000341666424733217
54:34.7;0.009109932235699194;-0.2367814185697984;-0.988502004515001;1.014;0.0021322607809128847
54:34.7;0.016627712744945008;-0.2386068975191117;-0.9885154633880935;1.014;0.003921922201765331
54:34.7;0.023736135778365034;-0.24062875788451213;-0.9874611001106551;1.018;0.00563997972797333
54:34.7;0.030180588796606407;-0.2428171302583624;-0.9852305541747719;1.022;0.007220128086588636
54:34.8;0.035746537092773256;-0.2451506657861583;-0.9817705100559659;1.023;0.008603537108894194
54:34.8;0.04025911177518248;-0.2476096019616609;-0.9771005665408324;1.0190000000000001;0.009740268663067988
54:34.8;0.043577754496015635;-0.250167364761516;-0.9713253853079296;1.013;0.010589129039787502
54:34.8;0.04558918295615642;-0.25278306397362627;-0.9646377664294074;1.004;0.01111665284194022
54:34.8;0.04620241813569807;-0.25539672882268705;-0.9573113592211726;0.995;0.011296222780104684
54:34.8;0.045348539501393594;-0.2579283996239777;-0.9496838065261924;0.986;0.011108143995249576
54:34.8;0.04298566327476608;-0.26028136775380367;-0.9421326734188531;0.968;0.010540926330496766
54:34.8;0.039107517744006955;-0.26234892420020495;-0.9350477600610162;0.968;0.00959341722914277
54:34.8;0.03375282844741921;-0.26402317170387646;-0.9288041025051131;0.9640000000000001;0.008277064528225691
54:34.8;0.027012744103944254;-0.26520422040523145;-0.9237390099501734;0.958;0.006617568111785074
54:34.9;0.019034562791516125;-0.2658083186765059;-0.9201342323147123;0.955;0.004655460676221365
54:34.9;0.010021517153554767;-0.2657738054855097;-0.9182028852964159;0.953;0.0024455936732985456
54:34.9;0.0002293085342512592;-0.2650644207793612;-0.9180806467173285;0.953;5.580234986974229e-05
54:34.9;-0.010040087271482475;-0.26367056970141106;-0.9198208360965179;0.9520000000000001;0.0024350191920480993
54:34.9;-0.020447510550586107;-0.2616097888030551;-0.9233930593121894;0.953;0.004939477790063276
54:34.9;-0.030629256709787264;-0.25892715848912096;-0.9286856665116959;0.96;0.007365170512454816
54:34.9;-0.04021369183968999;-0.255695229785788;-0.9355127801100166;0.977;0.009619362614497359
54:34.9;-0.04884098944736314;-0.25201244362750774;-0.9436258036431953;0.977;0.0116146532124853
54:34.9;-0.056183699811781534;-0.2479994865906929;-0.9527276109296478;0.985;0.013274857517875799
54:34.9;-0.06196588470976869;-0.24379370680759357;-0.9624873502560857;0.996;0.014540193153344387
54:35.0;-0.06597942293102305;-0.23954189043737523;-0.9725552187011293;1.006;0.015371075439644449
54:35.0;-0.06809595347580107;-0.23539170931905098;-0.9825773299208342;1.016;0.015749951024404584
54:35.0;-0.06827239179014973;-0.23148246768025482;-0.9922101704093342;1.023;0.01568075233629691
54:35.0;-0.06654891038350833;-0.22793632968377195;-1.0011335475643932;1.031;0.015186109063217993
54:35.0;-0.06304044728714928;-0.22485154282450914;-1.0090611310275306;1.037;0.014303181025891645
54:35.0;-0.05792441211756683;-0.22229880312591385;-1.015748307233617;1.04;0.013079310996451174
54:35.0;-0.05142733762383341;-0.2203209629293203;-1.0209976699462635;1.0490000000000002;0.011568435076922163
54:35.0;-0.04381228921131241;-0.21893546503275513;-1.0246626944042325;1.0490000000000002;0.00982863005361126
54:35.0;-0.03536776329066356;-0.2181386145774572;-1.0266498720957882;1.052;0.007920680643821579
54:35.0;-0.026397690546106085;-0.21791088842024067;-1.02691927382488;1.053;0.005907193127776298
54:35.1;-0.01721128697268294;-0.2182226065643926;-1.0254834476125554;1.051;0.0038516049801190443
54:35.1;-0.008111726841211555;-0.21903930471404243;-1.0224044501503677;1.048;0.001816594943262743
54:35.1;0.000616210516095929;-0.22032605123857346;-1.017788708840208;1.044;0.00013818235346304108
54:35.1;0.008718344421432885;-0.2220498773555358;-1.011779667443326;1.035;0.0019587116538297704
54:35.1;0.01598166076543219;-0.22417977781484655;-1.0045489093766946;1.013;0.0035990628335354144
54:35.1;0.02224235241333224;-0.22668467310106133;-0.9962880219679274;1.0090000000000001;0.005023284591144975
54:35.1;0.027391654277225116;-0.22953064045619642;-0.987205220239656;1.0170000000000001;0.00620678030366958
54:35.1;0.03138007387565664;-0.23267838913981123;-0.9775298620340703;1.0170000000000001;0.00713740011366315
54:35.1;0.03421912567723378;-0.23608084818460198;-0.9675231393168187;1.016;0.007816116537574382
54:35.1;0.03597823601232988;-0.23968072815391997;-0.9574878550307775;1.008;0.008256695258821556
54:35.2;0.03677498377410391;-0.24340902250931476;-0.947768594030124;0.9890000000000001;0.008483820586078748
54:35.2;0.03675902286161689;-0.2471858218355095;-0.9387366224709625;0.9690000000000001;0.008529651280402829
54:35.2;0.03609271788117684;-0.25092396328983413;-0.9307597540431046;0.951;0.008429451603106672
54:35.2;0.03493314917962222;-0.25453495989595043;-0.9241635043184703;0.9390000000000001;0.008217391770950032
54:35.2;0.033419363645413175;-0.25793608257526174;-0.9191934019429044;0.934;0.00792350203814849
54:35.2;0.03166628799812372;-0.26105728589010646;-0.9159881440156863;0.937;0.007572213112242516
54:35.2;0.029764584531821035;-0.26384662328017644;-0.9145699149871708;0.951;0.00718237830645092
54:35.2;0.027784675438414348;-0.2662728947979475;-0.9148529181527956;0.951;0.006768361796900557
54:35.2;0.025782697256595617;-0.2683247111150202;-0.9166660789208833;0.9620000000000001;0.006341619494275652
54:35.2;0.023806092362611525;-0.2700061160149341;-0.9197832799154461;0.9670000000000001;0.005912174262107276
54:35.3;0.021897133325600296;-0.27133011998167983;-0.9239546280933972;0.973;0.0054895395042812
54:35.3;0.020093751718728393;-0.27231218815559227;-0.9289335532794025;0.977;0.005082913998963745
54:35.3;0.018428137656976637;-0.2729653584775225;-0.9344961993091739;0.981;0.004700743153505131
54:35.3;0.01692428820584953;-0.27329764389220007;-0.9404515664581995;0.983;0.00434993466682537
54:35.3;0.01559572177788371;-0.27331163094931155;-0.9466427371086806;0.986;0.004035057240461502
54:35.3;0.014444061406619123;-0.2730060251048193;-0.9529409504545732;0.987;0.003757747097809502
54:35.3;0.013458729779328266;-0.2723787703059942;-0.9592353605329103;0.996;0.0035164343058703426
54:35.3;0.012617930404526568;-0.2714310146428744;-0.965421744276091;0.996;0.0033064706655411315
54:35.3;0.011891038013112691;-0.27017099682966506;-0.9713929794950374;1.003;0.0031207102904028364
54:35.3;0.011242128581550307;-0.2686170950990227;-0.9770332933237312;1.011;0.002950472420201338
54:35.4;0.010633934821009295;-0.2667995929500499;-0.9822174132860161;1.0170000000000001;0.002786677980675464
54:35.4;0.010031434688873176;-0.2647610553847442;-0.9868144882493313;1.024;0.002620913396366825
54:35.4;0.00940450025714996;-0.2625555052019897;-0.9906952639969451;1.026;0.0024462280311932506
54:35.4;0.008729313727150035;-0.2602466631880377;-0.993740423130163;1.0290000000000001;0.002257554420612236
54:35.4;0.007988598120678701;-0.25790538016094244;-0.9958484650212278;1.03;0.002051749017639772
54:35.4;0.0071711162799479354;-0.2556061641391607;-0.9969423954921998;1.031;0.0018273769923400898
54:35.4;0.006271179389198949;-0.2534225120591884;-0.9969751488418882;1.0270000000000001;0.0015844507653787576
54:35.4;0.005288844603687061;-0.25142110410843405;-0.9959339203544894;1.0270000000000001;0.0013243203732193874
54:35.4;0.004230966129442316;-0.24965598637260597;-0.993843595638197;1.0270000000000001;0.0010497830984796705
54:35.4;0.003112601211082431;-0.24816443689105272;-0.9907691745414461;1.025;0.0007653066963655121
54:35.5;0.0019580839493055988;-0.246965358971855;-0.9868165200679967;1.021;0.0004772036526419122
54:35.5;0.0008015148622069658;-0.2460598671358329;-0.9821304116743775;1.014;0.00019369638884695435
54:35.5;-0.00031322964240277306;-0.2454334887805472;-0.9768892287950733;1.008;7.5100356151348e-05
54:35.5;-0.0013331928734718402;-0.24505975011940137;-0.9712964684877889;1.001;0.0003173341267600125
54:35.5;-0.0021984477078101114;-0.24490490007923268;-0.9655701319864515;0.9940000000000001;0.0005198732097574274
54:35.5;-0.0028461389053029834;-0.24493300963948064;-0.9599314041670886;0.991;0.0006691810141386547
54:35.5;-0.003216338695751801;-0.2451103813789702;-0.9545938950164051;0.983;0.0007525617380490512
54:35.5;-0.0032590751773054582;-0.24540854965527076;-0.9497541693108079;0.983;0.0007596180502631714
54:35.5;-0.0029414546874936024;-0.24580568541446646;-0.9455837107042071;0.977;0.0006836818780506505
54:35.5;-0.0022535896580833776;-0.24628653195848066;-0.9422220319355911;0.9740000000000001;0.000522960346143367
54:35.6;-0.001212388361688303;-0.24684123529614527;-0.9397704955490827;0.968;0.00028124271119665036
54:35.6;0.00013724741559895554;-0.2474635848235535;-0.9382868405975172;0.966;3.186772792737908e-05
54:35.6;0.0017241040461023138;-0.24814903184129564;-0.9377812465172924;0.9640000000000001;0.00040121540500269535
54:35.6;0.003455367075442579;-0.24889261502720103;-0.9382153206257675;0.965;0.0008068795747968232
54:35.6;0.005224156594038073;-0.24968702314236296;-0.9395052961852906;0.968;0.0012254945682028718
54:35.6;0.006919321721345461;-0.2505213255060163;-0.9415301014957046;0.9740000000000001;0.0016320837258197967
54:35.6;0.008436527890392048;-0.25138079999365665;-0.9441439030952883;0.985;0.0020023225739303117
54:35.6;0.009689010943025263;-0.2522477372462816;-0.9471912270892922;0.985;0.0023149648038971737
54:35.6;0.010615860745494601;-0.2531027269515475;-0.9505214819013442;0.99;0.0025539593098849443
54:35.6;0.01118609839203333;-0.2539260500356145;-0.9539998040263152;0.992;0.002709780901466977
54:35.7;0.011398125250558345;-0.2546990594571832;-0.9575126154788236;0.993;0.0027797470040973396
54:35.7;0.011275519838718547;-0.25540545156089317;-0.9609679518133766;0.9940000000000001;0.002767423602483244
54:35.7;0.010860909053263201;-0.256032188240704;-0.9642918735855772;0.996;0.0026814472132163348
54:35.7;0.010209454942361536;-0.25656987575831935;-0.9674230192046813;0.998;0.00253410518560725
54:35.7;0.00938257460191216;-0.2570126726414869;-0.9703073597244736;1.001;0.002339838537165335
54:35.7;0.008441720135160834;-0.25735786335850097;-0.9728946193260974;1.004;0.0021136554504634967
54:35.7;0.007442158376744429;-0.2576049419022181;-0.9751371154015452;1.0090000000000001;0.0018694712258405409
54:35.7;0.006427428479674318;-0.25775398739487676;-0.976991068290587;1.0090000000000001;0.0016185765298656447
54:35.7;0.005425698781228418;-0.25780371135075897;-0.9784197541353244;1.011;0.0013685795837692584
54:35.7;0.004449176523363423;-0.25775023102107575;-0.9793975766583516;1.014;0.0011231499064186963
54:35.8;0.0034971766598332374;-0.25758755487399204;-0.9799142202261892;1.0170000000000001;0.0008827353281497499
54:35.8;0.002562621038408035;-0.25730993810157915;-0.979977988434423;1.0170000000000001;0.0006461855893960264
54:35.8;0.0016405558319200378;-0.2569153712138592;-0.979617193578823;1.016;0.0004128929835580384
54:35.8;0.0007360482832157461;-0.25640908649015187;-0.9788786574152921;1.013;0.0001847432481643952
54:35.8;-0.0001314096361266459;-0.25580601162770955;-0.9778232509412946;1.01;3.286989517317889e-05
54:35.8;-0.0009285805937304859;-0.25513131857126997;-0.9765194220070326;1.006;0.00023134720775063174
54:35.8;-0.001613912162152904;-0.2544187726484612;-0.9750362511548235;1.005;0.00040035919774135387
54:35.8;-0.002145854988206778;-0.25370739651453483;-0.9734375931079988;1.005;0.000529958195857887
54:35.8;-0.0024913397873162235;-0.25303737083520783;-0.9717783426597524;1.003;0.0006126110784436901
54:35.8;-0.0026317921314319877;-0.2524459013681707;-0.9701029843612593;1.002;0.0006445220040069639
54:35.9;-0.002565367330477179;-0.2519635789341489;-0.968445878276617;0.9990000000000001;0.0006259832079982548
54:35.9;-0.0023057565949511243;-0.25161179838503156;-0.9668326495082339;0.998;0.0005609133405796523
54:35.9;-0.0018787940171988923;-0.2514015930777698;-0.9652823885456384;0.998;0.00045593357676677605
54:35.9;-0.001318054114536467;-0.2513336503371357;-0.9638105709024037;0.995;0.0003192828308449324
54:35.9;-0.0006603803610302053;-0.2513990345665303;-0.9624325019437825;0.995;0.0001597820673055301
54:35.9;5.783073406874392e-05;-0.2515806588702906;-0.9611669643496776;0.996;1.3984108686996593e-05
54:35.9;0.0008030874181934434;-0.2518560299325849;-0.9600395722387093;0.998;0.00019417991645793412
54:35.9;0.001546118759625911;-0.25220138293024225;-0.9590848491800614;0.998;0.0003739791100084918
54:35.9;0.002262560046748761;-0.2525963476052784;-0.9583455502800535;0.996;0.0005477082860387905
54:35.9;0.002933327979887733;-0.25302765430244006;-0.9578680206223606;0.988;0.000710942191109822
54:36.0;0.003544502360376337;-0.25349041451299476;-0.9576938567608847;0.9840000000000001;0.0008604854140299979
54:36.0;0.004086365948083701;-0.2539861180335007;-0.9578502677823418;0.983;0.0009941338505017002
54:36.0;0.004551795861708266;-0.2545177152712283;-0.9583427876241599;0.986;0.0011102522742228928
54:36.0;0.0049349320669904145;-0.2550835784866724;-0.9591531339711578;0.993;0.001207401273981517
54:36.0;0.005231075207938933;-0.2556728171821764;-0.9602424386904133;0.998;0.0012842702340010515
54:36.0;0.005437916471436119;-0.2562639349477256;-0.961557397906441;1.002;0.001339970497167153
54:36.0;0.005557220341479051;-0.25682750146857836;-0.9630356803914016;0.997;0.0013744898005743015
54:36.0;0.0055959003869510025;-0.25733191953182255;-0.9646079930229846;0.997;0.001389039163968209
54:36.0;0.005566209223946259;-0.25775019515137126;-0.9661969168182415;0.995;0.0013861945171468847
54:36.0;0.005485610481284626;-0.2580655422841443;-0.9677150436235877;0.996;0.0013699429405648826
54:36.1;0.005376854699546023;-0.2582745127269602;-0.9690655689887303;0.998;0.0013457457431270343
54:36.1;0.005267831967900511;-0.2583873197038038;-0.9701475118904898;1.004;0.0013205075378303537
54:36.1;0.005189826811155943;-0.25842568698195817;-0.9708659019151584;1.011;0.0013021103564988597
54:36.1;0.0051729496333635105;-0.25841891556775975;-0.971145066511881;1.015;0.001298215104716061
54:36.1;0.005238973136785951;-0.2583989449105376;-0.970941258720379;1.014;0.0013144070014410219
54:36.1;0.00539355280464621;-0.25839516324508277;-0.9702503551034344;1.0090000000000001;0.0013522068305903405
54:36.1;0.005620670965029083;-0.25842982012712157;-0.9691079064055927;0.998;0.0014076767072452078
54:36.1;0.005881679182413634;-0.25851498956612956;-0.9675819317922669;0.998;0.0014712104873906625
54:36.1;0.00611987215200287;-0.25865179081871087;-0.9657616518617645;0.997;0.0015287194663236294
54:36.1;0.006269783814334837;-0.25883197400416663;-0.9637459809340371;0.993;0.0015639867551258556
54:36.2;0.006268823437613132;-0.25904132628540066;-0.9616342962579749;0.991;0.0015615828721233845
54:36.2;0.006067971919513162;-0.25926387881897583;-0.9595207018842918;0.992;0.0015095236643199584
54:36.2;0.005638771249574188;-0.25948561841420625;-0.9574924138961232;0.993;0.0014009837930525342
54:36.2;0.004975670519558396;-0.2596964358870601;-0.955632035724003;0.996;0.0012348332183202547
54:36.2;0.004094625267988089;-0.25988972060609905;-0.9540218914379341;0.997;0.0010152233659033681
54:36.2;0.0030295011354518225;-0.260060370045461;-0.9527470419963859;0.995;0.0007506247928116669
54:36.2;0.0018274071495598088;-0.2602030953071377;-0.9518933839557353;0.985;0.00045262244525131863
54:36.2;0.0005436087636603976;-0.26031260290537467;-0.951539110098848;0.985;0.00013465059833759425
54:36.2;-0.0007632684555459038;-0.2603857107472063;-0.9517409911189739;0.98;0.0001891530012097389
54:36.2;-0.002034960522482573;-0.2604241970576154;-0.9525193137259275;0.976;0.0005047904298724008
54:36.3;-0.003215839452236407;-0.2604370228849896;-0.9538459406730004;0.977;0.0007988685366474544
54:36.3;-0.004253912014926139;-0.26044099349125943;-0.9556395142929542;0.9840000000000001;0.0010587463966333591
54:36.3;-0.005101091087222684;-0.26045939926250594;-0.9577704304640883;0.99;0.001272519768803192
54:36.3;-0.005713593387754434;-0.2605187562931086;-0.9600755997185206;0.998;0.0014290708436568366
54:36.3;-0.006053318163012274;-0.26064436228551213;-0.9623800867749126;1.0070000000000001;0.0015184079356680216
54:36.3;-0.006090508886354879;-0.26085568436620954;-0.9645207317255515;1.0090000000000001;0.0015323763939293917
54:36.3;-0.005807309677041272;-0.2611626042649106;-0.9663663921052563;1.008;0.001465641636344765
54:36.3;-0.0052014011804587664;-0.2615633721859309;-0.9678307471442755;1.008;0.0013167298919626287
54:36.3;-0.004288588238776052;-0.2620446794126983;-0.9688761622925117;1.008;0.001088824707498147
54:36.3;-0.0031030732067786893;-0.2625837479773601;-0.9695094037314342;1.005;0.0007899723491175175
54:36.4;-0.0016947042705491623;-0.2631521064408849;-0.9697711108261153;1.003;0.00043248397207158544
54:36.4;-0.00012373848348299282;-0.2637205743352052;-0.9697214119152306;1.001;3.1644321420216164e-05
54:36.4;0.001545357777108975;-0.2642646058598826;-0.9694244508748601;0.9990000000000001;0.0003958968182759984
54:36.4;0.003249639389072058;-0.2647687936763558;-0.9689347046728543;0.998;0.0008336744244970652
54:36.4;0.004932320794620559;-0.2652294160379707;-0.9682875977452698;0.998;0.0012667105084011336
54:36.4;0.006546430278136229;-0.2656544764544704;-0.9674960470317612;0.9990000000000001;0.0016825612571063563
54:36.4;0.008057849489681544;-0.2660613793866077;-0.9665533215176895;1.004;0.002072176799756834
54:36.4;0.00944768254271967;-0.2664728234788589;-0.9654411939502759;1.004;0.0024305470981162507
54:36.4;0.010713050029159057;-0.2669116699175428;-0.9641411133163837;1.005;0.0027569018073475777
54:36.4;0.011865121344173503;-0.26739562369229364;-0.9626455395629117;1.004;0.003054167715616615
54:36.5;0.012923987307120969;-0.26793253864190114;-0.960966900051824;1.003;0.0033275945990900347
54:36.5;0.01391126434666805;-0.2685169916256465;-0.9591423924222476;1.002;0.0035827909013406035
54:36.5;0.014842350000260393;-0.26912862007388366;-0.9572335593995127;0.997;0.0038236705770276725
54:36.5;0.015720424768256868;-0.26973266623504777;-0.955320325309042;0.991;0.0040508563224501155
54:36.5;0.01653339776271345;-0.27028301912668284;-0.9534903801307804;0.988;0.004260859280587671
54:36.5;0.017253696783487173;-0.27072763598779753;-0.9518261771257833;0.982;0.004446030084437539
54:36.5;0.017840012690565624;-0.2710156724810148;-0.9503926477293427;0.981;0.004595075306135098
54:36.5;0.018240078165852824;-0.27110510309705604;-0.9492287230036834;0.981;0.004693915410081086
54:36.5;0.018394167499585525;-0.2709692390190247;-0.9483449270868843;0.986;0.004726791588188213
54:36.5;0.018239791898001425;-0.27060066734824406;-0.9477275966433713;0.99;0.004677698965968736
54:36.6;0.017718171150772545;-0.2700118932508246;-0.9473479908365781;0.991;0.004532223568537358
54:36.6;0.016782117623455568;-0.2692329527076901;-0.9471728802425314;0.987;0.004279610353827675
54:36.6;0.015403712786028938;-0.268306784917805;-0.9471734296228986;0.9840000000000001;0.003914592629656015
54:36.6;0.013579731050423692;-0.26728305429190363;-0.9473312097896476;0.9840000000000001;0.003438463665712436
54:36.6;0.011333497769459827;-0.26621097668646565;-0.9476421828310967;0.986;0.002859132661215953
54:36.6;0.008713033787767922;-0.26513198691906154;-0.948119768876127;0.99;0.0021902552328662023
54:36.6;0.005786344730894464;-0.26407355397475524;-0.9487967250956912;0.9890000000000001;0.001449780957867443
54:36.6;0.0026356308327488485;-0.26304566415645014;-0.9497241409972418;0.9890000000000001;0.00065843544909166
54:36.6;-0.0006473649506637869;-0.26204119121694436;-0.9509657207804119;0.9890000000000001;0.0001613182899662703
54:36.7;-0.003963519518061897;-0.26104052830517;-0.9525866693448817;0.986;0.000985583537072112
54:36.7;-0.0072063386341773205;-0.26001967549483046;-0.9546381651098191;0.983;0.0017887912881337324
54:36.7;-0.01026112823046836;-0.25895980754301284;-0.9571400939267604;0.9840000000000001;0.0025433316010464928
54:36.7;-0.013004655820928569;-0.2578557790184247;-0.960065880014259;0.985;0.003219413548411282
54:36.7;-0.015306612790777321;-0.25672157556917663;-0.9633331247853467;0.9890000000000001;0.0037854538818617046
54:36.7;-0.01703426058382503;-0.25559203230969735;-0.9668024173455517;0.993;0.004209284939657093
54:36.7;-0.018061056211090144;-0.25452119873778056;-0.9702850472683735;0.9990000000000001;0.004460324366964634
54:36.7;-0.018278721249084674;-0.2535779510649049;-0.973558980371696;1.012;0.004512524423126541
54:36.7;-0.017610949003415987;-0.2528392032213679;-0.9763910637123427;1.012;0.004347613898835103
54:36.7;-0.016026440010065507;-0.25238109053465085;-0.9785620420070756;1.0170000000000001;0.0039580587890494495
54:36.8;-0.01354933084996869;-0.25226896620290346;-0.9798904963619973;1.021;0.00334933988081484
54:36.8;-0.010265909421910104;-0.252547619568462;-0.9802524220059655;1.021;0.0025414328045791855
54:36.8;-0.006326966758280412;-0.253233463746906;-0.9795939739805433;1.018;0.0015695051782971708
54:36.8;-0.0019447850819971637;-0.2543101746378065;-0.9779358372248029;1.015;0.00048366617035361403
54:36.8;0.0026165787435735934;-0.25572831125435325;-0.9753691205136358;1.0090000000000001;0.0006526519225880211
54:36.8;0.007058188268405668;-0.25740844545313196;-0.9720441445516823;1.0070000000000001;0.0017660460297957918
54:36.8;0.011068864259608948;-0.25924694187394964;-0.9681541940973807;1.004;0.0027781854652572952
54:36.8;0.014350482547145969;-0.2611236621943299;-0.9639162666193754;0.987;0.003612035766958592
54:36.8;0.016642422498780396;-0.2629110198099902;-0.959551141997908;0.987;0.0041984932528752366
54:36.8;0.017742556113391972;-0.26448378515107074;-0.9552661550229554;0.985;0.0044826995351222865
54:36.9;0.017523668988066673;-0.26572888552452373;-0.951244193625533;0.9840000000000001;0.00442951142261859
54:36.9;0.01594488975407742;-0.2665541496498688;-0.9476404454690973;0.987;0.004027639179888368
54:36.9;0.013056935155297702;-0.2668948024045072;-0.9445856694648433;0.9890000000000001;0.0032917187105228336
54:36.9;0.008999088427520015;-0.2667169258302676;-0.9421927888863773;0.9890000000000001;0.002261459800683297
54:36.9;0.003986748412460177;-0.2660177403652215;-0.9405626655693783;0.9840000000000001;0.0009975097884507616
54:36.9;-0.0017089081544654316;-0.26482291431901084;-0.9397853925077644;0.9790000000000001;0.00042530743315733784
54:36.9;-0.007785324681524601;-0.26318146122113484;-0.9399354427405691;0.973;0.0019258836634202324
54:36.9;-0.013932935459302484;-0.2611594472690153;-0.9410615891651785;0.97;0.003424257483293412
54:36.9;-0.019856356434738622;-0.25883419498943483;-0.943174511147729;0.97;0.004847449204063544
54:36.9;-0.02529015886939182;-0.2562902625759116;-0.9462358260706242;0.9740000000000001;0.0061331424338524395
54:37.0;-0.030008222784225307;-0.2536173449943386;-0.9501518049795542;0.978;0.007231230828863576
54:37.0;-0.03382745115157205;-0.25090927939919516;-0.9547735926427648;0.9840000000000001;0.008103756769767904
54:37.0;-0.03660797526904757;-0.24826315213849165;-0.9599041124260073;0.99;0.008724003414639392
54:37.0;-0.03825230088293365;-0.24577778791169547;-0.965310654503854;0.998;0.009075431726054236
54:37.0;-0.03870530057973315;-0.2435510894879298;-0.9707414975086781;1.005;0.009150906469402066
54:37.0;-0.03795564086230295;-0.2416757600691825;-0.9759445016451412;1.01;0.008952298269708696
54:37.0;-0.03603764317937813;-0.24023322809237024;-0.9806854025476166;1.014;0.008490224397735483
54:37.0;-0.03303183404717708;-0.23928627755230983;-0.984763748772393;1.021;0.007783636295759364
54:37.0;-0.029062979382101818;-0.2388716435818893;-0.9880248875367965;1.021;0.006859186569846129
54:37.0;-0.024295288735514713;-0.23899408250837492;-0.9903668453510419;1.021;0.005750496000154112
54:37.1;-0.018924782475601143;-0.23962307016800258;-0.9917417037279282;1.021;0.0044973646375581575
54:37.1;-0.013169023725423641;-0.240692833373029;-0.992152225105466;1.021;0.00314481462250174
54:37.1;-0.007255243594569601;-0.24210611505180435;-0.9916452530719866;1.02;0.0017418634029546676
54:37.1;-0.0014086054882124185;-0.24374153324649808;-0.99030337151127;1.0190000000000001;0.00034000646308044645
54:37.1;0.004158074960404686;-0.24546350603684858;-0.9882359975163792;1.016;0.0010086486624476254
54:37.1;0.00925300905924801;-0.24713312812107396;-0.9855709880316408;1.013;0.0022537298898929604
54:37.1;0.013713114375771917;-0.2486186302086182;-0.9824478537576707;1.011;0.003349494552992331
54:37.1;0.017411217582629212;-0.24980476868484855;-0.9790133971650266;1.013;0.004258125941653476
54:37.1;0.020262801893914575;-0.2506010136300066;-0.9754196812174898;1.013;0.004953062816571429
54:37.1;0.022231847971347668;-0.2509485768478171;-0.9718228471219025;1.011;0.005421848847179283
54:37.2;0.023335116195798068;-0.25082627440635596;-0.9683802786450157;1.0070000000000001;0.005667988123792237
54:37.2;0.023644125564647015;-0.2502548638915658;-0.9652438470697937;0.998;0.0057114032722551675
54:37.2;0.023283816475837386;-0.2492988820278018;-0.9625486412662658;0.9890000000000001;0.0055872381581630525
54:37.2;0.02242676119179597;-0.2480646438411262;-0.9603990587729814;0.9840000000000001;0.005342975144746173
54:37.2;0.02128223850125319;-0.24669336941385023;-0.958856134793391;0.981;0.005034174133181636
54:37.2;0.020080331904084158;-0.245349246233529;-0.9579302824811845;0.982;0.004719429659418781
54:37.2;0.019052156411921154;-0.2442032897672225;-0.9575820535147849;0.987;0.004455245565973648
54:37.2;0.01840827498843056;-0.24341497438381232;-0.9577308836283437;0.992;0.0042914482237631085
54:37.2;0.018318065860491974;-0.24311455453904438;-0.9582690598059024;0.992;0.0042675443358037345
54:37.2;0.018892867345493253;-0.24338928245482452;-0.9590765996819621;0.992;0.004410142478196551
54:37.3;0.02017509007011209;-0.244275947624186;-0.9600333733484154;0.991;0.004731322148982813
54:37.3;0.022134550652030634;-0.24576052543459692;-0.9610270756780964;0.992;0.005227793931601357
54:37.3;0.024672481160320746;-0.24778389844469575;-0.9619577913129581;0.9940000000000001;0.005880874670265463
54:37.3;0.027632940643770133;-0.25025126881679854;-0.9627406819778187;0.996;0.006657523623924213
54:37.3;0.030820346899443095;-0.2530425512027163;-0.9633079616779356;0.996;0.007512703167445258
54:37.3;0.03402049457137695;-0.2560219159750192;-0.9636106731095975;0.998;0.008393041449109066
54:37.3;0.03702126033475325;-0.25904618700096277;-0.9636203895632837;0.9990000000000001;0.009241327993682697
54:37.3;0.03962925317685192;-0.26197279207955215;-0.9633307945873336;1.002;0.010001094255614618
54:37.3;0.04168052847245654;-0.2646675644401586;-0.9627589030588675;1.002;0.01062065939199676
54:37.3;0.04304615351101995;-0.26701158709638856;-0.9619454395467146;1.002;0.011056429432086463
54:37.4;0.04363500993611144;-0.2689061004304418;-0.9609536839000667;1.003;0.011275561809795963
54:37.4;0.04339593467935991;-0.270275517467184;-0.9598660316829738;1.0;0.0112581330579178
54:37.4;0.04231983166429353;-0.2710694042450943;-0.9587777316843997;0.998;0.010998725707378029
54:37.4;0.04044079535867894;-0.27126406691180693;-0.9577879016545464;0.995;0.010507062216779443
54:37.4;0.03783445088846763;-0.2708636072700453;-0.9569889092274608;0.99;0.009807199227353148
54:37.4;0.03461219643627886;-0.269899573537603;-0.9564561857116488;0.988;0.008935038710290345
54:37.4;0.030911494778453227;-0.2684281431276395;-0.9562410453297131;0.988;0.007934424555587856
54:37.4;0.02688376772607718;-0.2665245509441155;-0.9563685368598571;0.995;0.006852556654016172
54:37.4;0.022682186101591815;-0.26427581979691855;-0.9568405225302279;0.995;0.005735640169431242
54:37.4;0.018451569711064826;-0.26177359814606677;-0.957641970936683;0.997;0.004625538847052453
54:37.5;0.014321541135850218;-0.2591085300713451;-0.9587473907646739;0.997;0.0035577519089059263
54:37.5;0.010402601324520342;-0.2563667322924276;-0.9601248725958902;0.996;0.0025605386928938584
54:37.5;0.006784217933056082;-0.2536283335081202;-0.9617366040386433;0.993;0.0016548312152538116
54:37.5;0.0035344521796905498;-0.2509676585326786;-0.9635363352677949;0.99;0.0008546887069688367
54:37.5;0.00070098968025238;-0.24845441588204326;-0.9654657100714281;0.993;0.00016814935211260598
54:37.5;-0.0016866820098722826;-0.24615510461193135;-0.9674520022207393;0.996;0.0004016719335465535
54:37.5;-0.003614322809745236;-0.24413363133894073;-0.9694091886956511;0.998;0.0008553851010522311
54:37.5;-0.0050796252041278;-0.24245011688551182;-0.9712428965339953;1.002;0.001196139749082488
54:37.5;-0.006089088918733887;-0.2411575909863131;-0.9728584506086982;1.002;0.0014285745491650643
54:37.5;-0.006655720118580368;-0.2402973560363185;-0.9741705198917084;1.006;0.0015580415177110754
54:37.6;-0.006797982367166796;-0.2398943576933721;-0.9751127035107587;1.008;0.001590211469859177
54:37.6;-0.006540034350920072;-0.2399537811258022;-0.9756454687219113;1.011;0.0015310862598355208
54:37.6;-0.005912909492246998;-0.24045961646637004;-0.9757608760611722;1.01;0.0013873523757071834
54:37.6;-0.004955994607913454;-0.24137523198778643;-0.9754827570788376;1.008;0.0011669254897646367
54:37.6;-0.0037180340603037284;-0.24264540313247293;-0.9748618192551993;1.003;0.0008794851149111349
54:37.6;-0.002257055835839616;-0.2441992076101468;-0.9739665064274291;0.998;0.0005368223335370021
54:37.6;-0.0006389369161833012;-0.24595358107782567;-0.9728719751775662;0.9940000000000001;0.00015288568545730527
54:37.6;0.0010654940589153448;-0.24781764279147497;-0.971650508836516;1.002;0.00025656259323648587
54:37.6;0.0027847122569157165;-0.24969773610816492;-0.9703661031822457;1.002;0.0006747308207256761
54:37.6;0.004451529480059698;-0.2515025678252566;-0.9690737819529853;1.003;0.001084946995182207
54:37.7;0.006007936821734694;-0.2531476549249789;-0.9678219670808729;1.005;0.0014719557042066332
54:37.7;0.007408855167181175;-0.2545588260994096;-0.9666553852108171;1.003;0.0018231018815879276
54:37.7;0.008624240019599395;-0.2556749753231866;-0.9656164369755164;0.9990000000000001;0.0021291865167778075
54:37.7;0.009639390231822996;-0.25645022152345687;-0.9647440510169111;0.996;0.002384870216723861
54:37.7;0.01045366934462482;-0.2568556228616745;-0.9640704230998765;0.996;0.002588609827599424
54:37.7;0.011078035195110133;-0.25688065482538175;-0.9636170190474499;0.998;0.0027421966879247824
54:37.7;0.011531739451479756;-0.256534329695491;-0.9633911148998927;0.997;0.002849987459686872
54:37.7;0.011838490704109143;-0.25584538045993155;-0.9633833301547878;0.992;0.002917917740658475
54:37.7;0.01202258371034541;-0.25486105195088726;-0.9635662693568355;0.992;0.0029524521626463564
54:37.7;0.012105928218820785;-0.2536446917971189;-0.9638949520436986;0.993;0.0029597401117093425
54:37.8;0.012107015524811283;-0.2522727118065167;-0.9643101864822686;0.996;0.002945263324502955
54:37.8;0.012042261952357866;-0.25083115668788303;-0.9647454648107879;1.0;0.0029140855448351894
54:37.8;0.011929085775726725;-0.24941151354548086;-0.9651365946453987;1.003;0.0028715239450906034
54:37.8;0.011789058347088509;-0.24810511921757392;-0.965431975430391;1.004;0.0028238168222836117
54:37.8;0.011649088722610232;-0.24699578760840227;-0.9656008342710288;1.0;0.002778299955356882
54:37.8;0.011539281103400356;-0.24615109016812708;-0.9656372530607941;0.998;0.002742802449355555
54:37.8;0.011487769833818738;-0.24561384146488877;-0.9655592682385329;0.995;0.002724378850243152
54:37.8;0.011514543533250663;-0.24539612850369538;-0.965403840577489;0.995;0.0027278686521791298
54:37.8;0.011626756531161108;-0.24547796637289868;-0.9652192600055715;0.995;0.0027548444023082156
54:37.8;0.011817036883366862;-0.24581129344790645;-0.9650564645114488;0.995;0.0028032584977038285
54:37.9;0.012064886265781827;-0.24632837720449494;-0.9649602876684267;0.9940000000000001;0.0028677884980560565
54:37.9;0.012340395760545044;-0.2469526578448262;-0.9649614008381209;0.992;0.002940713627610133
54:37.9;0.012609192042665005;-0.24760972827298613;-0.9650699388546501;0.992;0.0030131014240838637
54:37.9;0.012837595527461844;-0.24823635952089765;-0.9652721390386866;0.995;0.003076088690735886
54:37.9;0.012997296582912599;-0.2487861428128189;-0.9655311225403641;0.996;0.0031220905387698496
54:37.9;0.013068991640067988;-0.24923129180939058;-0.9657919963211202;0.997;0.003145779302420835
54:37.9;0.013044242019581933;-0.24956118752266418;-0.9659903322530842;1.001;0.00314462361499306
54:37.9;0.012924960590752823;-0.24977887884573452;-0.9660623822151019;1.002;0.0031188185654877805
54:37.9;0.012720702711411814;-0.2498966901196679;-0.9659550831371896;1.001;0.0030706374279703924
54:37.9;0.012444731920264716;-0.24993175989552838;-0.965633985314231;1.001;0.0030034439749207467
54:38.0;0.012110056631373581;-0.24990213398343533;-0.9650879225270065;0.9990000000000001;0.002920673562513872
54:38.0;0.011726314235466433;-0.24982385979024355;-0.9643301798395022;0.997;0.002825017878574175
54:38.0;0.011297832935756317;-0.24970936729683793;-0.9633965052321865;0.996;0.0027179098603223005
54:38.0;0.010822761131359757;-0.24956726067355087;-0.9623406070361927;0.993;0.0025992885701728806
54:38.0;0.010293021835018746;-0.24940324560780974;-0.9612281027621394;0.99;0.0024675812092859253
54:38.0;0.009695005107138487;-0.24922140455122305;-0.9601302256480265;0.9890000000000001;0.0023198693299091235
54:38.0;0.009011159779861517;-0.24902495470453706;-0.9591186701793837;0.991;0.0021522658024351275
54:38.0;0.008222728567871688;-0.24881619997781657;-0.9582624157381695;0.991;0.001960555145501722
54:38.0;0.007313656833027911;-0.2485961744490414;-0.9576262464216061;0.991;0.0017411053923186487
54:38.0;0.006275302136232145;-0.24836483820676153;-0.9572696970768474;0.992;0.0014919664708366914
54:38.1;0.005111168302821599;-0.24812238901849365;-0.9572450094631668;0.9890000000000001;0.0012139736123500985
54:38.1;0.0038406451717492938;-0.24787156246353095;-0.9575934058096126;0.987;0.000911616205097243
54:38.1;0.0025008346051859425;-0.24762016644071702;-0.9583401161619283;0.988;0.0005934589031091172
54:38.1;0.0011459804546720732;-0.2473828656924312;-0.9594894593514597;0.9890000000000001;0.00027201135555271965
54:38.1;-0.00015552181819462847;-0.24718151137804503;-0.9610213107341791;0.992;3.694369469849857e-05
54:38.1;-0.001326286127239593;-0.24704389917011946;-0.9628896190066663;0.992;0.00031549164669443253
54:38.1;-0.002286801491867918;-0.24700126918052717;-0.9650229811633066;0.993;0.0005450863511216211
54:38.1;-0.0029632394625400847;-0.2470849331801329;-0.9673271466979162;0.997;0.0007082496819814255
54:38.1;-0.003295117236097525;-0.24732243406164;-0.969689532735287;0.997;0.0007902547056004664
54:38.1;-0.003241601245666654;-0.2477337857830654;-0.9719859563467088;1.002;0.000780557354613597
54:38.2;-0.0027854798037003333;-0.2483283562824097;-0.974089633672369;1.0070000000000001;0.0006737910677939613
54:38.2;-0.001934415314580219;-0.24910274261019072;-0.9758819618395602;1.011;0.0004702464455328637
54:38.2;-0.0007198512012948055;-0.2500398237801639;-0.9772637104982992;1.015;0.00017589912940632873
54:38.2;0.000805476700643231;-0.25110914727278827;-0.9781644930270118;1.016;0.0001978460617447655
54:38.2;0.0025706032131485408;-0.2522686451431153;-0.9785483240454255;1.015;0.0006345715514033448
