Time;AccX;AccY;AccZ;Acc-old;Acc-trns
56:42.3;0.08355417490095836;-0.30992435832328613;-0.9254310848313734;0.98;0.023964476634365777
56:42.3;0.07018768959077049;-0.30051691736501845;-0.9418071441357467;0.9890000000000001;0.019865150172939425
56:42.3;0.05729799222866503;-0.29141842596218664;-0.9568874058260999;1.025;0.015977809943019016
56:42.3;0.045322564655306395;-0.2828945609804357;-0.9696322292611542;1.062;0.012432146444636418
56:42.3;0.03468220903340743;-0.2752279089661008;-0.9792286568289693;1.073;0.009347238767782767
56:42.3;0.02574881260066747;-0.268699214461849;-0.9851766214527408;1.073;0.006816127421660607
56:42.3;0.018809089121233538;-0.26355352671392124;-0.9873392574085471;1.0590000000000002;0.004894439916566115
56:42.3;0.014034912299271066;-0.2599616227820928;-0.9859459604625244;1.035;0.00359726187150878
56:42.3;0.01146703984782945;-0.25798833312065744;-0.9815479153342238;1.0070000000000001;0.0029037745409182976
56:42.4;0.011013805464695724;-0.25757634940838753;-0.974936239315003;0.997;0.0027657925271534394
56:42.4;0.012462922134696817;-0.25854941442148127;-0.9670387068416804;0.985;0.0031160706639784975
56:42.4;0.01550337205788737;-0.2606334573426447;-0.9588110664878129;0.971;0.003874265440897172
56:42.4;0.019755111008452272;-0.263490519097341;-0.9511352176625275;0.958;0.004950929362571714
56:42.4;0.024805184838970668;-0.2667595245933971;-0.94473301179177;0.9520000000000001;0.006251316586634163
56:42.4;0.03024753940461274;-0.27009805532287073;-0.9401030459140637;0.9520000000000001;0.007680455341869189
56:42.4;0.03572064770731045;-0.27321849239719453;-0.9374868364205019;0.9520000000000001;0.009149441698914412
56:42.4;0.040935931945726804;-0.27591207677322177;-0.9368681424933691;0.963;0.010581661470578525
56:42.4;0.04569270707967326;-0.2780574949551451;-0.93800487514713;0.981;0.011917539228576694
56:42.4;0.049878582011382226;-0.2796149656202875;-0.9404878324708085;0.9990000000000001;0.013116793815568677
56:42.5;0.053455889062418514;-0.28061019202394805;-0.9438153446181198;1.004;0.014157482446032028
56:42.5;0.05643721812832612;-0.2811138980761162;-0.947470031346607;1.006;0.015031883388164309
56:42.5;0.058856919330293196;-0.2812214892933746;-0.9509856389578124;1.012;0.015740553112793865
56:42.5;0.06074705475307291;-0.2810349673400741;-0.9539969621543529;1.015;0.016286680545060613
56:42.5;0.062123737548966614;-0.2806479127289488;-0.9562701374363356;1.013;0.01667247161243319
56:42.5;0.06298498296368867;-0.2801345081478085;-0.9577127528712226;1.004;0.016898139734756065
56:42.5;0.06331713054314272;-0.2795437299172293;-0.9583651890192734;1.004;0.016962974564039432
56:42.5;0.06310508724025034;-0.27889903466580923;-0.958377152499014;1.002;0.016867387965765788
56:42.5;0.06234212258423179;-0.27820258597801234;-0.9579747061572779;0.998;0.016614863960298636
56:42.5;0.061036795082594957;-0.27744216401531124;-0.9574225245871977;0.99;0.01621316585787694
56:42.6;0.059216397175964906;-0.2765986731474938;-0.9569854346730456;0.986;0.015674633713220067
56:42.6;0.05692738637571434;-0.27565252578908694;-0.956893700591743;0.983;0.01501574612465356
56:42.6;0.054233840920249986;-0.2745880104013382;-0.9573167726893674;0.9840000000000001;0.014256325455304489
56:42.6;0.051215245575868394;-0.27339580355655957;-0.9583490010771247;0.9890000000000001;0.01341883454805672
56:42.6;0.04796476870816523;-0.272074553080175;-0.9600083414997345;0.998;0.012528102145986523
56:42.6;0.044588463291511525;-0.2706324390781452;-0.9622462157845826;1.0090000000000001;0.011611506468161979
56:42.6;0.04120455947970568;-0.2690889441607964;-0.9649641073674002;1.0090000000000001;0.010699224239395589
56:42.6;0.03794076575210865;-0.267476404324331;-0.9680312256209939;1.011;0.009823832179171838
56:42.6;0.034927345798837175;-0.26584062471255965;-0.971298703679008;1.011;0.009018612807088095
56:42.6;0.03228550508572674;-0.26423981476140296;-0.9746086064762018;1.011;0.00831449896273999
56:42.7;0.030113506050519285;-0.26274132151302626;-0.9777984792514511;1.011;0.007736402558119266
56:42.7;0.02847478675547894;-0.26141627262955447;-0.9807032770811508;1.012;0.007300132199867147
56:42.7;0.027391879555735837;-0.2603330875993485;-0.9831566812435103;1.015;0.0070109026619544846
56:42.7;0.026847660493534705;-0.2595512689523553;-0.9849934322841069;1.0170000000000001;0.0068637734181505325
56:42.7;0.02679265417289844;-0.2591165218013225;-0.9860536104162602;1.0170000000000001;0.0068455976740713275
56:42.7;0.02715492047897792;-0.2590573512643171;-0.9861892442880329;1.015;0.006937527501597785
56:42.7;0.027848575191882607;-0.25938255551433165;-0.9852736262815631;1.015;0.007117059603242882
56:42.7;0.028778547000585984;-0.2600788806167898;-0.9832139320250604;1.018;0.007359053736143832
56:42.7;0.029841572806299153;-0.26110849944144027;-0.9799672664623129;1.02;0.007635795474427552
56:42.7;0.030925291617954334;-0.2624067274086965;-0.9755586389452426;1.022;0.007916662811028614
56:42.8;0.031908160986786775;-0.26388117044016435;-0.9700972733689789;1.021;0.008168183019907715
56:42.8;0.03266270031709908;-0.26541386449799453;-0.9637862586969939;1.015;0.008355191757627832
56:42.8;0.033063174984175096;-0.2668676645281935;-0.9569206493635652;1.008;0.008443381971718724
56:42.8;0.032996708987256596;-0.26809728976042335;-0.949870798263511;0.998;0.008402868877000536
56:42.8;0.03237506965965865;-0.26896421460853925;-0.9430503391443509;0.9840000000000001;0.00821183261836254
56:42.8;0.03114413061242329;-0.26935326214878536;-0.9368715177691046;0.948;0.007859202658785397
56:42.8;0.029289333630811137;-0.2691879362223836;-0.9316949619438145;0.948;0.007345795452509118
56:42.8;0.02683708136696469;-0.26844173173920405;-0.9277852830398688;0.9390000000000001;0.0066839438676571826
56:42.8;0.023852748132330962;-0.2671435819083244;-0.9252843540329254;0.9440000000000001;0.005896012366117266
56:42.8;0.020436153935397803;-0.2653765301375876;-0.9242092271226463;0.96;0.005012241369911174
56:42.9;0.01671562479850981;-0.26326943110027246;-0.9244742262691323;0.975;0.0040683457745412
56:42.9;0.012841661090366024;-0.2609823724888125;-0.9259296533620688;0.982;0.003103204323843301
56:42.9;0.008979920589568525;-0.2586878526134267;-0.9284048348224508;0.98;0.0021566810648544527
56:42.9;0.0053017170440851835;-0.25655099115671487;-0.9317432945897176;0.977;0.0012673206700164264
56:42.9;0.0019707698005993054;-0.25471225667079217;-0.9358227030042512;0.977;0.0004697635535905637
56:42.9;-0.0008721550937705906;-0.25327526614211104;-0.94055843560721;0.977;0.0002077649504909472
56:42.9;-0.0031223826057388093;-0.252300838026872;-0.9458936596866275;0.977;0.0007451558689274565
56:42.9;-0.004718086827512104;-0.25180725492216954;-0.9517803829766682;0.9790000000000001;0.0011307612492057965
56:42.9;-0.0056391856296015746;-0.25177589848622167;-0.9581562182796576;0.9790000000000001;0.0013604007658576684
56:42.9;-0.005899730012815403;-0.2521610660287455;-0.9649217557593721;0.981;0.0014354969294225867
56:43.0;-0.005536836028376679;-0.25290249487502736;-0.9719236179697645;0.9890000000000001;0.001360964859020064
56:43.0;-0.0045995295265437875;-0.25393835204763693;-0.9789480768420801;1.003;0.001143408366163523
56:43.0;-0.003139845206543762;-0.2552153412001589;-0.9857285881104638;1.014;0.0007899004600853038
56:43.0;-0.0012071590568997594;-0.2566927001463378;-0.9919674318332461;1.028;0.0003073798746165448
56:43.0;0.001153733672216558;-0.258339422557304;-0.9973678128495232;1.0490000000000002;0.0002972703544119974
56:43.0;0.00390035409604743;-0.2601272886437627;-1.0016695074941127;1.0490000000000002;0.0010162823989192965
56:43.0;0.006986523276558325;-0.262023335354508;-1.0046797129691705;1.0490000000000002;0.0018391989643830717
56:43.0;0.010354393181002291;-0.26398427525905915;-1.0062925559878142;1.047;0.0027505970331655047
56:43.0;0.013926884628153457;-0.265954170818025;-1.0064950867192668;1.046;0.003727970289841041
56:43.0;0.017602373659443483;-0.267865873013642;-1.005361425756244;1.044;0.004740354712951514
56:43.1;0.021252869985998353;-0.26964560602698395;-1.00303811924038;1.042;0.005748153687779033
56:43.1;0.024726804232905134;-0.27121897575196774;-0.9997235175481499;1.033;0.0067045243216923515
56:43.1;0.027857088921217132;-0.27251663217661515;-0.9956436754514734;1.026;0.007558448929878123
56:43.1;0.030473860459952914;-0.2734788499864195;-0.991027529103939;1.021;0.008259180132765003
56:43.1;0.032420125622370365;-0.27405925505797074;-0.9860846084449088;1.01;0.008761396729309978
56:43.1;0.03356787150187777;-0.2742279688088526;-0.9809887361022801;1.01;0.009030245797046083
56:43.1;0.033831594248905646;-0.27397405032826244;-0.9758706558202436;1.01;0.009045324523230886
56:43.1;0.033176208957183664;-0.2733070111915958;-0.9708208045108978;1.011;0.008802714270327534
56:43.1;0.03161789540264354;-0.2722571707526301;-0.9659005730953141;1.014;0.008314664103505743
56:43.1;0.029218908973817667;-0.2708743658519263;-0.9611576662473231;1.013;0.007607229828747084
56:43.2;0.02607906841170253;-0.2692244426755696;-0.9566397822953182;1.004;0.0067166852516288185
56:43.2;0.02232660647170518;-0.26738367537174823;-0.9524013178931576;0.9940000000000001;0.005685616907885954
56:43.2;0.01810960136796761;-0.26543244685832124;-0.9485003478545254;0.982;0.00455932337098143
56:43.2;0.013587517028283421;-0.26344984923495435;-0.9449870235601882;0.972;0.003382703249542494
56:43.2;0.008921855230166647;-0.26150977186366264;-0.9418880214447793;0.965;0.002197568227916141
56:43.2;0.0042660246568276515;-0.25967795412918965;-0.9391931123422198;0.965;0.0010404311377005709
56:43.2;-0.00024391213190125697;-0.2580096970197188;-0.9368487970275539;0.965;5.895748299106348e-05
56:43.2;-0.004495961767790138;-0.2565485802449199;-0.9347611879958219;0.966;0.0010781840352655826
56:43.2;-0.008406369862461632;-0.2553263491123554;-0.9328076006223925;0.9670000000000001;0.00200214812879569
56:43.2;-0.011921984373152008;-0.254363550014009;-0.9308547003873625;0.9670000000000001;0.002822833884119487
56:43.3;-0.0150202622229175;-0.2536703307422724;-0.9287804233752822;0.968;0.003538834419290031
56:43.3;-0.0177049571662208;-0.25324697582082883;-0.9264967311576094;0.9670000000000001;0.004154158278621673
56:43.3;-0.019996239654610008;-0.2530838907128433;-0.9239703968486943;0.9640000000000001;0.004675961131986207
56:43.3;-0.021916627662959355;-0.2531608556907948;-0.9212395533598696;0.9620000000000001;0.005111435213762074
56:43.3;-0.0234764164824626;-0.25344555624754483;-0.9184244954239041;0.9640000000000001;0.005464619717485863
56:43.3;-0.02466249957689099;-0.25389176220210063;-0.9157314768162597;0.9640000000000001;0.005733949231504792
56:43.3;-0.025433047355054923;-0.2544379977466431;-0.9134475459867057;0.9640000000000001;0.005911041148339696
56:43.3;-0.025719166798603345;-0.25500785461520736;-0.9119236523502323;0.958;0.005980932934698123
56:43.3;-0.025434030081653007;-0.2555130156912489;-0.911543800871861;0.948;0.005923873150327903
56:43.3;-0.02448915831372003;-0.255859436246273;-0.9126806859737578;0.9390000000000001;0.005718658433233842
56:43.4;-0.02281575039053692;-0.25595588253263446;-0.9156424518050917;0.929;0.00534719216352272
56:43.4;-0.020386727705303462;-0.25572271107395006;-0.9206193867144868;0.924;0.0047995104157097035
56:43.4;-0.017234103525907;-0.2550987085104974;-0.927641711489236;0.9279999999999999;0.004078281749334279
56:43.4;-0.013457096003664418;-0.25404543050653666;-0.9365591673583392;0.94;0.003201827700906297
56:43.4;-0.009218367065133903;-0.25255030564104114;-0.9470491086910274;1.003;0.002204826374574204
56:43.4;-0.0047284811062032785;-0.25062997645054197;-0.9586514319855093;1.003;0.0011360969572113304
56:43.4;-0.00022172328128448383;-0.24833379911651096;-0.9708189852209347;1.003;5.345463771052647e-05
56:43.4;0.004072309721422875;-0.2457457361381004;-0.9829694057596265;1.02;0.000983709336248563
56:43.4;0.007957896277341978;-0.24298259751073312;-0.9945309499640151;1.035;0.0019230551872829618
56:43.4;0.01129969282765603;-0.24018774722294062;-1.0049816407658259;1.044;0.0027275681755703812
56:43.5;0.014041387066563101;-0.23752090487335728;-1.013881696136792;1.05;0.0033814201252606573
56:43.5;0.016211661293498388;-0.2351455881799048;-1.0208977272813498;1.057;0.003891764869572747
56:43.5;0.017916254225522163;-0.2332159430695515;-1.025817459824533;1.061;0.004286230666881134
56:43.5;0.019318706284752303;-0.23186457176080275;-1.0285546271832997;1.062;0.00460722897396705
56:43.5;0.020613936099308047;-0.23119268856603808;-1.0291441449768053;1.057;0.004904686221558289
56:43.5;0.021998809924846097;-0.2312633572042133;-1.0277284609966424;1.0490000000000002;0.005228587699832909
56:43.5;0.023643978298698097;-0.23209762475574788;-1.0245375227423117;1.0490000000000002;0.005622366041348779
56:43.5;0.025671621215699592;-0.23367262055099514;-1.0198660143207658;1.043;0.006117926356066676
56:43.5;0.028142851971185337;-0.23592105973823554;-1.0140509909433393;1.04;0.006732782895486607
56:43.5;0.031055616415392034;-0.23873304013539057;-1.0074511685045366;1.034;0.0074692446962346575
56:43.6;0.0343507145725409;-0.24196189399070056;-1.0004276465009654;1.0290000000000001;0.008315118369150103
56:43.6;0.037922315852873666;-0.24543467393315008;-0.9933255879456199;1.022;0.009245329461480671
56:43.6;0.0416301058147829;-0.24896555322881617;-0.9864568519251977;1.016;0.010224094877166344
56:43.6;0.04531153244534688;-0.2523694015044027;-0.9800840816592002;1.0090000000000001;0.011207500932306087
56:43.6;0.048793630920175995;-0.25547377577709135;-0.974407088629835;1.001;0.012146464864316357
56:43.6;0.05190445269996277;-0.25812901475613104;-0.9695527932346487;0.995;0.012990112183318244
56:43.6;0.054484153365765176;-0.26021654202939365;-0.9655705628555155;0.995;0.013689548511225481
56:43.6;0.056395545554820056;-0.2616548665913875;-0.962434868680784;0.997;0.014201851524176207
56:43.6;0.057533746754654606;-0.26240222800945484;-0.9600560147099362;0.996;0.014493949653929361
56:43.6;0.05783420575405996;-0.2624552977430326;-0.9582977713915358;0.996;0.014545899996191564
56:43.7;0.057277693152090296;-0.2618446159453701;-0.9569994231508547;1.0;0.014352939124822904
56:43.7;0.05589069001792384;-0.2606284468355366;-0.9559992537456041;1.004;0.013925757897265958
56:43.7;0.05374091124351275;-0.2588865332219791;-0.9551559812946432;1.003;0.013288892421118026
56:43.7;0.05092963063732404;-0.2567141864825935;-0.9543642027134958;0.996;0.012477699913775942
56:43.7;0.04758319765611977;-0.25421674234129127;-0.9535608543521175;0.985;0.011534696904002353
56:43.7;0.04384523243137347;-0.2515050143049389;-0.9527225790998803;0.9840000000000001;0.01050595370446327
56:43.7;0.03986986295253756;-0.24869245469472162;-0.951857066734365;0.9840000000000001;0.009437980818799515
56:43.7;0.03581587244744539;-0.24589339889868175;-0.9509925565920887;0.9790000000000001;0.008375283613453946
56:43.7;0.03184101655026818;-0.24322063857139353;-0.9501685429114675;0.976;0.007358478021651564
56:43.7;0.028094981028669346;-0.24078138378465885;-0.9494292117750892;0.977;0.006422649750275787
56:43.8;0.024709970254275324;-0.23867234386899167;-0.9488202803870828;0.981;0.005595749693161312
56:43.8;0.02179013693333863;-0.23697501668436738;-0.9483889442088816;0.981;0.004897213122276309
56:43.8;0.019403080976686672;-0.23575149373134138;-0.9481853040104702;0.98;0.004337289083556879
56:43.8;0.017576610404431738;-0.23504088976010007;-0.9482629729368239;0.9790000000000001;0.00391748499632725
56:43.8;0.016302048294016956;-0.2348571910671235;-0.9486771398235632;0.9790000000000001;0.0036321558344831885
56:43.8;0.01554314810752268;-0.23518958878823232;-0.9494795444042855;0.9790000000000001;0.0034709047107809345
56:43.8;0.015248230443710266;-0.23600542658386284;-0.9507108310476509;0.9790000000000001;0.003421289916895911
56:43.8;0.015362444465491357;-0.23725454337561658;-0.9523914476113184;0.977;0.003471285631016428
56:43.8;0.01583701404754062;-0.23887350761078557;-0.9545127500682591;0.978;0.003610962868824421
56:43.8;0.01663320493375197;-0.2407892514155508;-0.9570302653163619;0.981;0.0038329990106867762
56:43.9;0.017720381703586165;-0.24292246681331395;-0.9598610706852965;0.9840000000000001;0.004131893636775572
56:43.9;0.019069362044120915;-0.2451908452638264;-0.9628868150586316;0.99;0.004502105366058292
56:43.9;0.020643742631022706;-0.24751166861539292;-0.9659629211406334;0.998;0.004935652443855653
56:43.9;0.022392433997441716;-0.24980346109694143;-0.9689330785347965;1.003;0.005419928242879622
56:43.9;0.024246143289186565;-0.25198722686075004;-0.9716467367470206;1.008;0.005936487955044081
56:43.9;0.026119245661638996;-0.25398835659946073;-0.9739765604678359;1.0170000000000001;0.0064613451924176975
56:43.9;0.027916706690005257;-0.2557399437090817;-0.9758328015208072;1.0170000000000001;0.006966877289841917
56:43.9;0.029544060562579404;-0.2571871819504566;-0.9771719627503566;1.0190000000000001;0.007424898178632662
56:43.9;0.030917861987261153;-0.258291611908691;-0.9779980789917774;1.0170000000000001;0.00781012093161765
56:43.9;0.03197453793492679;-0.2590337721434644;-0.978356500308245;1.013;0.008103223208521665
56:44.0;0.03267609612677582;-0.2594132574746388;-0.9783217060150657;1.008;0.008292854039210505
56:44.0;0.03301153691889388;-0.2594462436030731;-0.9779818947705275;1.006;0.008376140359482044
56:44.0;0.03299391839247374;-0.25916162177408747;-0.9774236868493852;1.003;0.008357712822554408
56:44.0;0.03265456387979033;-0.2585970855941049;-0.9767200930783762;1.005;0.00824779078546965
56:44.0;0.03203657505932392;-0.257795950650606;-0.9759238699966842;1.012;0.00806005698922287
56:44.0;0.031189281320661257;-0.2568049209247087;-0.9750664932925179;1.011;0.007809854482247046
56:44.0;0.030164182398457768;-0.2556726113292111;-0.9741608471017277;1.011;0.007512879722906543
56:44.0;0.029011907019731664;-0.25444830465547147;-0.9732047968563547;1.006;0.007184227547632468
56:44.0;0.02777927525022085;-0.25318029399452757;-0.9721838111378996;1.003;0.006837529226786691
56:44.0;0.026506113902632675;-0.2519133509000747;-0.971072679383647;0.9990000000000001;0.006484089195323653
56:44.1;0.025222416419377475;-0.2506854129389119;-0.9698376694316435;0.998;0.006132178720514777
56:44.1;0.023946715308535205;-0.2495243581934514;-0.9684405847114188;1.0;0.005786712148498614
56:44.1;0.022686187101396315;-0.24844612485647552;-0.9668452470362743;1.003;0.005449425295700268
56:44.1;0.02143880136241798;-0.24745491357601931;-0.9650254610316836;1.001;0.0051195920267242965
56:44.1;0.020197651493732392;-0.24654522722971178;-0.9629724702599202;0.993;0.004795251009633117
56:44.1;0.01895682452482351;-0.24570499384337374;-0.9607003063641005;0.993;0.0044747368725309815
56:44.1;0.01771713505321493;-0.24491905178706996;-0.9582489708895001;0.993;0.004158095183474297
56:44.1;0.016489755588662412;-0.24417229068978227;-0.9556862599426186;0.991;0.0038479191490381095
56:44.1;0.015296506751322228;-0.24345176191859916;-0.9531082715245691;0.9890000000000001;0.0035493385273693005
56:44.1;0.014166857834504372;-0.24274755339560872;-0.9506374490518814;0.9840000000000001;0.003269213742913951
56:44.2;0.013132939461036582;-0.24205306961947265;-0.9484168756719934;0.98;0.0030148923504305083
56:44.2;0.012224809786913317;-0.2413657495363719;-0.9466004849798076;0.977;0.002793087078023528
56:44.2;0.011468629327126282;-0.24068861096283783;-0.9453401134981624;0.972;0.0026094870355359992
56:44.2;0.010889484851414456;-0.24003193404313103;-0.944771291128145;0.9690000000000001;0.0024694659788260394
56:44.2;0.010518012559122197;-0.23941398148354073;-0.945000103876413;0.975;0.002379660766126649
56:44.2;0.010397298408784318;-0.23886011093117407;-0.9460929866614609;0.975;0.0023496217916960894
56:44.2;0.010585816777436405;-0.23840029273623628;-0.9480698655635901;0.975;0.002392607721081431
56:44.2;0.011153507956105441;-0.23806531154415445;-0.9508999194089909;0.978;0.0025248897020828144
56:44.2;0.012170284632028372;-0.23788190343544852;-0.9544994689442954;0.9790000000000001;0.0027633623196141616
56:44.2;0.013688692560038037;-0.23786725470205108;-0.9587324042916506;0.982;0.003121720643038069
56:44.3;0.015724884812232307;-0.23802367965433324;-0.9634140207016091;0.9890000000000001;0.003605957468168833
56:44.3;0.01824351956591962;-0.23833445657542238;-0.9683190185166114;0.992;0.004210308534904977
56:44.3;0.021151661041363626;-0.23876178674182144;-0.9731939694649123;0.997;0.0049148323426756405
56:44.3;0.024304502191539904;-0.23924807917920274;-0.9777740276233654;1.005;0.005685565759097994
56:44.3;0.027522700769966404;-0.23972176234999013;-0.9818030950339675;1.023;0.006477730969528587
56:44.3;0.03061768810071072;-0.24010745945502968;-0.9850555401323458;1.023;0.007241670579928165
56:44.3;0.033418185734928;-0.24033809324114652;-0.9873562342315195;1.023;0.007930112572913196
56:44.3;0.03579076664381027;-0.24036544483574587;-0.988595737272237;1.026;0.008504754229269546
56:44.3;0.037650547581804486;-0.24016661855790505;-0.9887391952163568;1.026;0.008940579945478875
56:44.3;0.038961996133767635;-0.23974530014082893;-0.9878289664177682;1.024;0.009227266374616518
56:44.4;0.03973180648879734;-0.23912780310262483;-0.9859811298888367;1.022;0.009367786600038022
56:44.4;0.039996578689378094;-0.23835515677466207;-0.9833757361100156;1.0170000000000001;0.00937490517979798
56:44.4;0.039808618167164744;-0.23747368608907335;-0.9802407246106184;1.01;0.009266704998320276
56:44.4;0.039223105254391065;-0.2365266931874092;-0.9768300322367562;1.002;0.009062356376703894
56:44.4;0.038288881103016065;-0.2355487985600033;-0.973397659123902;0.9940000000000001;0.008778976091437152
56:44.4;0.03704375786315752;-0.2345631247821136;-0.9701709481055341;0.988;0.008429911995227676
56:44.4;0.035514239700110285;-0.2335807548606749;-0.9673271439191565;0.985;0.008024407104885858
56:44.4;0.033719023531725165;-0.2326018734894138;-0.964976878215637;0.9840000000000001;0.007568417917459984
56:44.4;0.031675421123804066;-0.23161817228276663;-0.9631568346647384;0.9840000000000001;0.007066299464238961
56:44.4;0.029407504127760314;-0.23061619009645998;-0.9618321817066526;0.982;0.006522998274910974
56:44.5;0.026954315043453483;-0.2295813041678144;-0.9609081315972435;0.9840000000000001;0.005946298234727068
56:44.5;0.024376446496219582;-0.22850188972173827;-0.9602494730904018;0.986;0.00534865110662558
56:44.5;0.021759817579859023;-0.2273726254205099;-0.959706608154806;0.991;0.004748231796096047
56:44.5;0.019215904512092728;-0.22619576461094945;-0.9591457513413452;0.997;0.004168980925436247
56:44.5;0.01687751225587771;-0.22498020941124375;-0.958479393005621;1.004;0.003639448085691991
56:44.5;0.014889089974983255;-0.22373974248791662;-0.9576913938209866;1.0070000000000001;0.003190339294344078
56:44.5;0.013391786832209812;-0.22249217018193287;-0.9568501624930242;1.0;0.0028509998521727012
56:44.5;0.012505712335316325;-0.2212600693065398;-0.9561045925133652;0.988;0.002645555536836145
56:44.5;0.012313589402809263;-0.22007262414634451;-0.9556614445738348;0.9740000000000001;0.002589731593595594
56:44.5;0.012850137320243163;-0.21896764217074846;-0.9557484691091555;0.965;0.002689250894044684
56:44.6;0.014100186118716062;-0.21799287343305354;-0.9565721371994607;0.963;0.002940254125135334
56:44.6;0.01600600146042852;-0.21720579435933768;-0.9582801472466889;0.9670000000000001;0.003331553177607046
56:44.6;0.018481178954812407;-0.21667123347987727;-0.9609365221496892;0.976;0.0038479163996448158
56:44.6;0.021426078349642434;-0.21645668668864265;-0.9645125885196307;0.983;0.0044732337751024285
56:44.6;0.024739588256630227;-0.21662569589115607;-0.9688925320486185;0.9990000000000001;0.0051925184304412505
56:44.6;0.028324486737650815;-0.21723009533117893;-0.9738890093710044;0.9990000000000001;0.0059922718317399325
56:44.6;0.032087339953130734;-0.21830210791769797;-0.9792632200983594;1.005;0.006859478323065263
56:44.6;0.03593608662126887;-0.21984728940454862;-0.9847451224817079;1.0090000000000001;0.0077799308195563395
56:44.6;0.03977791176935433;-0.22183956981176634;-0.9900520018132176;1.014;0.008736530566946541
56:44.6;0.0435182682101018;-0.22421999939213577;-0.9949054422463409;1.02;0.00970795507827306
56:44.7;0.047061059207596026;-0.2269003614168086;-0.9990472620571615;1.028;0.010667997843862893
56:44.7;0.050310224507200164;-0.2297711579781669;-1.002254735454852;1.033;0.011585902920976564
56:44.7;0.05317327892420616;-0.23271169887249188;-1.0043548548339243;1.037;0.012427931238719696
56:44.7;0.05556709033242134;-0.2355997110459089;-1.0052367582217159;1.0390000000000001;0.013160147919778976
56:44.7;0.057425243128491225;-0.23831922232060185;-1.0048611083142627;1.0390000000000001;0.01375206617275191
56:44.7;0.05870525593738681;-0.24076688389696546;-1.0032653211940572;1.0390000000000001;0.014180434509495155
56:44.7;0.05939368188391243;-0.24285708433025857;-1.0005639282874874;1.0390000000000001;0.014432310611067159
56:44.7;0.05950796971284095;-0.2445258731257596;-0.9969435152305237;1.035;0.014506762613879513
56:44.7;0.05909509045732545;-0.24573389267227563;-0.9926515005207622;1.03;0.014414954156334236
56:44.7;0.05822751186151992;-0.246468693256678;-0.9879782003646981;1.023;0.014178730802768281
56:44.8;0.056997081300262216;-0.2467463355114658;-0.9832326368052274;1.014;0.01382800775198618
56:44.8;0.055507227337619855;-0.24661158151055826;-0.9787139354375971;1.005;0.01339734603233658
56:44.8;0.053863934414526936;-0.24613583468604228;-0.9746813815599817;0.995;0.012922174151460216
56:44.8;0.052166092263265414;-0.2454123217126989;-0.971327133168979;0.988;0.012435125989163933
56:44.8;0.050495971807659655;-0.24454855969845932;-0.9687561044569556;0.985;0.011962895146595346
56:44.8;0.04891084516398451;-0.24365662863116186;-0.9669771068793465;0.99;0.011523902904505855
56:44.8;0.04743703138246026;-0.24284217636058872;-0.9659074145907061;0.99;0.011126975177763116
56:44.8;0.04606751701676017;-0.24219352901001626;-0.965390027001964;0.995;0.01077110224138269
56:44.8;0.04476377960791824;-0.24177237268847507;-0.9652205087662012;1.001;0.010446239112230984
56:44.8;0.04346197764752709;-0.24160700108986982;-0.9651790237278101;1.005;0.010135072825719604
56:44.9;0.04208321617682381;-0.24168876621855923;-0.9650625342281838;1.0070000000000001;0.009815690213588983
56:44.9;0.040546650680635385;-0.2419724799070039;-0.9647120191799109;1.01;0.009464957110692986
56:44.9;0.03878293589932261;-0.2423813818870817;-0.9640302895574204;1.01;0.009062136909190357
56:44.9;0.03674470505685463;-0.24281647114287255;-0.9629873091582803;1.005;0.00859198425885581
56:44.9;0.034410992593040236;-0.24316904159197186;-0.9616118834777007;0.981;0.008046468303692253
56:44.9;0.03178462009427381;-0.24333464720522924;-0.9599720503593001;0.981;0.007424711173617682
56:44.9;0.02888522145529348;-0.24322636217675175;-0.9581507300215866;0.981;0.006731629123135275
56:44.9;0.025742638350879;-0.2427852635567521;-0.9562246372969766;0.977;0.005976340142359651
56:44.9;0.02239376081057983;-0.24198683479538505;-0.9542517410054508;0.975;0.005171085697346941
56:44.9;0.018882936550609516;-0.24084307421334766;-0.9522689117282026;0.98;0.004330751876894118
56:45.0;0.015264664847668644;-0.23940079174903256;-0.9502991973183985;0.985;0.003472747586356967
56:45.0;0.011607135757515425;-0.2377366063448887;-0.948366272818519;0.99;0.0026169608372847535
56:45.0;0.00799497235533762;-0.23594880161821746;-0.9465113506403668;0.99;0.0017855029362853604
56:45.0;0.004529009109422574;-0.23414607571299634;-0.9448065407877476;0.9840000000000001;0.0010019198220330254
56:45.0;0.0013210064455517914;-0.23243375482157702;-0.9433596478695018;0.9690000000000001;0.0002896552670663199
56:45.0;-0.0015169258502972616;-0.23089924843431775;-0.9423087126657107;0.9690000000000001;0.0003300502593000218
56:45.0;-0.0038855219304002493;-0.22959978529619687;-0.941808429425737;0.9690000000000001;0.0008402014279434679
56:45.0;-0.005710382567480811;-0.2285555156711124;-0.9420121938698636;0.968;0.0012294572600116853
56:45.0;-0.006950522525735214;-0.22774956574503805;-0.943052496359498;0.966;0.0014928318137896017
56:45.0;-0.007602813085280765;-0.22713485160959043;-0.9450210511653769;0.9640000000000001;0.0016319226642298598
56:45.1;-0.007702159916302726;-0.22664628633628256;-0.9479502430271471;0.965;0.001654804453771804
56:45.1;-0.007317467149388927;-0.22621612751758988;-0.9517985235216053;0.97;0.0015755397759729076
56:45.1;-0.006543803985719187;-0.22578935091522076;-0.9564428255823673;0.975;0.0014131646034660458
56:45.1;-0.005491414324820727;-0.2253355245641769;-0.9616803228106139;0.9790000000000001;0.0011899935478548928
56:45.1;-0.004272860909187013;-0.22485456234195403;-0.9672405029199689;0.986;0.0009292978533200249
56:45.1;-0.0029908869968927163;-0.22437603014012492;-0.9728071392588833;1.005;0.0006528346748521567
56:45.1;-0.0017300408202940568;-0.22395369287329855;-0.978048099957603;1.005;0.0003789437881367654
56:45.1;-0.0005535916409220362;-0.22365722150682893;-0.9826492064530834;1.016;0.00012166648377592439
56:45.1;0.0004951154577673639;-0.22356213128878066;-0.9863477011424459;1.024;0.00010917790674991986
56:45.1;0.0013891493939404839;-0.2237386646329112;-0.988961247220083;1.03;0.0003073755150285341
56:45.2;0.0021146034474018344;-0.22424082657991978;-0.9904084857953254;1.03;0.00046963231665280087
56:45.2;0.0026686803712066063;-0.22509740649010318;-0.9907173015478901;1.028;0.0005951367923930352
56:45.2;0.0030594026620881726;-0.2263067979671829;-0.9900183730981039;1.022;0.0006854527048126717
56:45.2;0.003306068552464266;-0.22783650828095964;-0.9885242430613848;1.013;0.0007445990802260168
56:45.2;0.0034389201026454584;-0.2296269584957239;-0.9864970616742988;1.004;0.0007790059150665716
56:45.2;0.003496427843314155;-0.23159832539837788;-0.9842105778954188;0.995;0.0007969810830491699
56:45.2;0.0035194690423053527;-0.23365889590350916;-0.9819133161291498;0.995;0.0008074815711446644
56:45.2;0.003543224894222373;-0.23571341619633876;-0.9797995997597779;0.996;0.0008183145598819638
56:45.2;0.0035887469643099946;-0.23767037580341305;-0.977992829780772;0.9990000000000001;0.0008341680694396856
56:45.2;0.00365616716213719;-0.23944804333886346;-0.9765419830991565;1.002;0.0008549254689868793
56:45.3;0.0037208370339755236;-0.24097960389755135;-0.9754293667454009;1.005;0.0008746146786531783
56:45.3;0.0037328521799433268;-0.24221746730181185;-0.9745862309329636;1.0070000000000001;0.0008811838365494353
56:45.3;0.0036197901360064456;-0.24313614124728097;-0.9739126493170381;1.0090000000000001;0.0008571422813491324
56:45.3;0.0032922477443645694;-0.2437327027495126;-0.9732985049364125;1.0090000000000001;0.0007810024018025918
56:45.3;0.0026517416637098982;-0.24402428387957187;-0.9726430480439522;1.005;0.0006293869679734052
56:45.3;0.001600538959841343;-0.2440429605222681;-0.9718713025846225;1.005;0.0003796131894928628
56:45.3;5.301408873967342e-05;-0.24382927456060294;-0.9709466591725255;1.005;1.2550832077550197e-05
56:45.3;-0.0020519973173593166;-0.2434257174838043;-0.9698797114455782;1.0070000000000001;0.00048446356646962454
56:45.3;-0.004738925102275042;-0.2428710762377564;-0.9687330351794248;1.0090000000000001;0.0011149611941823263
56:45.3;-0.007985084427217388;-0.24219626165601796;-0.9676204955239986;1.006;0.001871337008602221
56:45.4;-0.011714158446074008;-0.24142225067413187;-0.966699025568744;1.003;0.0027338813931123925
56:45.4;-0.015794677216699048;-0.24056071003601706;-0.9661515814329449;0.995;0.0036709690335874475
56:45.4;-0.020043430850994706;-0.23961748818576428;-0.966162065183574;0.987;0.004640241191888403
56:45.4;-0.024233065333252805;-0.2385984080652821;-0.9668856807949928;0.982;0.005590504783984748
56:45.4;-0.028102999865304058;-0.23751576973665076;-0.9684204920404649;0.982;0.006464115408973893
56:45.4;-0.0313730522529534;-0.23639325788414584;-0.9707865723086347;0.9940000000000001;0.007199720208480056
56:45.4;-0.03375973748110458;-0.2352673981648833;-0.9739170523622886;0.9940000000000001;0.007735400077257452
56:45.4;-0.03499575131309002;-0.23418524455747558;-0.9776615567427851;1.004;0.008012414123125164
56:45.4;-0.03485289007318941;-0.23319924307033377;-0.9817996018357821;1.01;0.007979740797708272
56:45.4;-0.033167115166535484;-0.23236047381341965;-0.9860606608824326;1.015;0.007599299919624682
56:45.5;-0.029862201753134164;-0.23171164766416164;-0.9901476961336294;1.021;0.00685124774296404
56:45.5;-0.024966908367141372;-0.23128185077163876;-0.9937612081819907;1.024;0.0057383675407984905
56:45.5;-0.01862098931501687;-0.23108506238067159;-0.996621367245287;1.03;0.004288494110977585
56:45.5;-0.011067586203563903;-0.23112313826247527;-0.9984864971614676;1.03;0.00255410375354677
56:45.5;-0.002632824510547417;-0.23139206314285646;-0.9991669184190378;1.028;0.0006087071698470683
56:45.5;0.006303417893462244;-0.23188920788511758;-0.9985340652265215;1.025;0.0014595518333674613
56:45.5;0.015340062641541348;-0.2326194497116007;-0.9965259401969193;1.022;0.0035560001058801294
56:45.5;0.024085730186199382;-0.23359865826101475;-0.9931508395486778;1.022;0.005587858177719932
56:45.5;0.032184640435118914;-0.23485368070320203;-0.9884910153293465;1.024;0.0074716885214495985
56:45.5;0.03933576036659058;-0.23641854960336972;-0.982706241860447;1.024;0.009138876591813885
56:45.6;0.045304849352263456;-0.23832711737722062;-0.976034886631759;1.021;0.010538613853766081
56:45.6;0.04993052341666307;-0.24060257303566288;-0.968788451492882;1.012;0.01163845520298738
56:45.6;0.05312654064454227;-0.2432447039550205;-0.9613357820077713;0.995;0.01242310164166166
56:45.6;0.05488215951828532;-0.2462170355446758;-0.9540755367638816;0.978;0.012892348902767005
56:45.6;0.05526045822580437;-0.24943786588187228;-0.9473994203896741;0.9620000000000001;0.013059001707750388
56:45.6;0.054392452355378464;-0.2527798718329599;-0.9416526325368619;0.955;0.012947080675825624
56:45.6;0.05246467959717848;-0.2560807225403367;-0.9371000838477274;0.958;0.012590120542186198
56:45.6;0.04969998862254345;-0.2591626977597046;-0.9339057968022181;0.9640000000000001;0.012029064470182508
56:45.6;0.046333997510711496;-0.261855475335062;-0.9321287856488015;0.97;0.011309342330190748
56:45.6;0.04259123203851892;-0.2640155522170512;-0.9317337177624029;0.972;0.010477110529744395
56:45.7;0.03866474965721839;-0.265538404593384;-0.9326112973161377;0.9740000000000001;0.009575097749033435
56:45.7;0.03470185563080334;-0.26636338074639543;-0.93460255904443;0.9790000000000001;0.008638815183625451
56:45.7;0.030797482999747685;-0.26647384119127515;-0.937522253485149;0.985;0.0076939859975445205
56:45.7;0.026996320835160344;-0.2658950648549523;-0.9411777846421654;0.987;0.006755951530700956
56:45.7;0.023303911115244106;-0.2646910101541785;-0.9453812180744611;0.985;0.0058314287871733626
56:45.7;0.01970482615024402;-0.2629600926880998;-0.9499533610814715;0.985;0.004922262101904279
56:45.7;0.01618362019164246;-0.2608302317742285;-0.9547211460380444;0.9840000000000001;0.004030047330239588
56:45.7;0.01274342776399281;-0.25845341217402895;-0.9595116854839643;0.986;0.003160230788771296
56:45.7;0.00941835906364803;-0.2559992763061575;-0.9641473597689063;0.993;0.002324649050653818
56:45.7;0.006277860291597263;-0.25364670358397806;-0.9684456435848062;0.9990000000000001;0.0015421127187123904
56:45.8;0.0034225734959288257;-0.25157282317612195;-0.9722252510743709;1.004;0.0008371116826844068
56:45.8;0.0009720034317335747;-0.24994005043679168;-0.9753176838387935;1.0090000000000001;0.0002369462010169845
56:45.8;-0.0009545137371369975;-0.24888264326810455;-0.9775817117062136;1.014;0.00023223617072918768
56:45.8;-0.0022601336799665875;-0.24849460815228067;-0.9789178496940947;1.0170000000000001;0.0005497906433172115
56:45.8;-0.0028912470394233457;-0.24882083130133945;-0.9792798208708328;1.0190000000000001;0.0007044963433498174
56:45.8;-0.0028521101671957374;-0.24985321454924578;-0.9786801992502866;1.013;0.0006974162139000696
56:45.8;-0.002210840195095825;-0.2515328464239849;-0.9771884861048161;1.013;0.0005434134688546995
56:45.8;-0.0010965481836686364;-0.25375766401684313;-0.9749217735605176;1.0070000000000001;0.0002712793008365038
56:45.8;0.00031114678447738143;-0.2563937008151796;-0.9720299032282183;1.0;7.754473101516382e-05
56:45.9;0.0017983119402340106;-0.25928769039772076;-0.9686780872742812;0.995;0.00045167536344647947
56:45.9;0.0031362022870202112;-0.2622790859938893;-0.9650305740807139;0.993;0.0007937958089290667
56:45.9;0.004101339054603729;-0.2652100671439363;-0.9612388260386471;0.992;0.0010455552412159234
56:45.9;0.004493772563409171;-0.2679329435105545;-0.9574362968395176;0.993;0.0011527817471921227
56:45.9;0.004152047431140512;-0.270315255195233;-0.9537397414352204;0.993;0.0010704410156675483
56:45.9;0.002964291563560399;-0.2722432413456162;-0.9502551761380961;0.992;0.0007668638556518106
56:45.9;0.0008755946696721024;-0.273624134031602;-0.9470857785623927;0.992;0.0002269064412461636
56:45.9;-0.002107615707809;-0.2743874200191844;-0.9443390059028457;0.992;0.000546114303426786
56:45.9;-0.005915673375352929;-0.2744852433562436;-0.9421304377125879;0.987;0.001529798473577298
56:45.9;-0.010416632208014066;-0.2738924381051872;-0.9405822966782318;0.98;0.0026835158986071406
56:45.9;-0.01542102516161716;-0.2726068472026036;-0.939815948634533;0.975;0.003950870697632749
56:46.0;-0.02069088831839302;-0.2706502914249513;-0.9399399040706719;0.975;0.0052636587191203935
56:46.0;-0.025952609135743824;-0.26806993538211815;-0.9410364720938841;0.977;0.006546898253553494
56:46.0;-0.030912636136482055;-0.2649392578422294;-0.9431500347184772;0.976;0.007724371315992198
56:46.0;-0.03527510801105271;-0.2613576800898849;-0.9462785949950763;0.9790000000000001;0.008724140177755116
56:46.0;-0.03876061078073417;-0.2574482426444954;-0.9503691390198357;0.988;0.009483592156185897
56:46.0;-0.041124949538508905;-0.2533534942165775;-0.9553164663628346;0.988;0.009953585240532215
56:46.0;-0.04217610373306239;-0.24923043961335226;-0.9609643155023492;0.988;0.010101242588406464
56:46.0;-0.041787496169476836;-0.24524507666349302;-0.9671079753515387;0.992;0.009911094388093997
56:46.0;-0.03990677472559481;-0.2415659444872711;-0.9734993483670112;0.9990000000000001;0.009384648326417572
56:46.0;-0.03656034837126893;-0.2383557519534763;-0.9798565126820399;1.005;0.008538831539678014
56:46.1;-0.03185403537743139;-0.2357610693715707;-0.9858788946286572;1.015;0.007403892769914321
56:46.1;-0.02596966441858271;-0.23390122353930382;-0.99126721019935;1.026;0.006021290380478857
56:46.1;-0.019156679290860353;-0.23285829760932134;-0.9957454076306259;1.034;0.004441812877072219
56:46.1;-0.011717001637623712;-0.23267053344756272;-0.99908029085786;1.036;0.0027236937094291527
56:46.1;-0.003981765512686148;-0.23333120182347133;-1.0010943695184018;1.025;0.000930086878487725
56:46.1;0.0037183842053190802;-0.23479350992159692;-1.0016700500660018;1.025;0.0008745105201537443
56:46.1;0.011083219215663501;-0.23697961580266916;-1.0007475511569484;1.025;0.0026284604724793794
56:46.1;0.017865748935484285;-0.2397903738209303;-0.998321424947464;1.024;0.00427684354220033
56:46.1;0.02388444142151775;-0.24311330046562551;-0.9944395351050255;1.022;0.005774337847158394
56:46.1;0.02902539092162307;-0.24682778577762576;-0.9892057968492712;1.025;0.007086940354621629
56:46.2;0.03323622214034085;-0.2508073538301018;-0.9827858274788751;1.0270000000000001;0.00819239349623358
56:46.2;0.036514046377746884;-0.2549195232984829;-0.9754125176816528;1.022;0.009079279487599172
56:46.2;0.03889064831776936;-0.25902496759282323;-0.9673866939059926;1.011;0.00974511392445689
56:46.2;0.04041807931462698;-0.2629783949670477;-0.9590683301952122;0.9990000000000001;0.010194015566375584
56:46.2;0.04115705881181039;-0.2666330666748747;-0.9508566431145566;0.9890000000000001;0.010434541824309442
56:46.2;0.041169832965054755;-0.2698491241173413;-0.9431610807503047;0.97;0.010478183243522628
56:46.2;0.04051789435412034;-0.27250395810674755;-0.9363679644046619;0.97;0.010338707044612497
56:46.2;0.03926306710711991;-0.27450217825861156;-0.9308085245674157;0.965;0.010032065738814901
56:46.2;0.037469570259273534;-0.275783494351181;-0.9267327930815001;0.961;0.009576383139872118
56:46.2;0.035205800672116726;-0.27632775861989345;-0.9242912746963939;0.9570000000000001;0.008991819770170799
56:46.3;0.032546195362633534;-0.27615675937289796;-0.9235248396711971;0.953;0.00830050443069007
56:46.3;0.02957376557170202;-0.2753325774173812;-0.9243635360703901;0.9540000000000001;0.007526742031762707
56:46.3;0.026382808808237856;-0.273952755653006;-0.9266355955589097;0.96;0.006697391437845145
56:46.3;0.02308007503577319;-0.2721426445707921;-0.9300874646144678;0.968;0.0058419469427271
56:46.3;0.019782181722557787;-0.27004501589018337;-0.934413750935155;0.9890000000000001;0.004991712615909222
56:46.3;0.016608233830904675;-0.26780752185600815;-0.939292690129713;0.9890000000000001;0.0041777953681050965
56:46.3;0.01366938736235452;-0.2655700343534903;-0.9444198502287663;0.9890000000000001;0.003428413741578108
56:46.3;0.011058916702710296;-0.26345446365144864;-0.9495332676039486;0.9940000000000001;0.0027664850854320945
56:46.3;0.008845281331704062;-0.2615584048032542;-0.9544271876055614;0.993;0.002208122345262897
56:46.4;0.007068765065170582;-0.2599525260842799;-0.9589554317520234;0.9940000000000001;0.0017621221621658971
56:46.4;0.005741674815513131;-0.25868113520930175;-0.9630269555370441;0.998;0.001430348265846969
56:46.4;0.004852039882281432;-0.2577650716733026;-0.9665963774794755;0.9990000000000001;0.001208908951353012
56:46.4;0.00437003726387391;-0.25720557367044994;-0.9696520419180202;1.0;0.0010898868990056102
56:46.4;0.004255257605670236;-0.25698774108990613;-0.9722037349634897;1.002;0.0010631524608951104
56:46.4;0.004462455182131169;-0.2570829548135322;-0.9742717859423279;1.006;0.001117705212267765
56:46.4;0.00494430243409191;-0.2574505286707403;-0.9758787525392405;1.006;0.0012422090194490014
56:46.4;0.005651330846865637;-0.2580393629222186;-0.9770440714222675;1.006;0.0014247899655743211
56:46.4;0.006530352464415641;-0.25879035955273844;-0.9777815697473545;1.01;0.001652443287065429
56:46.4;0.007522884551614603;-0.25963996405247763;-0.9780997704339893;1.012;0.0019104650378616093
56:46.5;0.008565150955465256;-0.2605245004556125;-0.9780047425416473;1.014;0.002182350759829156
56:46.5;0.009591119617668377;-0.2613844008428714;-0.9775045755056819;1.013;0.00245057372159749
56:46.5;0.01053904189265492;-0.26216765631976285;-0.9766140676664015;1.014;0.002698380677397145
56:46.5;0.011360398318590256;-0.2628326598444497;-0.9753583403368086;1.012;0.0029123065768665297
56:46.5;0.01202921132930697;-0.263350939301295;-0.9737745682476472;1.011;0.003084824449785333
56:46.5;0.012549585063904837;-0.26370960975925345;-0.9719115932697632;1.008;0.003216489109491644
56:46.5;0.01295942652568671;-0.26391264861293284;-0.9698277752366142;1.004;0.0033169628458741746
56:46.5;0.013328501807773039;-0.2639801816620109;-0.9675878685092607;1.004;0.003404419529686129
56:46.5;0.013749723921035873;-0.2639455612867898;-0.9652597693811147;1.0;0.0035031000964288713
56:46.5;0.014323995435503988;-0.2638505986294517;-0.9629116190397897;0.997;0.0036392231373787768
56:46.6;0.015140861786101703;-0.26373983169876836;-0.9606093389691985;0.995;0.003835951647497932
56:46.6;0.01625912025687136;-0.26365502477992236;-0.9584146026257332;0.993;0.004108530524567191
56:46.6;0.017692243982426237;-0.26363095674396614;-0.956383304296552;0.993;0.004460785203676897
56:46.6;0.01940228224614418;-0.2636931433674053;-0.9545643608991454;0.993;0.004883788760233568
56:46.6;0.02130347065355894;-0.26385767069660854;-0.9529982500834376;0.99;0.0053568833531865
56:46.6;0.023274350495930622;-0.2641326924253321;-0.9517146267774779;0.983;0.005850681714918734
56:46.6;0.02517527904353171;-0.26452046682376623;-0.9507292155369472;0.983;0.006331263857620499
56:46.6;0.026867179843168415;-0.26501854316035917;-0.9500415282092605;0.983;0.006764581511164815
56:46.6;0.0282279441250854;-0.2656191302919488;-0.9496354050783792;0.986;0.00712025418032456
56:46.6;0.029164623379643297;-0.2663066583518773;-0.9494832306393319;0.9890000000000001;0.007374383114756983
56:46.7;0.02962069587808922;-0.2670546934174315;-0.949552802039953;0.991;0.00751129107317708
56:46.7;0.029577818536500353;-0.26782404668574217;-0.949814478526327;0.991;0.007524098863575779
56:46.7;0.02905200501012101;-0.2685635417157566;-0.9502461302905817;0.988;0.007414114276158755
56:46.7;0.028085670717555796;-0.2692136923557151;-0.9508346410068983;0.986;0.007189305520330219
56:46.7;0.026738290500967033;-0.2697124677230447;-0.951574622395718;0.987;0.006862423424119947
56:46.7;0.025078388466016656;-0.2700019214494903;-0.9524662980198952;0.993;0.006449352248440614
56:46.7;0.023178295191051777;-0.2700344966635938;-0.953514204103149;0.993;0.005967987501747167
56:46.7;0.021111451200381576;-0.26977804715030124;-0.9547268076765346;0.993;0.005437556862647823
56:46.7;0.018950886537021976;-0.2692190269415368;-0.9561160045797612;0.996;0.004878045755233471
56:46.7;0.01676735938061288;-0.268363762776797;-0.9576955574983752;0.997;0.004309392170042586
56:46.8;0.014626509707463898;-0.2672380770487455;-0.9594779713815791;0.9990000000000001;0.0037503694302773163
56:46.8;0.012585629233499826;-0.26588567991746814;-0.9614694515483165;0.996;0.003217402324917033
56:46.8;0.010691253184580451;-0.2643656223769581;-0.9636630649492348;0.992;0.002723697096093708
56:46.8;0.008978390155048118;-0.2627488106469885;-0.9660315299391774;0.991;0.0022789276304419647
56:46.8;0.007471415440526281;-0.26111339623023805;-0.9685226187410039;0.9940000000000001;0.0018894778571227852
56:46.8;0.006186098229483842;-0.25953897950740573;-0.9710604565825753;1.011;0.0015590702116620068
56:46.8;0.005132092855873436;-0.25810007213660663;-0.9735537450474945;1.011;0.001289562997942931
56:46.8;0.004315378537255076;-0.25685986135396843;-0.9759082557377589;1.011;0.0010817430982816417
56:46.8;0.0037402881806631945;-0.2558653771011967;-0.9780392244143442;1.015;0.0009359935585710749
56:46.8;0.0034108398128213286;-0.25514464425867167;-0.9798806966645408;1.0190000000000001;0.0008527485358285691
56:46.9;0.00333132255325223;-0.25470595968977267;-0.9813906842498861;1.021;0.0008327175601084173
56:46.9;0.003506427506350388;-0.25453922604975626;-0.982551268274564;1.018;0.0008769499432836873
56:46.9;0.003941178091962805;-0.25461911010008115;-0.9833629204764172;1.013;0.0009868039615556264
56:46.9;0.0046404725130110465;-0.25490979626945476;-0.9838337800364019;1.008;0.0011637788505282423
56:46.9;0.0056078506843172575;-0.2553710224196151;-0.9839668880193427;1.005;0.0014091218227352262
56:46.9;0.006843486322828008;-0.25596450534770254;-0.9837499130232856;1.013;0.0017232244832587414
56:46.9;0.008341797290026145;-0.2566592839227023;-0.9831513644753318;1.013;0.0021049267951611444
56:46.9;0.010088972420278517;-0.2574346182036286;-0.9821247282628249;1.013;0.002550824199921675
56:46.9;0.012060616633080811;-0.2582797741175002;-0.980619272078926;1.018;0.0030546421137024444
56:46.9;0.01422002266108599;-0.2591908747307621;-0.9785949408319535;1.02;0.003606807483240432
56:47.0;0.01651780547239634;-0.26016579794770817;-0.9760381223152161;1.0190000000000001;0.004194395033704372
56:47.0;0.018893395377018854;-0.2611986178560381;-0.9729744615339773;1.0170000000000001;0.004801559652079251
56:47.0;0.02127845058582962;-0.2622750600905101;-0.9694751550758107;1.011;0.00541045364067296
56:47.0;0.023601844948507693;-0.2633700140000193;-0.9656547312354632;1.002;0.006002527417605085
56:47.0;0.025795391307743203;-0.26444767601184416;-0.9616605576860975;0.997;0.00655999757802605
56:47.0;0.027798947549784955;-0.2654642719198853;-0.9576564354287762;0.985;0.007067147643328486
56:47.0;0.029563476457491692;-0.2663723855174876;-0.953804152513268;0.985;0.0075111063576073665
56:47.0;0.031051278523121114;-0.26712534526703463;-0.9502472758539207;0.985;0.007881905371865013
56:47.0;0.032233679927367934;-0.26768051405744037;-0.9471002011893008;0.981;0.008171891196964614
56:47.0;0.03308737690854629;-0.26800132289958517;-0.9444431433726054;0.978;0.008374812535410328
56:47.1;0.033591154063772555;-0.2680586510815128;-0.9423222270129479;0.977;0.008485045739440061
56:47.1;0.033724673863913306;-0.267832259886763;-0.9407538161420842;0.9790000000000001;0.008497411164247792
56:47.1;0.03347015201742718;-0.26731256641680357;-0.9397323443297853;0.981;0.008407777986887839
56:47.1;0.032816133874440635;-0.2665024689244889;-0.9392402266981816;0.983;0.008214201197485975
56:47.1;0.031761394423544156;-0.2654184670640146;-0.9392575407146916;0.9840000000000001;0.007917998005747055
56:47.1;0.030317260231577575;-0.2640902228919144;-0.9397689483344905;0.9790000000000001;0.007524252577993457
56:47.1;0.028508165656629437;-0.2625584196022125;-0.9407661171720348;0.9790000000000001;0.007041689817501669
56:47.1;0.02637164383979439;-0.26087203917387153;-0.9422453470899863;0.9790000000000001;0.00648229417942515
56:47.1;0.023958995622203966;-0.25908665197133735;-0.9442014172944276;0.977;0.005861088715557812
56:47.1;0.021336763113343687;-0.2572643544126188;-0.9466193204605488;0.978;0.005196171970682555
56:47.2;0.0185881040268576;-0.2554746244008725;-0.9494657675316366;0.9790000000000001;0.00450881249264361
56:47.2;0.01581286387959499;-0.25379455891909647;-0.9526824106943262;0.982;0.003823322973955237
56:47.2;0.013125259471884651;-0.2523067842950367;-0.9561825536536138;0.9840000000000001;0.003166486505152839
56:47.2;0.010648366186387207;-0.2510938572568098;-0.9598526489369987;0.987;0.002566395787320209
56:47.2;0.008505169166851307;-0.2502293205577403;-0.9635592408615662;0.991;0.002050687922163605
56:47.2;0.006806869717429445;-0.2497671913112525;-0.9671610643609921;1.01;0.0016443021816147318
56:47.2;0.005640250384378835;-0.24973254640332337;-0.9705242415325681;1.01;0.001367035890673241
56:47.2;0.005056672234836933;-0.25011560686890283;-0.9735363865761613;1.01;0.0012312827196858398
56:47.2;0.0050650619046754605;-0.2508707981475996;-0.9761151083284537;1.013;0.0012403261611527926
56:47.2;0.005630162651375245;-0.2519212487914143;-0.9782087942446348;1.011;0.0013874498836054746
56:47.3;0.006676302916984028;-0.2531681653503751;-0.9797905414237688;1.0090000000000001;0.0016560687809833764
56:47.3;0.008096333362228902;-0.25450350093123403;-0.9808478787027384;1.008;0.002021081374064458
56:47.3;0.009764637453014393;-0.25582363849132683;-0.9813717777792533;1.0070000000000001;0.0024514913154424496
56:47.3;0.011552020757823123;-0.25704167009146195;-0.9813486552859311;1.008;0.002913968324880481
56:47.3;0.013339558969622358;-0.25809619833626396;-0.9807583516511469;1.011;0.0033766425892959454
56:47.3;0.015028874672252251;-0.25895537219573844;-0.9795794420573362;1.016;0.0038123349470513706
56:47.3;0.016547592689935053;-0.2596160160050425;-0.9778009894024198;1.0190000000000001;0.004200652693160075
56:47.3;0.017850112084134926;-0.26009882961531877;-0.9754376030393535;1.0190000000000001;0.004528755130488469
56:47.3;0.018914857486075416;-0.2604412979579735;-0.9725433074260841;1.0190000000000001;0.004790952599895512
56:47.3;0.019739666955568485;-0.2606899232257471;-0.969219785456641;1.013;0.004987539364063647
56:47.4;0.020336851909563237;-0.26089283113883716;-0.9656158934337349;1.004;0.005123305780379262
56:47.4;0.020728828637369728;-0.26109336793259075;-0.9619175579643572;0.995;0.005206051424842292
56:47.4;0.020944484417733285;-0.2613253533862173;-0.9583297489459769;0.988;0.005245249973775246
56:47.4;0.02101614014205363;-0.2616105425691528;-0.9550542551561723;0.9840000000000001;0.005250930150361144
56:47.4;0.020977147909600147;-0.261958113613426;-0.9522676807061276;0.978;0.00523283860018494
56:47.4;0.02086020764987804;-0.2623653903813223;-0.9501035900360467;0.975;0.005199913645228065
56:47.4;0.020696089676047896;-0.2628192112181947;-0.9486417318919917;0.9790000000000001;0.0051599753973429535
56:47.4;0.020512148429120525;-0.2632977880188101;-0.9479059357751418;0.9790000000000001;0.005119453514461232
56:47.4;0.020330263931460164;-0.26377284180094474;-0.9478704803908453;0.985;0.0050830232160290634
56:47.4;0.020164396988038413;-0.2642115889386726;-0.9484728923107283;0.992;0.005053148077985963
56:47.5;0.020018425087959965;-0.2645783617089786;-0.9496296833476976;0.997;0.005029658647365361
56:47.5;0.01988504838005861;-0.2648361449267317;-0.9512506052162076;0.995;0.00500955161360452
56:47.5;0.019746011318932263;-0.2649486820054691;-0.953247265213718;0.991;0.004987084341539469
56:47.5;0.019573139712769416;-0.2648837143642822;-0.9555341739266646;0.988;0.004954068162507306
56:47.5;0.01932985534600095;-0.2646171615348705;-0.9580237642685236;0.986;0.004900302527953508
56:47.5;0.018973827532566264;-0.2641371322528901;-0.9606195592829534;0.9940000000000001;0.004814329737165428
56:47.5;0.018461759491486058;-0.26344656257662474;-0.9632118153888268;0.9940000000000001;0.0046847608590632655
56:47.5;0.017756348305998055;-0.262564013780401;-0.9656780192915364;0.9940000000000001;0.004502162895139678
56:47.5;0.016834285313505035;-0.2615226999347078;-0.9678887416584055;1.002;0.004261176398604863
56:47.5;0.015693647774633255;-0.26036772437943223;-0.9697186280330659;1.008;0.003962386058103823
56:47.6;0.014358816245969047;-0.25915144738960394;-0.9710614654562072;1.011;0.0036134246001704668
56:47.6;0.012881022578187412;-0.2579274343968383;-0.9718466198005667;1.014;0.0032288331853955682
56:47.6;0.01133353677806557;-0.25674419277388133;-0.9720530110780329;1.015;0.00282849905100143
56:47.6;0.009802518408040462;-0.25564015985547245;-0.9717170545638406;1.014;0.002435042648494749
56:47.6;0.008376481862999616;-0.2546409830118569;-0.9709320629690684;1.013;0.002070993794691323
56:47.6;0.0071375954700891265;-0.2537595193466982;-0.9698380196102917;0.997;0.0017566024277134446
56:47.6;0.0061564429180711155;-0.25299845355989076;-0.968602777974467;0.997;0.0015086671497090834
56:47.6;0.005489877850327416;-0.252354818872797;-0.9673983383395124;0.997;0.0013402308820374509
56:47.6;0.0051806309420739825;-0.2518251702539756;-0.9663769966122023;0.99;0.001260748252647079
56:47.6;0.005257437028671055;-0.25141013458865025;-0.965651089611475;0.987;0.0012763714903227144
56:47.7;0.005734930734952637;-0.25111744896662486;-0.965278767628042;0.9890000000000001;0.0013901376997356655
56:47.7;0.006613004132659041;-0.2509630161664129;-0.9652577968476787;0.992;0.0016019606265121303
56:47.7;0.007875683420145534;-0.2509698955900865;-0.9655284849823108;0.995;0.0019084244470402654
56:47.7;0.009489817318229163;-0.2511654983223112;-0.965984942358243;0.9990000000000001;0.0023024393059558113
56:47.7;0.011403994166433925;-0.251577399750271;-0.9664922146495105;1.002;0.0027728537919159938
56:47.7;0.013548275086092378;-0.2522281597585528;-0.9669061212538279;1.003;0.0033041662208481946
56:47.7;0.015835340465171793;-0.25312966797636605;-0.9670928310579204;1.003;0.003876489560091282
56:47.7;0.01816316285844876;-0.25427793563270806;-0.9669460251693248;1.003;0.004465832052552475
56:47.7;0.020418970687100243;-0.2556495678313939;-0.966400466933009;1.006;0.005044708074490798
56:47.7;0.022484779353080697;-0.2572008707322748;-0.9654413005608818;1.008;0.005583248246265352
56:47.8;0.024245289094263912;-0.25886967818187145;-0.9641081877812534;1.0070000000000001;0.006051099885153897
56:47.8;0.02559822540561362;-0.26057916702833245;-0.9624930262430693;1.002;0.006420179076589415
56:47.8;0.026465571828955516;-0.26224271938860805;-0.9607304365154632;0.996;0.006667856909703717
56:47.8;0.026803057183190693;-0.26376906109122716;-0.9589818224350468;0.99;0.006779826209191848
56:47.8;0.026605354952228395;-0.26506712868627547;-0.9574158605557938;0.985;0.006751892961846636
56:47.8;0.02590526539641917;-0.2660505883734144;-0.9561894396054803;0.99;0.006590163851064394
56:47.8;0.02476663307170188;-0.2666424704782794;-0.9554324275417077;0.99;0.006309519278088372
56:47.8;0.02327295468344432;-0.2667802823727463;-0.9552375311099932;0.99;0.00593084575304542
56:47.8;0.02151499433764886;-0.26642136790953913;-0.955654531535372;0.992;0.005477863592263053
56:47.8;0.019580089661274176;-0.26554797576868533;-0.9566875376469473;0.993;0.004974252055025507
56:47.9;0.017544611128307287;-0.2641714815614963;-0.9582942126913716;0.993;0.004441488519585508
56:47.9;0.01547035747268064;-0.26233510426553786;-0.9603864835002333;0.991;0.003897649638528438
56:47.9;0.013404789133100168;-0.26011435421792917;-0.9628330333529733;0.992;0.0033571851045957907
56:47.9;0.011383784702729145;-0.2576144546732801;-0.9654648198104168;0.993;0.002831348669573831
56:47.9;0.009435097989922068;-0.25496407493179346;-0.9680853014235472;0.998;0.002328836679948218
56:47.9;0.00758135645487198;-0.25230523055306137;-0.9704863455657398;1.0090000000000001;0.0018563617011292
56:47.9;0.005842585612799492;-0.24978053560101093;-0.9724687153623527;1.0090000000000001;0.001419185993480117
56:47.9;0.004238818248031616;-0.2475204754375587;-0.9738636306142537;1.0090000000000001;0.0010217721780536677
56:47.9;0.0027929676627068416;-0.24563342363332058;-0.9745512724071421;1.012;0.0006685872059966457
56:47.9;0.0015333921476739778;-0.24419951692851022;-0.9744736738947192;1.011;0.000364895196464527
56:48.0;0.000495258580625699;-0.24326798544848402;-0.973641076563078;1.012;0.0001173048194024152
56:48.0;-0.00027984984756158785;-0.24285722846997096;-0.9721311726634153;1.0090000000000001;6.606949369325378e-05
56:48.0;-0.0007460490931031846;-0.24295713995046817;-0.9700806105076046;1.003;0.00017583482660097366
56:48.0;-0.000856637238618978;-0.24353316749729612;-0.9676689258743394;0.992;0.00020187468500818933
56:48.0;-0.0005686363097960939;-0.24453149345230724;-0.9650969791013781;0.983;0.00013419623894755575
56:48.0;0.0001517862526822084;-0.24588484552620057;-0.9625641936946846;0.988;3.592476240342551e-05
56:48.0;0.0013232204295326039;-0.2475184058069119;-0.9602495536919534;0.988;0.00031450228897645646
56:48.0;0.002942650942259117;-0.2493547720543332;-0.9582993550793604;0.988;0.0007031656206318053
56:48.0;0.004979585585328373;-0.2513167412526997;-0.9568216220052306;0.988;0.0011974175018273124
56:48.0;0.007371823132756086;-0.2533276133637326;-0.9558852747720319;0.988;0.0017851027127063655
56:48.1;0.010024252057269317;-0.2553100386365511;-0.9555220504612364;0.987;0.002445460111605009
56:48.1;0.012811932926486034;-0.25718506399908025;-0.9557298936490182;0.987;0.0031491661162719145
56:48.1;0.015588041859598287;-0.25887279885456815;-0.9564774168367421;0.99;0.0038596924734842046
56:48.1;0.018196104425817074;-0.26029538057198237;-0.9577095680718828;0.996;0.004536059134808314
56:48.1;0.020484838908537407;-0.2613820850028208;-0.9593542194481299;1.001;0.005136737360713921
56:48.1;0.02232349890409219;-0.2620757822708868;-0.9613282601019119;0.9990000000000001;0.0056242014180196195
56:48.1;0.023615723625985234;-0.26233959692243475;-0.9635413225271239;0.9990000000000001;0.0059694655354305395
56:48.1;0.02430997581016798;-0.2621626971768882;-0.9658964209780355;0.9990000000000001;0.006155820959996912
56:48.1;0.024404865044336477;-0.2615645138805096;-0.9682887176460404;0.997;0.006181019382162564
56:48.1;0.023948492888661146;-0.2605968589756636;-0.9706049734614796;1.0;0.006057450543366734
56:48.2;0.023032188518455694;-0.2593430063525167;-0.972726456986202;1.0090000000000001;0.0058103256766416185
56:48.2;0.02178015521944466;-0.2579123647043806;-0.974536822252623;1.0170000000000001;0.005474335211466828
56:48.2;0.020336986060787918;-0.2564300794118781;-0.9759336237457925;1.016;0.005089508438594462
56:48.2;0.018854251168520134;-0.2550229981244228;-0.9768394481933506;1.013;0.004696905528138279
56:48.2;0.01747643521888732;-0.2538052406230683;-0.9772086231119589;1.01;0.004334517167444132
56:48.2;0.01632702621120207;-0.2528662152868739;-0.9770282038395288;1.0070000000000001;0.004033713039498644
56:48.2;0.015496963610123293;-0.25226209692162066;-0.9763148459833847;1.0070000000000001;0.0038167042456510496
56:48.2;0.015037760272873277;-0.252011038310636;-0.9751100254560714;1.0070000000000001;0.003695356502171627
56:48.2;0.014960083065115176;-0.252092929137253;-0.9734750773127799;1.006;0.0036712968925740243
56:48.2;0.015237197518304794;-0.25245432118093486;-0.971486278762861;1.004;0.003737012728599328
56:48.3;0.015812284582177528;-0.25301766773507345;-0.9692297991782666;1.0;0.0038776823358321493
56:48.3;0.016608379717023402;-0.25369264799759567;-0.9667968006854449;0.997;0.004073524678158249
56:48.3;0.017538978826667176;-0.25438710654411717;-0.9642796332737936;0.997;0.004302316869740492
56:48.3;0.018516899485174522;-0.25501590058991097;-0.961770070267085;0.9990000000000001;0.004541578101942393
56:48.3;0.019459912027741028;-0.2555069743557323;-0.9593594057676275;1.001;0.004770072387415084
56:48.3;0.02029371577894875;-0.2558047778520123;-0.9571386192838546;0.9890000000000001;0.004968726194500552
56:48.3;0.020954133874077487;-0.25587173770754507;-0.9551963938529093;0.9890000000000001;0.005121352946940401
56:48.3;0.021389833984511327;-0.25568885004154757;-0.9536143255895229;0.9890000000000001;0.005215452211454143
56:48.3;0.021565643074834672;-0.2552563309262731;-0.9524604623676614;0.982;0.00524307285094306
56:48.3;0.02146601168856489;-0.25459459882365304;-0.9517827587424674;0.9790000000000001;0.00520161711190116
56:48.4;0.021098063211943522;-0.25374504148324667;-0.9516040878737239;0.981;0.005094440009514342
56:48.4;0.020493226345078257;-0.25276943554697034;-0.9519207741903252;0.986;0.004931007920957056
56:48.4;0.01970617185029281;-0.2517467343056146;-0.952705857724191;0.99;0.00472633985239309
56:48.4;0.018810373929455303;-0.2507663641198791;-0.9539160865402707;0.992;0.004499630839884415
56:48.4;0.01789075184625579;-0.2499183179311295;-0.9554996545527531;0.992;0.004272255479313267
56:48.4;0.017034639972965674;-0.2492818253113027;-0.9574014684482147;0.99;0.0040655346278198334
56:48.4;0.01632251708502696;-0.24891522653350773;-0.9595642077081716;0.99;0.003898635525761702
56:48.4;0.015819761363836848;-0.24884931453046422;-0.9619255363433181;0.99;0.003786847630296726
56:48.4;0.015570298929301524;-0.24908529690666464;-0.9644133438306415;0.991;0.0037403156454134585
56:48.4;0.015592532448025298;-0.24959737786665245;-0.9669413574133785;0.9940000000000001;0.0037631957628315262
56:48.5;0.015877784769143092;-0.2503389319030891;-0.9694071560642618;0.998;0.0038532263972058368
56:48.5;0.01639161908048441;-0.2512504212739628;-0.9716939288168404;1.002;0.004001825441824876
56:48.5;0.017078162227711684;-0.2522670781358965;-0.9736764336552536;1.006;0.004194849367581827
56:48.5;0.017866889014943873;-0.2533250835916591;-0.9752306561512101;1.01;0.004414021854394391
56:48.5;0.018680877443796894;-0.2543659484566478;-0.9762458332338589;1.012;0.004638904555602891
56:48.5;0.01944544014820765;-0.25533952284900746;-0.9766369804374064;1.015;0.00484918759173707
56:48.5;0.020095883163683;-0.25620626512604266;-0.9763559699162085;1.015;0.005026955360866196
56:48.5;0.020583138647382707;-0.25693882124185446;-0.9753995494137441;1.015;0.005158505256957074
56:48.5;0.020876512135172255;-0.25752219513737207;-0.9738132416502453;1.012;0.005235380892086434
56:48.5;0.020963359730981908;-0.2579519443884962;-0.9716906016954396;1.008;0.0052544552167003685
56:48.6;0.02084580110983029;-0.25823076644227344;-0.9691678791371626;1.006;0.0052170570525274075
56:48.6;0.02053511762034001;-0.25836448705818266;-0.9664146833944655;1.002;0.0051273567176804745
56:48.6;0.020045628702819396;-0.2583584863074018;-0.9636215137789494;0.996;0.00499055562599428
56:48.6;0.01939063470581405;-0.2582154474504662;-0.9609850783961763;0.992;0.004811615209756188
56:48.6;0.01858237974031465;-0.25793523047215994;-0.95869250319504;0.993;0.0045950614869123135
56:48.6;0.01763624469878203;-0.2575172135200626;-0.9569057018033876;0.985;0.0043459179502011525
56:48.6;0.016577524212621268;-0.2569644055456814;-0.9557472331924742;0.985;0.004071324229354395
56:48.6;0.015447742222164981;-0.2562878317957459;-0.9552891449377767;0.985;0.0037820550286213196
56:48.6;0.014307139517667298;-0.2555097783901439;-0.9555463079946275;0.985;0.003493108506595472
56:48.6;0.013231332565494101;-0.2546649991388293;-0.9564751623278895;0.985;0.003222897862044559
56:48.7;0.012302625820382582;-0.25379947073458275;-0.9579780372755152;0.988;0.002991190548731431
56:48.7;0.01159852744307561;-0.25296683615445514;-0.9599126901805279;0.9940000000000001;0.002816424908926007
56:48.7;0.01118075137256944;-0.2522231850628352;-0.9621060509588604;0.996;0.002713182091573755
56:48.7;0.01108751811132007;-0.2516209939760073;-0.9643703496147189;0.998;0.0026904508648277945
56:48.7;0.011330635103466513;-0.2512030680900157;-0.9665196013761594;0.9990000000000001;0.002750995367509203
56:48.7;0.01189708931485063;-0.25099736647946114;-0.9683850690909868;1.006;0.002891731537499539
56:48.7;0.012753551577140402;-0.2510134597665656;-0.9698288847296241;1.006;0.0031047259189610327
56:48.7;0.013851866585398604;-0.25124113414230104;-0.9707548136090564;1.006;0.00337838078190276
56:48.7;0.015134166488719238;-0.2516515407829518;-0.9711149284460178;1.008;0.0036985264713670324
56:48.7;0.016537159165061745;-0.2522010730498039;-0.970911464936198;1.008;0.0040493700450697865
56:48.8;0.017995852696501728;-0.25283756470397806;-0.9701937954173416;1.006;0.004414408517930315
56:48.8;0.019447238160774927;-0.25350766063601715;-0.9690507908525914;1.003;0.004777443512673215
56:48.8;0.020834163052935204;-0.2541638091721555;-0.967599301356542;1.0;0.005123719139072601
56:48.8;0.02210886457513203;-0.25476953819492104;-0.9659702580735425;0.995;0.005440987074099875
56:48.8;0.02323512385876557;-0.25530228364832563;-0.9642944689949907;0.995;0.005720175679685239
56:48.8;0.02418841750152097;-0.25575358536080317;-0.9626901486116778;0.992;0.005955465517967488
56:48.8;0.024954348114368106;-0.2561269135959993;-0.9612536316997005;0.992;0.006143833518940679
56:48.8;0.025526204520692174;-0.2564339576968874;-0.960053907625282;0.992;0.00628430709197243
56:48.8;0.025902556014952366;-0.25669056088443903;-0.9591308943735455;0.992;0.006377205333963793
56:48.8;0.02608552268921043;-0.25691311271351314;-0.9584968422168544;0.992;0.006423570585808174
56:48.9;0.02607988773236282;-0.25711549971359465;-0.9581399853635806;0.991;0.006424849223302319
56:48.9;0.02589275456505622;-0.2573065380090592;-0.9580296453073832;0.992;0.006382752793269324
56:48.9;0.025533384703403675;-0.2574881859505911;-0.9581222636192026;0.993;0.006299217849957866
56:48.9;0.025013105505716365;-0.25765500015829157;-0.958367965749872;0.993;0.006176443579400402
56:48.9;0.02434524781419179;-0.25779498200941964;-0.9587171810875392;0.9940000000000001;0.006016988335771156
56:48.9;0.02354494841825215;-0.25789155211220777;-0.9591267764249561;0.997;0.005823859308954273
56:48.9;0.02262874376944361;-0.25792618113046134;-0.9595650779991528;0.997;0.0056005452036316785
56:48.9;0.021614080904059793;-0.2578812380129106;-0.9600149665747595;0.997;0.005350994726049464
56:48.9;0.020518786124213116;-0.2577427923938585;-0.9604742520050141;0.996;0.005079534577461585
56:48.9;0.019360415567871974;-0.25750320388649317;-0.9609530783838742;0.9940000000000001;0.004790705723274022
56:49.0;0.018155738820069902;-0.25716328493288365;-0.9614689700362087;0.992;0.004489088463518455
56:49.0;0.01692103023683729;-0.2567338130237942;-0.9620409205177747;0.992;0.004179298756638776
56:49.0;0.015673683765109227;-0.25623623005948576;-0.9626842992503436;0.996;0.0038662996039658436
56:49.0;0.014434972892263668;-0.2557023357985382;-0.9634078839701294;0.9990000000000001;0.003555992725859804
56:49.0;0.013232942978019538;-0.2551726366088854;-0.9642130869806094;0.997;0.0032558438192040362
56:49.0;0.0121037346044217;-0.2546929021556325;-0.9650944846742268;0.996;0.0029751308292953757
56:49.0;0.011089729070338126;-0.25430862588178993;-0.9660409775647147;1.001;0.0027244420588874536
56:49.0;0.010234260016464573;-0.2540577875673361;-0.9670375064223035;1.001;0.0025143878932884
56:49.0;0.009574401959050453;-0.2539634396741129;-0.9680669913765776;1.001;0.0023539014093554166
56:49.0;0.009133984210223243;-0.25402823506465044;-0.9691115290611929;1.005;0.00224861968125533
56:49.1;0.008918234313940267;-0.2542325534604032;-0.9701518528238765;1.005;0.0021996306142715153
56:49.1;0.008910648489307208;-0.25453693807670613;-0.9711644248820375;1.001;0.002202687526742771
56:49.1;0.009072752528704948;-0.2548884988344492;-0.9721162849896916;0.998;0.002248058058434322
56:49.1;0.009347801316827194;-0.2552297391786539;-0.9729593982573885;0.997;0.0023213224267686133
56:49.1;0.009669059667029183;-0.25550748666415757;-0.9736278512750474;0.9990000000000001;0.002405364288644899
56:49.1;0.00997165020565168;-0.2556798884564251;-0.9740411418928021;1.01;0.0024833669949172713
56:49.1;0.010204930093600668;-0.2557205146372012;-0.9741145072347246;1.01;0.0025420589352345363
56:49.1;0.010341680396698126;-0.25561970848978643;-0.9737741278589055;1.01;0.0025742082563263466
56:49.1;0.010381646146700169;-0.255383843338204;-0.9729733651029079;1.016;0.0025796488491796024
56:49.1;0.010349121877721162;-0.25503308783674883;-0.9717064693739699;1.016;0.002564691455134872
56:49.2;0.01028626721304879;-0.2545981505776575;-0.9700168411425407;1.012;0.002540342775198294
56:49.2;0.010244941063515329;-0.2541166486316813;-0.9679973278885622;1.006;0.002520094009056066
56:49.2;0.010279483075732749;-0.2536299995611092;-0.9657813099644109;0.998;0.002517970822751568
56:49.2;0.010441474440788783;-0.25318146729143154;-0.9635257153626947;0.991;0.0025471648450089016
56:49.2;0.010776160766439707;-0.25281498531284013;-0.9613895303099044;0.9840000000000001;0.0026191855303954845
56:49.2;0.011319442128808279;-0.25257342984734343;-0.9595127854849654;0.983;0.0027432377679509246
56:49.2;0.012094427919075793;-0.25249525975351733;-0.958000785676135;0.983;0.0029255291180859113
56:49.2;0.0131076685965133;-0.2526097846366135;-0.9569165793856139;0.983;0.0031684707354691566
56:49.2;0.014346435141060038;-0.2529323608500116;-0.9562822975092155;0.9890000000000001;0.003470040257448731
56:49.2;0.015778701892325768;-0.253460783763881;-0.956087913078024;0.995;0.003823665323079231
56:49.3;0.017356720539861387;-0.25417372913384817;-0.9563041981435965;0.997;0.004218853007543811
56:49.3;0.01902369252061356;-0.2550319148111575;-0.9568954115326987;0.998;0.004642520408402821
56:49.3;0.020721652615352543;-0.2559823744450726;-0.9578275231737772;0.996;0.005080679087415188
56:49.3;0.022398217282987482;-0.25696542948409434;-0.9590698000354045;0.993;0.005519990994142039
56:49.3;0.024010650430641316;-0.2579229460470159;-0.9605902939370823;0.991;0.005948837417715686
56:49.3;0.025526918323631305;-0.258806062241868;-0.962347885326643;0.995;0.006357771718223456
56:49.3;0.02692422714002969;-0.2595809843855599;-0.9642841488543582;0.995;0.006739398680258448
56:49.3;0.028185953104194833;-0.26023215760725377;-0.9663174598492958;0.995;0.007087833616759198
56:49.3;0.029298100399470756;-0.2607626993109635;-0.9683406616065047;0.9990000000000001;0.007397979093183283
56:49.3;0.030246353817638644;-0.26119234576774153;-0.9702231613382961;1.001;0.0076648756218962045
56:49.4;0.031014295137459957;-0.2615533191267587;-0.971818023312144;1.005;0.007883282687031196
56:49.4;0.031582680129926405;-0.26188466503795793;-0.9729738587133411;1.008;0.00804748586234792
56:49.4;0.031929269313445745;-0.2622258182539684;-0.9735503530361527;1.012;0.008151224374309339
56:49.4;0.0320286950214717;-0.2626101523663494;-0.9734355522821574;1.014;0.00818762530331984
56:49.4;0.031852101269577354;-0.26305901918064956;-0.9725626101951586;1.013;0.008149085109280986
56:49.4;0.031366697863604374;-0.2635768360023653;-0.9709236399895567;1.012;0.008027145155290478
56:49.4;0.030535765055780106;-0.26414833477157107;-0.968578754271773;1.008;0.00781252861822162
56:49.4;0.02931997895798512;-0.26473917133333275;-0.9656592174978748;1.008;0.007495588733277271
56:49.4;0.02768122886320678;-0.26529998032262675;-0.9623643957002825;1.006;0.007067440012635187
56:49.5;0.025589952249999718;-0.2657727386680844;-0.9589523644279222;1.002;0.006521942137655141
56:49.5;0.023035931403059467;-0.266098230379672;-0.9557238371745556;0.997;0.005858415647344312
56:49.5;0.020040780902875657;-0.2662239526912791;-0.9529993562989325;0.99;0.005084571684993816
56:49.5;0.016668918475922147;-0.2661118717125101;-0.9510908797478738;0.982;0.004218846161515009
56:49.5;0.013033336434641262;-0.2657450078604998;-0.9502706117463731;0.977;0.003291304164324387
56:49.5;0.009292976522639296;-0.2651315139613489;-0.9507414223840746;0.9740000000000001;0.002342494649570096
56:49.5;0.005639949453286198;-0.26430512614855517;-0.9526135694047438;0.985;0.0014200301372419948
56:49.5;0.0022779535889197572;-0.2633218441782133;-0.9558908314998684;0.985;0.0005733767195465891
56:49.5;-0.0006026518008078745;-0.2622540932699783;-0.9604662308268674;0.985;0.00015179967231909071
56:49.5;-0.0028461618955992825;-0.26118424177401023;-0.96612587579117;0.992;0.000718191539640235
56:49.5;-0.004345035644258753;-0.26019861867877603;-0.9725603187792868;1.0;0.001099549729985041
56:49.6;-0.005045031480996571;-0.2593821342945661;-0.9793839449786798;1.0090000000000001;0.001281613048384872
56:49.6;-0.00494295583787303;-0.25881327692720857;-0.9861622596231137;1.021;0.0012615999408903222
56:49.6;-0.004078544637123097;-0.25855945295541627;-0.9924452364832773;1.032;0.0010465794225397742
56:49.6;-0.002522822811343785;-0.25867288274119044;-0.9978033060123863;1.041;0.00065115231784407
56:49.6;-0.0003657871025412455;-0.2591873804040963;-1.0018615415403338;1.046;9.498388880836386e-05
56:49.6;0.0022941892953859274;-0.2601161630601537;-1.004327716498059;1.045;0.0005993383064105855
56:49.6;0.00535768908382939;-0.26145037152960676;-1.0050114583248333;1.045;0.0014077897009902515
56:49.6;0.00872745851945279;-0.2631577585870444;-1.0038338822861779;1.045;0.0023055036935379384
56:49.6;0.012307435212879393;-0.26518146583958074;-1.0008284757806392;1.0390000000000001;0.003266407609956342
56:49.6;0.015998691388950284;-0.2674396284576788;-0.9961342589901173;1.034;0.004262143796350179
56:49.7;0.01969429756389572;-0.26982690552339794;-0.9899822978790999;1.0270000000000001;0.0052608167844619596
56:49.7;0.023275479460642515;-0.27221854544603363;-0.982677087639611;1.02;0.006226258893300762
56:49.7;0.02661145287571821;-0.27447677356340755;-0.974574644712113;1.012;0.007118513190996635
56:49.7;0.029564638514151413;-0.27645899478112446;-0.9660588801355481;1.004;0.007895995547873267
56:49.7;0.03200122491304445;-0.2780275831401297;-0.9575173004170906;0.996;0.008519245158915969
56:49.7;0.03380501183951385;-0.27906103413854855;-0.9493169922558935;0.977;0.008955535220947773
56:49.7;0.03489126239379948;-0.27946552299571015;-0.9417827271246947;0.977;0.009183233801934728
56:49.7;0.03521725705144292;-0.27918508020305277;-0.9351801329641054;0.977;0.009194815197913039
56:49.7;0.03478714225087172;-0.2782085809186258;-0.9297061046772802;0.972;0.008997771433361512
56:49.7;0.03365008731601514;-0.2765726055168839;-0.9254857500179983;0.965;0.008613211126460688
56:49.8;0.031892239731498906;-0.2743601957941289;-0.9225732479416519;0.96;0.008072480065568991
56:49.8;0.0296243216105274;-0.27169600007400535;-0.9209548778312424;0.956;0.00741259054150483
56:49.8;0.026967649144087575;-0.2687383948652979;-0.9205543701093463;0.956;0.0066714809794834115
56:49.8;0.02404126888896493;-0.2656692823186008;-0.9212415255041019;0.956;0.005883994176102572
56:49.8;0.020951955635242037;-0.26268236813013124;-0.9228446376027114;0.9590000000000001;0.005079068635860233
56:49.8;0.017787996415600103;-0.2599706192899765;-0.9251662966759334;0.968;0.004278298725889567
56:49.8;0.014617309425924497;-0.2577135919200641;-0.9280008528873778;0.968;0.003495852818478348
56:49.8;0.01148992152343315;-0.25606567027807553;-0.9311506236693081;0.968;0.0027396075799652675
56:49.8;0.008443822334252846;-0.25514630501205665;-0.9344381443687432;0.971;0.0020131629468641337
56:49.8;0.005512135601726253;-0.2550326586412792;-0.9377136108030869;0.973;0.0013182139736089638
56:49.9;0.002729078117895247;-0.2557545347886479;-0.9408583528702475;0.9740000000000001;0.0006566947662534353
56:49.9;0.00013274416909623275;-0.2572916985683169;-0.9437855745337466;0.977;3.22340267867387e-05
56:49.9;-0.0022357889121128282;-0.259574079479705;-0.9464394801075566;0.978;0.0005492688484712965
56:49.9;-0.004336028464339564;-0.26248539719441033;-0.9487939721877278;0.981;0.00107986431251927
56:49.9;-0.006132622076828309;-0.26587065317923925;-0.9508519575794386;0.993;0.0015503491288084725
56:49.9;-0.007599301827765401;-0.2695475288971294;-0.9526453020895999;0.998;0.001951372943020663
56:49.9;-0.008720950574785745;-0.2733205227298864;-0.9542338685963022;0.998;0.0022745259430313925
56:49.9;-0.009493233764261895;-0.2769953799170902;-0.9557012740577862;0.998;0.002513094765545173
56:49.9;-0.009920367238295147;-0.28039170186195517;-0.9571459383197393;0.9990000000000001;0.002662386281334621
56:49.9;-0.010012418932045406;-0.28335325014225404;-0.9586677495166503;0.9990000000000001;0.002719789725173204
56:50.0;-0.009783622002999683;-0.2857561134358762;-0.9603520111820373;0.997;0.002684884735097964
56:50.0;-0.009252643409441258;-0.2875141684706224;-0.9622531504809313;0.997;0.0025598494127684517
56:50.0;-0.008444864417333333;-0.2885810402636972;-0.9643811442702634;0.996;0.0023502236183026988
56:50.0;-0.007395793425706584;-0.28894874592279146;-0.9666936504348083;0.9990000000000001;0.002065829392067003
56:50.0;-0.00615386319173233;-0.2886440682219685;-0.9690963554353983;1.002;0.0017213827014854852
56:50.0;-0.004780355639577024;-0.28772361960114506;-0.9714528509158332;1.022;0.0013361568727620276
56:50.0;-0.0033450995203273526;-0.2862682242469135;-0.9736028331623088;1.022;0.0009323178861675651
56:50.0;-0.0019190523831223887;-0.2843773152320168;-0.9753841806702291;1.022;0.0005323012512138298
56:50.0;-0.0005666298441947047;-0.2821639766462207;-0.9766531854650597;1.025;0.00015614978234621484
56:50.0;0.0006600952516305371;-0.2797505607532917;-0.9772990714637038;1.024;0.00018047001754761385
56:50.1;0.0017249487669544123;-0.27726419121425605;-0.9772514782816456;1.0190000000000001;0.0004673866683300778
56:50.1;0.0026093151557037555;-0.27483168139534125;-0.9764809734554434;1.013;0.0007002564490887409
56:50.1;0.0033121032650384745;-0.27257403481717807;-0.9749938396590295;1.008;0.0008802179554007531
56:50.1;0.0038482115434191957;-0.2706009365076843;-0.9728238755110341;1.005;0.001013030343393619
56:50.1;0.004246037736553473;-0.2690054098784291;-0.9700246181036368;1.002;0.0011079690270037151
56:50.1;0.004544785507140394;-0.26785869771369625;-0.9666645817793852;1.0;0.0011767791116939529
56:50.1;0.004791862262976117;-0.26720577969721804;-0.9628264703608408;1.0;0.0012328158107129746
56:50.1;0.005039710082677151;-0.2670623197751519;-0.9586097333798391;1.0;0.0012902088160332184
56:50.1;0.005340859831263316;-0.2674136705917284;-0.9541346028552227;0.995;0.0013627131030867921
56:50.1;0.005740502354154056;-0.26821598161736154;-0.9495451666207273;0.9890000000000001;0.0014620094457607848
56:50.2;0.006267244427208;-0.2693990183433936;-0.9450095828431805;0.985;0.0015955442536772742
56:50.2;0.006924327936491753;-0.2708703360158006;-0.9407168123346336;0.981;0.0017644037824064008
56:50.2;0.007684546042295354;-0.2725209030480382;-0.9368700313914784;0.98;0.001961992682876554
56:50.2;0.008491584306272525;-0.27423265314189726;-0.93367675221381;0.977;0.0021742247565806035
56:50.2;0.009268667084423213;-0.27588806117298015;-0.9313353809045564;0.973;0.002381531292165143
56:50.2;0.009933010344217948;-0.27738060754938176;-0.9300184436128893;0.963;0.002562409549281395
56:50.2;0.010412420659663676;-0.27862396888674446;-0.9298542639279564;0.963;0.002697646669818835
56:50.2;0.010659288041042382;-0.27955802395786034;-0.9309105521075712;0.963;0.0027740105811088255
56:50.2;0.010657997919600726;-0.2801510032312453;-0.9331836740078998;0.968;0.0027863453621864644
56:50.2;0.010424222895105393;-0.28039821951918825;-0.9365958826396401;0.976;0.002737607518473657
56:50.3;0.009997405169316702;-0.2803183464816407;-0.9410004396510949;0.9840000000000001;0.00263711240918873
56:50.3;0.009429690803377569;-0.2799484870728465;-0.9461924136392323;0.987;0.002497784918425584
56:50.3;0.008774911913034283;-0.2793393683879669;-0.9519220053971579;0.99;0.002333330611895569
56:50.3;0.00808014347870505;-0.27855150923853134;-0.957908193399519;0.995;0.0021559986096656592
56:50.3;0.007380752729797594;-0.27765211920816124;-0.9638525962786296;0.998;0.0019752054261162554
56:50.3;0.006698456372783406;-0.2767116223138183;-0.9694548368460147;1.016;0.0017969240259035357
56:50.3;0.006041204987657809;-0.2757989648283305;-0.9744299914088119;1.016;0.0016235544054430096
56:50.3;0.005403983404320646;-0.274976082396755;-0.978526628356382;1.016;0.0014540574816984098
56:50.3;0.004770333269740748;-0.27429274280478744;-0.9815430851683273;1.022;0.001284317517967362
56:50.3;0.004114798505037674;-0.27378271948878385;-0.9833409346273071;1.025;0.0011077932760958859
56:50.4;0.003406632382936214;-0.2734616380113242;-0.9838556665455355;1.0290000000000001;0.0009165434805638125
56:50.4;0.002615228276255579;-0.2733265722484662;-0.9831039146674346;1.0290000000000001;0.0007027338663163391
56:50.4;0.001717299889724758;-0.27335736035284486;-0.9811854930794344;1.026;0.00046060434729239486
56:50.4;0.0007043632779142375;-0.2735194719909795;-0.9782784861424527;1.022;0.00018847226860866902
56:50.4;-0.0004126157498795929;-0.27376807043717694;-0.9746265176991169;1.0190000000000001;0.00011009480329381992
56:50.4;-0.0016045632500867849;-0.27405256484829754;-0.9705185881574142;0.997;0.0004267706751175929
56:50.4;-0.002832027464667075;-0.2743207257067124;-0.9662636643386633;0.997;0.0007506746156927113
56:50.4;-0.004055827744224741;-0.2745218666556968;-0.9621642503255146;0.997;0.0010712865723716597
56:50.4;-0.005245562842642713;-0.2746093885447783;-0.9584934321984441;0.992;0.0013806913906004134
56:50.4;-0.006382628388779642;-0.2745433133487056;-0.9554776056396048;0.988;0.0016742910003284693
56:50.5;-0.0074571105049305655;-0.2742931815705353;-0.95328489490288;0.988;0.0019498818750135522
56:50.5;-0.008460074421102913;-0.27384122973305286;-0.9520189284108435;0.987;0.0022055586100934344
56:50.5;-0.009374708514600153;-0.273185300917999;-0.9517178128367582;0.988;0.0024373803128688175
56:50.5;-0.010170826544818044;-0.2723406702068882;-0.9523577788550646;0.991;0.002637964113603649
56:50.5;-0.010805748278071034;-0.27134002717493366;-0.9538604543087926;0.995;0.0027967494055356253
56:50.5;-0.011231133821165607;-0.2702311537431493;-0.9561022757449688;0.997;0.0029017725584385818
56:50.5;-0.011402598367663374;-0.2690724944792275;-0.9589242119769191;0.997;0.002942099910119589
56:50.5;-0.011288483283513067;-0.26792779068265477;-0.9621402266713089;0.997;0.002909991562971058
56:50.5;-0.010875339795294942;-0.2668613059480362;-0.965544115999531;0.997;0.002802209259556653
56:50.5;-0.010169123161834829;-0.26593435119472114;-0.968916011986493;0.9990000000000001;0.002620258145588643
56:50.6;-0.009192193080134168;-0.2652027268472963;-0.972030809088002;1.006;0.002369611526013329
56:50.6;-0.00797714341853236;-0.26471438215575394;-0.97467022518068;1.013;0.002058176602810422
56:50.6;-0.0065593998632712935;-0.264507044207777;-0.9766382939677737;1.018;0.0016944747351420222
56:50.6;-0.00497103160857701;-0.26460610787808475;-0.9777779375078199;1.021;0.001286135195608201
56:50.6;-0.003237716649454715;-0.2650231108327504;-0.9779851729429215;1.023;0.0008391794815389526
56:50.6;-0.0013794095265073705;-0.2657547767132741;-0.9772179159284097;1.013;0.0003582331079255866
56:50.6;0.0005860212012020654;-0.2667824509940173;-0.9754980239524996;1.013;0.00015250952923195524
56:50.6;0.002637494928784998;-0.2680718904284098;-0.9729074204463701;1.013;0.0006878827614770324
56:50.6;0.0047452602916479404;-0.2695735786078637;-0.9695802555859786;1.0090000000000001;0.0012402839585874729
56:50.6;0.006866739321376599;-0.27122388543274506;-0.9656923629870903;1.003;0.00179852836208197
56:50.7;0.008944524036059229;-0.27294732562267343;-0.9614483203495247;1.0;0.002347264464030216
56:50.7;0.010906270187011936;-0.27465994911599534;-0.9570665457473623;0.9940000000000001;0.0028669077820070756
56:50.7;0.012665541261431509;-0.2762737218657512;-0.9527634211971534;0.99;0.0033338680550337625
56:50.7;0.014123200438684444;-0.2777015548334476;-0.9487377170657277;0.983;0.003720982267498743
56:50.7;0.015170351663221376;-0.2788623724999951;-0.9451567817525831;0.978;0.0039984292981971835
56:50.7;0.015694611641492627;-0.27968565514238963;-0.9421461696105835;0.977;0.004135605010230544
56:50.7;0.015590520052585627;-0.2801153056033733;-0.9397842583228986;0.977;0.004104172516885489
56:50.7;0.014772805302642727;-0.28011291875630073;-0.9381026258287783;0.977;0.003881918958807632
56:50.7;0.0131898955445723;-0.27966039109849394;-0.9370917461610506;0.978;0.003456642214981486
56:50.7;0.010835187147264771;-0.27876173921739095;-0.9367105742949773;0.98;0.0028292739785336155
56:50.8;0.00775410246639991;-0.2774440797719183;-0.9368981261710944;0.982;0.0020155768801765604
56:50.8;0.004045397139098453;-0.2757576011718569;-0.9375850564836569;0.982;0.001045922082362413
56:50.8;-0.0001438435981638528;-0.2737740184377719;-0.9387034790553207;0.98;3.696674367767426e-05
56:50.8;-0.004628643570649331;-0.2715828649527161;-0.9401940477696308;0.98;0.0011818805946001675
56:50.8;-0.009200374191040948;-0.2692852811179427;-0.942010357891209;0.982;0.00233385454203814
56:50.8;-0.013643488950441544;-0.266985619961635;-0.944121201088066;0.987;0.003439070384888982
56:50.8;-0.017753573273609314;-0.264782109248364;-0.9465105667461406;0.987;0.004449383921616523
56:50.8;-0.02135449114147407;-0.2627585726128365;-0.949174217373705;0.987;0.005325888301892266
56:50.8;-0.024311861972318487;-0.260978937333871;-0.9521116586078088;0.986;0.0060410379357437646
56:50.8;-0.02654149044279932;-0.25948500128073415;-0.9553138451181756;0.983;0.0065793598294494665
56:50.9;-0.02801297198853083;-0.25829705703804773;-0.9587489477766494;0.983;0.00693718929576724
56:50.9;-0.028748825603622855;-0.2574170277584401;-0.9623498822766302;0.9840000000000001;0.007121809905199027
56:50.9;-0.02881903122228906;-0.2568337421812194;-0.9660077077991571;0.991;0.00715009889808694
56:50.9;-0.028330911539331604;-0.2565292615660895;-0.9695741563553352;1.0;0.007046581674993559
56:50.9;-0.02741497918247414;-0.2564845886267071;-0.9728743230386134;1.008;0.006840784927040774
56:50.9;-0.02620831958156398;-0.25668343047099795;-0.9757275776158442;1.021;0.006563954932891511
56:50.9;-0.02483785894787947;-0.2571135837365085;-0.9779721369079838;1.021;0.006245477668138816
56:50.9;-0.023406102531898537;-0.257766216216568;-0.979487533339593;1.021;0.00590954456992779
56:50.9;-0.02198135900010877;-0.25863363114834503;-0.9802102139502561;1.022;0.005572611413116729
56:51.0;-0.020593368015066796;-0.25970617843749305;-0.9801400922430898;1.02;0.005242009655006862
56:51.0;-0.019234498258376205;-0.26096896577422257;-0.9793381635872026;1.0170000000000001;0.004915892816552619
56:51.0;-0.017866409469601705;-0.26239900128272564;-0.9779164663230122;1.011;0.004584597568732281
56:51.0;-0.016431418896599045;-0.2639633816970904;-0.9760223984819469;1.0090000000000001;0.004233295017251767
56:51.0;-0.014866635619500091;-0.26561901059497905;-0.9738200085438197;1.005;0.003845479895730782
56:51.0;-0.013118113446122773;-0.26731398781176124;-0.9714710206654902;1.004;0.0034066139236068656
56:51.0;-0.011152469909040124;-0.26899035538759475;-0.969118000636735;0.997;0.002907263723027184
56:51.0;-0.008964556967917432;-0.2705874817996357;-0.9668716928119898;0.997;0.002345337663502403
56:51.0;-0.006581145281553528;-0.272045243653296;-0.9648043490686894;0.997;0.0017273560597152542
56:51.0;-0.004061127148650631;-0.2733065851584152;-0.9629502439101109;0.9990000000000001;0.001068810053639024
56:51.0;-0.0014923211693202557;-0.2743197136690706;-0.9613131185619588;1.0;0.00039353574667263223
56:51.1;0.0010152752874792643;-0.2750404298900931;-0.9598786348284409;1.005;0.000268038191241001
56:51.1;0.0033394250423831253;-0.27543480220008243;-0.9586287393137227;1.0070000000000001;0.0008817408437887139
56:51.1;0.005357790785111028;-0.2754820390789571;-0.9575542393932353;1.005;0.0014133262433926022
56:51.1;0.006960961489069021;-0.27517718915931405;-0.9566621254723672;1.002;0.0018324842123827912
56:51.1;0.008064787394302237;-0.27453312070825503;-0.9559755976193856;0.997;0.0021165789680319767
56:51.1;0.008620067182283806;-0.2735811460740944;-0.9555270581188168;0.986;0.002253407860074048
56:51.1;0.008617608995908297;-0.2723698824645311;-0.9553467999468063;0.986;0.002242368178531028
56:51.1;0.008087581475355085;-0.27096247959274794;-0.9554518663133988;0.986;0.002093806963505405
56:51.1;0.007093377222391361;-0.26943264632689945;-0.9558394637832949;0.99;0.00182678833618717
56:51.1;0.005721160311320495;-0.2678596257235292;-0.9564871422620447;0.997;0.0014657858037277368
56:51.2;0.004067181577191655;-0.2663220301035483;-0.9573588671622557;1.0;0.0010369920298489714
56:51.2;0.002225914045958659;-0.2648908964211206;-0.9584135549765749;1.001;0.0005651039856680365
56:51.2;0.0002819866942764334;-0.26362313038015045;-0.9596117440200024;0.998;7.133582421133213e-05
56:51.2;-0.0016928271310688923;-0.26255697989534615;-0.9609173361847696;0.993;0.0004270927583814634
56:51.2;-0.0036388108369918115;-0.26171089686014937;-0.9622941196612457;0.991;0.0009164085176337052
56:51.2;-0.005506615042948547;-0.2610860032612225;-0.9636995338705846;0.995;0.0013855109288031134
56:51.2;-0.00725706903031218;-0.26067089370533575;-0.9650793192308336;0.995;0.001825646985087355
56:51.2;-0.008862495896340408;-0.2604467531076809;-0.9663658460528392;0.995;0.002230573647979117
56:51.2;-0.010307742424631946;-0.26039120334042726;-0.9674812958395762;0.9990000000000001;0.0025967637736119603
56:51.2;-0.01158951415431717;-0.26048035119867774;-0.9683457438984067;1.005;0.002923281559948361
56:51.3;-0.01271382640090271;-0.26068953661840744;-0.9688891439806643;1.01;0.003211248889268176
56:51.3;-0.013691860230505115;-0.2609938752502157;-0.9690646685493322;1.014;0.0034629445119763462
56:51.3;-0.014534527628436584;-0.2613695982692193;-0.9688596020970323;1.013;0.003680584898914045
56:51.3;-0.01524636827808525;-0.26179663474627984;-0.9683000250033332;1.011;0.0038649191084430806
56:51.3;-0.015820041564390815;-0.26226231609525275;-0.967446946489859;1.008;0.004013938098251882
56:51.3;-0.016233041099494513;-0.2627655573655372;-0.9663838563823494;0.992;0.004122094966402591
56:51.3;-0.01644777100927577;-0.26332031202404405;-0.9651984577575959;0.992;0.004180305594400683
56:51.3;-0.01641510452065428;-0.2639568604000267;-0.9639638087792728;0.992;0.004176738979926775
56:51.3;-0.01608091447783625;-0.26471990398515405;-0.9627244928085665;0.991;0.0040982586084432225
56:51.3;-0.015394999001276369;-0.2656631488337493;-0.9614912183601185;0.991;0.0039323874645114405
56:51.4;-0.01432166693474878;-0.2668405015088578;-0.9602444812679323;0.995;0.0036696710656247563
56:51.4;-0.012850678009264076;-0.26829427707999615;-0.9589462036186338;0.997;0.00330621959126457
56:51.4;-0.011006604203089115;-0.2700416159944816;-0.9575570173950568;1.001;0.0028460904046751345
56:51.4;-0.008854353705002394;-0.27206176538287835;-0.9560554765398269;1.006;0.002303071771055983
56:51.4;-0.006498775298889492;-0.27428800897407124;-0.9544542602730752;1.01;0.0017013492105297573
56:51.4;-0.0040773500518372545;-0.27660758817145653;-0.9528080832932644;0.992;0.0010746016950181254
56:51.4;-0.0017472206012079396;-0.2788705470466598;-0.9512099283435328;0.992;0.00046347548223354566
56:51.4;0.00032991076537420335;-0.28090521496494786;-0.9497765025959746;0.992;8.801925942216166e-05
56:51.4;0.0020012361344960445;-0.2825364977187899;-0.9486272896223519;0.982;0.0005363749751330255
56:51.5;0.0031329672911701127;-0.2836041326047809;-0.9478620128741198;0.975;0.0008421966979326285
56:51.5;0.003617759426357055;-0.28397929776089287;-0.9475411159552811;0.9740000000000001;0.0009734741615919508
56:51.5;0.00338078504635116;-0.28357791675674654;-0.9476745481630574;0.9790000000000001;0.0009085507335864558
56:51.5;0.0023850161496170425;-0.2823689425361931;-0.9482233037184732;0.99;0.0006385852396093687
56:51.5;0.0006350752977459624;-0.2803768167810221;-0.9491143139154323;1.001;0.00016899966526837066
56:51.5;-0.001821242623627003;-0.27767844964143673;-0.9502642222193508;1.0070000000000001;0.0004805674591575298
56:51.5;-0.0048936751700002865;-0.2743958369171358;-0.9516039423092538;1.006;0.0012778176694783956
56:51.5;-0.008451329800711017;-0.27068603709185235;-0.9530955741720611;0.997;0.002180355735151985
56:51.5;-0.012324736753892219;-0.2667306873705865;-0.9547364921302836;0.997;0.003138586906304348
56:51.5;-0.016308328515296833;-0.2627269266527148;-0.9565502728466783;0.992;0.0040984707197767286
56:51.6;-0.020164917967030065;-0.2588801703395741;-0.9585678609964317;0.986;0.005004009310746579
56:51.6;-0.023634781299837166;-0.25539746196895896;-0.96080411776633;0.982;0.00579966649829076
56:51.6;-0.026451882144398697;-0.25247940532540564;-0.9632356607919291;0.9790000000000001;0.006433022794705786
56:51.6;-0.028367829694184693;-0.25030929807008934;-0.9657860665406107;0.983;0.006857787582151187
56:51.6;-0.02918065964192111;-0.24903935015415657;-0.968323341864278;0.993;0.007036934042011387
56:51.6;-0.028762339929073785;-0.2487752006277967;-0.9706716367548105;1.003;0.006945501980467492
56:51.6;-0.02707828036795528;-0.24956130970614507;-0.9726350518446261;1.012;0.006572767246253898
56:51.6;-0.02419466448329843;-0.25137083514881176;-0.9740276875525299;1.0190000000000001;0.005923873749933053
56:51.6;-0.020273440266447736;-0.2541031834870369;-0.9747024876336168;1.0190000000000001;0.005021224420584895
56:51.6;-0.015557690413916548;-0.25759027789023736;-0.9745724849450444;1.0170000000000001;0.003905608781353648
56:51.7;-0.010350429551899742;-0.2616103280120547;-0.9736209341994269;1.014;0.0026363505825977534
56:51.7;-0.0049887615681251715;-0.2659068438591133;-0.971900049672703;1.01;0.001289269971040906
56:51.7;0.00018497021965183205;-0.2702103482313007;-0.9695204768290095;1.004;4.845747445655002e-05
56:51.7;0.0048524736688496896;-0.2742602340097919;-0.9666349784497212;1.0;0.0012864370398490569
56:51.7;0.008746019812063232;-0.2778245925807463;-0.96342040780924;0.9990000000000001;0.002340976125386315
56:51.7;0.011669463507657614;-0.280716310884601;-0.9600617706255137;0.9990000000000001;0.0031449787447925316
56:51.7;0.013512053945651546;-0.2828041308368003;-0.956740690472691;1.001;0.0036559594006915874
56:51.7;0.0142540394850554;-0.28401807550439057;-0.9536282462306174;0.998;0.0038606732292567145
56:51.7;0.013963701393987164;-0.28434960251518215;-0.9508801400667747;0.998;0.0037755389543033414
56:51.7;0.012786320742208705;-0.28384742025311227;-0.9486315218154072;0.992;0.0034429292436714827
56:51.8;0.010926446052641897;-0.2826098861144556;-0.9469896261466527;0.986;0.002924229792173907
56:51.8;0.008625469406093333;-0.28077464139847597;-0.9460241518034783;0.9790000000000001;0.002291093664255909
56:51.8;0.006137008351746555;-0.278506042571127;-0.9457573896721239;0.9740000000000001;0.0016164827700755277
56:51.8;0.003702718254153927;-0.2759812453712682;-0.9461576223447591;0.975;0.0009668603033551296
56:51.8;0.001530691822902526;-0.27337622466077655;-0.9471394134138645;0.978;0.0003963349880314885
56:51.8;-0.00022205322796910764;-0.2708530110086911;-0.9485728609561375;0.985;5.705076258526099e-05
56:51.8;-0.0014617357389338497;-0.26854897605482075;-0.9503013041223574;0.992;0.00037303853037668546
56:51.8;-0.0021632424511160687;-0.26656867067279805;-0.9521643225908991;1.0;0.0005490680936990866
56:51.8;-0.002367609475562083;-0.2649787844028416;-0.9540210166676029;1.0;0.0005985206170080242
56:51.8;-0.0021711292961077325;-0.26380692864269983;-0.9557682353932093;0.9990000000000001;0.0005474248121823714
56:51.9;-0.001706978951907852;-0.2630447400296062;-0.9573499905914504;0.9990000000000001;0.0004298614756686385
56:51.9;-0.0011219185975271386;-0.2626551399908809;-0.9587569674435071;0.998;0.0002825242848824561
56:51.9;-0.0005520786708853199;-0.2625826246891384;-0.9600173649563352;0.9940000000000001;0.0001391701331114067
56:51.9;-0.00010228818461427972;-0.262764652537862;-0.9611817290936039;0.991;2.583437270019731e-05
56:51.9;0.00016742748579269914;-0.2631421013412546;-0.9623053181559011;0.992;4.239649752658746e-05
56:51.9;0.0002461365621718254;-0.2636672713987373;-0.9634318188149232;0.9940000000000001;6.252494822165842e-05
56:51.9;0.00016699895929089427;-0.2643083596487001;-0.9645815223399312;0.995;4.2575876980535234e-05
56:51.9;-5.0908602593832585e-06;-0.2650496458564837;-0.9657456164493283;0.998;1.3031102172165818e-06
56:51.9;-0.00018987776076742006;-0.2658872974950871;-0.9668868453931645;0.998;4.881433113786644e-05
56:51.9;-0.0003085395585938399;-0.2668217282614622;-0.9679459410048273;1.001;7.968620598675674e-05
56:52.0;-0.0002979540797985262;-0.2678482967177515;-0.9688527953080474;1.008;7.732074360795727e-05
56:52.0;-0.00012043816264544948;-0.26894854753768255;-0.9695407222872319;1.012;3.140504207264232e-05
56:52.0;0.00023197782030919098;-0.2700842918891746;-0.969960992346689;1.016;6.0771514403680796e-05
56:52.0;0.0007384942053835886;-0.2711964646258086;-0.9700938351384754;1.016;0.00019428750013895907
56:52.0;0.0013546592772108366;-0.2722096670963306;-0.9699524191376219;1.012;0.0003576712648448842
56:52.0;0.002020564209787655;-0.27304181000921707;-0.9695781976940762;1.006;0.0005349148461045519
56:52.0;0.002671285057909683;-0.2736167516461622;-0.9690288067723419;1.002;0.0007082712368280871
56:52.0;0.0032486196329021577;-0.27387682240125927;-0.9683622682785537;0.9990000000000001;0.0008615728482580857
56:52.0;0.003712266613722408;-0.2737922481193149;-0.967622386854336;0.9990000000000001;0.0009834815453342491
56:52.0;0.0040473525554317975;-0.27336569060395993;-0.9668294990343675;0.9990000000000001;0.0010697072411434763
56:52.1;0.00426523011715324;-0.2726315306829957;-0.9659787901169514;1.004;0.0011232751206057046
56:52.1;0.004396852421344047;-0.2716505680096346;-0.965046093557222;1.004;0.0011526582511812034
56:52.1;0.004481358459889569;-0.2705016102615351;-0.9639990274169837;1.005;0.0011685737721157377
56:52.1;0.004554199633487006;-0.26927189079520003;-0.9628101295028264;1.006;0.0011807113407540728
56:52.1;0.004638519744494129;-0.2680481915353423;-0.9614685641432991;1.006;0.0011954388903267499
56:52.1;0.004741777628729213;-0.2669100689398381;-0.9599875244896081;1.003;0.0012149872766725525
56:52.1;0.004857623985138682;-0.26592578895538055;-0.9584053646107127;0.998;0.0012380368929133247
56:52.1;0.004971229238710508;-0.2651505676725422;-0.9567800475698622;0.987;0.0012611549870903912
56:52.1;0.005065416132734359;-0.26462590869477776;-0.9551787089353169;0.987;0.0012803600800924016
56:52.1;0.005125320277768968;-0.2643787529775094;-0.9536660202415311;0.983;0.0012922420464152027
56:52.2;0.005140244744095162;-0.26441981548934623;-0.9522952210463441;0.983;0.0012943430628966901
56:52.2;0.0051024614316012625;-0.26474129331738544;-0.9511041324583843;0.985;0.001284782124299351
56:52.2;0.005003832297864024;-0.26531468194775626;-0.9501164156971617;0.988;0.001261365218232043
56:52.2;0.004831995526379099;-0.26608980835400187;-0.9493466091232244;0.988;0.0012206174315041421
56:52.2;0.004568155371631735;-0.2669963942355674;-0.9488064016061423;0.988;0.0011572411526092573
56:52.2;0.0041881027469073615;-0.2679491803712092;-0.9485096252415738;0.99;0.0010644162668130743
56:52.2;0.003667020853296675;-0.26885666412269216;-0.9484743943598691;0.9890000000000001;0.0009351037450233137
56:52.2;0.002987081465031412;-0.2696321087835827;-0.9487218874991485;0.9890000000000001;0.0007641130122796353
56:52.2;0.0021454256605245112;-0.2702044207997076;-0.9492720700922596;0.9890000000000001;0.000550296339558518
56:52.2;0.0011597804485588333;-0.27052651184939636;-0.9501371741875235;0.987;0.0002981068298845528
56:52.3;6.994975390028303e-05;-0.27057973000473;-0.9513140673954579;0.9840000000000001;1.80055075825958e-05
56:52.3;-0.0010651043476384901;-0.27037397195938595;-0.9527771008621831;0.983;0.0002743774081381783
56:52.3;-0.002173851433600732;-0.26994391391904393;-0.9544736484194554;0.985;0.0005601022833098116
56:52.3;-0.003181127494113771;-0.2693426056840872;-0.9563245633638183;0.991;0.0008193914790377266
56:52.3;-0.004017383213525824;-0.2686339658169234;-0.95823062813002;0.995;0.001034127845457778
56:52.3;-0.004625790410463507;-0.2678852187298214;-0.9600842684350634;1.0;0.001189718064702287
56:52.3;-0.004965789219941426;-0.26715989715350597;-0.9617842560791952;1.004;0.0012759604484953936
56:52.3;-0.005013862733498263;-0.266512195986895;-0.9632502431482626;1.0090000000000001;0.0012871485002847534
56:52.3;-0.004763543972419701;-0.26598334153381986;-0.9644337643092306;1.0090000000000001;0.0012219600924729863
56:52.3;-0.004225801776092979;-0.2655997572836873;-0.9653229457629106;1.003;0.001083451373905126
56:52.4;-0.00342943890293376;-0.2653722448741608;-0.9659398087577827;0.9990000000000001;0.000879080472999745
56:52.4;-0.0024203580047136857;-0.2652959657278948;-0.9663314012591222;0.9990000000000001;0.0006204922294475589
56:52.4;-0.0012583056153049115;-0.2653518069670726;-0.9665577391567519;0.9990000000000001;0.0003227275095741281
56:52.4;-1.013429642255345e-05;-0.26550971922679;-0.9666796131370758;0.998;2.6010972268923868e-06
56:52.4;0.0012594666293053462;-0.26573407752724415;-0.9667482155131113;1.0;0.0003235543891800991
56:52.4;0.002496460942917665;-0.26599045262774645;-0.9667975701726778;1.0;0.0006419872081153363
56:52.4;0.003661590589905837;-0.2662522059806483;-0.9668404155110804;0.9990000000000001;0.0009425790751186881
56:52.4;0.004728994744896841;-0.26650453694481796;-0.966868124037723;1.002;0.0012185424993133463
56:52.4;0.005681268812119575;-0.2667443748589259;-0.9668548918081525;1.002;0.001465216859569313
56:52.4;0.006504456372509731;-0.2669767638543769;-0.9667655879848527;1.004;0.0016788258698977074
56:52.5;0.007185995875992952;-0.26721002877317773;-0.9665657905380055;1.0070000000000001;0.0018559707932958185
56:52.5;0.007716825804395566;-0.2674517039112083;-0.9662321229943835;1.008;0.001994185424615929
56:52.5;0.0080965449382077;-0.26770597007606456;-0.9657608993067682;1.0070000000000001;0.0020932803915925655
56:52.5;0.008338695340178013;-0.26797254091605777;-0.9651732329125526;1.006;0.0021567195261054297
56:52.5;0.008472900552034717;-0.26824664576668555;-0.9645154027933089;1.006;0.002192176796953446
56:52.5;0.008542059007539753;-0.2685195605820407;-0.9638541428041696;1.003;0.0022108018195496925
56:52.5;0.008595190741880625;-0.26877911608351535;-0.9632671787491925;1.0;0.0022253473210979385
56:52.5;0.008678408947760846;-0.26901004310165955;-0.9628299286305905;0.992;0.002247802690907005
56:52.5;0.008826821152398913;-0.26919461112487464;-0.9626002959635693;0.992;0.002287266028321732
56:52.5;0.0090590730985467;-0.2693141265688272;-0.9626046956194977;0.992;0.002348501675303101
56:52.6;0.009374818626027105;-0.2693513688497579;-0.9628287635320487;0.992;0.002431258388472703
56:52.6;0.009754600334673801;-0.2692933792870581;-0.9632151886261852;0.9940000000000001;0.0025302211321627938
56:52.6;0.010161601862621834;-0.2691336218055986;-0.9636695915151721;0.9990000000000001;0.002635471268367904
56:52.6;0.010545165929040106;-0.2688726754049493;-0.9640738762887356;1.005;0.0027334453867534545
56:52.6;0.010846418827648197;-0.26851718976292194;-0.9643047878591401;1.008;0.002808489385469101
56:52.6;0.011006201605846411;-0.2680775111159233;-0.9642538961773781;1.008;0.0028450457130489606
56:52.6;0.010974452582547032;-0.267564982272592;-0.9638448902025057;1.0070000000000001;0.0028302140979306386
56:52.6;0.010718887205850361;-0.26699011199540973;-0.9630452261215646;1.003;0.0027560783602039113
56:52.6;0.010230543003725265;-0.2663621881061961;-0.9618711229627374;1.003;0.002621127493057647
56:52.6;0.009524760724625863;-0.26568985595619765;-0.9603865105580448;1.001;0.0024303851288497605
56:52.7;0.008637526294357115;-0.2649817570877385;-0.9586970757460576;0.995;0.0021942533026386986
56:52.7;0.0076183171281704294;-0.2642468687190789;-0.9569403517005051;0.995;0.0019264323598760682
56:52.7;0.006521733475526083;-0.2634948501438054;-0.9552726860963493;0.993;0.0016415818370589274
56:52.7;0.005400574664444804;-0.26273669782838394;-0.9538539614364601;0.988;0.0013534511942657418
56:52.7;0.00430203846694401;-0.261985621414439;-0.9528309340677518;0.983;0.0010739092772031496
56:52.7;0.003267064224743282;-0.2612579418621546;-0.9523204665377673;0.98;0.0008128497775578451
56:52.7;0.0023315805605627874;-0.2605739347461867;-0.9523948325149633;0.978;0.0005786266431904204
56:52.7;0.0015280896752042801;-0.259958377561712;-0.9530718246702478;0.983;0.0003785979778477439
56:52.7;0.0008865069475312136;-0.2594402391773654;-0.9543118232071807;0.983;0.00021948749603057695
56:52.7;0.00043380907120911457;-0.2590511232349158;-0.9560224656242894;0.987;0.0001074365878291658
56:52.8;0.0001924592865042026;-0.25882262298301667;-0.9580700412790957;0.997;4.7724167975180985e-05
56:52.8;0.00017807090068149863;-0.25878301889741195;-0.9602956384574737;0.997;4.42520797760663e-05
56:52.8;0.00039730486151775396;-0.258953770157939;-0.9625331748846635;1.003;9.902887025118795e-05
56:52.8;0.0008469687375740821;-0.2593463002732311;-0.9646261644061842;1.003;0.00021188805518131002
56:52.8;0.0015145126675215224;-0.2599596208005971;-0.9664408624219062;1.003;0.00038049949891623316
56:52.8;0.002379162697205596;-0.2607793527542126;-0.9678747931449125;1.003;0.0006005048571054838
56:52.8;0.0034125578812785303;-0.26177852556462927;-0.9688609528468126;1.0070000000000001;0.0008655167894764608
56:52.8;0.004578350203122204;-0.26291983110446376;-0.9693686879282629;1.006;0.0011668669552765663
56:52.8;0.005831272026214083;-0.2641581992456765;-0.9694020776391843;1.006;0.0014932459415834055
56:52.8;0.007116655851979093;-0.2654426560036602;-0.9689961943767618;1.004;0.001830495857179733
56:52.9;0.00837110780514176;-0.26671746272874935;-0.9682115990586583;1.003;0.0021617460153121252
56:52.9;0.009524722733784735;-0.2679233070742893;-0.9671277622934384;1.003;0.0024680087077309596
56:52.9;0.010505176356433315;-0.26899909106629655;-0.9658363088255226;1.002;0.0027293403009756483
56:52.9;0.01124361518628808;-0.269884312519051;-0.964434803840556;1.002;0.0029265536435463665
56:52.9;0.011681214410382727;-0.27052199669847926;-0.9630212699024145;1.002;0.0030431717180847396
56:52.9;0.011774659690413582;-0.270862304228206;-0.9616890235131326;1.0;0.003067125819077079
56:52.9;0.01149969256466634;-0.2708666409991998;-0.9605211990016498;0.996;0.0029919112475747397
56:52.9;0.010853366215070692;-0.27051163024324726;-0.9595848484050378;0.993;0.002817304447707895
56:52.9;0.009856035236721994;-0.26979239385038223;-0.9589255275185176;0.993;0.002549862894898171
56:52.9;0.008553178619770976;-0.26872498814257495;-0.9585638901206179;0.995;0.0022032138794454486
56:53.0;0.007016087198206838;-0.2673478058417595;-0.9584953515225098;0.995;0.0017978837747222678
56:53.0;0.005339905790767817;-0.2657213878640873;-0.9586927076346209;0.996;0.0013603151380082998
56:53.0;0.003637688440501116;-0.26392608494504777;-0.9591106466009198;0.995;0.0009208237824336031
56:53.0;0.0020303265979494454;-0.2620574860313693;-0.9596909273776152;0.995;0.000510615346832591
56:53.0;0.0006340556501250244;-0.26022005089902067;-0.9603674599015213;0.995;0.00015845486248303254
56:53.0;-0.00045162322325433067;-0.25851979334301023;-0.9610710660519735;0.9940000000000001;0.00011220845140648215
56:53.0;-0.0011529922263089157;-0.2570569832100303;-0.9617340164840242;0.996;0.0002850432511864411
56:53.0;-0.0014264905424984217;-0.2559192367574088;-0.9622945964193925;0.995;0.0003513013960302007
56:53.0;-0.0012581597275246647;-0.25517467824653584;-0.96270193457907;0.995;0.0003090759409651515
56:53.0;-0.0006596888618647144;-0.25486532279911406;-0.9629210561779088;0.995;0.00016189766461319416
56:53.1;0.0003363865186160646;-0.2550018704095715;-0.9629378362966116;0.9990000000000001;8.260002899262436e-05
56:53.1;0.001680504754192323;-0.25556127351592656;-0.9627632608580173;1.002;0.0004134798007136851
56:53.1;0.003308677485621062;-0.2564879256301724;-0.962435785924018;1.002;0.0008167574870683793
56:53.1;0.005144742752217943;-0.2576987969695474;-0.9620199424614029;1.001;0.001275440284877748
56:53.1;0.007103471197919361;-0.2590921728563446;-0.96159964987447;0.996;0.0017697797176618611
56:53.1;0.009095276572143459;-0.2605588965530473;-0.9612662076607661;0.993;0.002278061747227128
56:53.1;0.011032301207985913;-0.2619945181384144;-0.9611028638159865;0.9890000000000001;0.0027779740616499025
56:53.1;0.012834947158645405;-0.26331037742932245;-0.9611693271940199;0.991;0.0032483436180984105
56:53.1;0.014437895340302973;-0.2644414580549923;-0.9614899094591507;0.991;0.0036709474129123167
56:53.1;0.01579471634950326;-0.26534947696053324;-0.9620479214237452;0.993;0.004032058017065776
56:53.2;0.016879972477848147;-0.2660212745577143;-0.9627871818132017;0.996;0.00432333017116108
56:53.2;0.017687759320458258;-0.26646420306561774;-0.963619971236529;1.0;0.004541689988104639
56:53.2;0.018226554341759182;-0.26670061935506045;-0.9644397755553583;1.003;0.004688173895349274
56:53.2;0.01851185807109246;-0.2667625760051227;-0.9651366125876816;1.006;0.0047661060925594054
56:53.2;0.01855924873144775;-0.2666866846323824;-0.9656125642435296;1.0070000000000001;0.004779303744974667
56:53.2;0.018380125803163904;-0.26650912951076633;-0.9657951994134171;1.008;0.004730920093142846
56:53.2;0.017981041652226686;-0.26626150497140144;-0.9656468205213917;1.006;0.004623187895107978
56:53.2;0.017366172451060147;-0.26596835793239154;-0.965168161831971;1.002;0.004457969252092137
56:53.2;0.016541568875370664;-0.2656467374490978;-0.9643964435859003;1.002;0.004237764164964298
56:53.2;0.015519382355458699;-0.26530725125008514;-0.9633990214408039;0.9990000000000001;0.003966703633639587
56:53.3;0.014320472294398085;-0.2649556673899971;-0.9622645109963615;0.996;0.003651110894432501
56:53.3;0.012974681340003631;-0.2645941445373027;-0.961093151317926;0.996;0.003299456536896263
56:53.3;0.01151910366672129;-0.26422161043143455;-0.9599877382942291;0.9940000000000001;0.0029218149570057043
56:53.3;0.009995241060657557;-0.26383344016555066;-0.9590459028447326;0.993;0.0025290796515305227
56:53.3;0.008445940564586354;-0.2634211889966145;-0.9583539372184303;0.9940000000000001;0.002132183891654811
56:53.3;0.006912789313257885;-0.26297338894593547;-0.9579819304696733;0.993;0.001741495839968897
56:53.3;0.005434448014337512;-0.26247802109014867;-0.9579797048879348;0.993;0.0013664844383608377
56:53.3;0.004046109684760068;-0.2619263493172301;-0.9583731118325337;0.993;0.0010156672811220205
56:53.3;0.0027797478278147854;-0.26131700750141246;-0.9591606954746594;0.993;0.0006967299016812316
56:53.3;0.001664334398003199;-0.2606590918092295;-0.9603111989592473;0.992;0.000416605942488249
56:53.4;0.0007252016696923182;-0.2599734161640363;-0.9617626088215449;0.993;0.00018132413946166285
56:53.4;-1.7667697796697024e-05;-0.2592917170239305;-0.9634234937232005;0.995;4.413527514640912e-06
56:53.4;-0.0005517623872981514;-0.25865416871105845;-0.9651773111376716;0.997;0.00013774589922896813
56:53.4;-0.000873442021464487;-0.2581057556627689;-0.966890053804311;0.9990000000000001;0.000217976093033682
56:53.4;-0.000987777320851543;-0.2576918687335639;-0.9684211222001591;1.003;0.0002465040271888098
56:53.4;-0.0009067677623033424;-0.25745347763598353;-0.9696366485891796;1.0070000000000001;0.0002263621738252478
56:53.4;-0.0006466125437687013;-0.2574225113282731;-0.9704236786473841;1.0090000000000001;0.0001615295685500628
56:53.4;-0.00022507455589720825;-0.2576181476159045;-0.9707029963573058;1.01;5.628455350251091e-05
56:53.4;0.0003401855287495065;-0.2580443629140221;-0.9704384061682425;1.01;8.518795388784482e-05
56:53.4;0.0010319706512873857;-0.2586887091660881;-0.9696408887181349;1.0090000000000001;0.00025885451296385497
56:53.5;0.0018328116015891133;-0.2595222184159468;-0.9683668753526193;1.001;0.0004606088683517786
56:53.5;0.002723660447236472;-0.2605005246860414;-0.9667109819939177;1.001;0.0006858959187743272
56:53.5;0.0036826828143837415;-0.2615664535517428;-0.9647948217303756;0.998;0.0009293543220891076
56:53.5;0.004684817178558636;-0.26265424116039016;-0.9627541515308431;0.996;0.0011846565649020274
56:53.5;0.005702495208482852;-0.26369517617565547;-0.9607261638740754;0.995;0.001444663606984345
56:53.5;0.00670730504473968;-0.26462403525281547;-0.958837929351059;0.993;0.0017018549859352322
56:53.5;0.007671758204404543;-0.26538545007014985;-0.9571965718674232;0.9890000000000001;0.0019488263797527389
56:53.5;0.008570256955600139;-0.26593925187621575;-0.9558817951177306;0.9890000000000001;0.002178614934587841
56:53.5;0.009378962221033522;-0.2662638914168956;-0.9549415528897756;0.9890000000000001;0.002384755465655623
56:53.5;0.010075027624811543;-0.26635747396707654;-0.9543914587698968;0.988;0.002561165701181011
56:53.6;0.010636105037303934;-0.26623668448697013;-0.9542178744558228;0.99;0.002702079119047771
56:53.6;0.011041047560200187;-0.265934387060175;-0.9543839285774877;0.9940000000000001;0.0028022565703829253
56:53.6;0.011272401686197519;-0.2654966052322407;-0.9548372064570151;0.9940000000000001;0.0028576218774044528
56:53.6;0.011320513780608998;-0.26497902233880627;-0.9555175828945315;0.993;0.0028662648263530015
56:53.6;0.01118797420789511;-0.26444252539259483;-0.9563640330342577;0.991;0.0028294758222604907
56:53.6;0.01089243206956646;-0.2639471074216976;-0.9573202824778394;0.995;0.0027523206426659087
56:53.6;0.010466189877240325;-0.26354393446738866;-0.9583398757311459;0.997;0.0026433897025683996
56:53.6;0.009952094463064342;-0.2632666104375104;-0.959390671390127;1.0;0.002513655535034188
56:53.6;0.009396459558895455;-0.263124049514511;-0.960457359459438;1.0;0.002374667901928422
56:53.6;0.008840783257558904;-0.26309782488433403;-0.9615398497766386;0.9990000000000001;0.002236532888007738
56:53.7;0.00831445815757945;-0.26314574050446005;-0.9626462449017681;0.9940000000000001;0.0021061874357451217
56:53.7;0.007830358195253531;-0.26321101078738435;-0.9637813001264991;0.9940000000000001;0.0019863884331447375
56:53.7;0.007384482898432761;-0.26323418149751077;-0.9649335678111248;0.993;0.0018756844865488401
56:53.7;0.006959847375485272;-0.26316429492971904;-0.9660653918051553;0.992;0.001769429264796914
56:53.7;0.006533479405118677;-0.2629669228514741;-0.9671092403258483;0.995;0.0016615797231126096
56:53.7;0.006084293530469604;-0.262628248422997;-0.9679723646965772;1.002;0.0015467301588545132
56:53.7;0.005599455499310244;-0.2621553379680221;-0.9685498510546561;1.0070000000000001;0.0014217606213860604
56:53.7;0.005077639103476979;-0.2615731820845504;-0.968743768287048;1.014;0.0012866604966675222
56:53.7;0.004528870348398289;-0.2609194789853606;-0.9684839830766344;1.014;0.001144428944482187
56:53.7;0.003971936204644249;-0.26023848408083744;-0.9677453458656795;1.014;0.0010003106123328293
56:53.8;0.0034309847872968625;-0.2595751646816822;-0.9665567999386311;1.008;0.0008608139793401054
56:53.8;0.002932638909212903;-0.2589704683532517;-0.9650001447438253;1.001;0.0007328856412439307
56:53.8;0.0025039936827047802;-0.25845824983466603;-0.9631988655041762;0.993;0.0006233609466546931
56:53.8;0.002170908280421593;-0.2580642429121756;-0.9612999610442994;0.987;0.0005385527318640847
56:53.8;0.001955824416332885;-0.2578069022096264;-0.9594535070562853;0.985;0.0004837804772559548
56:53.8;0.001875187033508704;-0.25769903295175484;-0.9577950621460122;0.985;0.00046283902904763614
56:53.8;0.0019373469532316218;-0.25774867251304046;-0.9564346179708101;0.987;0.0004775942926329607
56:53.8;0.0021416558529410235;-0.2579582790242344;-0.9554531543300244;0.996;0.0005278476031434853
56:53.8;0.002478883481894533;-0.25832243971708096;-0.9549049537483082;0.993;0.0006114745605365214
56:53.8;0.0029328142815067226;-0.2588251451284714;-0.9548217738961401;0.993;0.0007247919193988713
56:53.9;0.0034826864012571374;-0.2594380045077384;-0.9552149761222731;0.988;0.0008630760955920084
56:53.9;0.00410580745454825;-0.26012068927438486;-0.95607391251329;0.986;0.0010210921636085116
56:53.9;0.004779527487714182;-0.2608241383531711;-0.9573617744398584;0.987;0.0011934626386087622
56:53.9;0.005481923914644846;-0.26149575699652744;-0.9590118957466666;0.99;0.001374743402810256
56:53.9;0.0061908321856621405;-0.2620848788981005;-0.960927386240864;0.9940000000000001;0.0015591272694841865
56:53.9;0.006881223045732304;-0.26254693761581777;-0.9629853934142393;0.998;0.00173977181941212
56:53.9;0.007521745030957245;-0.2628458042800871;-0.9650454873647369;1.001;0.0019079519841822964
56:53.9;0.008072312788499956;-0.26295460088395023;-0.9669606344058324;1.004;0.0020525207190737436
56:53.9;0.008484787940247873;-0.2628556181994258;-0.9685890876438384;1.004;0.0021602192325479034
56:53.9;0.008707543031238251;-0.262540014549786;-0.9698059305265704;1.006;0.0022170524618450624
56:54.0;0.008692992645655404;-0.2620077865407017;-0.970513577249432;1.011;0.0022104725485129796
56:54.0;0.008406071204968528;-0.26126807869004104;-0.9706506988240526;1.011;0.0021317800203936666
56:54.0;0.007831369593880881;-0.26033954472226284;-0.9701985692332994;1.011;0.001978055584754075
56:54.0;0.0069772015543240525;-0.2592503718780092;-0.9691834333447595;1.008;0.0017530997945560277
56:54.0;0.005875967543674279;-0.25803769283590766;-0.9676739005479265;1.003;0.0014672075938150487
56:54.0;0.00458118897078767;-0.25674644712526523;-0.9657733687276023;0.998;0.0011359464915286983
56:54.0;0.0031622681733096815;-0.25542804030265204;-0.9636086504523416;0.993;0.0007783375062346991
56:54.0;0.0016985058418903399;-0.25413893554288386;-0.9613170306723462;0.9890000000000001;0.0004149587128110483
56:54.0;0.0002739291693412805;-0.25293890629017873;-0.9590344285202352;0.9890000000000001;6.644894883064202e-05
56:54.0;-0.0010262494354018616;-0.25188876544634403;-0.956886698165391;0.9890000000000001;0.0002473558844765428
56:54.1;-0.002117838115213413;-0.2510477343138456;-0.954984617393526;0.988;0.0005077447511462518
56:54.1;-0.0029196583695754764;-0.25047065786731937;-0.9534216782072161;0.985;0.0006972265497344944
56:54.1;-0.0033566855876974873;-0.2502051863328716;-0.9522732560874695;0.985;0.000799776352966719
56:54.1;-0.003365174031025536;-0.25028896684671625;-0.951596175128385;0.9840000000000001;0.0008014970388418639
56:54.1;-0.0028993049374833736;-0.25074666081825003;-0.9514284256934095;0.983;0.0006916799328480855
56:54.1;-0.0019376684449372813;-0.25158665725095264;-0.9517891328656803;0.985;0.0004639891376888587
56:54.1;-0.00048778634688076183;-0.252798121467432;-0.9526786413501944;0.988;0.00011747620576877688
56:54.1;0.0014122681705588517;-0.2543497630655458;-0.9540780882633241;0.987;0.000342714461227481
56:54.1;0.0036952195486731933;-0.2561912422650591;-0.9559478023088546;0.987;0.0009049794249446527
56:54.1;0.006268481103729597;-0.25825659974484033;-0.9582248135567812;0.987;0.0015512477429765032
56:54.2;0.009019979479460047;-0.260468067082932;-0.9608210624139037;0.992;0.002257368973018363
56:54.2;0.011825197729010997;-0.26273897491081755;-0.9636243855495332;0.992;0.002993923465893831
56:54.2;0.01455465392411261;-0.2649754822821266;-0.9665037708032435;1.0;0.0037274439997304802
56:54.2;0.017081297638260846;-0.2670777175792465;-0.9693192100488816;1.01;0.004422067180028243
56:54.2;0.019287657088389053;-0.2689415283124508;-0.9719348751453869;1.015;0.005041671100589419
56:54.2;0.02107230553399503;-0.2704622031787354;-0.9742325499752118;1.02;0.005552406727358347
56:54.2;0.022354623096053565;-0.2715409334142953;-0.9761215271536202;1.0170000000000001;0.005925248229855301
56:54.2;0.023076944633041746;-0.2720934819973364;-0.977542535893711;1.015;0.006138073865679148
56:54.2;0.023204257434188618;-0.2720592245015649;-0.9784659811461219;1.015;0.00617698947988154
56:54.2;0.022722795255270604;-0.27140827421785896;-0.9788869571337432;1.016;0.006036947245242543
56:54.3;0.021639163075887265;-0.2701450898387666;-0.9788197894350807;1.015;0.005721900207094895
56:54.3;0.01998088414018869;-0.2683083828406145;-0.9782936021554708;1.015;0.005244669872250579
56:54.3;0.01779820368254112;-0.26596840675101024;-0.977349092943186;1.012;0.0046265359214841045
56:54.3;0.015166265148981868;-0.2632229382824686;-0.9760362326514529;1.011;0.003896442906968585
56:54.3;0.012186558732153633;-0.2601925466570114;-0.9744127041550559;1.0090000000000001;0.003089718229658094
56:54.3;0.008986630830690444;-0.25701503869200254;-0.9725429687321367;1.0070000000000001;0.002246281785566757
56:54.3;0.005717066585561065;-0.25383870094325567;-0.9704977032384411;1.0070000000000001;0.0014083986459143395
56:54.3;0.002544820172959548;-0.25081398511054503;-0.9683530426313582;1.001;0.0006180769801338605
56:54.3;-0.0003572436561877591;-0.24808378916179294;-0.9661887551791434;1.001;8.56297923295518e-05
