Time;AccX;AccY;AccZ;Acc-old;Acc-trns
59:02.4;-0.04993565451399779;-0.276202239286529;-0.9111734583293212;0.9540000000000001;0.012567213769055171
59:02.4;-0.0486469865737522;-0.27894366696193507;-0.9189704040095437;0.96;0.012470215936237957
59:02.4;-0.047406851723777836;-0.28152225029112576;-0.926422967900769;1.013;0.01236411835678883
59:02.4;-0.04626528288715092;-0.2837981943914521;-0.9332314798468391;1.013;0.012253332826631715
59:02.4;-0.045250682164253396;-0.28566000637040023;-0.9391968495390606;1.006;0.012140349774027767
59:02.4;-0.04436814795638006;-0.28703702968822814;-0.9442346679701685;0.993;0.012025113090975334
59:02.4;-0.04360618137644821;-0.28790486986268293;-0.9483622782244847;0.978;0.011906149709051435
59:02.4;-0.04294835247575079;-0.2882822880529897;-0.9516676177123528;0.9740000000000001;0.011782834044491717
59:02.4;-0.04238418172364337;-0.28822224496123766;-0.9542738324373402;0.988;0.011657470217482613
59:02.5;-0.04191449414066118;-0.2878016468080092;-0.956311218332696;1.005;0.011536040025056411
59:02.5;-0.04155003780012183;-0.28711332279871954;-0.9579003117973593;1.0070000000000001;0.011427338262433473
59:02.5;-0.04130541760016981;-0.2862608774137427;-0.9591423383224442;0.9990000000000001;0.011341018981843717
59:02.5;-0.04119141290754558;-0.2853545306697104;-0.9601114318451505;0.988;0.011285299833265178
59:02.5;-0.04120795678625977;-0.28450595522438465;-0.960847337727903;0.988;0.011264886854493185
59:02.5;-0.041338925702314254;-0.283821963071559;-0.9613523716796496;0.995;0.011279446477314093
59:02.5;-0.0415493022981081;-0.2833980249740879;-0.9615972583372739;1.0070000000000001;0.011322798303206535
59:02.5;-0.04178520457334192;-0.2833118237592478;-0.961536706377888;1.014;0.011382904716047674
59:02.5;-0.041977202992289374;-0.2836159531739467;-0.9611305699894326;1.011;0.01144264815367495
59:02.5;-0.042046971575261806;-0.28432948618255194;-0.9603640256707788;1.005;0.011481338068036393
59:02.6;-0.04191673379028446;-0.2854305423886917;-0.959261561806057;1.0070000000000001;0.011476908510542571
59:02.6;-0.041520171533138486;-0.2868540267669068;-0.9578926256010376;1.01;0.011408719950071903
59:02.6;-0.040812711231023875;-0.28849786413300504;-0.9563686145649244;1.01;0.011260647506732073
59:02.6;-0.03977922332501374;-0.29023735707685605;-0.9548312084279987;0.997;0.011023924126398202
59:02.6;-0.03843826013891829;-0.2919436319807537;-0.9534328875672715;0.997;0.010699238204178504
59:02.6;-0.03684281709294204;-0.2935010968853101;-0.9523127641148148;0.986;0.01029774572786557
59:02.6;-0.03507766077596853;-0.294820412174187;-0.9515728663399997;0.9840000000000001;0.009840795858585742
59:02.6;-0.03325331370200275;-0.2958459291601392;-0.951260257879114;0.988;0.00935836285274661
59:02.6;-0.03149718336386998;-0.29655842502014956;-0.9513589225347299;0.99;0.008886410698996629
59:02.6;-0.029942391715850083;-0.2969748358152514;-0.9517928008167132;0.991;0.008463471850775619
59:02.6;-0.028714466473930104;-0.29714651424930744;-0.9524389088683545;0.9990000000000001;0.008126593195054349
59:02.7;-0.027916175827690855;-0.2971563656510652;-0.9531480269227062;1.011;0.007906810245097148
59:02.7;-0.027612074728222122;-0.29711382155624055;-0.9537691545646483;1.013;0.007824654468021369
59:02.7;-0.027816048843667597;-0.29714627600140175;-0.9541724361887957;1.003;0.007886650562094874
59:02.7;-0.02848572160729474;-0.29738672848186004;-0.9542656535785071;1.003;0.00808384730627175
59:02.7;-0.02952620497782964;-0.2979589319037327;-0.9540025288529113;1.005;0.008392929307267533
59:02.7;-0.030803131797116794;-0.29896214958071016;-0.9533840451728725;1.002;0.008779685543243482
59:02.7;-0.032162372270725076;-0.30045760738243993;-0.9524544547777771;0.9940000000000001;0.009203976399705254
59:02.7;-0.03345187827991951;-0.30245844420099605;-0.9512933187084078;0.9940000000000001;0.009624998451123941
59:02.7;-0.03454062894689844;-0.30492461346204425;-0.950005574331842;0.9990000000000001;0.010005732244318437
59:02.7;-0.035331345275640816;-0.3077638766994518;-0.9487117177188797;1.0;0.010316017791255771
59:02.8;-0.03576628545621249;-0.310839759704317;-0.9475384419615289;0.997;0.010534337820667181
59:02.8;-0.035827163998125126;-0.313986352895885;-0.9466085672787067;0.996;0.01064862748793599
59:02.8;-0.03553070755100063;-0.3170277038276495;-0.9460299022488217;0.998;0.010656287649699385
59:02.8;-0.034921298259930185;-0.3197975888532835;-0.9458844517644044;0.998;0.010563398232602345
59:02.8;-0.03406202456594408;-0.3221554201611962;-0.9462197482001596;1.002;0.010383120835878478
59:02.8;-0.03302532421363925;-0.32399594956471356;-0.9470429656270497;0.9990000000000001;0.010133427235803651
59:02.8;-0.031884244217910036;-0.3252527791649204;-0.9483174997996662;0.9990000000000001;0.009834468825507718
59:02.8;-0.030704971007402267;-0.32589733473962856;-0.9499618049416196;0.9990000000000001;0.00950595259856482
59:02.8;-0.02954066338765624;-0.3259355055466149;-0.9518511805861073;0.997;0.00916475731921626
59:02.8;-0.028426415839421567;-0.32540349800215645;-0.9538240820152593;1.008;0.00882292536185965
59:02.9;-0.0273758575949607;-0.3243632423966356;-0.9556943328519364;1.012;0.00848629992856403
59:02.9;-0.026380731353980356;-0.32289699154564905;-0.9572688027183425;1.013;0.008154263392166362
59:02.9;-0.025414814590772862;-0.32110085657462306;-0.9583678590403286;1.022;0.007820970542083703
59:02.9;-0.024442379439845962;-0.3190777422857489;-0.9588448306539519;1.014;0.007478049289883102
59:02.9;-0.023429504462822465;-0.31693095588483133;-0.9586010951030997;1.014;0.007118126217881065
59:02.9;-0.022355422044017942;-0.31475965583928706;-0.9575949659950174;1.011;0.006738198324687802
59:02.9;-0.021221537756338855;-0.3126562896508372;-0.955844568254878;1.0090000000000001;0.006342073879362546
59:02.9;-0.020056784393903803;-0.3107055522331712;-0.953425844756026;1.0070000000000001;0.005941515580263647
59:02.9;-0.018918685380718964;-0.3089844933117829;-0.950466506594199;1.002;0.005556028397473371
59:02.9;-0.017890188063579587;-0.3075633073781856;-0.9471363776621307;0.997;0.005211490443429171
59:03.0;-0.017072980099614374;-0.30650593574933976;-0.9436348157471999;0.992;0.004938012437795318
59:03.0;-0.01657814239526753;-0.3058695213762165;-0.9401763089293186;0.99;0.004767397589197716
59:03.0;-0.01651481654208292;-0.3057020708458835;-0.9369754828469548;0.982;0.004730427181078958
59:03.0;-0.016977705975745497;-0.30603824532447593;-0.9342325451900627;0.982;0.004854111006244002
59:03.0;-0.0180346803846006;-0.3068940306606727;-0.9321198743792527;0.976;0.005159037196586317
59:03.0;-0.01971590957293563;-0.30826161085583437;-0.9307703932967645;0.973;0.005656904168347689
59:03.0;-0.022005627913396376;-0.3101054429296385;-0.9302687950161114;0.975;0.006348214716315807
59:03.0;-0.024837350211043795;-0.31235969653831613;-0.93064710545954;0.9790000000000001;0.007220134437782801
59:03.0;-0.028093482758689715;-0.3149267392770703;-0.9318853982733882;0.9890000000000001;0.008244752547515602
59:03.0;-0.03161037694547517;-0.3176767122981798;-0.9339165954507783;0.982;0.009378278962930118
59:03.1;-0.03518923028150223;-0.3204500839898132;-0.9366328328257001;0.976;0.010561838794978651
59:03.1;-0.0386117561276766;-0.3230673033465779;-0.939891924002377;0.9890000000000001;0.011724396012695893
59:03.1;-0.04165829722246796;-0.32534777032988943;-0.9435254207932762;1.016;0.012788009628502205
59:03.1;-0.04412618532700275;-0.3271333731817863;-0.9473503557168076;1.016;0.013675142452101495
59:03.1;-0.045847111207480515;-0.32830737528548326;-0.9511831453375823;1.0070000000000001;0.014317156145948645
59:03.1;-0.04670262816472714;-0.32880283567583246;-0.9548515488626773;1.0070000000000001;0.014662658919024749
59:03.1;-0.0466361955102361;-0.32860144370386446;-0.9582031369409693;1.013;0.01468419590121185
59:03.1;-0.0456591508988588;-0.3277272497442135;-0.9611123565580908;1.022;0.014381843054914979
59:03.1;-0.043848229527249497;-0.32623906102237016;-0.9634879845047203;1.028;0.013782700655901535
59:03.1;-0.041334555414108805;-0.32422256299584834;-0.9652797312078726;1.028;0.012936288498769006
59:03.2;-0.038286993986632545;-0.32178153135864207;-0.966480741208261;1.022;0.011907088693777029
59:03.2;-0.03489405243973218;-0.319028241437915;-0.9671233643224838;1.0170000000000001;0.010766199291189358
59:03.2;-0.031347501134347075;-0.31607501370982366;-0.9672680915948465;1.013;0.009583848804643398
59:03.2;-0.027829007483166794;-0.3130292170036727;-0.9669881547771376;1.013;0.008423716585304199
59:03.2;-0.024499922764332053;-0.3099921575341027;-0.9663535124958486;1.011;0.007339246114969586
59:03.2;-0.02149393168134851;-0.3070599772969106;-0.9654174843395115;1.0090000000000001;0.0063716841238224695
59:03.2;-0.018911893323760576;-0.3043241140351696;-0.9642079001028667;1.008;0.005549349290838813
59:03.2;-0.01681815198998018;-0.30186992171317795;-0.9627233456945343;1.006;0.004887644593620724
59:03.2;-0.015238229682364539;-0.2997731785982416;-0.9609343381356679;1.004;0.004389560114496684
59:03.2;-0.014158449803678188;-0.29809471911165375;-0.9587889013249118;1.001;0.0040466252390374685
59:03.3;-0.013527953349601652;-0.2968738762285323;-0.9562219212224718;0.996;0.0038402789835306783
59:03.3;-0.0132630642272674;-0.29612232332029664;-0.9531677929851811;0.9940000000000001;0.003743556397008048
59:03.3;-0.013253774880345882;-0.2958205790878989;-0.9495759767335229;0.998;0.003723039907483819
59:03.3;-0.013372252918207898;-0.2959186971450094;-0.9454286371277866;0.998;0.0037411553399031507
59:03.3;-0.013483271960051935;-0.2963407293920393;-0.9407583669620735;0.995;0.0037589342517749544
59:03.3;-0.013456383488533799;-0.29699116897466005;-0.9356627819420906;0.997;0.0037393080630628156
59:03.3;-0.013179533525944741;-0.29776163177092696;-0.9303122659578004;0.9940000000000001;0.0036508796939078987
59:03.3;-0.012573208636110934;-0.2985366793484793;-0.9249473761905408;0.98;0.003471849131522307
59:03.3;-0.011602918058045442;-0.2991982544789118;-0.91986374579477;0.965;0.003193373987045892
59:03.3;-0.010286738113486496;-0.29962908948242434;-0.915385367125742;0.956;0.0028214062476970315
59:03.4;-0.008694913642285192;-0.29971660253313864;-0.9118307469978271;0.95;0.002376240023268335
59:03.4;-0.0069404866312840156;-0.29935898304271796;-0.9094782452511969;0.946;0.0018896202396974785
59:03.4;-0.005162688911433261;-0.2984737698918671;-0.9085362679730767;0.948;0.001399988267652472
59:03.4;-0.003506893173633359;-0.2970075304192042;-0.9091220489719378;0.948;0.0009469175989757887
59:03.4;-0.002105371346916072;-0.29494463956817213;-0.9112506326929282;0.9540000000000001;0.0005658574765701188
59:03.4;-0.0010620486770583362;-0.29231340512147425;-0.9148339197883333;0.958;0.0002840111648754266
59:03.4;-0.00044272471799476154;-0.2891881574668914;-0.9196884840294862;0.963;0.00011774840220306969
59:03.4;-0.0002708586957414993;-0.285686425523162;-0.9255502992600179;0.968;7.161968617850557e-05
59:03.4;-0.0005282141495617106;-0.2819610588793121;-0.9320944931196179;0.972;0.0001388222585128664
59:03.4;-0.0011591077882822792;-0.2781879517707237;-0.9389586318740553;0.9790000000000001;0.0003027670432471859
59:03.5;-0.002076702494066379;-0.2745508856234672;-0.9457683656623074;0.986;0.0005392397726887158
59:03.5;-0.0031699059175896707;-0.2712256819064324;-0.9521642302825878;0.988;0.0008186326177721362
59:03.5;-0.004309995234954171;-0.2683656725659226;-0.9578282582733213;1.0070000000000001;0.0011078766237576847
59:03.5;-0.00535694396255241;-0.26608961665429876;-0.9625086610218578;1.0070000000000001;0.0013719859923861874
59:03.5;-0.00616622218676914;-0.2644724799424375;-0.9660399040465714;1.0090000000000001;0.001575414082470613
59:03.5;-0.006597290905178454;-0.26353913354481706;-0.9683552021367107;1.011;0.001683625280549832
59:03.5;-0.006524992913713751;-0.26326098505712825;-0.969489757050473;1.014;0.0016653662969719329
59:03.5;-0.005854111522447385;-0.2635560893084901;-0.9695743878306224;1.013;0.0014959434656828556
59:03.5;-0.00453546724625947;-0.2642938263250371;-0.9688194715274453;1.005;0.0011613200181559181
59:03.5;-0.0025802846262582566;-0.2653047672444209;-0.967489821017727;0.997;0.0006623065851549546
59:03.6;-6.927528411466275e-05;-0.2663951399074094;-0.9658733290403202;0.992;1.7824804975953852e-05
59:03.6;0.0028464476758899683;-0.2673644300393102;-0.9642484777592277;0.992;0.0007338305627537456
59:03.6;0.005954443240485871;-0.2680244385164464;-0.9628561653781853;0.99;0.0015366571119844882
59:03.6;0.008999965518810965;-0.2682181432728924;-0.9618796160145873;0.99;0.0023219331860104045
59:03.6;0.011712483621630186;-0.26783664872355367;-0.9614339724888628;0.995;0.0030160494850920492
59:03.6;0.013835846551048523;-0.2668324058023631;-0.9615655651129623;0.997;0.003549957967707699
59:03.6;0.015158198447153227;-0.26522687658796223;-0.9622596570134663;1.0;0.003868631802036668
59:03.6;0.015537708098386834;-0.26311099216863776;-0.9634544842454172;1.0090000000000001;0.003938738543461199
59:03.6;0.014920071959006126;-0.26063743705511655;-0.9650584315789348;1.013;0.003752851014604692
59:03.6;0.013344854926651304;-0.2580049735449203;-0.9669662184043081;1.001;0.00332930234586569
59:03.7;0.0109400809666484;-0.25543620666939426;-0.9690705312322355;0.996;0.002708060605530072
59:03.7;0.007906862264044124;-0.2531515518031126;-0.9712686724333653;1.001;0.0019441248369261278
59:03.7;0.004497447501536628;-0.251343823458088;-0.973466814607534;1.0070000000000001;0.0011004123881358588
59:03.7;0.000990706645578158;-0.25015840018884117;-0.9755840990501496;1.0070000000000001;0.00024178250914065863
59:03.7;-0.0023314639034549877;-0.24968223021392447;-0.9775563293096552;1.011;0.0005690600828740651
59:03.7;-0.005204938797893917;-0.24994212216550735;-0.9793378523907762;1.008;0.0012740533699365066
59:03.7;-0.007401034719977675;-0.25091043111763456;-0.9809012400066252;1.01;0.0018215304758794823
59:03.7;-0.008741104623222418;-0.2525150754480391;-0.9822359700780452;1.014;0.0021680508484285274
59:03.7;-0.00910755166458909;-0.25465087606938325;-0.9833478400083896;1.018;0.002280625554612448
59:03.7;-0.00845022262089035;-0.2571899865955104;-0.984259878077847;1.023;0.002139104436626452
59:03.8;-0.006787189351646818;-0.25999002167239466;-0.9850138801601636;1.026;0.0017381569769814
59:03.8;-0.004199556084627339;-0.26289940439182086;-0.9856705397966212;1.022;0.0010882401981580322
59:03.8;-0.0008209198120158745;-0.26576060738220686;-0.9863061727302253;1.024;0.00021518059092095438
59:03.8;0.0031766165924993037;-0.2684128814532293;-0.9870052328499359;1.024;0.0008415648920599878
59:03.8;0.007596963801275014;-0.2706961873281262;-0.987849134173319;1.025;0.002031481255723348
59:03.8;0.012232621851799191;-0.27245744258434157;-0.9889024144551878;1.022;0.0032958820684942116
59:03.8;0.016874690074117966;-0.27355925964072864;-0.9901975425076053;1.0190000000000001;0.004570977347309184
59:03.8;0.02132122771951328;-0.2738903994992169;-0.9917205307812044;1.021;0.005791330130598324
59:03.8;0.025385161189290247;-0.2733764928612017;-0.9934004441102521;1.022;0.006893907356817336
59:03.8;0.02890245604976735;-0.2719893285143225;-0.9951058686098164;1.0190000000000001;0.0078226860653638
59:03.9;0.03174035961297426;-0.2697531893109295;-0.9966505669801723;1.028;0.00853338517815687
59:03.9;0.03380432988785062;-0.2667471911844432;-0.997809319091557;1.04;0.008997456217558092
59:03.9;0.035041658946002335;-0.2631029213708483;-0.9983427227941994;1.0390000000000001;0.009204283467034651
59:03.9;0.03544056143874388;-0.2589969915371928;-0.9980268244174191;1.0390000000000001;0.009160887014736722
59:03.9;0.03502521058884565;-0.254639024287568;-0.9966820541177223;1.042;0.008889193402352134
59:03.9;0.0338486722792622;-0.250256432250871;-0.9941968207078191;1.038;0.008421690111562415
59:03.9;0.03198614632044385;-0.24607712794240033;-0.990542710458435;1.023;0.0077966201363247715
59:03.9;0.0295302179853914;-0.2423110610394728;-0.9857799126822603;1.0190000000000001;0.007053746639966814
59:03.9;0.026588281688253137;-0.23913252846115238;-0.9800535295435869;1.012;0.0062313009144220775
59:03.9;0.023280908809622056;-0.2366661838822723;-0.9735827904593066;1.001;0.0053642502025754305
59:04.0;0.01973943825986637;-0.2349787226614901;-0.9666452867224131;0.993;0.004483637221125369
59:04.0;0.01610131335490889;-0.234076391483019;-0.9595581340552529;0.9890000000000001;0.0036165144700709972
59:04.0;0.012502574222841694;-0.23390768060887784;-0.9526577675618588;0.9740000000000001;0.0027859982345977766
59:04.0;0.009068497962472381;-0.23437049363814247;-0.9462796632268992;0.9740000000000001;0.002011211766406702
59:04.0;0.00590473205317805;-0.23532289280976945;-0.9407390488215462;0.9690000000000001;0.0013071744324437576
59:04.0;0.003091045664030535;-0.23659638475046266;-0.9363133343025157;0.9670000000000001;0.0006847542453861695
59:04.0;0.0006782232094460301;-0.23801067266562684;-0.9332261625883733;0.96;0.00015064543817534847
59:04.0;-0.0013127631946884177;-0.23938853381009365;-0.9316327732732423;0.9520000000000001;0.0002927753405412463
59:04.0;-0.002890322934146189;-0.24056929140026573;-0.9316077261264782;0.9520000000000001;0.0006477682232297775
59:04.0;-0.004090769434958692;-0.24141982595588107;-0.9331377742254324;0.956;0.0009215601892367342
59:04.1;-0.004975272073280552;-0.24184293036418927;-0.9361227364182633;0.968;0.001126375058075195
59:04.1;-0.005624916524457547;-0.2417830130711159;-0.9403849653927843;0.977;0.0012789322661245488
59:04.1;-0.006134295132774818;-0.24122859429911275;-0.9456848891333897;0.982;0.001399393661947578
59:04.1;-0.006604281225957263;-0.24021093921448736;-0.9517383586662954;0.982;0.0015098573343092715
59:04.1;-0.007134287804110556;-0.2387989322004206;-0.9582324473558407;0.986;0.0016325025879617614
59:04.1;-0.007814079261997247;-0.23709088614741144;-0.9648390504945004;0.992;0.001787506149855424
59:04.1;-0.00871533746293251;-0.2352039983823186;-0.9712276833017044;1.001;0.001990902358147104
59:04.1;-0.009883410415111394;-0.23326234080882643;-0.9770786617223116;1.01;0.002252583966179116
59:04.1;-0.011329935756375238;-0.23138474451304913;-0.9820960837844152;1.013;0.002574637843890999
59:04.1;-0.01302751937304169;-0.22967396881123195;-0.9860186805835193;1.014;0.0029502488229164515
59:04.1;-0.014908146475713953;-0.2282080594215525;-0.9886269328339478;1.012;0.0033634661919676487
59:04.2;-0.016866812895846905;-0.22703452188773737;-0.9897465107577126;1.011;0.0037900846148365736
59:04.2;-0.018770588522564864;-0.22616788150959252;-0.9892498298604192;1.0090000000000001;0.004199666497953489
59:04.2;-0.020471509438780504;-0.22559079447611358;-0.987058289124223;1.0090000000000001;0.004558416875305726
59:04.2;-0.021820680253103058;-0.22525824614770465;-0.9831472368318837;1.01;0.004832451976240259
59:04.2;-0.022681611889940164;-0.22510404326868463;-0.9775541297062686;1.0090000000000001;0.0049911201582919906
59:04.2;-0.022942287653900793;-0.2250487789611121;-0.9703883644447701;1.004;0.005010244985992898
59:04.2;-0.022526177634261787;-0.2250083491324815;-0.9618398707793018;0.995;0.004875160448711889
59:04.2;-0.021401978151407562;-0.22490184297728705;-0.9521835518260646;0.987;0.004583187299931032
59:04.2;-0.019590910054685592;-0.2246577581076058;-0.9417777020036199;0.9740000000000001;0.004144999047065869
59:04.2;-0.01716971235468141;-0.22421826568301936;-0.9310556617092269;0.961;0.0035843437551141477
59:04.3;-0.014267612146439143;-0.2235419170837448;-0.9205108996669494;0.9520000000000001;0.0029358860898941676
59:04.3;-0.011056840467834887;-0.22260529153257183;-0.9106765592735918;0.9309999999999999;0.0022414584110667804
59:04.3;-0.007738274819596481;-0.2214041198661149;-0.9021012090801993;0.9309999999999999;0.0015455573050874802
59:04.3;-0.004525292375932422;-0.2199543991376491;-0.8953227933591366;0.9309999999999999;0.0008911666740372259
59:04.3;-0.0016285484916132526;-0.21829354327029032;-0.8908416608083581;0.9229999999999999;0.0003166956541347369
59:04.3;0.0007576142982387557;-0.2164811420556735;-0.8890913402123132;0.917;0.00014581916701059293
59:04.3;0.002467911091551949;-0.214598949986254;-0.89040518207453;0.9079999999999999;0.0004715684936626701
59:04.3;0.0033784271027078403;-0.21274971918790225;-0.8949796337008888;0.905;0.000643275040101829
59:04.3;0.0034175810783578313;-0.21105394374004324;-0.9028387816548449;0.9059999999999999;0.0006512121642494599
59:04.3;0.0025737133505398216;-0.20964344874242274;-0.9138072352914441;0.909;0.0004930557900545476
59:04.4;0.000896771576091035;-0.20865184553501445;-0.9274986540707554;0.924;0.00017354709681665113
59:04.4;-0.0015076744398330095;-0.20820311098234281;-0.9433254190763014;0.97;0.0002961122155890883
59:04.4;-0.004491183991612299;-0.2083995222309966;-0.9605307045865836;0.97;0.0008990188927616383
59:04.4;-0.007877927956221126;-0.2093092680901235;-0.9782388678204231;0.995;0.0016130408959455092
59:04.4;-0.011478323602339845;-0.21095397448743156;-0.9955177505943048;1.022;0.0024105446746901047
59:04.4;-0.015098843196530957;-0.21329809667351488;-1.0114473969508087;1.052;0.003257421481735892
59:04.4;-0.018549018878547742;-0.2162441426733532;-1.0251892416704944;1.068;0.004112153672365969
59:04.4;-0.021647873155990444;-0.21963717726853008;-1.0360476479156802;1.08;0.00492607270347219
59:04.4;-0.024231474387564;-0.22327892852428785;-1.0435159479445704;1.085;0.005645815349466814
59:04.4;-0.026161904803283637;-0.2269490070265214;-1.0473026873230475;1.088;0.006218274159184094
59:04.5;-0.027336339722241407;-0.23042940003555887;-1.0473377874200882;1.085;0.0065972816458572175
59:04.5;-0.02769377276045816;-0.23352751707828093;-1.043761200236723;1.065;0.006750272963218871
59:04.5;-0.027217061582516435;-0.236093456732643;-1.0368986786255792;1.065;0.006662872578849597
59:04.5;-0.025929777352842184;-0.23802984821395226;-1.0272304187649068;1.056;0.00634012877230667
59:04.5;-0.02388938940133219;-0.23929518656557014;-1.0153574111683;1.045;0.00580440831450058
59:04.5;-0.021179003719889903;-0.23990157053296318;-1.001967764692295;1.031;0.005090874223625026
59:04.5;-0.01789950660654959;-0.23990676276335327;-0.9878033299216652;1.016;0.004241837589672951
59:04.5;-0.014163491763810276;-0.23940111644120277;-0.9736265549385715;1.001;0.0033013298307109766
59:04.5;-0.010091780770011232;-0.23849174301136447;-0.9601876567284494;0.9890000000000001;0.002310985783903801
59:04.5;-0.005812276053051905;-0.2372873699817947;-0.9481921820986688;0.9740000000000001;0.001307727407577385
59:04.6;-0.0014594837586439004;-0.2358868976584458;-0.9382690734695298;0.96;0.00032302079881322394
59:04.6;0.0028276370650578667;-0.2343731842215445;-0.930939971922782;0.95;0.0006169546819244379
59:04.6;0.006910800675041408;-0.23281181591907923;-0.9265916062558693;0.95;0.0014908081113730375
59:04.6;0.010659722231071277;-0.23125322584061445;-0.9254536143443907;0.9470000000000001;0.0022813312185840954
59:04.6;0.01395974967279127;-0.2297359558526062;-0.927583363361569;0.9470000000000001;0.0029748121940426525
59:04.6;0.01671817641327946;-0.22828906523180864;-0.9328584404862359;0.946;0.0035603259429962193
59:04.6;0.018867900956017123;-0.2269322356906338;-0.9409778849200346;0.953;0.004029017893970109
59:04.6;0.020367293593234023;-0.22567288278581066;-0.9514743467230863;0.965;0.004373305174200054
59:04.6;0.021196306760094274;-0.22450098897536605;-0.9637392768641821;0.982;0.004586041849392746
59:04.6;0.021350368806106423;-0.22338419135321497;-0.9770611565985443;1.004;0.004659931845113574
59:04.7;0.020833859653581744;-0.22226635808026743;-0.9906737986844675;1.0190000000000001;0.004587479585590563
59:04.7;0.019654269585431695;-0.22107164935433388;-1.0038094538295799;1.051;0.004361553877830194
59:04.7;0.01781795677283488;-0.21971410837336483;-1.0157501782993243;1.051;0.003976516173039551
59:04.7;0.015328928293739027;-0.21811148676012948;-1.0258709267178063;1.053;0.0034299125938503454
59:04.7;0.01219196748846553;-0.21620121399705186;-1.0336705456223534;1.061;0.0027246709750865855
59:04.7;0.008420039863396721;-0.2139558486770076;-1.0387915924752245;1.0659999999999998;0.0018714004794352127
59:04.7;0.004044257155711763;-0.2113952428678322;-1.041032609579685;1.071;0.0008900170084485897
59:04.7;-0.0008761739893663757;-0.20859312380149175;-1.04035525504192;1.072;0.000190139351999067
59:04.7;-0.006246730677012774;-0.20567653522429805;-1.0368860881230086;1.069;0.0013321973865918727
59:04.7;-0.01193544962892974;-0.2028174225510146;-1.0309112504771252;1.065;0.002495544524289163
59:04.8;-0.017777373834805765;-0.2002166564199916;-1.0228619699009251;1.052;0.0036406995609945037
59:04.8;-0.02358559263858847;-0.19808211117226684;-1.013289584758889;1.025;0.0047339713812777915
59:04.8;-0.029166859224191353;-0.19660413541996705;-1.0028309101270603;1.025;0.005750558499800662
59:04.8;-0.03433787204434487;-0.19593298066461842;-0.992167243341312;1.008;0.006675223446465837
59:04.8;-0.03893841008462832;-0.19616198071645685;-0.9819809467393414;0.996;0.0075006018731888675
59:04.8;-0.04283987846144744;-0.19731771987739383;-0.9729124779680851;0.985;0.008224094495504054
59:04.8;-0.04595009087648756;-0.19935626493552192;-0.9655202004974277;0.975;0.008844588408073367
59:04.8;-0.04821563580815877;-0.20216430678055758;-0.9602456001910323;0.9690000000000001;0.009359975348669414
59:04.8;-0.04962249416236661;-0.20556528855469575;-0.9573865127155968;0.966;0.009765976536743656
59:04.8;-0.05019477415520721;-0.20933167434664016;-0.9570805050122274;0.9690000000000001;0.01005638569914717
59:04.9;-0.04999107889339805;-0.21320415385875346;-0.9592998714195896;0.972;0.01022451126449251
59:04.9;-0.04909820911969738;-0.21691674069884145;-0.9638586953319689;0.99;0.010265310524229057
59:04.9;-0.047622569944750726;-0.2202243371252734;-0.9704309845413057;0.9990000000000001;0.010177539445885958
59:04.9;-0.045680529111014875;-0.22292773574529684;-0.9785772807722433;0.9990000000000001;0.009965299583949868
59:04.9;-0.043389271453542745;-0.22489146656051537;-0.9877766246008081;1.015;0.009638602697851769
59:04.9;-0.04085904993251354;-0.2260522846112427;-0.9974618695646723;1.032;0.009212838696891186
59:04.9;-0.03818697912352057;-0.22641860789761106;-1.0070569054441056;1.045;0.008707258369811415
59:04.9;-0.03545236449073248;-0.22606241532579682;-1.0160128068023833;1.052;0.008142780939558872
59:04.9;-0.03271367275803912;-0.225105397996894;-1.0238385440073419;1.053;0.007539571944108334
59:04.9;-0.030007313204266747;-0.22370144343049345;-1.0301231957973171;1.057;0.006914886629459035
59:05.0;-0.027348699944026233;-0.22201780228014512;-1.0345496140561787;1.061;0.006281679998152374
59:05.0;-0.024736392154604644;-0.22021716201994038;-1.0369015501946064;1.062;0.005648394774506856
59:05.0;-0.022159510881517283;-0.2184425529036215;-1.0370662650562312;1.062;0.005020002354106599
59:05.0;-0.019606993789731533;-0.21680669442883976;-1.035033679121456;1.058;0.004399853141635782
59:05.0;-0.017075994726372973;-0.21538665839626797;-1.0308925224272592;1.056;0.003791562331416881
59:05.0;-0.014577133538356067;-0.21422379759745577;-1.0248237053972171;1.054;0.0032002875999850395
59:05.0;-0.012135910469044832;-0.21332849817100355;-1.0170905489793072;1.042;0.0026331818841941117
59:05.0;-0.00979097251593222;-0.21268906354770076;-1.0080249037424933;1.033;0.002099144098209583
59:05.0;-0.007590214862007319;-0.21228323315456002;-0.9980086380643611;1.0190000000000001;0.0016080667188424044
59:05.0;-0.005585278901503582;-0.21209016174307208;-0.987451454978425;1.005;0.0011697179161870611
59:05.1;-0.003824828209748591;-0.2121007305738861;-0.9767674350319602;0.995;0.0007924014658176756
59:05.1;-0.0023474793831135135;-0.21232420374505667;-0.9663534836310455;0.977;0.0004816563690158618
59:05.1;-0.0011759180015524107;-0.21278948188682445;-0.956572886832795;0.977;0.0002393565205227091
59:05.1;-0.00031382751050018485;-0.21354037127662867;-0.9477461553153725;0.973;6.351305990564564e-05
59:05.1;0.0002533980895640499;-0.21462601498081352;-0.9401489644842546;0.9690000000000001;5.113077439282016e-05
59:05.1;0.0005543123664866491;-0.21608886606393338;-0.9340141818601825;0.963;0.00011187690120541627
59:05.1;0.0006246739309422166;-0.21795325391817957;-0.9295336459614052;0.96;0.00012655574180478886
59:05.1;0.0005002069720964276;-0.22021777015620425;-0.9268561917737074;0.9540000000000001;0.0001020973470207229
59:05.1;0.00021110475000686812;-0.222853710977046;-0.9260804950658162;0.945;4.3567898578825604e-05
59:05.1;-0.00021963775738159137;-0.2258095323484344;-0.9272439558974264;0.9470000000000001;4.5987868742627103e-05
59:05.2;-0.0007732338469139115;-0.22901891223904175;-0.9303113192105508;0.951;0.00016474434232650325
59:05.2;-0.0014288210782638605;-0.23240893621216974;-0.9351673739745584;0.965;0.00031054176569986284
59:05.2;-0.0021568604120846433;-0.23590543992434573;-0.9416161727446102;0.965;0.00047910853120986533
59:05.2;-0.002915065560672275;-0.23943419770119048;-0.9493865785940815;0.976;0.0006626399170572268
59:05.2;-0.003648306858609859;-0.24291872150141466;-0.9581427730894551;0.987;0.0008491464036670716
59:05.2;-0.004292388046426832;-0.24627694645640083;-0.9674984913614181;0.997;0.0010227583490885408
59:05.2;-0.004780510794258898;-0.24941937820283827;-0.9770337901527578;1.0090000000000001;0.0011649682228679307
59:05.2;-0.005050768191814069;-0.2522505497728195;-0.98631296054261;1.02;0.0012566209566285203
59:05.2;-0.005053106009603474;-0.25467430343678105;-0.9949023827998807;1.025;0.001280336148712957
59:05.2;-0.004754715386399694;-0.2566018492314487;-1.0023878586052473;1.032;0.0012229821124086608
59:05.3;-0.004143524775580366;-0.25796057440597536;-1.008392040432212;1.0390000000000001;0.0010778359981243324
59:05.3;-0.003229879817566912;-0.25870186671907314;-1.0125930955046725;1.054;0.0008460984256725027
59:05.3;-0.002046400778156094;-0.25880708288594545;-1.0147446071999835;1.054;0.0005374320991422982
59:05.3;-0.000645770949012096;-0.25829110486362616;-1.0146945363033328;1.057;0.000169247894892609
59:05.3;0.0009037481711231712;-0.25720290920142225;-1.012399883835152;1.053;0.0002353289703653131
59:05.3;0.002524842344800861;-0.2556229672029731;-1.0079343650586978;1.0490000000000002;0.0006505285921369161
59:05.3;0.004138660006405891;-0.25365781210329647;-1.0014877974017473;1.041;0.0010513653370980796
59:05.3;0.005671495053422089;-0.25143237555625025;-0.9933568656203807;1.031;0.0014165243813910814
59:05.3;0.007058790730400125;-0.2490809601878357;-0.9839274726987002;1.0170000000000001;0.001729951488673305
59:05.3;0.008245514179812256;-0.2467378446259911;-0.973649646536425;1.001;0.0019808711189958548
59:05.4;0.009183296432611258;-0.2445282299066504;-0.9630072416022295;0.985;0.0021625051997461618
59:05.4;0.009825965586042784;-0.24256007734981752;-0.9524860467865467;0.97;0.002270142835482121
59:05.4;0.010125850199351848;-0.24091773697517152;-0.9425445943129825;0.97;0.0022993346300551804
59:05.4;0.010033201245769665;-0.2396583718957347;-0.9335910772514141;0.961;0.0022448577195007327
59:05.4;0.009500071866864288;-0.23881140039526447;-0.925967297178593;0.9540000000000001;0.002100765588145534
59:05.4;0.008488321067031639;-0.2383801762750577;-0.9199382077590414;0.95;0.0018614466411054533
59:05.4;0.00698001850494998;-0.23834497343678882;-0.9156850060595616;0.9440000000000001;0.0015233814894365285
59:05.4;0.0049881061811568;-0.23866681674895332;-0.913300441011784;0.94;0.0010872799956361057
59:05.4;0.00256533607431409;-0.23929183558879952;-0.9127860513864419;0.94;0.0005603264766808944
59:05.4;-0.00019048645701228215;-0.2401556969122886;-0.9140519523239589;0.9390000000000001;4.1814593394429374e-05
59:05.5;-0.0031370197419581898;-0.24118794523424283;-0.9169202195690538;0.941;0.0006937522412479914
59:05.5;-0.0060951688608942;-0.2423164226208208;-0.9211328786611045;0.95;0.0013604759684666893
59:05.5;-0.008863813194217425;-0.2434717838224074;-0.9263652185145719;0.95;0.001999178041378085
59:05.5;-0.011238734129201263;-0.24459175379275658;-0.9322447663665415;0.9590000000000001;0.002562649214757864
59:05.5;-0.013031905180598673;-0.24562477942738553;-0.9383759596382981;0.973;0.0030037028190279596
59:05.5;-0.014088312803269231;-0.24653305969911612;-0.9443698720028503;0.981;0.0032800183614850073
59:05.5;-0.014299142414002796;-0.2472950369095521;-0.9498767466404169;0.993;0.0033588657664319135
59:05.5;-0.013611084626623977;-0.24790702273805343;-0.9546174077463864;1.001;0.0032211497353354514
59:05.5;-0.012031595922509167;-0.24838318736706327;-0.9584089438167935;1.008;0.0028641535128554334
59:05.5;-0.009629719056094258;-0.24875324217443248;-0.9611802795933577;1.01;0.0023024341528466515
59:05.6;-0.00653208956476593;-0.24905765527900203;-0.9629741922335527;1.004;0.001566630849562055
59:05.6;-0.002914178565651495;-0.24934068161967077;-0.9639344499280191;0.992;0.0007004172019961767
59:05.6;0.0010125137759092154;-0.24964198966102705;-0.9642801293666446;0.992;0.00024373718641488236
59:05.6;0.005016003512559911;-0.2499885187113911;-0.9642723121283704;0.988;0.0012091427935551704
59:05.6;0.008860742671999633;-0.2503888703995427;-0.9641792467806413;0.9840000000000001;0.0021391583025221214
59:05.6;0.012324845970125616;-0.25083227879342523;-0.9642448426335133;0.985;0.0029809332327083143
59:05.6;0.015216395098075597;-0.2512930365409996;-0.9646639523221454;0.986;0.003688657064457067
59:05.6;0.017387077902885583;-0.2517396375822052;-0.9655669130700028;0.992;0.004226302493709092
59:05.6;0.018741420503522017;-0.25214635141825503;-0.9670144890213344;0.997;0.004569705102987561
59:05.6;0.01924061860600314;-0.2525039787655102;-0.9690025834808971;1.004;0.004707736988025663
59:05.7;0.01890106884395596;-0.252826449407817;-0.9714745230113022;1.006;0.004642375710609614
59:05.7;0.01778870199601728;-0.2531508890414244;-0.9743377970919531;1.016;0.004387663032884308
59:05.7;0.016010786188443732;-0.2535307061102938;-0.977481744325803;1.016;0.003967819240456966
59:05.7;0.013706799795565917;-0.2540233141634025;-0.980792664455058;1.018;0.0034149697125565124
59:05.7;0.011039318817921692;-0.2546753499128186;-0.9841636428130414;1.018;0.0027669193769695333
59:05.7;0.008185026069496573;-0.255508668767312;-0.9874981064516558;1.02;0.002065199340844199
59:05.7;0.005325467100141874;-0.25651048976685975;-0.9907078508984488;1.0190000000000001;0.001353344743702592
59:05.7;0.0026372000448638636;-0.2576305261122423;-0.993707354291555;1.021;0.0006751478653174303
59:05.7;0.0002812592249985924;-0.25878620135397434;-0.9964068432002331;1.026;7.252447489920537e-05
59:05.7;-0.0016077780309205459;-0.25987463726895;-0.998706655450479;1.0290000000000001;0.0004172803464272856
59:05.7;-0.0029322602109241266;-0.2607884276327305;-1.0004946615782095;1.03;0.000765077797293197
59:05.8;-0.0036398629222163074;-0.26143212293144946;-1.0016474545472667;1.034;0.0009531447709400134
59:05.8;-0.0037278595839604803;-0.26173711650417714;-1.0020354785413637;1.034;0.0009777052737693977
59:05.8;-0.0032415140636288006;-0.2616729758646104;-1.001532153193585;1.034;0.0008495162291572889
59:05.8;-0.0022659501696519362;-0.2612532781013553;-1.0000268775325172;1.037;0.0005920028209833093
59:05.8;-0.0009123458364856018;-0.2605346726959588;-0.9974411703242296;1.04;0.0002370894959045332
59:05.8;0.0006992780118527156;-0.2596093538614802;-0.9937457631150487;1.043;0.00018040372421112237
59:05.8;0.0024574741210656023;-0.25859258052331857;-0.9889745588930106;1.035;0.0006284780767846855
59:05.8;0.0042737719136454085;-0.2576076479648888;-0.9832305511891751;1.02;0.0010824938997834339
59:05.8;0.006091919382766573;-0.2567709495386875;-0.9766805493831378;1.01;0.0015277509885889367
59:05.8;0.007891433275613497;-0.2561799173462862;-0.9695391762784786;1.003;0.0019600463090110715
59:05.9;0.009686066691672188;-0.25590615311241116;-0.9620456456504549;0.978;0.0023846456943258415
59:05.9;0.011518004881002221;-0.2559942551366093;-0.9544383843943339;0.978;0.0028142026937564507
59:05.9;0.013448385325689906;-0.25646472474809073;-0.946933342276576;0.9690000000000001;0.0032660076045766258
59:05.9;0.015544975113826407;-0.25731853149973866;-0.9397111608720218;0.9670000000000001;0.003758854198931436
59:05.9;0.017868679445710176;-0.25854150079071997;-0.932915527757896;0.9690000000000001;0.0043098786781136786
59:05.9;0.020461132963691366;-0.26010761161216345;-0.9266615213848927;0.968;0.004931781971134186
59:05.9;0.023335204433171806;-0.2619808729469762;-0.9210501543875169;0.966;0.005630727039492937
59:05.9;0.02646918201694796;-0.2641157479384677;-0.9161840601909254;0.9640000000000001;0.006404976621551363
59:05.9;0.029804614910035512;-0.2664564811568123;-0.9121794572499831;0.958;0.007244194307364341
59:05.9;0.03324769881779684;-0.26893612925091903;-0.9091709485866213;0.955;0.008129358788798637
59:06.0;0.03667420189202587;-0.27147627285753917;-0.9073077548924604;0.95;0.009033315366945894
59:06.0;0.03993748948916378;-0.2739881768297047;-0.9067419514181608;0.95;0.009921933067803927
59:06.0;0.04287848730398516;-0.2763756663201869;-0.9076106263270127;0.9470000000000001;0.010755703713329678
59:06.0;0.045336404857978546;-0.2785396136525559;-0.9100144364627374;0.948;0.011491648374549333
59:06.0;0.04715968802920852;-0.2803839128352649;-0.9139951986130922;0.948;0.012085592034091432
59:06.0;0.048216942316973425;-0.2818226119874143;-0.919515486595913;0.953;0.012494950784976349
59:06.0;0.04840726110878712;-0.28278724015791407;-0.9264436220181593;0.958;0.012682045767574503
59:06.0;0.047669177637469966;-0.28323301822897495;-0.9345473232037768;0.966;0.012617776720934127
59:06.0;0.04598743439033344;-0.28314306773153963;-0.9434983786915383;0.978;0.012285314325640163
59:06.0;0.04339651719768673;-0.2825305013426111;-0.9528892657616367;0.991;0.011683222596894988
59:06.1;0.03997966066709407;-0.2814387383343455;-0.962260704960947;1.014;0.010827189304073543
59:06.1;0.03586269369562256;-0.2799403271775568;-0.9711367508314022;1.014;0.009749644092868617
59:06.1;0.03120365807655921;-0.27813417846212674;-0.9790622628978024;1.025;0.00849708929172433
59:06.1;0.026180177227095505;-0.2761407278547353;-0.9856381058811547;1.032;0.007125585128010213
59:06.1;0.020976421228548092;-0.27409448906391926;-0.9905515003191104;1.037;0.00569519710735754
59:06.1;0.015771091970061008;-0.27213387206912987;-0.9936001728888314;1.04;0.004264381237306451
59:06.1;0.010727536490936924;-0.2703888152471524;-0.9947088877176865;1.044;0.002885258450895015
59:06.1;0.005986563439702854;-0.26896751855207;-0.9939366371242153;1.04;0.0016004279400137485
59:06.1;0.0016619091875604004;-0.26794433942109325;-0.9914727330314159;1.035;0.0004415019746252972
59:06.1;-0.0021621686660986132;-0.26735125669011367;-0.9876206899419689;1.03;0.0005709025445297664
59:06.2;-0.005431912225595812;-0.2671745838250558;-0.9827703962646566;1.01;0.0014262641003898518
59:06.2;-0.008124152459118626;-0.26735720002778607;-0.9773612820609894;1.01;0.002122878211962101
59:06.2;-0.01024521655763342;-0.2678056269154577;-0.9718411361131111;1.001;0.0026664664180157155
59:06.2;-0.011828166299709258;-0.268401067306489;-0.9666255794244584;0.993;0.003068738937791918
59:06.2;-0.012928455414471164;-0.26901327475132336;-0.962061933745275;0.99;0.0033459803366304073
59:06.2;-0.013618420854830537;-0.2695157566849003;-0.958399951376558;0.986;0.0035176910566124264
59:06.2;-0.01398048018186659;-0.26980092261375693;-0.9557712299646884;0.98;0.0036051178994553706
59:06.2;-0.01409852688243661;-0.26979407689304213;-0.954178838318666;0.976;0.003629409136834045
59:06.2;-0.01404766586417473;-0.2694650115350936;-0.9534989501372542;0.977;0.0036093314883762825
59:06.2;-0.013883474296744991;-0.26883582254772675;-0.9534965525339275;0.983;0.0035588069168427452
59:06.3;-0.013632587935952793;-0.267983942722377;-0.9538560554877373;0.995;0.0034847363154176425
59:06.3;-0.013286780391874902;-0.26703974421266413;-0.9542246801208145;0.995;0.003385683096327878
59:06.3;-0.01280299326440015;-0.26617805450519566;-0.9542635302644463;1.008;0.003252011628789984
59:06.3;-0.012111204385802803;-0.26560305908256265;-0.9536996331809847;1.013;0.0030678351672236855
59:06.3;-0.011130100954792334;-0.2655266978391851;-0.9523716079871967;1.012;0.002814580910951778
59:06.3;-0.009788187471488767;-0.2661416033618514;-0.9502616674041651;1.0090000000000001;0.002475473367362042
59:06.3;-0.008046319934933155;-0.26759094979689924;-0.947508183682847;0.9990000000000001;0.002040101088556968
59:06.3;-0.005916915367291034;-0.26993933250286467;-0.9443961556002362;0.987;0.0015083972693451459
59:06.3;-0.0034752344542755007;-0.27315001233373176;-0.9413266577538978;0.977;0.0008935640575877172
59:06.3;-0.0008593156385186579;-0.2770737748693301;-0.9387696148299517;0.978;0.00022351525098772993
59:06.4;0.0017425865314174191;-0.28145356270886435;-0.9372058288598307;0.9620000000000001;0.000459659335021091
59:06.4;0.004114798071130874;-0.28594626018907543;-0.9370645173808909;0.9620000000000001;0.001102560531188871
59:06.4;0.006041647664352731;-0.29015826871895645;-0.9386635086410354;0.9620000000000001;0.0016455090700802182
59:06.4;0.007333333817304092;-0.29368829398385493;-0.9421600470535896;0.965;0.002029143564360768
59:06.4;0.00784680794639789;-0.29617160120560865;-0.9475188805564253;0.9740000000000001;0.0022020354644058204
59:06.4;0.00750109654208129;-0.29732166301283697;-0.954501647506878;0.9890000000000001;0.0021287663209715447
59:06.4;0.0062868727427980945;-0.29696471524007534;-0.9626790148101677;1.0;0.0017973018642557321
59:06.4;0.0042690316250716875;-0.29506214681013865;-0.9714644728074969;1.0090000000000001;0.0012236854403607832
59:06.4;0.0015808714490326153;-0.2917169907305384;-0.9801665301135238;1.025;0.00045202051880991015
59:06.4;-0.001589955991514597;-0.28716346451526337;-0.988054711816505;1.043;0.00045112332387059934
59:06.5;-0.005021451291514139;-0.2817414237012833;-0.9944331075865228;1.056;0.0014068750702224098
59:06.5;-0.008479792545393485;-0.27586033564347506;-0.9987127516985829;1.056;0.0023362272370794144
59:06.5;-0.011741167868774762;-0.2699590163832501;-1.0004730207260257;1.06;0.003171133431682012
59:06.5;-0.014610889219043138;-0.26446654784789525;-0.9995043401691638;1.056;0.003862176157842477
59:06.5;-0.0169389795727006;-0.25976723594033874;-0.9958282726855545;1.044;0.004381835502498703
59:06.5;-0.01863170572220796;-0.2561708012472289;-0.9896942749894756;1.03;0.004723710799034036
59:06.5;-0.01965794535897711;-0.2538892637240249;-0.9815549862192635;1.0190000000000001;0.004898883292948929
59:06.5;-0.020048976747368295;-0.25302282353283956;-0.9720240008195911;1.006;0.004930930694334193
59:06.5;-0.019891151697382217;-0.2535567718796099;-0.9618209193730947;0.992;0.004850978637621428
59:06.5;-0.0193125899182943;-0.25536982262824864;-0.9517083008687012;0.977;0.004693685117017248
59:06.6;-0.018466278670506153;-0.25825234828242644;-0.9424253438936457;0.9540000000000001;0.004494388608458564
59:06.6;-0.017512148463023826;-0.2619316246400828;-0.9346244188533288;0.9540000000000001;0.00428710865522433
59:06.6;-0.016600304897988336;-0.2661004102573454;-0.9288176894587755;0.951;0.004102910910650942
59:06.6;-0.01585711072041404;-0.27044533616227473;-0.9253397522692348;0.9490000000000001;0.0039683025377624664
59:06.6;-0.015375175344244655;-0.2746725021235201;-0.9243288023685033;0.951;0.003903567981068024
59:06.6;-0.015207482135030953;-0.27852851247093013;-0.9257260758127502;0.9590000000000001;0.003921114026123483
59:06.6;-0.015365271582790392;-0.28181578675816493;-0.9292920223976034;0.968;0.004023998105173831
59:06.6;-0.0158194384223117;-0.28440152264321406;-0.9346365514680974;0.977;0.004204997489063226
59:06.6;-0.016505771435128266;-0.28622003327882267;-0.9412596297697262;0.986;0.004446776349301678
59:06.6;-0.017334221649391485;-0.287268649266219;-0.9485981581983016;0.996;0.004723618936125796
59:06.7;-0.01820117433605219;-0.28759831050189133;-0.9560751431421747;1.015;0.005004696747038244
59:06.7;-0.019002447622808723;-0.2873009813434535;-0.963146859660468;1.015;0.005258225010351218
59:06.7;-0.019644510904143313;-0.28649648445896186;-0.9693432632664393;1.021;0.005455544644513061
59:06.7;-0.02005213317225137;-0.2853209216887737;-0.9742979233649802;1.024;0.005574244004348854
59:06.7;-0.020171528039399353;-0.28391774881681897;-0.9777663320482352;1.024;0.005599721395684454
59:06.7;-0.019968829990189216;-0.2824313769814325;-0.9796336648926408;1.024;0.005524961602234737
59:06.7;-0.019424888318396272;-0.28100214158207343;-0.9799139742348429;1.0270000000000001;0.0053487969470465725
59:06.7;-0.018528682818668634;-0.2797608401153156;-0.9787426217841114;1.0290000000000001;0.005073410128590923
59:06.7;-0.01727202958661004;-0.2788213320178977;-0.9763624887756337;1.026;0.004701976526065241
59:06.7;-0.015647275464086646;-0.2782709277035082;-0.9731028155494363;1.02;0.004237066626819515
59:06.8;-0.013648237221641431;-0.27815984401427374;-0.9693491777624855;0.997;0.00368002901450798
59:06.8;-0.011273552244243455;-0.27849231403688873;-0.9655052640722926;0.997;0.003031298059993058
59:06.8;-0.008531016146016812;-0.27922247821119595;-0.9619505981039658;0.9890000000000001;0.002291415836233353
59:06.8;-0.005441329439046575;-0.2802574411741387;-0.9590001662119338;0.985;0.0014624494229693457
59:06.8;-0.002040060428189582;-0.28146801708071667;-0.9568710614306759;0.981;0.000549446619575855
59:06.8;0.0016224046512971404;-0.2827055910881857;-0.9556598411022861;0.9790000000000001;0.0004383256815733992
59:06.8;0.005482119674258833;-0.2838220224374127;-0.9553336815899002;0.983;0.0014864479006313407
59:06.8;0.009462991543342455;-0.28468890431420424;-0.9557376706555736;0.99;0.0025747655939377806
59:06.8;0.01347799034878949;-0.28521274419673065;-0.9566187267829799;0.998;0.003677332894929113
59:06.8;0.01743060484737662;-0.28534356208158806;-0.9576638402741665;1.008;0.004763143058294204
59:06.9;0.021217073932019256;-0.2850757872722353;-0.9585473818881913;1.021;0.005797748969631484
59:06.9;0.024729304964811544;-0.284442024208896;-0.9589797741871012;1.021;0.006745515095998569
59:06.9;0.027857847863566924;-0.2835019294785506;-0.9587486669343328;1.018;0.007571960755373744
59:06.9;0.030494564717125913;-0.28232933034425267;-0.9577451676113423;1.0090000000000001;0.00824571663221758
59:06.9;0.0325354931661034;-0.28100039710345415;-0.9559717613230302;1.001;0.008739958921925013
59:06.9;0.03388485184326558;-0.279584562136691;-0.9535333105122642;0.996;0.009033470850695233
59:06.9;0.03446059528392222;-0.27813858821230264;-0.9506157091698959;0.986;0.00911148171754367
59:06.9;0.034200840891210706;-0.27670334734187885;-0.9474577053874058;0.9840000000000001;0.008966253826265421
59:06.9;0.033069818189476116;-0.27530285352690426;-0.9443207469349679;0.98;0.00859729940479768
59:06.9;0.031062076645809473;-0.2739454453316422;-0.941460249797589;0.976;0.008011181279141098
59:07.0;0.028204047647149313;-0.2726269653352969;-0.9391001854920715;0.9690000000000001;0.007220914045756033
59:07.0;0.024552477123095422;-0.27133533353193917;-0.9374122057086154;0.9690000000000001;0.006244997527072861
59:07.0;0.020189898587860643;-0.27005570927716704;-0.9365007160243833;0.9640000000000001;0.005106174053583701
59:07.0;0.015217963634177881;-0.26877569082787844;-0.9363954617918225;0.9670000000000001;0.0038300622179000383
59:07.0;0.009749943005153652;-0.267490247571256;-0.9370527926840151;0.9690000000000001;0.00244384742824846
59:07.0;0.0039041123940950604;-0.26620596767717775;-0.938365860177576;0.9740000000000001;0.0009752417784448684
59:07.0;-0.002200522255017143;-0.26494384587952735;-0.9401826475200422;0.981;0.0005481404256491671
59:07.0;-0.008445975678307018;-0.2637395391977756;-0.9423293246262827;0.9840000000000001;0.0020990741279625254
59:07.0;-0.01471578033841072;-0.26264009316785236;-0.944635486790094;0.991;0.0036509726268071636
59:07.0;-0.020896092996968783;-0.2616968054342228;-0.9469574448107423;0.997;0.0051783807113124376
59:07.1;-0.026878612657923972;-0.26095508069652157;-0.9491956749981926;0.992;0.006657763383932272
59:07.1;-0.03256478637502959;-0.26044336043110616;-0.9513031598080507;0.992;0.008068270741810312
59:07.1;-0.037869083235877836;-0.26016382174257263;-0.9532832761333505;0.99;0.009391904529093947
59:07.1;-0.04271916100455527;-0.2600872256626806;-0.9551785093885318;0.985;0.010612709570941535
59:07.1;-0.04705273301301596;-0.2601533402877179;-0.9570532596728231;0.9840000000000001;0.011715217807189043
59:07.1;-0.05081298175210793;-0.26027717098948505;-0.9589750111766038;0.987;0.012682884826577059
59:07.1;-0.05394503487907528;-0.26036000760293365;-0.9609981928212151;0.99;0.013497344251237147
59:07.1;-0.05639550186418451;-0.26030328820887366;-0.9631539352299228;0.996;0.014139036755249848
59:07.1;-0.058115924000059105;-0.2600226171968505;-0.9654469471849456;1.006;0.014589307768353234
59:07.1;-0.05906961571973569;-0.259459123512918;-0.9678585318756985;1.01;0.014833545736023858
59:07.2;-0.059240217333409846;-0.2585862087709718;-0.9703528418750305;1.012;0.014864547190767014
59:07.2;-0.05863969303235702;-0.25741135832725054;-0.972882740882084;1.012;0.014685200942941038
59:07.2;-0.057313601120219625;-0.255973704888444;-0.975392773110598;1.0090000000000001;0.014309767734620702
59:07.2;-0.05534209818624188;-0.25433806235675327;-0.9778189784100882;1.008;0.013763390787161614
59:07.2;-0.0528360420609783;-0.25258626053239136;-0.9800872461979444;1.005;0.013079909477748836
59:07.2;-0.04992858712209969;-0.2508071066843832;-0.9821129637462775;1.0070000000000001;0.012298455058588852
59:07.2;-0.046763788137324305;-0.2490863809684909;-0.9838047169466626;1.0170000000000001;0.011459576483039217
59:07.2;-0.04348468900407522;-0.24749781330591794;-0.9850732615040073;1.021;0.010601718426263432
59:07.2;-0.040223638390612576;-0.24609558072151727;-0.9858441759104862;1.023;0.00975873313259959
59:07.2;-0.03709665091062445;-0.24490883539697533;-0.9860704570477951;1.023;0.008958743528891328
59:07.3;-0.03420167842735435;-0.24393911379486827;-0.9857413449259538;1.02;0.008224165353939245
59:07.3;-0.031618894609845564;-0.2431615839067221;-0.9848852641587987;1.02;0.007572290840717282
59:07.3;-0.029410775987875473;-0.24253016436078204;-0.9835665822481661;1.013;0.007015780759999768
59:07.3;-0.027620741398427327;-0.24198520207992733;-0.9818772307172251;1.012;0.006562681529851247
59:07.3;-0.02627045534575266;-0.24146200543082422;-0.9799249918938291;1.008;0.006215974694556665
59:07.3;-0.025357022382598446;-0.24089904617537417;-0.9778204226891866;1.005;0.005972998945826091
59:07.3;-0.024851784448620764;-0.2402450427320861;-0.9756641344768378;1.0;0.005825220293266357
59:07.3;-0.024702085553723805;-0.23946416143053395;-0.9735359636764946;0.995;0.005758722435984188
59:07.3;-0.02483649611777853;-0.23853871332659715;-0.9714877538656774;0.9940000000000001;0.0057555459995885395
59:07.3;-0.02517297917381896;-0.23746925906089494;-0.9695415450082298;0.996;0.005795733895135051
59:07.4;-0.025628594848259505;-0.2362726296988783;-0.9676941211461141;0.996;0.0058597125651935434
59:07.4;-0.026128845297283012;-0.23497860195129136;-0.96592717502289;0.996;0.005930521949311336
59:07.4;-0.026614855181034965;-0.2336258327543408;-0.9642209491704572;0.996;0.005995446511673437
59:07.4;-0.027047245843192586;-0.23225744465154122;-0.9625687968555349;0.998;0.006046784223368829
59:07.4;-0.02740651749312964;-0.23091667218229692;-0.9609901077347544;0.996;0.006081742960404606
59:07.4;-0.027690684807388104;-0.22964320768400395;-0.9595390035348726;0.995;0.006101687108616619
59:07.4;-0.02791156633678108;-0.22847083777889818;-0.9583065825749959;0.992;0.006111100899634424
59:07.4;-0.028091161965978186;-0.2274264821146601;-0.9574155858060628;0.987;0.006116616198518817
59:07.4;-0.02825885581468203;-0.22653035191707477;-0.9570078070098466;0.9840000000000001;0.006126274521201584
59:07.4;-0.02844922607900479;-0.22579690098312818;-0.9572259499615879;0.98;0.0061489774048022255
59:07.5;-0.028699607428147405;-0.22523620828241717;-0.9581926567226852;0.9790000000000001;0.006193940114350726
59:07.5;-0.029046511862990735;-0.22485532422830015;-0.9599898406598469;0.981;0.006269945975626943
59:07.5;-0.02952055967606305;-0.22465919478577565;-0.9626411752063593;0.981;0.006384299005876359
59:07.5;-0.03014035805000601;-0.2246509181778035;-0.9660999419979795;0.98;0.006541519813572692
59:07.5;-0.030906394423926814;-0.22483101631450492;-0.9702440697631567;0.988;0.006741950558365153
59:07.5;-0.0317963521223299;-0.225195351350101;-0.9748800275875749;0.996;0.006980521871298895
59:07.5;-0.03276316852730441;-0.2257316632199464;-0.979756212664143;1.005;0.0072459678593164
59:07.5;-0.033736545103842046;-0.22641541148775127;-0.9845843343296037;1.014;0.007520721584424839
59:07.5;-0.03462784165595905;-0.22720632142238173;-0.9890653510827875;1.0190000000000001;0.007781634372106738
59:07.5;-0.03533782692809961;-0.22804732509532794;-0.9929159437321519;1.026;0.008001608643309715
59:07.6;-0.035766545714354975;-0.22886703118026278;-0.9958921931744737;1.0290000000000001;0.008152157517390667
59:07.6;-0.03582412478612392;-0.22958557993480017;-0.9978082759187245;1.0290000000000001;0.008206676186225746
59:07.6;-0.03544076173550845;-0.23012275413014843;-0.998549103159132;1.0290000000000001;0.008143892582393852
59:07.6;-0.03457422723165589;-0.23040706289642277;-0.9980768672799136;1.031;0.007950826192048451
59:07.6;-0.033214161220036086;-0.23038442894918887;-0.9964321459305805;1.03;0.007624724255150407
59:07.6;-0.03138337601174763;-0.23002474351614233;-0.9937301416328962;1.026;0.007173691204792689
59:07.6;-0.029136609230360797;-0.2293247368288694;-0.9901521465782054;1.022;0.006615944396075006
59:07.6;-0.026556916617766813;-0.2283067401684156;-0.9859321247174663;1.0170000000000001;0.0059778278028689265
59:07.6;-0.023749742805190023;-0.2270142836203248;-0.9813385155349876;1.005;0.005290916879904301
59:07.6;-0.020834987709571717;-0.22550623791742408;-0.9766520333567863;0.995;0.004588721149116305
59:07.7;-0.017937887327588536;-0.22385117163037582;-0.972141712338188;0.9840000000000001;0.0039035544503437545
59:07.7;-0.015179829547826979;-0.2221230609688267;-0.9680431625980755;0.9840000000000001;0.0032640384528409977
59:07.7;-0.012670199872239189;-0.22039871093630292;-0.9645432953623211;0.9840000000000001;0.0026934830232310555
59:07.7;-0.010500067113456179;-0.2187563920788558;-0.9617738292722804;0.986;0.002209152935598532
59:07.7;-0.008738177276089703;-0.2172745889063813;-0.9598128609466591;0.988;0.0018222852212461933
59:07.7;-0.007429535149960516;-0.21602969785123555;-0.958691505911447;0.987;0.0015387000909584407
59:07.7;-0.006596564053310521;-0.21509206906093717;-0.958401956658451;0.9840000000000001;0.0013598464529465666
59:07.7;-0.006242155649135546;-0.21452072013062554;-0.9589041176814715;0.983;0.0012840413909925184
59:07.7;-0.00635322631541634;-0.21435774221087772;-0.9601297272548607;0.9790000000000001;0.0013075653895590381
59:07.7;-0.006903215188534141;-0.21462340498920143;-0.9619847804314564;0.981;0.001425268521085052
59:07.8;-0.007852445984595172;-0.21531264559899035;-0.9643521932583281;0.9890000000000001;0.001630460070300614
59:07.8;-0.009146397399448312;-0.21639345451612274;-0.9670963493402887;0.9890000000000001;0.0019140969487579697
59:07.8;-0.010713307186180701;-0.21780735956189037;-0.9700698469715061;0.996;0.0022635970194036757
59:07.8;-0.012463274298632976;-0.21947176459845946;-0.9731216115127141;1.002;0.00266181535776112
59:07.8;-0.014290538098931332;-0.22128383339643673;-0.9761050098313354;1.003;0.0030867027595051786
59:07.8;-0.01607928183934587;-0.22312576983941368;-0.9788845168218555;1.004;0.0035119460747074713
59:07.8;-0.01771194994991567;-0.22487131527684281;-0.9813401344990724;1.005;0.003908588926130691
59:07.8;-0.01907839765562513;-0.226393232483767;-0.9833700607026932;1.006;0.004247391747529109
59:07.8;-0.020084467096308605;-0.22757163278189305;-0.9848929991475543;1.012;0.0045016060821231425
59:07.8;-0.020659252832511205;-0.22830301541279557;-0.9858513153303784;1.012;0.0046498364601776756
59:07.9;-0.020760646611865604;-0.22850966801967273;-0.9862152601060147;1.0190000000000001;0.004678613542404179
59:07.9;-0.02037878333671593;-0.22814864779782973;-0.9859873256275723;1.0190000000000001;0.004584241447844149
59:07.9;-0.019537132595697962;-0.22721911491533503;-0.9852049333197106;1.018;0.0043735315687697136
59:07.9;-0.01829115728174814;-0.22576655405883989;-0.983939534964017;1.013;0.0040632093521868395
59:07.9;-0.016724581464966568;-0.22388243026076785;-0.9822911670485844;1.0090000000000001;0.003678032052898669
59:07.9;-0.014943484610946578;-0.22169820062646783;-0.9803790155017708;1.003;0.003247940433349037
59:07.9;-0.013068683192504902;-0.21937360862686964;-0.9783296752624021;0.997;0.00280479701370368
59:07.9;-0.011227027037431536;-0.21708059625439147;-0.9762652687512727;0.996;0.0023793241550561957
59:07.9;-0.009542221416105466;-0.21498529172441178;-0.9742935158248002;0.992;0.001998702015512394
59:07.9;-0.008125648323410565;-0.21323094999407927;-0.9725011694307566;0.991;0.0016849941454595383
59:08.0;-0.0070676599412957414;-0.21192446689667555;-0.9709512427204231;0.991;0.0014543005442292673
59:08.0;-0.006430155926475785;-0.21112821309819785;-0.9696836951356268;0.991;0.001316430299302119
59:08.0;-0.006241653555492;-0.210857547096892;-0.9687188248196686;0.992;0.0012749306114379676
59:08.0;-0.006495911582512734;-0.2110830655941756;-0.9680623217183065;0.9940000000000001;0.001327384722986626
59:08.0;-0.0071543848929510765;-0.2117361042247087;-0.9677106854987177;0.993;0.001465928388988339
59:08.0;-0.008151967939739137;-0.21271616783304426;-0.9676556441309426;0.995;0.001677968476117569
59:08.0;-0.009405040177073698;-0.21389944140847844;-0.9678864344430137;0.9940000000000001;0.0019471289258502333
59:08.0;-0.010820599738110283;-0.21514806710076165;-0.9683892362462948;0.991;0.0022544402768264536
59:08.0;-0.012305158373254667;-0.2163202803342258;-0.9691437277310342;0.991;0.0025797203767087347
59:08.0;-0.013772290066710173;-0.21728159815008272;-0.9701177261398932;0.99;0.002903043531381133
59:08.1;-0.015148268163243422;-0.21791690572737482;-0.9712617471400452;0.992;0.0032061969212190916
59:08.1;-0.016375695196964513;-0.2181425209195125;-0.972505545813958;0.992;0.0034740187686464388
59:08.1;-0.017415273831358373;-0.21791654993308718;-0.9737583587054089;0.997;0.0036954873561715605
59:08.1;-0.018246102973252378;-0.21724558875204605;-0.9749138390695202;0.998;0.0038644467162304024
59:08.1;-0.018865188492188954;-0.2161861207731383;-0.97585962700715;1.002;0.003979938015674137
59:08.1;-0.019287013492777137;-0.2148395982930149;-0.9764903735097334;1.0070000000000001;0.004046199408168221
59:08.1;-0.019543673685345722;-0.21334117170672562;-0.9767220827375326;1.004;0.00407241366012938
59:08.1;-0.019685156647825122;-0.211843265052238;-0.9765051464041044;1.002;0.004072190374061528
59:08.1;-0.01977833695669752;-0.210496383419918;-0.9758338837362744;1.006;0.004062658371267245
59:08.1;-0.019903026676833073;-0.20943045452371398;-0.974751332983541;1.002;0.004063055906537946
59:08.2;-0.02014440583028344;-0.20874019533949634;-0.9733485035945211;0.996;0.004092879072611908
59:08.2;-0.020582712202326454;-0.20847690113482625;-0.9717577117041571;0.996;0.004169831831361034
59:08.2;-0.02128197347590254;-0.2086471498733828;-0.9701406620412892;0.993;0.004307835015123914
59:08.2;-0.02227956814917836;-0.20921730542556102;-0.9686727984889241;0.9890000000000001;0.00451524663159072
59:08.2;-0.02357830437127385;-0.2101217755510853;-0.9675256402744011;0.985;0.0047934269656599165
59:08.2;-0.025142744541987627;-0.21127272585180693;-0.9668490252759137;0.987;0.00513587898687624
59:08.2;-0.02690099022651156;-0.21256945728155385;-0.9667553454534576;0.9840000000000001;0.005528225024161766
59:08.2;-0.02875182381924535;-0.21390660710359516;-0.967307456991854;0.9840000000000001;0.0059491392370885614
59:08.2;-0.030575640298768435;-0.21518115633606513;-0.9685114167134309;0.988;0.006372128747696984
59:08.2;-0.03224668746578323;-0.21629859126131373;-0.9703149277612156;0.99;0.006767862273300333
59:08.3;-0.03364414976936552;-0.21717843537672138;-0.9726118514382074;0.998;0.007106664526089812
59:08.3;-0.03466074684415707;-0.21775896394314687;-0.9752521316051348;0.998;0.007360899124994111
59:08.3;-0.035209229594326576;-0.21800057559585867;-0.9780556390230287;1.002;0.007507195471540529
59:08.3;-0.03522810565746894;-0.21788727461572316;-0.9808284038358958;1.0070000000000001;0.007528599438606154
59:08.3;-0.034687351093190516;-0.2174260155530811;-0.9833801394602315;1.012;0.007416586671296617
59:08.3;-0.033593543457386785;-0.2166440789208025;-0.985541989527115;1.014;0.0071726191601071
59:08.3;-0.03199304014197392;-0.21558507864423;-0.9871829434914017;1.02;0.0068088199899868605
59:08.3;-0.029971808764075736;-0.21430449700132775;-0.9882229224018699;1.021;0.00634744813199685
59:08.3;-0.0276508869554229;-0.21286544158873752;-0.9886403756836631;1.0190000000000001;0.005819056441872391
59:08.3;-0.025177150137787516;-0.2113347480190384;-0.9884725619529806;1.0170000000000001;0.005259471410840572
59:08.4;-0.02271022933211545;-0.20977936560115215;-0.9878078591657565;1.0070000000000001;0.004706052466570407
59:08.4;-0.020407621030484917;-0.20826334276018008;-0.9867712788128625;1.0070000000000001;0.004193935200237596
59:08.4;-0.018410438612433154;-0.20684588914995344;-0.985506030887847;1.002;0.003752928719401149
59:08.4;-0.016831581364311166;-0.20558047509651423;-0.984154616388648;1.0;0.0034054155921121373
59:08.4;-0.01574708302295004;-0.20451433385242285;-0.9828423726608394;0.9990000000000001;0.0031652479837430045
59:08.4;-0.015190884463885073;-0.20368771695179008;-0.9816653764705027;0.995;0.003037465645599618
59:08.4;-0.015153165350071282;-0.20313267016078157;-0.9806837369267106;0.998;0.0030186454928124327
59:08.4;-0.015582237918062602;-0.20287146711777945;-0.9799206184117697;0.9990000000000001;0.0030977166976679568
59:08.4;-0.016389891681104406;-0.20291491560896657;-0.979366560116704;1.0;0.003257131752664302
59:08.4;-0.017460049641400334;-0.20326056056640043;-0.9789878346216813;0.9990000000000001;0.0034743685744066427
59:08.5;-0.018660267636877604;-0.20389073295989835;-0.9787372322597909;1.002;0.00372375813638462
59:08.5;-0.019854786384584048;-0.20477073883171049;-0.9785658670797309;1.002;0.003978534967275864
59:08.5;-0.020917293785651634;-0.20584783968385034;-0.9784347041983941;1.0090000000000001;0.004212924324106408
59:08.5;-0.021742094338311944;-0.2070516659885866;-0.9783241155078071;1.004;0.004404157726748994
59:08.5;-0.02225340971740863;-0.20829658151817826;-0.9782394631884882;1.004;0.004534442355405694
59:08.5;-0.022412747985853056;-0.20948633924379284;-0.9782113333605438;1.006;0.004592863153233145
59:08.5;-0.022223666386626723;-0.21052090235828183;-0.9782902806764894;1.004;0.0045769763743761524
59:08.5;-0.02173294791490334;-0.21130475376566793;-0.9785367466826571;0.9990000000000001;0.004493710041673615
59:08.5;-0.02102762939993993;-0.21175576962677503;-0.9790073754761329;0.996;0.004359247529167362
59:08.5;-0.020227819667257698;-0.21181370557564708;-0.9797400281441747;0.998;0.004197724993579341
59:08.6;-0.019475492254231414;-0.21144732200492997;-0.9807406424110907;0.998;0.004038729863826891
59:08.6;-0.018919844515185868;-0.2106593442440333;-0.9819745703396014;0.998;0.0039137991285467825
59:08.6;-0.018700556293113468;-0.2094889303460664;-0.9833636896862359;1.001;0.003852385798628481
59:08.6;-0.018930855333512978;-0.20801162614883661;-0.9847896258160814;1.003;0.003877942012821585
59:08.6;-0.019682472291798255;-0.20633659368061835;-0.9861029304206447;1.0070000000000001;0.004004775310367148
59:08.6;-0.020974651537435007;-0.20460063437017195;-0.9871374329588536;1.012;0.004236228242630946
59:08.6;-0.022769254989640757;-0.20295865377159575;-0.9877280639770818;1.012;0.0045645060565342194
59:08.6;-0.02497317403631334;-0.20157068225458918;-0.9877297395606875;1.011;0.004972092958677846
59:08.6;-0.027447811127248038;-0.20058624379302423;-0.9870349786099224;1.012;0.005434272421108792
59:08.6;-0.03002391820898388;-0.20012764212826561;-0.9855885961266713;1.015;0.005922023367316502
59:08.7;-0.03251922792102399;-0.20027423463135313;-0.9833982115682325;1.006;0.006404639961239921
59:08.7;-0.034756232777162936;-0.20104975679062134;-0.9805393884889411;1.006;0.006851746606154485
59:08.7;-0.036577844390671715;-0.20241454916778562;-0.9771546454974932;1.006;0.00723474343850916
59:08.7;-0.03785947041154679;-0.20426435114578878;-0.9734460295999509;0.9990000000000001;0.007527989272679781
59:08.7;-0.03851718986502941;-0.20643688830978382;-0.9696609801993719;0.991;0.007710132086035785
59:08.7;-0.03851240104093346;-0.2087264653339245;-0.9660718453397383;0.987;0.007765823924092667
59:08.7;-0.0378531953306067;-0.21090525052701578;-0.9629510594797347;0.983;0.007687659738013207
59:08.7;-0.03659242950614895;-0.21274848033805785;-0.9605451642475439;0.9790000000000001;0.007477828513357008
59:08.7;-0.03482254472871516;-0.2140600934494908;-0.9590507830437811;0.975;0.007148876917206989
59:08.7;-0.03266749988367941;-0.2146953839925209;-0.9585953249773479;0.9740000000000001;0.006723167199775287
59:08.8;-0.030272555697767406;-0.2145777506868201;-0.9592250107131527;0.98;0.006230950044287747
59:08.8;-0.02779300765527636;-0.21370735073204544;-0.960901930392313;0.98;0.00570734431222092
59:08.8;-0.025383129271321424;-0.21216044425262395;-0.9635100710156804;0.987;0.005188786914756147
59:08.8;-0.023186289401497993;-0.21007935780171594;-0.9668686802321129;0.99;0.004709579427851502
59:08.8;-0.021326710792507544;-0.2076543272195617;-0.9707506130160419;0.996;0.004299050420610559
59:08.8;-0.01990314693365756;-0.20509992897108006;-0.9749030796130608;0.998;0.003979685029825294
59:08.8;-0.018984686995129146;-0.20262994645029542;-0.9790682894112542;1.004;0.003766344621127238
59:08.8;-0.018608699537152523;-0.20043485141770642;-0.9830018052356929;1.014;0.003666431517275931
59:08.8;-0.01878104417802895;-0.19866528690050497;-0.9864866443089201;1.004;0.0036807212872916216
59:08.8;-0.01947897768621608;-0.19742315964178986;-0.9893418473348591;1.003;0.0038046143154319002
59:08.9;-0.02065655326678692;-0.19675998908254708;-0.991426327640644;1.013;0.004029536505397049
59:08.9;-0.022250966029294533;-0.19668081773070417;-0.992640737570493;1.013;0.00434413157269029
59:08.9;-0.024187990346892715;-0.19715153634694188;-0.9929294040934;1.013;0.0047349819111671115
59:08.9;-0.026385773706350375;-0.1981077120145356;-0.9922822967047646;1.015;0.005186883085094371
59:08.9;-0.028757374211166826;-0.19946342573104;-0.9907361605332867;1.014;0.005682906580923106
59:08.9;-0.03121275324607327;-0.20111907982065122;-0.9883741517332982;1.011;0.006204499179082954
59:08.9;-0.033660815430824935;-0.20296789361470652;-0.985323380719618;1.008;0.006731793191300958
59:08.9;-0.03601191396588911;-0.2049015461982531;-0.9817499371600714;1.006;0.007244231521909455
59:08.9;-0.03818113396744665;-0.2068154856586219;-0.9778514105077452;1.002;0.007721554540194828
59:08.9;-0.040092581309959706;-0.2086139709554278;-0.9738471686507084;0.998;0.008145133643574356
59:09.0;-0.04168462086934738;-0.21021449588817173;-0.9699667367261605;0.991;0.008499538738994965
59:09.0;-0.042915341941231686;-0.21155116813483232;-0.9664368899436099;0.991;0.008774078266506917
59:09.0;-0.043766758071983144;-0.21257715675974667;-0.9634682590622125;0.988;0.008963928505593532
59:09.0;-0.044246193122080404;-0.21326697067398195;-0.9612419122754609;0.983;0.009070520504822344
59:09.0;-0.04438428398102172;-0.2136189047156478;-0.959896087769851;0.982;0.009101084020062213
59:09.0;-0.044230149586512855;-0.21365676093238922;-0.9595136853588255;0.98;0.009067471968718578
59:09.0;-0.04384462759279543;-0.21342948881109491;-0.9601117643006544;0.978;0.008984472856943945
59:09.0;-0.043292275093249455;-0.21300802873229557;-0.9616345425903217;0.977;0.008867811191380578
59:09.0;-0.04263274842768905;-0.21247935445789087;-0.963951543628155;0.9790000000000001;0.008732031079686661
59:09.0;-0.04191237226007828;-0.21193802703632045;-0.9668626043049272;0.985;0.008588471782219024
59:09.1;-0.04115688318125033;-0.2114759247299328;-0.9701108220017647;0.9890000000000001;0.008443543792204786
59:09.1;-0.04036640436704843;-0.21117131053321753;-0.9734032484733139;0.9890000000000001;0.008297509777214447
59:09.1;-0.03951380481648379;-0.21107865227648223;-0.9764381817601454;1.003;0.008144002834998252
59:09.1;-0.038547463519919035;-0.2112205854603367;-0.9789372430975123;1.015;0.007970524470803892
59:09.1;-0.03739875649827787;-0.21158328208797722;-0.9806788703041224;1.014;0.007760064480886771
59:09.1;-0.03599366755256546;-0.21211607954988243;-0.9815278962106624;1.023;0.0074938041733330265
59:09.1;-0.03426729138045162;-0.21273558134322185;-0.981455586815479;1.02;0.007154685751612648
59:09.1;-0.03217944684343298;-0.21333406907852215;-0.9805460697060362;1.0170000000000001;0.006731421642514811
59:09.1;-0.029728750584623178;-0.21379203944641278;-0.9789872273719722;1.0090000000000001;0.006222217863220219
59:09.1;-0.026961658298878744;-0.21399454454596528;-0.977046612684646;1.001;0.005637214827524289
59:09.1;-0.02397330722830571;-0.213850305722215;-0.9750357414638816;0.987;0.004998714838677117
59:09.1;-0.02089923473032233;-0.21331112280152462;-0.9732686448887643;0.987;0.0043388697963671775
59:09.2;-0.017899999465187635;-0.21238756601989342;-0.9720219159464278;0.987;0.0036953719919312726
59:09.2;-0.015142195042262793;-0.2111565721938484;-0.9715025470700512;0.986;0.0031062569855329317
59:09.2;-0.012779151343118035;-0.2097578366551255;-0.9718269498178502;0.986;0.002605008514390458
59:09.2;-0.0109343042045109;-0.20837817282895893;-0.9730118021480737;0.986;0.0022169785231913324
59:09.2;-0.009689880214413577;-0.20722569804838342;-0.9749760640250899;0.987;0.001957744323400432
59:09.2;-0.009082199853452941;-0.20649834689818966;-0.9775531445020847;0.99;0.001833361093026767
59:09.2;-0.009102964690596673;-0.20635285792769276;-0.9805120692438659;0.997;0.0018418162064614781
59:09.2;-0.00970476238740075;-0.20688019103512045;-0.9835860851731494;1.0090000000000001;0.001974768500751508
59:09.3;-0.01080911262378363;-0.20809160118407002;-0.9865058794759861;1.022;0.002218933422913438
59:09.3;-0.012315840759128387;-0.20991715053711296;-0.9890326133715137;1.022;0.0025569521459917217
59:09.3;-0.014112719340246667;-0.2122159371232861;-0.9909848540203198;1.026;0.0029679441031466715
59:09.3;-0.016084414263115493;-0.21479551889462667;-0.9922547590529263;1.024;0.003428101383788976
59:09.3;-0.018120027586608155;-0.21743717549163444;-0.9928118592513843;1.023;0.003911646576477515
59:09.3;-0.020118661659767816;-0.21992304831386494;-0.9926956046123;1.02;0.0043922386835447014
59:09.3;-0.02199241939617734;-0.22206065852609466;-0.9919996372372026;1.015;0.004844580153020674
59:09.3;-0.02366642191758984;-0.2237008390933784;-0.9908515854479545;1.014;0.0052457649192409386
59:09.3;-0.025076028168261252;-0.22474718761964385;-0.9893920070225047;1.013;0.005575982632771055
59:09.3;-0.02616249246041677;-0.22515750979925067;-0.9877550599615307;1.0090000000000001;0.0058185506089081795
59:09.4;-0.02686919081365161;-0.2249389799022707;-0.9860523379682115;1.001;0.005959629702139373
59:09.4;-0.02714037911748599;-0.22413919496235934;-0.9843610361888258;1.001;0.00598808742629358
59:09.4;-0.026923206145862414;-0.22283573527209133;-0.982718048738195;1.0;0.005895770192774755
59:09.4;-0.02617240643918265;-0.2211267439551125;-0.9811215081381623;1.002;0.005678161274545886
59:09.4;-0.024856455539046387;-0.21912381101254533;-0.9795400752304716;1.004;0.005335203395431181
59:09.4;-0.02296387734036619;-0.21694678619239877;-0.9779286356815601;1.006;0.0048719811882748
59:09.4;-0.020508575015183557;-0.21471908283889113;-0.9762476642326996;1.01;0.004298987049431166
59:09.4;-0.017533290299519794;-0.21256202840769656;-0.974482497256102;1.011;0.0036318102699014775
59:09.4;-0.014110442615094719;-0.210587606930945;-0.9726581439835764;1.0090000000000001;0.0028902384459865136
59:09.4;-0.010339762704453501;-0.20888981702383627;-0.9708454513133845;1.002;0.0020969010711126327
59:09.4;-0.006342500236412132;-0.20753556451534472;-0.9691560380274769;0.985;0.0012756946336020276
59:09.4;-0.0022527524630250586;-0.20655674789683653;-0.9677266548356341;0.985;0.00045030375015044636
59:09.5;0.0017925959595097019;-0.20594572233535466;-0.9666971403343392;0.9840000000000001;0.00035688280427029987
59:09.5;0.005663609305928755;-0.20565595459704034;-0.9661872798916559;0.986;0.0011253714442002306
59:09.5;0.009245581236878965;-0.20560837399115298;-0.966275945013061;0.9840000000000001;0.0018368605441721516
59:09.5;0.012445066342155493;-0.2057022943511611;-0.9669835647245001;0.9790000000000001;0.0024754573288807745
59:09.5;0.015192799437265385;-0.20582836214261593;-0.9682587489858705;0.98;0.0030278506720373207
59:09.5;0.01744299422716852;-0.20588053566710907;-0.9699711557427595;0.978;0.003483334220556247
59:09.5;0.019169628068521703;-0.20576529422861795;-0.9719135179146757;0.975;0.0038336585995425282
59:09.5;0.020361680009405223;-0.20540836281925123;-0.973815535781004;0.9840000000000001;0.004072943897653487
59:09.5;0.021019716995454487;-0.2047604982951741;-0.9753711472859525;1.0090000000000001;0.004198004953648709
59:09.5;0.021154932254929433;-0.20380334940260536;-0.9762775291776356;1.0090000000000001;0.004209167896817934
59:09.6;0.020789772459427147;-0.2025546623193165;-0.9762795224288906;1.016;0.0041111768592616525
59:09.6;0.019958427566742667;-0.20107079082409351;-0.9752105556499834;1.018;0.003913575365875065
59:09.6;0.018705868927868432;-0.19944456344294756;-0.9730223667270084;1.013;0.0036301361432861164
59:09.6;0.01708476093891317;-0.19779757244212914;-0.9697987313496031;1.004;0.00327726436025807
59:09.6;0.015150260690217288;-0.19626725399707254;-0.9657512635617783;0.993;0.0028716614430517183
59:09.6;0.012953973284567363;-0.1949906476304695;-0.9611982975063893;0.981;0.0024278942785731328
59:09.6;0.010539696369327525;-0.19408791317439988;-0.9565305537068824;0.973;0.0019567053715119805
59:09.6;0.007943726250492163;-0.1936485484606469;-0.9521688598476485;0.965;0.0014647128425969258
59:09.6;0.005200776069209029;-0.1937218374290073;-0.9485193858817513;0.956;0.0009556369768819035
59:09.6;0.0023539952787268834;-0.19431162978523553;-0.9459311755792029;0.956;0.0004326771106378661
59:09.7;-0.0005340724637836992;-0.19537502887602104;-0.9446598080453785;0.951;9.856998263355273e-05
59:09.7;-0.003372850444580454;-0.19682459090461266;-0.9448400268343051;0.951;0.0006272414141742439
59:09.7;-0.006039920503254849;-0.1985334310915752;-0.9464694250954603;0.9520000000000001;0.0011349362293190586
59:09.7;-0.008383678092652997;-0.20034231993291024;-0.9494050006758933;0.953;0.0015946258785718122
59:09.7;-0.010232984960953342;-0.20206811863121268;-0.9533742131261086;0.9590000000000001;0.0019713490810871603
59:09.7;-0.011412833302615626;-0.20351350356208925;-0.9580016089792773;0.97;0.002225117469084974
59:09.7;-0.0117636056521638;-0.20447798127423583;-0.9628508118870652;0.985;0.002316039740980357
59:09.7;-0.011160855123352704;-0.20476962747861943;-0.9674793914456198;0.9990000000000001;0.0022110814123327193
59:09.7;-0.009532623730013488;-0.20421654004428952;-0.9715009412890923;1.026;0.0018912397641961223
59:09.8;-0.006871941629615881;-0.2026772901154405;-0.9746451923235362;1.026;0.0013574726732945071
59:09.8;-0.0032431515567258365;-0.20005052194318307;-0.9768046749937463;1.026;0.0006337451702218975
59:09.8;0.0012186592877928555;-0.19628428440670168;-0.9780577636353692;1.024;0.000233955002856077
59:09.8;0.006315943971605851;-0.19138509003894263;-0.9786629936585305;1.016;0.0011829858123824399
59:09.8;0.011805168535612377;-0.18542584123019323;-0.9790251077992194;1.003;0.002143069617695307
59:09.8;0.017420087752096736;-0.1785513980911333;-0.9796373968519643;0.988;0.0030470455685964247
59:09.8;0.022898063876886404;-0.17098058849142067;-0.9810083302077147;0.978;0.0038407696864812685
59:09.8;0.02800448484115761;-0.16300364340318305;-0.983583352568525;0.97;0.004489893805796225
59:09.8;0.03255075184917612;-0.1549740868241899;-0.9876738863772777;0.97;0.0049823436790631314
59:09.8;0.036402529849516196;-0.14729390107058257;-0.9934043578657952;0.9790000000000001;0.005326505650525721
59:09.8;0.03947642740804388;-0.14039111918527047;-1.0006847944003348;0.9790000000000001;0.005545935051569571
59:09.9;0.04172516081128249;-0.1346903359645446;-1.0092125046070235;1.0;0.005671749981972934
59:09.9;0.04311390712376403;-0.13057824760480904;-1.0185025642527075;1.031;0.005733903036822561
59:09.9;0.04359376886291813;-0.12836818532862537;-1.0279422738550785;1.051;0.005752419446017747
59:09.9;0.043080605435996025;-0.12826978839333075;-1.0368591240439973;1.063;0.005729621456327183
59:09.9;0.041446876335258794;-0.13037032839143808;-1.0445887392890545;1.068;0.0056443755844054104
59:09.9;0.03853010445060292;-0.1346310219934549;-1.0505319654417211;1.0659999999999998;0.005449474196203122
59:09.9;0.03415611466095646;-0.14089671951539973;-1.0541967357448254;1.07;0.005073305458229096
59:09.9;0.02817156859589661;-0.14891375490690661;-1.0552260324972986;1.077;0.004426814671228603
59:09.9;0.020480402262709068;-0.15835021805173163;-1.0534152608165848;1.072;0.003416305923239924
59:09.9;0.011080727349237193;-0.16881513015852342;-1.0487211438234554;1.072;0.0019617319299579687
59:10.0;9.876773389952061e-05;-0.17987624422332463;-1.0412624733071862;1.068;1.8499036846935757e-05
59:10.0;-0.01218589795124966;-0.1910788129477536;-1.0313121324441001;1.055;0.0024013761796685485
59:10.0;-0.025330673990538146;-0.20196846925629722;-1.0192796830689774;1.04;0.0052146322605381825
59:10.0;-0.03874082729304368;-0.2121196300500109;-1.0056849679555824;1.0270000000000001;0.008264407257284823
59:10.0;-0.051702252630440114;-0.22116718935791507;-0.9911254989338247;1.014;0.011333363381134208
59:10.0;-0.0634339624360254;-0.22883580027968004;-0.976242074456228;1.002;0.014171092425045032
59:10.0;-0.07315538533476007;-0.2349602496426438;-0.9616867974674873;0.992;0.016530056996691602
59:10.0;-0.08016152506104811;-0.23949301148737187;-0.9480957757875406;0.991;0.018201661255636947
59:10.0;-0.08389739615177814;-0.24249861553002586;-0.936066322425972;0.97;0.01904427158884044
59:10.0;-0.08402185769826137;-0.2441363084561818;-0.9261368833647291;0.97;0.01899764785083658
59:10.0;-0.08045098688675426;-0.24463285483084374;-0.9187680132159892;0.961;0.01808223155242116
59:10.1;-0.07337352919224285;-0.24424790361071747;-0.9143233210536824;0.95;0.016385890590273438
59:10.1;-0.06323534882185712;-0.24323572921395661;-0.9130495243867838;0.9359999999999999;0.014043702554237694
59:10.1;-0.05069503167977871;-0.24180871108355817;-0.91505588921205;0.93;0.011217212863898046
59:10.1;-0.036557822248160746;-0.24010859997243753;-0.9202958524693604;0.934;0.00807821666446722
59:10.1;-0.0216984077166688;-0.2381908920617061;-0.9285554286427;0.938;0.004799111604742863
59:10.1;-0.006983554738638025;-0.23602566215645346;-0.9394525844157249;0.956;0.0015484979394246496
59:10.1;0.006796209181158355;-0.23351529587279263;-0.9524497769302301;0.977;0.0015115556999025772
59:10.1;0.018979495412967905;-0.2305263273107674;-0.9668790940594466;1.004;0.004230360353952676
59:10.1;0.02906802163201457;-0.22692985891142728;-0.9819765066102287;1.004;0.006477511839082813
59:10.1;0.03674075606220128;-0.222643229396714;-0.9969207518369125;1.018;0.008154892082065008
59:10.2;0.04185013262020408;-0.2176652894940536;-1.0108748160810668;1.037;0.00920838342516415
59:10.2;0.04440480782594229;-0.21209929107497172;-1.0230309686373684;1.053;0.00963513917988302
59:10.2;0.04454433891628623;-0.20616004102999022;-1.0326597698480886;1.068;0.009483185986133718
59:10.2;0.04251017353359394;-0.2001643798619113;-1.0391601310104048;1.078;0.008842236959952047
59:10.2;0.03861590066745342;-0.19450613696866814;-1.0421048153310237;1.082;0.007827280181357253
59:10.2;0.03321875449580418;-0.18961871666379854;-1.041275111750023;1.078;0.006558885298868441
59:10.2;0.026693642301899342;-0.18593009397855242;-1.0366793921279651;1.071;0.005145196799013484
59:10.2;0.01941049529015505;-0.18381585811933324;-1.0285527131621224;1.0390000000000001;0.0036698316967449275
59:10.2;0.011716225832877446;-0.18355605272608264;-1.017338462245799;1.0390000000000001;0.0021878719891116113
59:10.2;0.00392356332577194;-0.18530117142942548;-1.0036566558834648;1.024;0.0007296994187560646
59:10.3;-0.0036914570177379144;-0.18905164558129955;-0.988263939055601;1.011;0.0006896857082490846
59:10.3;-0.010884022601663776;-0.19465326078342432;-0.972007615105964;0.99;0.0020593055295817985
59:10.3;-0.01743034765393308;-0.20180846516776677;-0.9557741976075881;0.9670000000000001;0.003362023391633008
59:10.3;-0.023117496814452975;-0.21010126089130293;-0.9404343457238804;0.953;0.004567703939400912
59:10.3;-0.02773811335677528;-0.21903213511686714;-0.9267885793624893;0.9359999999999999;0.005630739410426953
59:10.3;-0.03109336213704151;-0.22805938989901994;-0.9155192551690773;0.929;0.006492068984546056
59:10.3;-0.033004356581348246;-0.23664335469427014;-0.9071535092450022;0.93;0.007085106273839938
59:10.3;-0.03332928045937243;-0.24428959970918984;-0.9020398657306457;0.935;0.00734440550362056
59:10.3;-0.031981758292796605;-0.2505866566367055;-0.9003384447162701;0.935;0.007215494059842364
59:10.3;-0.028946002390324205;-0.25523381229424413;-0.9020223416003736;0.9329999999999999;0.006664139743477156
59:10.4;-0.024285339772408192;-0.25805618007425707;-0.9068873746982824;0.94;0.005683446865479963
59:10.4;-0.018142289395687915;-0.25900685595475875;-0.9145688582282294;0.946;0.0042975383372073775
59:10.4;-0.010729775320697178;-0.25815777005628093;-0.9245654822896849;0.9520000000000001;0.0025610231516082515
59:10.4;-0.0023143038656218465;-0.2556816217533241;-0.9362706178305519;0.9690000000000001;0.0005540146991207532
59:10.4;0.006806308449895194;-0.2518281200063664;-0.9490104929398258;0.9890000000000001;0.001626622833310667
59:10.4;0.016326013022028015;-0.2468983912513982;-0.9620868271082912;1.003;0.0038780434178310856
59:10.4;0.025949102367041336;-0.24122049435257661;-0.9748195869326778;1.0090000000000001;0.006101839630928128
59:10.4;0.03540091989231248;-0.23512693511767935;-0.9865853538524615;1.028;0.008212050173096213
59:10.4;0.04443088297264844;-0.22893441676695178;-0.9968482682689507;1.028;0.010139699626453
59:10.4;0.05281081448511597;-0.22292722079405528;-1.005181882121143;1.038;0.011833974233952892
59:10.5;0.06033251152694796;-0.2173457497252586;-1.0112814076518795;1.038;0.013260948217835586
59:10.5;0.06680783386798565;-0.2123798400676147;-1.014967554297472;1.035;0.014401006267931046
59:10.5;0.07207308530775794;-0.2081649510600508;-1.0161847442160685;1.041;0.015245911454401294
59:10.5;0.07599772598951725;-0.2047798534821094;-1.014996749153242;1.044;0.015796194648715133
59:10.5;0.07849584757695105;-0.20224586045034412;-1.0115811093229397;1.043;0.016059315675512803
59:10.5;0.0795375673477642;-0.2005283898181562;-1.0062210223662977;1.0390000000000001;0.016048762757302857
59:10.5;0.07915690277963532;-0.19954125908204803;-0.9992919301920249;1.028;0.015783884034885638
59:10.5;0.077453230461863;-0.19915327418678908;-0.991240922463037;1.0070000000000001;0.015289955107356621
59:10.5;0.07458526091849778;-0.19919648115697655;-0.9825595681111147;1.0070000000000001;0.014598006905185392
59:10.5;0.07075871861204114;-0.19947610621315442;-0.9737529796793872;0.995;0.013744205542743658
59:10.6;0.06621027560212062;-0.19978281940173848;-0.965308014544491;0.982;0.012768781205951292
59:10.6;0.06119064563162586;-0.1999078042214346;-0.9576623062179603;0.971;0.011714592292607814
59:10.6;0.0559497474137586;-0.19966033376317835;-0.9511756471508175;0.9670000000000001;0.010625531070413136
59:10.6;0.05072609599703427;-0.19888652442641058;-0.9461059044829006;0.965;0.009545013578787544
59:10.6;0.04574055816787076;-0.19748691613650102;-0.9425912787327345;0.958;0.008514579508435677
59:10.6;0.041192403188049356;-0.1954298636549268;-0.9406397266113343;0.945;0.007572362137971971
59:10.6;0.03725498476957826;-0.19275775319492533;-0.9401267799773109;0.945;0.00675122636067051
59:10.6;0.0340699088081131;-0.18958391287960216;-0.9408046564623147;0.9490000000000001;0.00607675758778092
59:10.6;0.03174085773444622;-0.18607982784728475;-0.942325822756394;0.9490000000000001;0.005565690426869739
59:10.6;0.030329498292375807;-0.1824543376402832;-0.9442819823712589;0.956;0.005225419024201422
59:10.7;0.02985555784911147;-0.17892774986439955;-0.9462566435667842;0.973;0.005054891433195324
59:10.7;0.030302030653464505;-0.175704334470446;-0.9478866007917425;0.993;0.0050467360665059505
59:10.7;0.03162508279616945;-0.1729472433329628;-0.9489236462009448;1.0;0.005190110259514472
59:10.7;0.033766666323901906;-0.17075986174123398;-0.9492840192668882;1.001;0.0054735633706265675
59:10.7;0.03666667926189614;-0.16917632771926244;-0.9490732179290136;0.988;0.005887228486316706
59:10.7;0.04027107280740867;-0.16816233045367002;-0.9485789671467487;0.978;0.006423850235959391
59:10.7;0.044532500162060666;-0.1676257403775944;-0.9482326928413338;0.971;0.0070783610623485595
59:10.7;0.04940131292462115;-0.16743475243869374;-0.9485463186787004;0.945;0.007845897649590216
59:10.7;0.05480768331952073;-0.1674395470189718;-0.9500352832996368;0.945;0.008718448778682511
59:10.7;0.06063977971527013;-0.16749313659603568;-0.9531407620710967;0.941;0.009680809487104335
59:10.8;0.06672571481003244;-0.1674682382787964;-0.9581636889741634;0.946;0.010706940647307955
59:10.8;0.0728263612392332;-0.16726860074761601;-0.9652198243576943;0.9620000000000001;0.011757886622437349
59:10.8;0.07864269573572788;-0.1668343192079695;-0.9742202990981822;0.9740000000000001;0.012782063178443045
59:10.8;0.08383713684069022;-0.16614140436128289;-0.9848775844971298;0.993;0.013718182254094071
59:10.8;0.08806499815656163;-0.16519655798275032;-0.9967334685685051;1.012;0.014500512962018064
59:10.8;0.0910104122394593;-0.16402873361249398;-1.0092035224059455;1.034;0.015065715817321785
59:10.8;0.09242085782128985;-0.16267942209083536;-1.0216313412028775;1.047;0.015360198343179584
59:10.8;0.09213540978510597;-0.16119355319114453;-1.0333453199054023;1.07;0.015346866567431706
59:10.8;0.09010353448633551;-0.15961259422171378;-1.043711053135422;1.07;0.015010296343734596
59:10.8;0.08639289550687639;-0.15797099354704747;-1.0521739252801554;1.075;0.014359618916339445
59:10.9;0.08118579727422261;-0.1562964087124702;-1.0582894241968892;1.079;0.013428685886146556
59:10.9;0.07476504268436876;-0.15461325307802307;-1.061742191214263;1.08;0.01227338560326114
59:10.9;0.06749133746557702;-0.15294841341465434;-1.0623564992540666;1.084;0.010966379981986758
59:10.9;0.05977506781623202;-0.15133770296219476;-1.0600999647242817;1.087;0.00958989904821486
59:10.9;0.05204493051553949;-0.14983156044376367;-1.0550803130094393;1.073;0.008227487954400104
59:10.9;0.04471565409098024;-0.1484984359393688;-1.0475340249869125;1.058;0.006955840350383759
59:10.9;0.038157673880221475;-0.14742425934935244;-1.0378070163765503;1.05;0.005838045145406359
59:10.9;0.032672073190823325;-0.14670704246821747;-1.02633006299117;1.023;0.004919429098684581
59:10.9;0.028473196501262326;-0.14644722623062564;-1.0135931923173709;1.023;0.004226501823547421
59:10.9;0.02567951142034055;-0.14673566498928162;-1.0001228907940445;1.013;0.0037685632496872795
59:11.0;0.024311836954436696;-0.14764126492808138;-0.9864637168345854;1.003;0.00354084281491363
59:11.0;0.024297642607924465;-0.149199990763198;-0.9731625655860916;0.9890000000000001;0.003527916769319518
59:11.0;0.025480427802628037;-0.15140703462525656;-0.9607519522061001;0.972;0.0037065003424538107
59:11.0;0.027633409662209882;-0.154214035024635;-0.949729864612348;0.955;0.0040472354541807205
59:11.0;0.03047669422622344;-0.15753260082540504;-0.9405368020883262;0.9440000000000001;0.004515585757618686
59:11.0;0.03369737886697023;-0.1612439819182658;-0.9335332888106003;0.943;0.0050723527034662805
59:11.0;0.036972626908825364;-0.16521317410888536;-0.9289816425073716;0.941;0.005674558994165013
59:11.0;0.039995560182292375;-0.16930461442713476;-0.9270339515003729;0.9440000000000001;0.00627734819439815
59:11.0;0.04250212153596891;-0.1733960765242731;-0.927725868977709;0.9440000000000001;0.006837062374076057
59:11.0;0.044295011360759286;-0.17738776182511418;-0.9309747551098884;0.948;0.007315034454436218
59:11.1;0.04526038971711057;-0.18120524608514388;-0.9365809994000446;0.95;0.007681294193108627
59:11.1;0.04537456803379603;-0.1847971195861067;-0.944232291712077;0.9540000000000001;0.007917472251293309
59:11.1;0.04470004883537933;-0.18812948160430024;-0.953511763878867;0.963;0.00801845898101311
59:11.1;0.04337209115496938;-0.19117957478349176;-0.9639118316312172;0.977;0.007992619978887542
59:11.1;0.04157828240027343;-0.19393045655823876;-0.9748553603029579;0.991;0.007860546633984868
59:11.1;0.03953433832233522;-0.1963682407177478;-0.9857243244285743;1.001;0.007652462276813507
59:11.1;0.03745958395023026;-0.19848297247331878;-0.9958946706320996;1.016;0.007404566078490607
59:11.1;0.03555519787858753;-0.2002731749228895;-1.004775381133628;1.042;0.007154756670653339
59:11.1;0.03398748452587392;-0.20175249766842587;-1.0118487089118864;1.042;0.0069383071992203775
59:11.1;0.032877716241630515;-0.20295552108969872;-1.016706975160956;1.0490000000000002;0.0067841948996491515
59:11.2;0.0322993658376774;-0.20393976892654422;-1.0190812713581234;1.053;0.006712815928924206
59:11.2;0.032282294695567974;-0.20478248251827674;-1.018859389662996;1.053;0.006735525016050445
59:11.2;0.032821916079840446;-0.2055724521566111;-1.0160920224150407;1.047;0.006855859182543199
59:11.2;0.03389042152996804;-0.2063982568867707;-1.0109869251589243;1.038;0.0070717766346429555
59:11.2;0.03544751013107905;-0.20733495005700012;-1.0038915351441398;1.031;0.007378108610345017
59:11.2;0.037449426105233954;-0.20843191613238043;-0.9952655079394458;1.022;0.007768699826511354
59:11.2;0.03985625039223573;-0.2097049030485742;-0.9856449500407267;1.006;0.008238070882930807
59:11.2;0.04263742476460989;-0.21113430164197244;-0.9756004554135383;0.982;0.008782572762425927
59:11.2;0.04577489711526883;-0.21266949757622108;-0.9656928004275933;0.982;0.009400946377885565
59:11.2;0.04926310819338655;-0.21423698436049574;-0.9564321719364323;0.972;0.01009416576489574
59:11.3;0.05310571131251857;-0.2157495403504777;-0.9482461313755542;0.963;0.010864561158076587
59:11.3;0.057309932620610654;-0.2171149200539937;-0.9414584936271592;0.9570000000000001;0.011714418757813087
59:11.3;0.061880014066059114;-0.21824373196618768;-0.9362791457403192;0.96;0.012644379833191523
59:11.3;0.06681094189772872;-0.21905666822265937;-0.9328040716673663;0.958;0.013651944230569599
59:11.3;0.07208306371441993;-0.2194910257708606;-0.9310238412454307;0.9590000000000001;0.014730273395608093
59:11.3;0.07765783370001848;-0.21950591152869905;-0.9308378044545267;0.9620000000000001;0.01586739033446747
59:11.3;0.08347504257935708;-0.21908534348540587;-0.9320712648525122;0.96;0.01704586690930161
59:11.3;0.08945206164856705;-0.21823894580260594;-0.9344937131993718;0.9640000000000001;0.018243114905580754
59:11.3;0.09548522537369898;-0.21700060406268787;-0.9378371887236197;0.9640000000000001;0.01943231627998636
59:11.3;0.10145285294751423;-0.21542575204987155;-0.9418147222086654;0.973;0.020583885480125536
59:11.4;0.10721960238387795;-0.2135879124331984;-0.9461391039442362;0.978;0.021667352841797792
59:11.4;0.11264252550939682;-0.21157503385655177;-0.950541620294117;0.986;0.022653636923251588
59:11.4;0.11757895810594894;-0.2094861089917145;-0.9547894328406107;0.992;0.023517569790370188
59:11.4;0.1218953344122983;-0.20742812974152178;-0.9586996752865796;0.9990000000000001;0.024240262303868835
59:11.4;0.1254755103427099;-0.20551258855264076;-0.9621482435772766;1.002;0.02481072137415867
59:11.4;0.12822753174422308;-0.20385033242777945;-0.9650715299225415;0.998;0.025226221835155216
59:11.4;0.13008829129271907;-0.2025442420448329;-0.967460332228893;0.997;0.025491258550533778
59:11.4;0.13102600730426214;-0.20168029857986078;-0.9693470058168807;0.9940000000000001;0.0256153477374468
59:11.4;0.13104111060860923;-0.20131833976672373;-0.9707887383463221;0.9940000000000001;0.02561035715366131
59:11.4;0.13016647993714786;-0.20148420106472245;-0.9718505825325915;0.992;0.02548822882191064
59:11.5;0.1284676420825085;-0.2021649703118862;-0.972591503198187;0.995;0.025259812968520097
59:11.5;0.126042961254386;-0.20330854012164465;-0.9730556681033755;0.997;0.02493514549234813
59:11.5;0.1230232520252405;-0.20482763151445077;-0.9732699247461989;1.0;0.024525001892802448
59:11.5;0.11956964753671406;-0.20660740658523333;-0.9732471396487972;1.004;0.02404307279635839
59:11.5;0.11586838229367175;-0.20851531400744966;-0.9729939167697577;1.006;0.02350785617746468
59:11.5;0.11212172249295754;-0.21041204382354248;-0.9725202390426072;1.0070000000000001;0.022943464839775114
59:11.5;0.10853521437531244;-0.21216267077614218;-0.9718481910925827;1.0070000000000001;0.022378865846310693
59:11.5;0.1053024452296408;-0.2136469372225883;-0.9710174484978414;0.9990000000000001;0.021845508651470325
59:11.5;0.10258958866111496;-0.21476763432815815;-0.9700865992094125;0.9990000000000001;0.021373843599278766
59:11.5;0.10052245837825334;-0.21545629803474006;-0.9691310534419146;0.9990000000000001;0.020989631033462235
59:11.6;0.09917786894009983;-0.21567578402854531;-0.9682391935977017;0.996;0.020710892587749878
59:11.6;0.0985795294068017;-0.21541976068715898;-0.9675079639739739;1.0;0.020545978450659478
59:11.6;0.09869792276186062;-0.2147096770349125;-0.9670380428747446;0.997;0.020492889130991104
59:11.6;0.09945368303708453;-0.21359010090043073;-0.9669279896111782;0.9940000000000001;0.020539795894500872
59:11.6;0.10072398597230886;-0.21212335216933442;-0.967266813293574;0.995;0.020666535241905953
59:11.6;0.10235139822936806;-0.21038413566936942;-0.9681252565159149;0.993;0.02084674807899575
59:11.6;0.10415487857794122;-0.20845462003265072;-0.9695469325150775;0.992;0.02105038186491869
59:11.6;0.1059428027828296;-0.206420257027305;-0.9715407203802008;0.996;0.02124637197750792
59:11.6;0.10752739053701046;-0.2043666189469367;-0.9740756645274573;0.996;0.021405321736472176
59:11.6;0.10873910416333543;-0.20237748413986445;-0.9770792364643548;1.0;0.021501944067726333
59:11.7;0.10943946549381589;-0.2005339952169303;-0.9804394181586435;1.004;0.02151705020222832
59:11.7;0.1095314452451574;-0.19891412553752758;-0.9840107614033278;1.01;0.021438988485883784
59:11.7;0.10896714116853089;-0.19759159494048967;-0.987624043112547;1.015;0.021264524600517667
59:11.7;0.10775219652168667;-0.19663380448505785;-0.9910983512937672;1.0190000000000001;0.020999118664688926
59:11.7;0.10594572185101037;-0.19609858248676423;-0.9942539534156883;1.025;0.02065642712713278
59:11.7;0.1036543333226622;-0.19602943487058447;-0.9969243325538385;1.023;0.0202568049724115
59:11.7;0.10101996044988047;-0.19644932226073925;-0.9989661421866542;1.02;0.0198247855438637
59:11.7;0.09820303905893323;-0.19735397033586993;-1.000266654755084;1.025;0.019385927629048748
59:11.7;0.09536456189359895;-0.19870661722729893;-1.0007492582923265;1.025;0.01896376761932225
59:11.7;0.0926509632153748;-0.20043621237215556;-1.0003776062282674;1.0270000000000001;0.018577620516817835
59:11.8;0.09018436737317354;-0.20244029991419196;-0.9991581299821545;1.0270000000000001;0.018241580399455885
59:11.8;0.08805841050052243;-0.20459252656270016;-0.9971400014522569;1.024;0.01796456669046961
59:11.8;0.086338406238343;-0.20675357203574043;-0.9944118432651926;1.022;0.017751020971294947
59:11.8;0.08506423950315348;-0.20878364447238915;-0.9910951911150272;1.0190000000000001;0.017601872336592054
59:11.8;0.08425414301028632;-0.21055433396133325;-0.9873353872456142;1.014;0.017515403785348084
59:11.8;0.08390755500541588;-0.21195772048224804;-0.9832909173339247;1.004;0.017487685492989773
59:11.8;0.08400622725459894;-0.21291167652579354;-0.9791224628822125;1.002;0.01751249300271585
59:11.8;0.0845142011733362;-0.21336187283289057;-0.9749832453630614;1.0;0.017581003415808868
59:11.8;0.08537792987664798;-0.21328185906702185;-0.9710119053051056;1.0;0.01768170305318172
59:11.8;0.08652726585773766;-0.21267236308356657;-0.9673279555973794;0.992;0.017800728508949957
59:11.9;0.0878772503910005;-0.21156030661167882;-0.9640288569412191;0.991;0.017922586356731447
59:11.9;0.08933060888401093;-0.2099975200191451;-0.9611878714441048;0.988;0.018031121599855243
59:11.9;0.09078122858858652;-0.20805890782624528;-0.9588525030180833;0.982;0.01811065579726669
59:11.9;0.0921188676464527;-0.205839832818065;-0.9570438301364407;0.9790000000000001;0.018147208921473215
59:11.9;0.09323496883198053;-0.2034524747879033;-0.9557575273563081;0.98;0.01812965476350218
59:11.9;0.09402912994069891;-0.20102072919555208;-0.9549676737132878;0.9790000000000001;0.018050612049174904
59:11.9;0.09441548058951729;-0.19867319271323605;-0.9546338860347675;0.982;0.017906855344932634
59:11.9;0.09432806067605383;-0.19653439465774578;-0.9547110118179714;0.986;0.01769910896290803
59:11.9;0.0937246285427094;-0.1947154178046342;-0.9551592762034129;0.986;0.01743130357785309
59:11.9;0.0925887979083775;-0.19330548126125377;-0.9559520034863068;0.986;0.017109554527095335
59:12.0;0.09093050993236224;-0.19236556436291458;-0.9570783734490405;0.983;0.01674111811036977
59:12.0;0.08878484987390116;-0.19192444717306215;-0.9585401617994024;0.981;0.016333508281760313
59:12.0;0.08620945729523413;-0.19197722510594345;-0.960343335743609;0.9790000000000001;0.015893924587062288
59:12.0;0.08328109058044532;-0.19248612732017933;-0.9624869527171239;0.977;0.015429103403273962
59:12.0;0.08009199937627244;-0.19338317386293138;-0.9649525780753592;0.982;0.014945614972123574
59:12.0;0.07674646513242377;-0.19457436525680108;-0.9676971142928266;0.986;0.014450519146818424
59:12.0;0.0733573356336593;-0.1959457101056579;-0.9706506395749328;0.987;0.013952185894710391
59:12.0;0.07004212511483049;-0.19737151649854223;-0.9737193617363422;0.9990000000000001;0.01346100848763657
59:12.0;0.06691857349099974;-0.1987245819809799;-0.976792713793617;0.9990000000000001;0.012989746568511209
59:12.0;0.06409999121355327;-0.19988712740275022;-0.9797528328098565;1.006;0.012553340953358392
59:12.1;0.061690585853300846;-0.20076137397142305;-0.9824842309198453;1.011;0.012168152456986913
59:12.1;0.059780430617368416;-0.20127903843977274;-0.9848816876588744;1.008;0.011850635779421437
59:12.1;0.05843967307369982;-0.2014088596042231;-0.9868552269602258;1.0090000000000001;0.011615550409130874
59:12.1;0.05771239535055381;-0.20116081055626384;-0.9883323496079391;1.01;0.011474016964669934
59:12.1;0.05761154726943915;-0.2005856655895984;-0.9892588810633265;1.01;0.011431925641240955
59:12.1;0.05811659808651291;-0.19976919215017855;-0.9896000422962427;1.0090000000000001;0.011489163320471995
59:12.1;0.05917485477594038;-0.19882113346480673;-0.9893428162776272;1.011;0.011639827676557158
59:12.1;0.06070634544470421;-0.19786032645687401;-0.988499873086956;1.015;0.011873244964024013
59:12.1;0.0626111447203616;-0.19699860444927386;-0.9871140947176019;1.015;0.012175369406558516
59:12.1;0.0647774042600714;-0.19632673404337647;-0.9852614137154386;1.008;0.01253009771330853
59:12.2;0.06708873573236551;-0.19590486001620347;-0.9830495841844494;1.005;0.012920229908215243
59:12.2;0.06943073516115905;-0.19575824900488725;-0.9806121580428402;1.003;0.013328126590641465
59:12.2;0.07169718745611153;-0.1958776190059964;-0.9780988746332192;0.998;0.01373629771515361
59:12.2;0.07379633802578005;-0.196222700485674;-0.9756644012740507;0.995;0.014128124688804453
59:12.2;0.07565702411815212;-0.19672789586256786;-0.9734570516486638;0.9990000000000001;0.014488785975497796
59:12.2;0.07723380904140673;-0.19730944971095715;-0.9716083098449608;0.996;0.014806300520185504
59:12.2;0.07850979307563918;-0.19787387745869983;-0.9702229577760134;0.99;0.015072449716464882
59:12.2;0.07949601081726462;-0.19832743809688388;-0.9693693311656214;0.985;0.015283309683073995
59:12.2;0.08022747961412743;-0.1985861433044134;-0.969070502780061;0.985;0.015439294979859772
59:12.2;0.08075725901058202;-0.19858514654079215;-0.9692988478706369;0.985;0.015544831840003333
59:12.2;0.08115031654525846;-0.19828587204835255;-0.9699766504103168;0.993;0.015607856727337563
59:12.3;0.08147832526755815;-0.19767958186375073;-0.9709838165919015;0.995;0.015639249173322503
59:12.3;0.08181520293502215;-0.19678714605414654;-0.9721714323046317;1.0;0.015652135332331975
59:12.3;0.08223232798269381;-0.19565582797972703;-0.9733782090286408;0.9990000000000001;0.015660909987909487
59:12.3;0.08279284001088259;-0.1943543184539993;-0.9744467636150338;0.992;0.015679965135917205
59:12.3;0.08354557601844649;-0.1929669358812527;-0.9752381921646833;1.002;0.01572233548848243
59:12.3;0.08451955252729644;-0.19158713165744384;-0.9756451093541176;1.005;0.015798483336310568
59:12.3;0.08571915384119816;-0.19030991679565223;-0.9756032775509849;1.002;0.015915216299811748
59:12.3;0.08711945039714836;-0.1892232192842583;-0.9751004939263949;1.002;0.016074553939437634
59:12.3;0.0886616233524032;-0.18839920064873958;-0.9741808580285042;1.002;0.016272501727181952
59:12.3;0.09024987707592202;-0.1878871478390073;-0.972943327215732;0.9990000000000001;0.016497997624092663
59:12.4;0.09175177745580253;-0.18770929538245443;-0.9715341798344991;0.998;0.01673240431139102
59:12.4;0.0930031858697813;-0.18786051832939188;-0.9701333514559246;0.992;0.016949807769526756
59:12.4;0.09381784171270545;-0.18831254784420312;-0.9689352701861823;0.988;0.01711825383858028
59:12.4;0.09400096767756062;-0.1890225424546343;-0.9681259784056052;0.985;0.01720195466503707
59:12.4;0.09336603447981506;-0.18994444302032112;-0.9678594993788224;0.9840000000000001;0.01716436822644929
59:12.4;0.09175359560600119;-0.19104045946648648;-0.9682368581034991;0.986;0.01697188409485373
59:12.4;0.0890507396259529;-0.19228996403109103;-0.9692905086969541;0.988;0.01659770759463372
59:12.4;0.08520964369858386;-0.19369380659235827;-0.9709755197539776;0.988;0.01602554338302797
59:12.4;0.08026402230090589;-0.19527302922651937;-0.9731676850582869;0.988;0.015252845200529259
59:12.4;0.07434209649013268;-0.197061837818488;-0.9756685636614477;0.99;0.014293534858646918
59:12.5;0.06767368328508147;-0.19909541121514465;-0.9782181429706154;0.991;0.01318004152007512
59:12.5;0.0605883066192061;-0.2013937566169896;-0.9805163550028829;0.995;0.01196436516239029
59:12.5;0.05350219879057169;-0.20394385253313033;-0.9822541062099088;1.005;0.010717811204433186
59:12.5;0.04689439578001517;-0.20668381900501917;-0.983152418131331;1.018;0.009529020776187438
59:12.5;0.04127415591618962;-0.20949344496721362;-0.98300506482086;1.03;0.008499715597919347
59:12.5;0.03714238701829398;-0.21219397936454243;-0.9817169139005205;1.032;0.007737294756018916
59:12.5;0.034949261830440934;-0.21455768464120534;-0.9793288949273085;1.0170000000000001;0.007343627673851436
59:12.5;0.03505059239199685;-0.21632565843334728;-0.9760228275025817;1.0170000000000001;0.0074005393441558135
59:12.5;0.03766731487827706;-0.2172310521896109;-0.9721045554450148;1.002;0.007954255677749704
59:12.5;0.04285389796607369;-0.21702451568947317;-0.9679686341504653;0.988;0.00900244365177804
59:12.6;0.050481432182236906;-0.2154998096591082;-0.9640503910705951;0.9790000000000001;0.010487652612940223
59:12.6;0.060239992199601945;-0.21251850170532852;-0.9607725830524285;0.972;0.012299919065050307
59:12.6;0.07166241558366017;-0.20803215396380803;-0.9584944893596747;0.9670000000000001;0.014289318922121886
59:12.6;0.08416724955670069;-0.20209950885341899;-0.9574703060820515;0.973;0.016286722907292578
59:12.6;0.09711355100329114;-0.19489606941113038;-0.9578213089418345;0.973;0.01812873120877949
59:12.6;0.10985749616732515;-0.18671351379196616;-0.9595236325965811;0.9670000000000001;0.019681632770158792
59:12.6;0.12180201056635327;-0.1779464927520359;-0.9624119525950756;0.985;0.020859548207650198
59:12.6;0.1324341662964885;-0.1690663179275262;-0.9661985705508089;0.985;0.021633337555969422
59:12.6;0.14134831662884323;-0.16058460257801777;-0.9705058225566295;0.998;0.022028893697518055
59:12.6;0.1482555536660472;-0.1530114028011984;-0.9749076500595752;1.004;0.022115575544495312
59:12.7;0.1529824742656655;-0.14681101213258338;-0.9789752296958247;1.008;0.021987305806952937
59:12.7;0.15546341588119866;-0.14235814250310963;-0.9823217803263116;1.015;0.02174023789187678
59:12.7;0.15572985075027226;-0.1398990550034877;-0.9846422797646305;1.0170000000000001;0.021451868614234777
59:12.7;0.15389954702849779;-0.1395233029387993;-0.985744590354587;1.018;0.021166472796203026
59:12.7;0.15016704647153103;-0.14115079936629576;-0.985569308322354;1.02;0.02089032284050584
59:12.7;0.14479576792694882;-0.14453711004543257;-0.9841964192956576;1.022;0.020597618787575257
59:12.7;0.13811071216143717;-0.14929740073458286;-0.9818375724827421;1.0070000000000001;0.020245068887580087
59:12.7;0.13048990012661124;-0.15494590862535232;-0.9788140292140699;1.0070000000000001;0.019790519622290056
59:12.7;0.12235244090190206;-0.16094466639705146;-0.9755224016867159;1.001;0.019209960584023075
59:12.7;0.11414106908171551;-0.16675476853177734;-0.9723919397467808;0.987;0.01850808767480745
59:12.8;0.10629757574497248;-0.1718850224439084;-0.9698377546023559;0.977;0.017719867977513876
59:12.8;0.09923178275839008;-0.17593365322910093;-0.9682153370177066;0.972;0.01690330673418043
59:12.8;0.09328780660882459;-0.17861884344044027;-0.9677829375869835;0.971;0.01612612849727725
59:12.8;0.0887130783126744;-0.179795288725017;-0.968677778608215;0.977;0.015450598035957929
59:12.8;0.08563505950746683;-0.17945659225798818;-0.9709091802519464;0.983;0.014920714756725888
59:12.8;0.08404898853299964;-0.17772562765320954;-0.9743679984690495;0.992;0.014554777136119749
59:12.8;0.08381834861805923;-0.1748360887121303;-0.9788483937989372;1.025;0.01434450660889867
59:12.8;0.0846882757695824;-0.17110809912738334;-0.9840745719836056;1.025;0.014260076898564018
59:12.8;0.08631133962687018;-0.1669190210144524;-0.9897231793574264;0.968;0.014258946113641978
59:12.8;0.08828507079836138;-0.16266862693862097;-0.9954371029450574;0.9840000000000001;0.014295682517448841
59:12.9;0.09019934740623903;-0.1587389054488411;-1.000838238827673;1.01;0.014330147705114956
59:12.9;0.09168754929691597;-0.1554545558561471;-1.005551787183006;1.052;0.014332378248908808
59:12.9;0.09247057544016762;-0.15305417822112316;-1.0092443288224913;1.05;0.014283842992795025
59:12.9;0.09238282315510057;-0.1516769376756222;-1.0116641613821609;1.042;0.014175785948369896
59:12.9;0.09137580622393443;-0.1513610737066903;-1.0126698634159323;1.04;0.014005973729395256
59:12.9;0.08950333019644587;-0.15205004004298175;-1.012240449549485;1.04;0.013775565033931866
59:12.9;0.08689627401138299;-0.15360650824153688;-1.010467751352343;1.022;0.013487555029433454
59:12.9;0.08373441064087807;-0.15583417559497975;-1.0075349905063415;1.022;0.013147004552556431
59:12.9;0.08022043056343783;-0.15850323760426507;-1.0036871431912504;1.01;0.012762080721919927
59:12.9;0.07655934847653081;-0.161374639093528;-0.9991993942284922;1.001;0.012344845955704295
59:13.0;0.07294463702724024;-0.1642209859289042;-0.9943492327862864;1.002;0.011911349443164274
59:13.0;0.0695507841406391;-0.16684377945423487;-0.9893962406117761;1.0;0.011481068439339695
59:13.0;0.0665309619120359;-0.1690863115889133;-0.9845715438906395;1.002;0.011075912925554028
59:13.0;0.06401807065710034;-0.17084123856596317;-0.9800760434828217;1.004;0.01071901963401015
59:13.0;0.062127203108974884;-0.1720526506256064;-0.9760839202467122;1.0;0.010433507407656731
59:13.0;0.06095743138944789;-0.1727134963536559;-0.9727468359038046;0.9940000000000001;0.010241245129279241
59:13.0;0.06059122320721448;-0.1728596498433708;-0.970195209617247;0.987;0.010161608880486932
59:13.0;0.06109100947647852;-0.17256185392225076;-0.9685352884193137;0.987;0.010210277560600651
59:13.0;0.06249366191993003;-0.17191643799381168;-0.9678428426642723;0.983;0.010398201296977654
59:13.0;0.06480411977612358;-0.1710352783718852;-0.9681551554422976;0.981;0.010730829074699598
59:13.1;0.0679893445314754;-0.17003538699543008;-0.9694629841372971;0.983;0.0112075684510722
59:13.1;0.07197361196656063;-0.1690287432210782;-0.9717041260686251;0.982;0.011821372632252785
59:13.1;0.07663599756288247;-0.1681131438089303;-0.9747601900135725;0.982;0.012558340920857308
59:13.1;0.08181095808318053;-0.1673650541522137;-0.9784580997814971;0.9890000000000001;0.013397337367924205
59:13.1;0.08729311745999663;-0.1668356634069643;-0.9825776048776284;0.996;0.014309872278756783
59:13.1;0.09284713319902889;-0.16655091744221076;-0.9868651514062646;1.006;0.015260660870025358
59:13.1;0.09822246108827337;-0.16651515989000662;-0.9910528386331305;1.0190000000000001;0.01620919325737426
59:13.1;0.10317130916507651;-0.16671709325617326;-0.9948795360771688;1.0190000000000001;0.017112346637417893
59:13.1;0.10746701274536749;-0.1671366717808182;-0.9981104639217432;1.023;0.01792773959629989
59:13.1;0.11092035754219974;-0.16775184076733377;-1.0005523906651839;1.024;0.01861737254139294
59:13.2;0.11339254127287084;-0.16854423901335405;-1.0020635927307053;1.0270000000000001;0.019151098260404526
59:13.2;0.11480406334140983;-0.16950318336485937;-1.0025591699782344;1.0290000000000001;0.019509454762404333
59:13.2;0.11513879208509775;-0.17062762814815735;-1.0020124203114462;1.025;0.019685394727014135
59:13.2;0.11444285364270494;-0.17192611880555073;-1.0004525837117155;1.023;0.019684620560242304
59:13.2;0.11281893521837581;-0.17341490267657939;-0.9979593094423974;1.021;0.019524559611837546
59:13.2;0.11041722726262534;-0.17511440770391895;-0.9946545780445082;1.016;0.019232290158522465
59:13.2;0.10742408246661433;-0.17704424441778005;-0.990693039460683;1.0090000000000001;0.018841808147094942
59:13.2;0.10404905684266186;-0.17921686069008344;-0.9862518592229947;1.004;0.018390978996458918
59:13.2;0.10051104454178753;-0.18163028549048027;-0.9815212692875358;1.004;0.01791850478425923
59:13.2;0.09702452196108935;-0.18426103543184197;-0.9766966262849933;0.997;0.01746122491821977
59:13.3;0.09378683790672167;-0.1870589816616383;-0.9719717845983511;0.993;0.01705195261941128
59:13.3;0.09096730297268489;-0.18994637567136802;-0.9675328298219881;0.992;0.016717912208895454
59:13.3;0.08869896539772236;-0.19282251715426657;-0.9635512483529133;0.986;0.01647976902677437
59:13.3;0.0870738282477438;-0.19557347022812374;-0.9601761615076283;0.98;0.016351157438780486
59:13.3;0.08614152179502454;-0.19808416133161036;-0.9575262089710415;0.976;0.016338529289598887
59:13.3;0.08591085057630363;-0.20024979228317913;-0.9556828218530545;0.977;0.016441213648055224
59:13.3;0.08635363722342881;-0.20198474793171056;-0.9546868524659785;0.9840000000000001;0.016651760397290973
59:13.3;0.08741019690010035;-0.20322863153673124;-0.9545390071234492;0.9840000000000001;0.016956674042064076
59:13.3;0.08899517865027026;-0.20394973671111422;-0.9552023452930307;0.982;0.017337441484831993
59:13.3;0.09100232989426262;-0.20414641656872873;-0.9566044032979226;0.978;0.017771604850551518
59:13.4;0.09330771964029475;-0.20384676214950337;-0.9586380867930543;0.98;0.018233753232746956
59:13.4;0.09577231040499781;-0.20310651226077187;-0.9611628315000643;0.9840000000000001;0.018696520115024495
59:13.4;0.09824538706927158;-0.20200459344514501;-0.9640084412800748;0.985;0.019131730297577445
59:13.4;0.10057000947534099;-0.20063606028962463;-0.9669830788538278;0.99;0.019511756024048664
59:13.4;0.10259075026468044;-0.19910321478170476;-0.9698855119405103;0.998;0.01981102518895946
59:13.4;0.10416297341901895;-0.19750632443089405;-0.9725206369733818;1.003;0.020007517317460047
59:13.4;0.10516217632225368;-0.19593542643564246;-0.9747161792901757;1.004;0.020084022841484323
59:13.4;0.10549185612581294;-0.19446447468515463;-0.9763377849450335;1.004;0.020029001805513084
59:13.4;0.10508909121749373;-0.19314860392589214;-0.9773003344636909;1.006;0.019837057729857974
59:13.4;0.10392792278478807;-0.1920246370597694;-0.9775746292592955;1.008;0.019509184771284303
59:13.5;0.10202086987818802;-0.19111427534214848;-0.9771893051154487;1.0070000000000001;0.01905288979423009
59:13.5;0.09941853053967849;-0.19042867052672477;-0.9762278026321292;1.002;0.018482080061082255
59:13.5;0.09620695771072686;-0.18997266081190206;-0.974820456091266;0.998;0.017816492982627188
59:13.5;0.09250279959282148;-0.1897475074966309;-0.9731325887162169;0.997;0.017080594136837355
59:13.5;0.08844667051343104;-0.18975213844500938;-0.9713501073519808;0.993;0.016302115299471287
59:13.5;0.08419527291414708;-0.1899835438771113;-0.9696639177654579;0.99;0.015510468960066396
59:13.5;0.07991250076553191;-0.1904368066562636;-0.9682541032165425;0.985;0.014735163465326238
59:13.5;0.07575977419142939;-0.19110491155385503;-0.9672749223254877;0.985;0.014004269146252338
59:13.5;0.07188629455847902;-0.19197832672937387;-0.9668421188025346;0.98;0.01334301153923755
59:13.5;0.06842008092106207;-0.1930443205971221;-0.9670242167725918;0.9840000000000001;0.012772560329147215
59:13.6;0.06546053419439583;-0.1942859713457384;-0.9678390611884476;0.9890000000000001;0.012309038609684275
59:13.6;0.06307344707965404;-0.19568071559718858;-0.9692556751323023;0.993;0.011962802892934324
59:13.6;0.061289325996820784;-0.19719815826973164;-0.9711998953585084;0.993;0.011738060047859105
59:13.6;0.06010503650073409;-0.1987973544925735;-0.9735614138738031;0.9940000000000001;0.011632814925773076
59:13.6;0.059487994078286525;-0.20042494917321096;-0.9762005867409524;0.9940000000000001;0.011639120684286304
59:13.6;0.059382185458728594;-0.20201611797042168;-0.9789549819589958;0.997;0.01174369920917058
59:13.6;0.05971566861711691;-0.2034992694645966;-0.9816468111338897;1.004;0.01192906524563568
59:13.6;0.06040901332419984;-0.20480375253122024;-0.9840924320658865;1.004;0.01217518430249312
59:13.6;0.061383480527056375;-0.2058687296632137;-0.986114330512251;1.011;0.012461466797921214
59:13.6;0.06256740341794637;-0.206651426652023;-0.987555132887837;1.0170000000000001;0.012768735487070504
59:13.7;0.06389962838241796;-0.2071334904416416;-0.9882924212072255;1.02;0.01308079444288647
59:13.7;0.06532974694056991;-0.20732438455112417;-0.9882521721511981;1.023;0.013385331715393042
59:13.7;0.0668157791586016;-0.20726087886869032;-0.9874179549792635;1.0170000000000001;0.013674057213000626
59:13.7;0.06832048958687661;-0.20700229125675326;-0.9858334689295808;1.014;0.01394214774857581
59:13.7;0.0698075270947509;-0.20662201652127565;-0.9835977044449071;1.0070000000000001;0.014187189045044138
59:13.7;0.07123848216166272;-0.2061966795538263;-0.980854017174357;1.001;0.014407900485162436
59:13.7;0.0725718801808214;-0.2057948676791067;-0.9777756597221564;0.997;0.014603001724287495
59:13.7;0.0737647629835493;-0.20546770289646973;-0.9745505435202614;0.997;0.014770557408170197
59:13.7;0.07477678927145452;-0.20524333714362167;-0.971367275746727;0.995;0.014907998817268566
59:13.7;0.07557606976415925;-0.20512659673794995;-0.9684031475350035;0.991;0.015012826661979672
59:13.8;0.07614543434295774;-0.2051035614348828;-0.9658137183058321;0.988;0.015083788686968979
59:13.8;0.07648739965116351;-0.2051495141046721;-0.9637237382071265;0.9840000000000001;0.01512212924884022
59:13.8;0.07662599629444494;-0.20523800288128508;-0.962219987290511;0.9840000000000001;0.01513241656796872
59:13.8;0.07660431242561211;-0.2053487654075416;-0.961347202434539;0.982;0.015122569246172352
59:13.8;0.07647802223619843;-0.20547298021166102;-0.9611080764177544;0.983;0.01510301296162584
59:13.8;0.07630655472428724;-0.2056154466681735;-0.9614676118326441;0.983;0.015085240625436704
59:13.8;0.07614424193927653;-0.20579403597345847;-0.9623613929257159;0.9940000000000001;0.015080232730260216
59:13.8;0.07603352519541647;-0.20603682632060585;-0.9637064669165086;0.9940000000000001;0.015097142398069736
59:13.8;0.0760013488073615;-0.20637728443305564;-0.9654124044681699;0.9940000000000001;0.0151424472050884
59:13.8;0.07605887720339073;-0.20684797840835745;-0.9673897980556506;0.995;0.015219580911507557
59:13.8;0.07620395454243592;-0.20747351756956176;-0.9695546803117676;0.995;0.015328952787600372
59:13.9;0.07642506770242935;-0.20826373387977135;-0.9718290035042559;0.996;0.015468184325106311
59:13.9;0.07670514916661435;-0.20920838714843432;-0.9741383093184591;0.995;0.015632348668505932
59:13.9;0.07702396918026277;-0.21027456921168136;-0.9764081798665458;0.9990000000000001;0.015814084527215243
59:13.9;0.0773589334357609;-0.2114075498532297;-0.9785611265451771;1.001;0.016003645611079913
59:13.9;0.07768486980916792;-0.21253522056717555;-0.9805150878712007;1.004;0.016189060018686516
59:13.9;0.0779735037585;-0.2135755151577762;-0.9821840341061068;1.0070000000000001;0.01635653783419254
59:13.9;0.07819328893357473;-0.21444548331015728;-0.9834807711282341;1.0070000000000001;0.016491199942439073
59:13.9;0.07831031128801708;-0.21507060173706855;-0.984321848167508;1.011;0.01657819048453418
59:13.9;0.07829080294332932;-0.2153933711259562;-0.9846342802934731;1.014;0.016604202926077807
59:13.9;0.07810527320161789;-0.21538061801164574;-0.9843634078883234;1.015;0.01655931759899421
59:14.0;0.07773362396046785;-0.21502887541246077;-0.9834806210397125;1.015;0.016438852756399912
59:14.0;0.07717008761136801;-0.2143670233832245;-0.981989298621488;1.014;0.016244775949983643
59:14.0;0.076426601705341;-0.21345540094192578;-0.9799275312209706;1.0090000000000001;0.015986215259637275
59:14.0;0.0755334834222858;-0.21238099256509863;-0.9773669443082753;1.004;0.01567879950411734
59:14.0;0.07453695416599622;-0.21124894941078975;-0.9744078800639014;1.003;0.015342883494724681
59:14.0;0.07349392224257191;-0.21017148290125523;-0.9711718444291976;0.991;0.015001037515095857
59:14.0;0.07246508125214271;-0.20925585377542394;-0.9677923851742277;0.991;0.014675354470294218
59:14.0;0.07150755349190548;-0.20859330031966672;-0.9644058271653936;0.987;0.014385074020369202
59:14.0;0.07066810560409618;-0.2082501222388346;-0.9611432728628249;0.9840000000000001;0.014144801102230308
59:14.0;0.06997777021961632;-0.2082613885832189;-0.9581245020625093;0.981;0.013963388008541154
59:14.1;0.06944859816717076;-0.20862745448643596;-0.9554535574516448;0.9790000000000001;0.013843456003290221
59:14.1;0.06907296315297848;-0.20931345528283;-0.9532156196288373;0.975;0.013781496663875095
59:14.1;0.06882537768705568;-0.21025186849214153;-0.9514750572204221;0.972;0.013768476103260393
59:14.1;0.06866639068903271;-0.21134815607095755;-0.9502750171495143;0.972;0.013790880493889315
59:14.1;0.06854777402572637;-0.2124894353202712;-0.9496393263280275;0.975;0.013832140448933584
59:14.1;0.0684179453953328;-0.21355580943783123;-0.9495771262339238;0.983;0.013874318593908192
59:14.1;0.06822675259867143;-0.21443331392133813;-0.9500892678826253;0.983;0.013899890221970267
59:14.1;0.06792925595329753;-0.21502679666265076;-0.9511739387124662;0.986;0.013893427057246789
59:14.1;0.06748846668592767;-0.21527091523167768;-0.9528285713490725;0.986;0.013842983135928862
59:14.1;0.06687701982452762;-0.21513771573126036;-0.9550461669272543;0.98;0.01374098390146245
59:14.2;0.06607791111441759;-0.2146396714034982;-0.9578062737372963;0.975;0.013584509993046777
59:14.2;0.0650847792025318;-0.21382764927559056;-0.9610634383072943;0.975;0.013375048118405135
59:14.2;0.06390222332858857;-0.21278404242273435;-0.9647379880547831;0.978;0.01311790265641514
59:14.2;0.0625461968653642;-0.2116121805395212;-0.9687140290878619;0.991;0.012821450474318711
59:14.2;0.061044124120458614;-0.21042384780164586;-0.9728468946654508;1.0070000000000001;0.01249635405768635
59:14.2;0.05943418919657325;-0.20932664482039917;-0.9769779873172935;1.008;0.012154738882365644
59:14.2;0.057763284203174295;-0.20841239784441484;-0.9809515478194978;1.008;0.01180926816568459
59:14.2;0.05608378534774796;-0.20774801975951393;-0.9846278746109546;1.0070000000000001;0.011472190173599356
59:14.2;0.05445023316209977;-0.20737052902885458;-0.9878906741945516;1.015;0.01115464273417066
59:14.2;0.05291715666584669;-0.20728678920295807;-0.9906493743127208;1.014;0.010866460228716525
59:14.3;0.0515386429890384;-0.2074765522302442;-0.9928381163572357;1.016;0.010616477502815547
59:14.3;0.05036921146024343;-0.20789659873886956;-0.9944126498184371;1.016;0.010413079316062243
59:14.3;0.049464563333313;-0.20848485001346978;-0.9953460973984014;1.014;0.010264618175397195
59:14.3;0.048880571702718506;-0.20916495871905577;-0.9956247574732667;1.015;0.01017936983315938
59:14.3;0.04866949840620496;-0.20985245118589496;-0.9952453083142611;1.016;0.010164851906095456
59:14.3;0.04887324435872073;-0.21046278524327508;-0.9942145356789658;1.018;0.01022648985062942
59:14.3;0.04951436031267528;-0.21092054326535697;-0.9925517995965234;1.018;0.010365809782309186
59:14.3;0.05058667127897846;-0.21116819839759018;-0.9902932627066747;1.023;0.010578605993651808
59:14.3;0.05204810372419483;-0.21117293131467785;-0.9874959070248107;1.015;0.010853716263391672
59:14.3;0.05381804638293253;-0.21093068636007095;-0.9842390401483635;1.0070000000000001;0.011172960977189077
