Time;AccX;AccY;AccZ;Acc-old;Acc-trns
52:42.7;0.12378440149448851;-0.360586283934707;-0.8548216680910106;0.937;0.03815492869195157
52:42.7;0.10260681745593754;-0.3443885368948961;-0.8792068969574396;1.018;0.031068192756116924
52:42.7;0.08224249348034944;-0.32889298759618135;-0.9020189031507305;1.018;0.024398690719011136
52:42.7;0.06344459143590232;-0.31472701707452316;-0.9218996147987896;1.046;0.018408239840893147
52:42.8;0.04685366861142998;-0.3024462185820821;-0.9378379296636052;1.0490000000000002;0.013289833922004531
52:42.8;0.03295095696561528;-0.2924959891945904;-0.9492613271879102;1.04;0.009149002269568097
52:42.8;0.022028588667402458;-0.2851788154789842;-0.956060776917447;1.0290000000000001;0.006006056808510717
52:42.8;0.014181660479516092;-0.28063138948989624;-0.9585528562643802;1.006;0.0038148669519562427
52:42.8;0.009323623327051766;-0.2788146086512438;-0.9573911132793133;0.966;0.0024887979297811705
52:42.8;0.007218788556801663;-0.27951785096563003;-0.9534459542609761;0.9520000000000001;0.0019238444292722081
52:42.8;0.007520174774548439;-0.28237823813378626;-0.9476768055481126;0.9570000000000001;0.002012423636412484
52:42.8;0.00980325859759354;-0.28691400013788326;-0.9410187434375682;0.9570000000000001;0.002646796021962479
52:42.8;0.013594161830227042;-0.29256826290513743;-0.9342972348281263;0.953;0.0037159059401036263
52:42.8;0.018396367672896423;-0.29875819897577827;-0.9281745347590855;0.9570000000000001;0.005101308199646178
52:42.9;0.023719402525808193;-0.3049248076142216;-0.9231257022439495;0.965;0.0066766305728646865
52:42.9;0.029109153912764554;-0.3105786120481976;-0.919440371854474;0.98;0.00831236675118414
52:42.9;0.03417663824239649;-0.31533617282540416;-0.9172443291449134;0.986;0.009885261655245465
52:42.9;0.03862113324540559;-0.31894295931856437;-0.9165321290575206;0.986;0.011289786426066357
52:42.9;0.04224391083815043;-0.3212801911057798;-0.9172012628882891;0.981;0.012448376378559832
52:42.9;0.044949934866292444;-0.3223560651732837;-0.9190812056855167;0.977;0.01331738017947076
52:42.9;0.04673704901859561;-0.3222844635024511;-0.9219553525902496;0.976;0.013887067529511507
52:42.9;0.04767524649859933;-0.3212560619768423;-0.9255774685759248;0.978;0.014176109284854289
52:42.9;0.04788133882469497;-0.31950727073089186;-0.9296854002557752;0.98;0.014222732490724989
52:42.9;0.04749496623313533;-0.3172914923792355;-0.9340141381457255;0.986;0.014075358359619856
52:43.0;0.04665998094697145;-0.3148551952930648;-0.9383092300611768;0.992;0.013784829835117871
52:43.0;0.045512334707172704;-0.3124193694993511;-0.9423405195707163;0.997;0.01339907851427899
52:43.0;0.04417353967142546;-0.3101660147164035;-0.9459151990280144;0.9990000000000001;0.012960107825784228
52:43.0;0.04274798209636541;-0.3082292425403283;-0.9488886142537171;1.002;0.012502725418028555
52:43.0;0.0413223262719997;-0.30669073603878144;-0.9511714297327212;1.005;0.0120543616598383
52:43.0;0.039965671927517384;-0.30557952204766153;-0.952732174342373;1.0070000000000001;0.011635423580427328
52:43.0;0.038729911419195524;-0.3048761345442581;-0.9535943631548746;1.004;0.011259876014069919
52:43.0;0.037650366880898685;-0.30452099511276093;-0.9538277620579133;1.001;0.01093594737388057
52:43.0;0.03674681267323639;-0.30442625352261143;-0.9535345357560908;0.998;0.010666899557201674
52:43.0;0.0360246718950608;-0.30448960869370206;-0.9528326212585936;0.995;0.010451752750405332
52:43.1;0.0354762112974025;-0.3046079507922502;-0.9518396994808545;0.9940000000000001;0.010285899634691372
52:43.1;0.035082041599960846;-0.304688554217942;-0.9506610596070509;0.9940000000000001;0.010161707837355044
52:43.1;0.03481343515854391;-0.3046564044953156;-0.9493835754679637;0.995;0.010069291301945792
52:43.1;0.03463553984654955;-0.30445756768197274;-0.9480763375311659;0.998;0.009997514484999097
52:43.1;0.03451103817811612;-0.30405943263010476;-0.9467967051354188;0.9990000000000001;0.009935122877762822
52:43.1;0.034403607276898625;-0.30344890520143286;-0.945599136806324;1.0;0.009871806260844383
52:43.1;0.03428062503647895;-0.3026295914009821;-0.9445434392528981;1.001;0.009799006800070977
52:43.1;0.03411500124690199;-0.301618945926986;-0.9436991327998719;0.998;0.009710409953799931
52:43.1;0.03388667958803156;-0.3004460817645998;-0.9431435381295272;0.9890000000000001;0.009602257639117585
52:43.1;0.033584534244194976;-0.29915035725503186;-0.9429531067858508;0.9890000000000001;0.009473685240667459
52:43.2;0.03320873154937938;-0.2977803570183037;-0.9431898830433671;0.985;0.009327117920430578
52:43.2;0.032772923341369595;-0.29639264812013394;-0.9438864272595274;0.983;0.009168585731530567
52:43.2;0.03230558842821222;-0.29504959147927873;-0.9450326044009335;0.981;0.00900781515850882
52:43.2;0.03184997943223576;-0.29381568770666516;-0.9465671986017221;0.982;0.008857998193274574
52:43.2;0.03146183004082105;-0.29275255424306235;-0.9483767215771123;0.9890000000000001;0.008735053293923824
52:43.2;0.031203767175070684;-0.2919130402236989;-0.9503025420803148;0.995;0.00865610300661169
52:43.2;0.031136340449261866;-0.29133474613039045;-0.9521554816053845;0.9990000000000001;0.008637095532739584
52:43.2;0.031307516822945754;-0.29103320741874444;-0.9537351195693912;0.997;0.008689983328377341
52:43.2;0.03174362823955361;-0.29099616279996876;-0.9548503729193818;0.998;0.008820214534218036
52:43.2;0.032443996209525074;-0.29118164873246205;-0.9553387172348236;1.0070000000000001;0.00902517686824857
52:43.3;0.03337983566195992;-0.29152206849042567;-0.9550825205035401;1.002;0.009293868598447998
52:43.3;0.03449727807651963;-0.2919338200556089;-0.954021475629923;0.9990000000000001;0.009607876029958145
52:43.3;0.03572461616188199;-0.2923298424374231;-0.9521607331786404;1.004;0.009943768182163895
52:43.3;0.03698355530691074;-0.29263193774472473;-0.9495751259543687;1.005;0.010276842752574853
52:43.3;0.0382022492334708;-0.2927802377555299;-0.9464094758044436;1.0;0.010585460909275202
52:43.3;0.039325714634974626;-0.29273805805037556;-0.9428736330393326;0.9990000000000001;0.010854486980365445
52:43.3;0.040319397979044685;-0.29249156380207325;-0.9392304711332008;0.992;0.011076423622075133
52:43.3;0.04116454316228933;-0.29204493750147137;-0.9357758631147628;0.981;0.011249800512838925
52:43.3;0.04184773093282342;-0.2914129363272624;-0.9328110672015021;0.97;0.011375603119894879
52:43.3;0.042349666498252204;-0.290613591287403;-0.9306101218193759;0.9570000000000001;0.011453380470286871
52:43.4;0.042638919097821984;-0.2896637481779159;-0.9293875538172749;0.9540000000000001;0.01147881839379683
52:43.4;0.042674334742284034;-0.28857894002143575;-0.9292733461799907;0.963;0.011443921606515833
52:43.4;0.04241565869956077;-0.2873771118535156;-0.9303009136271368;0.971;0.011339707153147117
52:43.4;0.04183759494580878;-0.2860839088399224;-0.9324097097334193;0.9790000000000001;0.011160070276543893
52:43.4;0.04094098019432492;-0.2847365993097242;-0.9354594870934604;0.981;0.010905021189961003
52:43.4;0.03975695801881542;-0.283384554604474;-0.9392509857078688;0.986;0.010582078594760323
52:43.4;0.03834383883049674;-0.28208604941611115;-0.9435482896774724;0.9890000000000001;0.010205665525091499
52:43.4;0.03677888853792781;-0.28090291552604535;-0.9480996458315043;0.993;0.009795099045747668
52:43.4;0.03514802829476903;-0.27989502543165723;-0.9526549854017217;0.996;0.00937198946436678
52:43.5;0.03353636810908746;-0.27911554984332015;-0.9569796460031965;0.996;0.008957828862030453
52:43.5;0.03202195574626828;-0.2786067853511102;-0.9608650113826382;0.997;0.008572390013669702
52:43.5;0.030673761280109672;-0.27839623648921563;-0.964137732905;1.003;0.00823321531476604
52:43.5;0.02955318021030312;-0.2784933010257762;-0.9666692041646247;1.01;0.00795603817335297
52:43.5;0.0287172145550101;-0.27888737494089805;-0.9683856116521103;1.016;0.007755673101255526
52:43.5;0.028221243394627827;-0.2795479288769679;-0.969276831318574;1.02;0.007646809221829986
52:43.5;0.028119505113503522;-0.2804264408848643;-0.9694009597427993;1.021;0.00764416545263426
52:43.5;0.02846199941850304;-0.2814596610198073;-0.9688811555863486;1.0170000000000001;0.007761614611048333
52:43.5;0.02928774321237814;-0.28257379711380276;-0.9678927831349936;1.01;0.008010231125260201
52:43.5;0.030615892778243562;-0.2836895781385538;-0.9666411847286558;1.003;0.008395674728636865
52:43.5;0.032437284706837;-0.2847282369109914;-0.9653330164999628;0.997;0.00891563318120621
52:43.6;0.03470894767749507;-0.2856179475724867;-0.96414609260257;0.9940000000000001;0.009558060744498826
52:43.6;0.0373533136338247;-0.286299560802917;-0.9632034124196514;0.991;0.010300725848928468
52:43.6;0.04026253085874195;-0.286730406938794;-0.9625563197858182;0.992;0.011112223596164894
52:43.6;0.04330686412161003;-0.28688560102220273;-0.9621800263016498;0.997;0.011954236011330478
52:43.6;0.04634540061759858;-0.2867569538247026;-0.9619825576779132;1.002;0.01278461919438071
52:43.6;0.04923743714227449;-0.28634988929252375;-0.9618256787143176;1.01;0.013560909777814349
52:43.6;0.05185332048318211;-0.2856790551566841;-0.9615537675010324;1.014;0.014243887889589423
52:43.6;0.054083522995142255;-0.28476374713302915;-0.9610247832599317;1.014;0.014800768313915311
52:43.6;0.05584469007004234;-0.283624497962086;-0.9601372794642605;1.014;0.015207539656317503
52:43.6;0.057081952773923604;-0.2822819513604672;-0.9588488384738127;1.012;0.01545012791415107
52:43.7;0.05776781758492087;-0.2807585480273363;-0.957183346565466;1.0090000000000001;0.015524373481423373
52:43.7;0.057898676199786815;-0.2790828989808199;-0.9552263082173692;1.002;0.015435053341154184
52:43.7;0.05749011659546482;-0.2772961706732493;-0.9531089831251295;0.9940000000000001;0.015194262477862777
52:43.7;0.05657205618446175;-0.27545920243466715;-0.9509839400018363;0.985;0.014819461828640003
52:43.7;0.05518456633621479;-0.273658364319764;-0.9489965382187446;0.977;0.014331478254296736
52:43.7;0.053375323418536416;-0.2720076396437996;-0.9472582330535292;0.973;0.013752764619657736
52:43.7;0.05119999878912183;-0.2706444159376268;-0.945827729475117;0.976;0.0131063289532117
52:43.7;0.04872689001368637;-0.2697173451777391;-0.9447042930354885;0.9790000000000001;0.012415764280470818
52:43.7;0.046045334500024945;-0.26936680691041065;-0.9438341253636217;0.9790000000000001;0.011706454625490328
52:43.7;0.043274150896511245;-0.2697014418150109;-0.9431272388051553;0.981;0.011007333156305296
52:43.8;0.04056436376567929;-0.2707761092407512;-0.9424805476884497;0.985;0.010352074948646752
52:43.8;0.038092077345283665;-0.27257643899836753;-0.9418028076102104;0.988;0.0097787411854771
52:43.8;0.036041542723565724;-0.275013527198256;-0.9410372684580549;0.9890000000000001;0.009327478396128849
52:43.8;0.034582520094403345;-0.27792989736579937;-0.9401783393302711;0.9890000000000001;0.009036539396231709
52:43.8;0.033848003516894716;-0.2811150380922255;-0.9392798358419078;0.987;0.008937419336508969
52:43.8;0.03391754367711419;-0.2843267853453675;-0.9384542704936305;0.983;0.009050139691559574
52:43.8;0.03480856511807629;-0.2873146470484308;-0.9378643953883857;0.983;0.009379591760732019
52:43.8;0.03647521547937787;-0.28984247315028283;-0.9377091567889447;0.992;0.00991352371629613
52:43.8;0.038813125063539296;-0.2917088262526575;-0.9382057476157323;0.992;0.010622488525332974
52:43.9;0.04166903295991085;-0.2927631131622857;-0.9395678302187284;0.99;0.011461934356598182
52:43.9;0.044854944603729435;-0.29291549310887804;-0.9419790489971596;0.987;0.01237638787127522
52:43.9;0.04816584895551582;-0.29214003121317367;-0.9455620810246954;0.982;0.013305167262446746
52:43.9;0.0513985478939699;-0.29047230012310216;-0.9503460917483307;0.976;0.014188528807683336
52:43.9;0.05436866603947854;-0.28800314230102875;-0.9562382127991593;0.973;0.014973109427541887
52:43.9;0.05692399950570878;-0.28486988749193676;-0.9630065463031734;0.98;0.015616049955811227
52:43.9;0.05895367004615516;-0.28124591762156315;-0.9702820286929654;0.998;0.016087740829240447
52:43.9;0.0603928303030628;-0.2773292175327828;-0.9775832109092992;1.014;0.01637324437841116
52:43.9;0.06122249827855947;-0.27333025343960643;-0.9843624198585335;1.0270000000000001;0.016472282314921274
52:43.9;0.06146483334932586;-0.26945942258350536;-0.9900664983937046;1.046;0.016397757083382297
52:44.0;0.061175450432289086;-0.26591445743169034;-0.994202331797792;1.055;0.01617312350929734
52:44.0;0.06043450990843292;-0.26286816351435205;-0.9963966486989869;1.055;0.015829064681640387
52:44.0;0.059337231682637485;-0.2604568794163505;-0.9964408315487234;1.054;0.01539978399557356
52:44.0;0.057983694670510434;-0.2587705315682022;-0.9943145849404456;1.047;0.014919164843994043
52:44.0;0.05646771693087794;-0.25784580662156975;-0.9901862786209522;1.032;0.014417076589938268
52:44.0;0.05486471295714718;-0.25766398708872046;-0.9843915257963763;1.021;0.013916008987295609
52:44.0;0.053219186910966304;-0.25815404710800943;-0.9773947443994717;1.0070000000000001;0.013428180563731844
52:44.0;0.051534489393852065;-0.25920015518241085;-0.9697405121301739;0.995;0.01295354904520589
52:44.0;0.049769185651655216;-0.2606518007326561;-0.962001879815422;0.987;0.012479499988149888
52:44.0;0.04784361561433141;-0.26233501201136933;-0.9547317165023244;0.982;0.011982890739331734
52:44.0;0.045656792098101584;-0.26406409487539406;-0.9484212073404541;0.978;0.011434469077587639
52:44.1;0.0431100126168161;-0.26565377710543797;-0.9434674265141854;0.975;0.010804907561087535
52:44.1;0.04013188373528182;-0.2669309840774479;-0.9401502835447731;0.971;0.010071306529180106
52:44.1;0.036700015835304405;-0.26774469729469474;-0.9386185416058191;0.9690000000000001;0.009223086018388496
52:44.1;0.03285569175404685;-0.26797297307400275;-0.9388846904093118;0.9690000000000001;0.008266351484156066
52:44.1;0.02870845465141984;-0.26752791980615354;-0.9408285912883494;0.97;0.007225858205090011
52:44.1;0.024428979593819528;-0.266360248483487;-0.9442097778431912;0.9740000000000001;0.006143887171970119
52:44.1;0.02023165177003524;-0.2644640191948282;-0.9486882608301146;0.98;0.005075998226882011
52:44.1;0.01635131193522349;-0.26188059232565386;-0.9538535234117836;0.991;0.0040844878310551105
52:44.1;0.013019206904862465;-0.258700001099718;-0.959260545278365;1.001;0.003230855552574184
52:44.2;0.010441260611878412;-0.25505835062841425;-0.9644700354127672;1.0070000000000001;0.0025685097703244354
52:44.2;0.008779715477909351;-0.25113083225004573;-0.9690885274939746;1.013;0.0021367018704718647
52:44.2;0.008138766228383849;-0.24712069874414425;-0.9728037195538712;1.0170000000000001;0.001956558871608604
52:44.2;0.008555569457525636;-0.24324488256919605;-0.9754113156534742;1.0190000000000001;0.002029927014192752
52:44.2;0.009998484701833633;-0.23971720781574957;-0.9768307477029003;1.0170000000000001;0.0023412765665034173
52:44.2;0.012373679561510014;-0.2367303255901924;-0.9771082170185668;1.016;0.0028621700039609585
52:44.2;0.015539423780861655;-0.23443730413820493;-0.9764067091920086;1.011;0.0035570697741616492
52:44.2;0.019325262539356132;-0.23293374598546365;-0.9749839758872435;0.9990000000000001;0.004388896017922217
52:44.2;0.02355165571122782;-0.23224257860169328;-0.9731609196720468;0.9890000000000001;0.005322895608779646
52:44.2;0.028045483919358072;-0.23230602800910222;-0.9712845036411201;0.983;0.006328049638307323
52:44.3;0.03264875130771711;-0.23298998130470577;-0.9696907568890277;0.987;0.007376274637723822
52:44.3;0.03722118411332334;-0.2341027436662609;-0.9686734252853921;0.991;0.008440614667075606
52:44.3;0.04163981999084799;-0.23542488810024562;-0.9684617036517121;0.996;0.009493878467045554
52:44.3;0.04579823816223025;-0.23674344026343735;-0.9692073466410563;1.0;0.010508565196205756
52:44.3;0.04960580491109802;-0.2378835169981162;-0.9709791493086319;1.003;0.01145794559246899
52:44.3;0.05298584003976164;-0.23873223708999416;-0.9737621873800532;1.0070000000000001;0.012317534801844814
52:44.3;0.05587224279579672;-0.23925160931831607;-0.9774598125739933;1.0090000000000001;0.013066217508621053
52:44.3;0.05820606060386164;-0.23947859343747394;-0.9818973879629745;1.011;0.013686771303524043
52:44.3;0.05993482806946031;-0.23951202618100068;-0.9868276768653201;1.013;0.01416602193438248
52:44.3;0.06101652155549205;-0.239488556975198;-0.991938506147401;1.013;0.01449495803454959
52:44.4;0.061427148895459305;-0.23955258157323245;-0.9968639388938513;1.015;0.014668884856756763
52:44.4;0.06116889140539586;-0.23982638298523043;-1.0012008774600305;1.0190000000000001;0.014687530746007971
52:44.4;0.06027551738623494;-0.24038622705404164;-1.0045332869061334;1.023;0.014555088834582047
52:44.4;0.05881254840031077;-0.24124944347799743;-1.0064653675457906;1.034;0.014280228403421361
52:44.4;0.05687109055344987;-0.24237583944668384;-1.0066629976767747;1.048;0.013876022261217489
52:44.4;0.054556576248504636;-0.24368276200591704;-1.0048998751955343;1.061;0.013359638562819931
52:44.4;0.05197589900681723;-0.24506821284616664;-1.0011013516208895;1.069;0.012751669301883517
52:44.4;0.04922707190660904;-0.24643368662223186;-0.9953761443350926;1.065;0.012075115852977845
52:44.4;0.0463939493139872;-0.24769964506395448;-0.9880259651808451;1.028;0.011354161986602143
52:44.4;0.043545735297139745;-0.2488111030543264;-0.9795273227867294;1.028;0.010612847885895829
52:44.5;0.04073921219754701;-0.24973561000616754;-0.9704869328200255;1.003;0.009873765119142681
52:44.5;0.03802185859365107;-0.250457894502828;-0.9615777125668341;0.982;0.009156984021517347
52:44.5;0.035435153805251654;-0.25097454277056586;-0.953464443959761;0.9640000000000001;0.008479465862100822
52:44.5;0.03301804843447722;-0.25129035862936633;-0.9467292371011252;0.953;0.007855123467513332
52:44.5;0.030810445006055155;-0.2514167840894592;-0.9418074473105649;0.948;0.007295488182026169
52:44.5;0.02885595246730663;-0.25137194295022613;-0.9389430427069907;0.948;0.006810695506204386
52:44.5;0.027202781934022133;-0.25118138803487644;-0.9381688419113947;0.9520000000000001;0.006410350576576373
52:44.5;0.025901770472083148;-0.2508785886216648;-0.9393130817735544;0.9620000000000001;0.006103843909950959
52:44.5;0.02500117303159684;-0.2505044060498483;-0.9420300629178819;0.981;0.005899843849950212
52:44.5;0.024538894634068015;-0.25010499558052696;-0.9458491043670129;0.981;0.005804959834979796
52:44.6;0.02453366185815386;-0.24972795386914046;-0.9502335545336771;0.991;0.005821835046094927
52:44.6;0.024976555584325953;-0.2494171891376281;-0.9546416812828494;1.001;0.005947018909280218
52:44.6;0.025823539790796452;-0.24920731379594646;-0.9585832273967966;1.01;0.006168880864968907
52:44.6;0.02698925709459746;-0.2491179843180968;-0.9616667894566263;1.011;0.006465775627078573
52:44.6;0.028343103843421563;-0.24914823106736195;-0.9636336813595482;1.011;0.00680482854663312
52:44.6;0.029709874770474914;-0.2492713218073271;-0.964375217991697;1.0070000000000001;0.007141989040410102
52:44.6;0.030878124138595038;-0.24943180343829205;-0.9639326950695721;1.0;0.007424196306171974
52:44.6;0.031619137591946817;-0.24954697336435933;-0.9624817805581578;0.995;0.007594424073440602
52:44.6;0.03171726538196507;-0.24951453646642183;-0.960304889380253;0.992;0.0075997748887620484
52:44.6;0.03100808324927587;-0.24922651703025797;-0.9577560212552915;0.992;0.007401573574639453
52:44.7;0.02941624359306298;-0.24858722544799366;-0.955222202041609;0.9890000000000001;0.0069850646238539035
52:44.7;0.026982974310525452;-0.24753179022596333;-0.9530843260549547;0.983;0.00636578739753904
52:44.7;0.023875021541120353;-0.24604206954943794;-0.9516790881844719;0.9740000000000001;0.005590410125061374
52:44.7;0.02037109301782;-0.24415743493775924;-0.9512641158372954;0.9670000000000001;0.004731353528176237
52:44.7;0.016827035127797752;-0.24197830705161552;-0.9519901039433241;0.9620000000000001;0.003876291859681638
52:44.7;0.013625806450910929;-0.2396611427009118;-0.9538850219645882;0.97;0.003114984362858869
52:44.7;0.01112178634932316;-0.23740492267639846;-0.9568546313191233;0.981;0.0025264472280253974
52:44.7;0.009590641035457327;-0.23543027518522586;-0.9607001311418337;0.992;0.0021691910130426676
52:44.7;0.00919485875351084;-0.23395327136279545;-0.9651490009959626;1.0070000000000001;0.0020761969561920645
52:44.7;0.009970267148694765;-0.23315745864581025;-0.9698913507267019;1.0070000000000001;0.0022546503152168756
52:44.8;0.011832611600933157;-0.233169241393442;-0.9746132286265082;1.0070000000000001;0.0026889589412919276
52:44.8;0.014599750167628073;-0.2340413760251266;-0.9790210351616623;1.0070000000000001;0.0033452616368622808
52:44.8;0.018024600541787797;-0.23574693185307824;-0.9828559330105796;1.011;0.004176394947088442
52:44.8;0.02183313766550793;-0.23818364205497164;-0.98590079944284;1.01;0.0051269762269199794
52:44.8;0.025759607117176116;-0.24118728046905424;-0.987983348094432;1.013;0.006138231455053786
52:44.8;0.029571052565428337;-0.24455157639673808;-0.988978704475678;1.022;0.007151945396134193
52:44.8;0.03307712047337301;-0.24805059935627374;-0.9888138131521519;1.022;0.008113019137490445
52:44.8;0.03612648752115985;-0.251458745282374;-0.9874743450249366;1.024;0.008970534150201612
52:44.8;0.03859495847691425;-0.25456484659677614;-0.9850128304201848;1.026;0.009677671946671181
52:44.8;0.04037151720230201;-0.2571800632352452;-0.9815554741230715;1.026;0.010191244457986586
52:44.9;0.04134820380296804;-0.25914209749733824;-0.9773044142154254;1.022;0.010471875691902503
52:44.9;0.04141810442345269;-0.26031923376588506;-0.9725320866601291;1.016;0.010485772110439051
52:44.9;0.04048289803667555;-0.26061656524129273;-0.9675654755052301;1.0070000000000001;0.010208312937842504
52:44.9;0.03846783643621312;-0.2599845548600039;-0.9627603405858566;0.995;0.009628607884815501
52:44.9;0.035339373122907775;-0.2584278921245662;-0.9584682951622951;0.985;0.00875338394726474
52:44.9;0.031120354254430774;-0.25601110587640685;-0.9550020348419026;0.978;0.0076086504859884585
52:44.9;0.025899339831753857;-0.2528572049648082;-0.9526050786064472;0.9740000000000001;0.006238453175399241
52:44.9;0.01983236577414641;-0.24913741226745967;-0.9514312780975447;0.977;0.004701006996298831
52:44.9;0.013136361587446755;-0.2450533987361988;-0.951536409477531;0.977;0.003063100422526131
52:44.9;0.0060745435489839555;-0.2408162506721059;-0.952880882984356;0.9790000000000001;0.0013939206581326052
52:45.0;-0.0010639599152993753;-0.2366268644783593;-0.9553407063226771;0.98;0.0002405180079814037
52:45.0;-0.007986559090931971;-0.23266090279881294;-0.9587238281372205;0.986;0.0017814623148479588
52:45.0;-0.014418088910900469;-0.22905942158684645;-0.9627897665734338;0.993;0.003179708622658103
52:45.0;-0.020117305323168064;-0.22592460293101996;-0.9672707618904623;0.997;0.004396240019238321
52:45.0;-0.024887319310114203;-0.2233191396813378;-0.9718925308295288;1.003;0.005401598630925333
52:45.0;-0.028580097430283394;-0.22126823633143536;-0.9763926433912131;1.0070000000000001;0.006174577951397445
52:45.0;-0.03109696039358304;-0.21976429569359626;-0.980534861906543;1.0070000000000001;0.006700976814249903
52:45.0;-0.03238767149424621;-0.21877474153681653;-0.9841185326126398;1.01;0.0069730746639796995
52:45.0;-0.03245022380512131;-0.21825273204775805;-0.9869832946358157;1.011;0.006990161137779498
52:45.0;-0.03133234696307363;-0.21814934827881008;-0.9890104881164318;1.013;0.006760016315920115
52:45.1;-0.029134157773765643;-0.21842474070722093;-0.990123087554571;1.016;0.006300767931413007
52:45.1;-0.02600963919037915;-0.2190552246630803;-0.9902856387420396;1.018;0.005642199322951172
52:45.1;-0.02216381058920708;-0.2200339180875769;-0.9895047998316642;1.014;0.004825607195586836
52:45.1;-0.017843500382593837;-0.2213643453548161;-0.9878301946707848;1.014;0.0039018450870791552
52:45.1;-0.01332223814628243;-0.2230490427114257;-0.9853547217223563;1.018;0.002927993838342101
52:45.1;-0.008881879431260113;-0.22507707512246727;-0.9822129358775469;1.011;0.001963549191684712
52:45.1;-0.0047933692441194916;-0.22741404990997968;-0.97857575505715;1.002;0.0010667253820357586
52:45.1;-0.0012975903898883032;-0.22999655589682722;-0.9746405912244499;0.997;0.00029087302519352823
52:45.1;0.0014132361635742611;-0.23273191329947482;-0.970618042606294;0.995;0.00031924127900388656
52:45.2;0.003212404274455359;-0.23550363723199316;-0.9667176814091318;0.992;0.0007313537221946397
52:45.2;0.00405177209316786;-0.2381819817459694;-0.9631351327179325;0.991;0.0009294823308446457
52:45.2;0.003968364858031111;-0.24063763212657394;-0.9600414464007893;0.99;0.000916779984676757
52:45.2;0.003081814427975521;-0.24275594585526147;-0.9575748036849394;0.99;0.0007163892662052966
52:45.2;0.0015810169142754817;-0.24444917502741262;-0.9558340505216476;0.987;0.0003694091001924431
52:45.2;-0.0002992931345848893;-0.2456646780726367;-0.9548734035402645;0.983;7.020778463722901e-05
52:45.2;-0.0023088308410796005;-0.24638818083778483;-0.9546981836086552;0.98;0.0005430978485326696
52:45.2;-0.004213941021519594;-0.24664217984074377;-0.9552624790798157;0.982;0.000992838301152582
52:45.2;-0.005826045638996684;-0.24648015210925742;-0.9564703764954238;0.983;0.0013734958750407367
52:45.2;-0.007021318675929484;-0.2459776026832818;-0.9581821257965056;0.985;0.0016548640230063106
52:45.2;-0.0077483855542474335;-0.24522147656483825;-0.9602256439359163;0.9890000000000001;0.0018244964641386243
52:45.3;-0.008023404968478668;-0.24429981570328912;-0.9624127370487982;0.996;0.0018864409462576396
52:45.3;-0.007914411273824615;-0.24329333257158997;-0.9645583755092865;1.001;0.0018572798135232083
52:45.3;-0.007518913272202844;-0.242269953801769;-0.9665002589949429;1.004;0.0017605834160513132
52:45.3;-0.006940189344795029;-0.24128278888078106;-0.9681153142318691;1.006;0.0016211557960217726
52:45.3;-0.006267684501537612;-0.2403713316475623;-0.9693302006570326;1.0070000000000001;0.001460365419167255
52:45.3;-0.005564909890908678;-0.23956474325167368;-0.9701241269500357;1.006;0.0012933270035713831
52:45.3;-0.004865383239884818;-0.23888527100825452;-0.9705236923379573;1.001;0.0011280090130568298
52:45.3;-0.004175220385399835;-0.23835016306508627;-0.9705907897239957;0.997;0.0009658974588384135
52:45.3;-0.0034804308454154434;-0.2379718179204822;-0.9704058903328419;0.991;0.0008037332981848217
52:45.3;-0.0027569222139653604;-0.23775705825036417;-0.9700501409186185;0.991;0.0006358462502097455
52:45.4;-0.001981118184566396;-0.2377064026537604;-0.9695901402777181;0.99;0.0004566037296033578
52:45.4;-0.0011391775116314346;-0.23781358955065082;-0.9690686135702438;0.9890000000000001;0.00026253221272019216
52:45.4;-0.0002332617069788501;-0.23806527863468385;-0.9685027890970878;0.9940000000000001;5.3782425481602114e-05
52:45.4;0.0007160995086262607;-0.23844081075538354;-0.9678906763032259;0.9990000000000001;0.00016526476556975514
52:45.4;0.0016718568120654817;-0.23891190336060397;-0.9672236115073073;1.005;0.0003863347352042806
52:45.4;0.002585935876322303;-0.2394423937845538;-0.966501374859296;1.0070000000000001;0.0005984409080296297
52:45.4;0.0034067842756560127;-0.23998862510736274;-0.9657448046380832;1.004;0.0007895827871822922
52:45.4;0.0040867914138903675;-0.24050130208731826;-0.9650012747827768;1.0;0.0009484791563826919
52:45.4;0.004587752082945203;-0.24092920990077338;-0.9643408546590247;0.99;0.0010659085937797324
52:45.4;0.004883668231135258;-0.24122419008175286;-0.9638444740735425;0.99;0.001135465574087008
52:45.5;0.004961358115390234;-0.24134591204543182;-0.9635882553795689;0.987;0.001153803948917178
52:45.5;0.0048199119094550925;-0.2412650688622422;-0.9636288185098666;0.987;0.0011205811909227143
52:45.5;0.004469866743823257;-0.24096463389979686;-0.9639929326267765;0.987;0.0010382973184550604
52:45.5;0.003932384046539915;-0.24043991079678606;-0.9646730171808167;0.9890000000000001;0.0009121003340086691
52:45.5;0.003238199388440446;-0.23969854510704533;-0.9656286948690072;0.996;0.0007495129610274991
52:45.5;0.002426038581525553;-0.23876118506037197;-0.966793527581362;1.0;0.0005600092019072115
52:45.5;0.0015404062185888749;-0.2376624092939991;-0.9680849410154836;1.0;0.0003544126569203374
52:45.5;0.0006288003984890637;-0.23645076212321134;-0.9694147188989141;1.002;0.0001441329036534654
52:45.5;-0.00026148653386717243;-0.23518689658772116;-0.9706978521772821;1.002;5.969617686494429e-05
52:45.6;-0.0010866092897227587;-0.2339395724741452;-0.971858567436131;1.001;0.000247047334842201
52:45.6;-0.0018089811524338469;-0.23277987741934422;-0.9728333624486815;0.998;0.00040965469168117443
52:45.6;-0.0023994332383942244;-0.23177443426602476;-0.9735717832282472;0.997;0.0005414298290427116
52:45.6;-0.0028388009020662887;-0.2309786918532775;-0.9740364619747914;1.0;0.0006386781615113158
52:45.6;-0.0031189191423258216;-0.23043143423227766;-0.9742040097938397;1.003;0.000700157510158
52:45.6;-0.0032426936176419394;-0.23015120681074708;-0.9740673400107484;1.003;0.0007269560498462181
52:45.6;-0.0032230219744966734;-0.23013486293180618;-0.973638579793723;1.002;0.0007221766714899672
52:45.6;-0.003080961001950735;-0.23035827585072233;-0.9729510296186907;1.005;0.0006905275375373897
52:45.6;-0.0028439213316285065;-0.23077915174777122;-0.9720588107194538;1.004;0.0006379794539984192
52:45.6;-0.002544343226398883;-0.23134149907021145;-0.9710332399791151;0.9990000000000001;0.0005715619884925145
52:45.7;-0.002218777808223678;-0.23198100154070356;-0.969955514731079;0.996;0.0004992499719996048
52:45.7;-0.0019070797132335524;-0.23263062095895573;-0.9689064057542007;0.992;0.00042985061600052334
52:45.7;-0.001651262395773703;-0.2332259557367066;-0.967954997069081;0.9890000000000001;0.0003727761670077441
52:45.7;-0.0014933698368599737;-0.23371003588106917;-0.9671492156907884;0.987;0.00033755008464873213
52:45.7;-0.0014719548815301047;-0.23403745247645902;-0.9665107254522829;0.9890000000000001;0.0003329557643559965
52:45.7;-0.0016174263145576349;-0.2341777177343553;-0.966035911122031;0.9940000000000001;0.00036590078792983623
52:45.7;-0.001947001732907047;-0.23411723744588495;-0.9657031656422068;0.998;0.0004401932553162228
52:45.7;-0.0024601507008617167;-0.2338588620662904;-0.9654847289996088;1.0;0.0005554704400825105
52:45.7;-0.0031355240218084402;-0.23341853209110328;-0.9653597749099878;0.9990000000000001;0.0007065366004474017
52:45.7;-0.003930332576257874;-0.2328198421796291;-0.9653251543748079;1.0;0.0008833298663340987
52:45.7;-0.004782835742962712;-0.23208837361681406;-0.9654010990004107;0.998;0.0010716343851130473
52:45.8;-0.005618242499243416;-0.23124771920868864;-0.9656304936207607;0.996;0.0012545527031206666
52:45.8;-0.006357866942456235;-0.23031830351021543;-0.9660715721474629;0.995;0.001414650607240355
52:45.8;-0.006930466024758561;-0.2293188295395436;-0.9667850443104461;0.991;0.0015364982810367278
52:45.8;-0.007283562437382027;-0.22826912373463168;-0.9678176790263889;0.988;0.001609105688845462
52:45.8;-0.007392117146279141;-0.22719282339530708;-0.9691852008746515;0.986;0.0016276844834164264
52:45.8;-0.007262581938975494;-0.22611872291151888;-0.9708579837596246;0.9840000000000001;0.0015943485663550653
52:45.8;-0.006931549688520158;-0.22508030470672827;-0.9727532779440328;0.9840000000000001;0.0015176461977232448
52:45.8;-0.0064592271479030515;-0.2241136836925454;-0.9747372856841515;0.9940000000000001;0.0014110308546191283
52:45.8;-0.005918715152305782;-0.22325460995039306;-0.9766388079326169;1.004;0.0012905114204186808
52:45.8;-0.005382841809211614;-0.2225352595821672;-0.9782731366909094;1.011;0.0011718460959393268
52:45.9;-0.004911044849931387;-0.22198150538941488;-0.9794714262520942;1.018;0.0010677816756925653
52:45.9;-0.004539045952272308;-0.22161119671310148;-0.9801088686075048;1.018;0.0009858948486134813
52:45.9;-0.004273281381507987;-0.221433514465602;-0.9801254663037846;1.0170000000000001;0.0009274414825187982
52:45.9;-0.004090727552068803;-0.22144899736245266;-0.979535360637931;1.014;0.0008873488535938007
52:45.9;-0.003944003095188716;-0.22164985639644902;-0.9784233737978099;1.0070000000000001;0.0008553256980177411
52:45.9;-0.003771415084846577;-0.2220205405819389;-0.9769299126090983;0.9990000000000001;0.0008180143023426184
52:45.9;-0.0035108943061110905;-0.22253865853533442;-0.9752275351877966;0.992;0.0007619547418641699
52:45.9;-0.003115290837599835;-0.22317619463429894;-0.9734941104384476;0.9890000000000001;0.0006768303025560629
52:45.9;-0.0025652437257731838;-0.2239007460769232;-0.9718879595320606;0.988;0.0005582135529544279
52:45.9;-0.0018759815424194768;-0.2246764939971473;-0.9705293409331215;0.988;0.00040906739843868297
52:46.0;-0.0010961884091927818;-0.2254648811465264;-0.9694906538446133;0.99;0.00023961154379547144
52:46.0;-0.000299369840554306;-0.22622533807672765;-0.9687956578205359;0.992;6.561172796133286e-05
52:46.0;0.0004300853897111571;-0.22691659149373544;-0.9684264063956795;0.995;9.451213283973898e-05
52:46.0;0.0010128408387270191;-0.22749892616011066;-0.9683355385822588;1.002;0.00022312407154799393
52:46.0;0.0013889798866547078;-0.22793728534592111;-0.9684608468361754;1.002;0.00030661499926048895
52:46.0;0.0015280590842394115;-0.2282045526595189;-0.9687387158924186;0.9990000000000001;0.0003378089161321854
52:46.0;0.0014333246193461565;-0.2282842673964752;-0.969113691322714;0.997;0.00031709929180965987
52:46.0;0.0011395498338649772;-0.22817259637822382;-0.9695431845538584;0.998;0.0002520948445348372
52:46.1;0.0007050783745880228;-0.22787991492643508;-0.9699980433333918;0.998;0.0001558526896331748
52:46.1;0.00020027534281812342;-0.22743196440147942;-0.9704603446540495;0.998;4.4203512444542336e-05
52:46.1;-0.0003042059090066202;-0.22686959752584085;-0.9709195003708646;0.997;6.700807936150423e-05
52:46.1;-0.0007463667015437253;-0.22624587227785845;-0.9713674522616841;0.995;0.00016402742511788043
52:46.1;-0.001077879424455028;-0.22562023004834023;-0.9717938093321586;0.992;0.00023633190060809412
52:46.1;-0.0012657831432791966;-0.2250508707684372;-0.9721821261941411;0.992;0.0002769412433255355
52:46.1;-0.0012921370950846004;-0.224587153752123;-0.97250872948443;0.996;0.00028221949742403453
52:46.1;-0.0011527470717414194;-0.22426361332864192;-0.9727450471363053;0.9990000000000001;0.00025147329431018044
52:46.1;-0.000855661649005728;-0.22409640792082486;-0.9728631523066715;1.0;0.00018654719234421856
52:46.1;-0.0004197297925946036;-0.2240823436542847;-0.972842936971842;1.002;9.14998042525743e-05
52:46.1;0.00012682044456329724;-0.22420034711119513;-0.9726788451256683;1.002;2.7656360167386323e-05
52:46.1;0.0007480524874711671;-0.2244151845826659;-0.972384392367027;1.002;0.00016323838522965317
52:46.2;0.0014026288543611425;-0.22468297211482852;-0.97199324833551;1.002;0.0003063205810526737
52:46.2;0.0020470602139218198;-0.22495765430757703;-0.9715562372782551;1.0;0.0004474034581990981
52:46.2;0.0026398140107264717;-0.22519743713331353;-0.9711342999263334;0.9940000000000001;0.0005773192871150873
52:46.2;0.003145696269914651;-0.2253701960994474;-0.9707884163026811;0.992;0.000688236744393517
52:46.2;0.0035396746815267973;-0.22545711208819547;-0.9705686022369971;0.991;0.0007745572565622471
52:46.2;0.003809421414424563;-0.2254541693840639;-0.9705046915419331;0.992;0.0008335178968991902
52:46.2;0.0039561526710882085;-0.2253714870194338;-0.9706011163653595;0.993;0.0008653918478103299
52:46.2;0.003993711829947253;-0.2252306628004027;-0.9708366060836834;0.9940000000000001;0.0008732737041132174
52:46.2;0.003946153669152059;-0.22506056043595887;-0.9711684750988381;0.998;0.0008625175999156862
52:46.2;0.0038442247458061484;-0.2248922769060812;-0.9715403503181835;1.0;0.000839932051347471
52:46.3;0.0037212216699961734;-0.22475416324878192;-0.9718916194223227;0.9990000000000001;0.0008128513357607925
52:46.3;0.0036088647648196376;-0.224667728281624;-0.972166652627626;0.9990000000000001;0.0007882282970247127
52:46.3;0.0035338821110760792;-0.2246451599792512;-0.9723223140461;1.002;0.0007718970411437153
52:46.3;0.00351573982828629;-0.22468887753181316;-0.9723330349093339;1.001;0.0007680921820508508
52:46.3;0.0035654564706587006;-0.22479286225730163;-0.9721930949234161;0.9990000000000001;0.0007792022321539681
52:46.3;0.0036851087932590473;-0.22494492576108144;-0.9719160448586475;0.997;0.0008056664269287827
52:46.3;0.003867797805368422;-0.22512905555828636;-0.971531860856958;0.997;0.0008459649304611652
52:46.3;0.00409822162645793;-0.2253275081946337;-0.9710828985640407;0.998;0.0008967387991940087
52:46.3;0.004354002486298319;-0.22552283912170923;-0.9706194152361713;0.997;0.0009530774127313921
52:46.4;0.004607562228696503;-0.225699963365735;-0.9701947765075228;0.997;0.001008931380711816
52:46.4;0.0048282257847197165;-0.2258477400639577;-0.9698601524024866;0.997;0.001057578069580432
52:46.4;0.00498445902543599;-0.22595931990488194;-0.9696585894832674;0.993;0.0010921118968027276
52:46.4;0.005046300702508441;-0.22603104717703304;-0.9696186992140212;0.991;0.0011059670936498895
52:46.4;0.004988109053044432;-0.22606045498994215;-0.9697489187930972;0.9890000000000001;0.0010935026532737768
52:46.4;0.0047918850235227385;-0.22604409470390452;-0.9700340873375874;0.9890000000000001;0.0010507189153360773
52:46.4;0.004451294724514626;-0.2259758222785668;-0.9704362130119164;0.992;0.0009761472161283457
52:46.4;0.003975798497106025;-0.22584629448648855;-0.9709004353580863;0.998;0.0008717902957892856
52:46.4;0.0033935319192079567;-0.22564447460199274;-0.9713655908190583;1.003;0.0007438054513623193
52:46.4;0.002751481527106671;-0.22536124544322056;-0.9717770644840802;1.0070000000000001;0.0006025769020037916
52:46.4;0.0021121015395665042;-0.22499413876007282;-0.9720984381437483;1.0070000000000001;0.00046195135263251726
52:46.5;0.0015463707903281968;-0.22455159763826973;-0.9723184030604484;1.004;0.00033762787291583137
52:46.5;0.001124044824105064;-0.2240553007258063;-0.9724507063555065;1.0;0.0002449099610483661
52:46.5;0.0009025929097673291;-0.22353963169952484;-0.9725271156126899;0.995;0.0001962222122311978
52:46.5;0.0009170775578883687;-0.22304817891414996;-0.9725855905269492;0.991;0.0001989447937862449
52:46.5;0.0011735277477924733;-0.22262792582039798;-0.9726572269522787;0.9890000000000001;0.0002541164741743287
52:46.5;0.001647643878530005;-0.22232226908104485;-0.9727557866316084;0.9890000000000001;0.00035632815442564577
52:46.5;0.002289184914623833;-0.222164217566991;-0.9728728453156921;0.993;0.0004947787833966799
52:46.5;0.0030308426847325035;-0.22217119466671859;-0.972979967210031;0.998;0.000655171570332379
52:46.5;0.0037993307031824134;-0.222342674613945;-0.9730371153197747;1.002;0.0008219763631213964
52:46.6;0.004526082148086302;-0.22266126364967326;-0.9730044755300831;1.004;0.0009805775352361918
52:46.6;0.005155505980691889;-0.22309680664254586;-0.9728540016126401;1.005;0.001118954220078464
52:46.6;0.005649901243054866;-0.2236120382350002;-0.97257758521584;1.003;0.0012287408397046303
52:46.6;0.005991075357005214;-0.22416791588390886;-0.9721902037354486;1.0;0.0013056581290608498
52:46.6;0.006178926787209753;-0.2247274531869949;-0.9717278727037958;1.0;0.001349316525850722
52:46.6;0.006227288079036147;-0.22525800845306712;-0.9712412394327764;0.996;0.0013624052597081212
52:46.6;0.006158083490285849;-0.2257325151824133;-0.970786220677805;0.992;0.0013494701941008079
52:46.6;0.00599589474587146;-0.22612987954479694;-0.9704135902023887;0.99;0.001315736194619347
52:46.6;0.005764846363571035;-0.2264345868643683;-0.9701599065271954;0.991;0.001266408522212641
52:46.6;0.005488105968124268;-0.22663596467374916;-0.9700420257953567;0.9940000000000001;0.00120654039638439
52:46.7;0.005188827802341401;-0.2267278707820079;-0.9700563022829095;0.9940000000000001;0.0011412245600215185
52:46.7;0.00489118711695966;-0.2267091534234964;-0.9701820750085668;0.997;0.0010758124825755227
52:46.7;0.004620691059425886;-0.22658454564175579;-0.9703880563340805;1.0;0.0010159741548513958
52:46.7;0.004403292634104063;-0.22636540724700308;-0.9706398228888039;1.002;0.000967488281903577
52:46.7;0.004263073538660372;-0.226069794000093;-0.9709063982290699;1.0;0.0009357131352395201
52:46.7;0.004218841695587798;-0.2257214210221533;-0.9711641372089895;0.9990000000000001;0.0009248230423246826
52:46.7;0.004280625415466849;-0.2253473756592076;-0.9713971491522428;0.995;0.0009370366012271454
52:46.7;0.004447183234583695;-0.2249750248449809;-0.9715949849070002;0.992;0.0009720857945574172
52:46.7;0.004705312756066749;-0.2246290320530116;-0.971749509059286;0.9940000000000001;0.0010270904977425178
52:46.7;0.005031256640018898;-0.22432929429251877;-0.9718531417210718;0.998;0.0010968900676108012
52:46.7;0.005393953837480725;-0.22409004113139763;-0.9718996578147863;0.998;0.0011747655731137409
52:46.8;0.005759353364059338;-0.2239198084457775;-0.9718870313549117;1.001;0.0012533778814674697
52:46.8;0.006094802722582803;-0.22382178961778199;-0.9718206571792487;1.001;0.0013257088120125617
52:46.8;0.00637271582911141;-0.22379410798312768;-0.9717151807702936;1.001;0.001385837116860374
52:46.8;0.006573028890879521;-0.22382976207749158;-0.971593633363089;0.997;0.0014294469243315991
52:46.8;0.006684241761881385;-0.2239163484408346;-0.9714834057683274;0.992;0.0014540299069356443
52:46.8;0.006703152689638423;-0.2240360811768673;-0.9714099655747013;0.992;0.001458813031379906
52:46.8;0.006633653720329356;-0.22416686106744965;-0.9713905193011853;0.9940000000000001;0.001444501737173539
52:46.8;0.006485154273707623;-0.22428483153403786;-0.9714299415434134;0.9940000000000001;0.001412965962791125
52:46.8;0.006271254526168139;-0.2243680683496227;-0.9715202036638758;0.996;0.0013669962180909295
52:46.8;0.006008920991074073;-0.2244005075264599;-0.9716432543916004;1.0;0.0013101685447875005
52:46.9;0.005717850762715667;-0.22437523594525224;-0.9717763447230848;1.002;0.0012467347415714345
52:46.9;0.005419631614797443;-0.2242963805961699;-0.9718980286453358;1.001;0.001181442893451791
52:46.9;0.005136668686106276;-0.22417891393928968;-0.9719928325293334;1.0;0.0011192816351347616
52:46.9;0.004890962918215056;-0.2240461477195786;-0.9720532915204053;0.998;0.0010651773581750537
52:46.9;0.004702661915023979;-0.22392538317345353;-0.9720792593040967;0.997;0.0010236435645050647
52:46.9;0.0045884294628246005;-0.2238425471826563;-0.9720753232020529;0.995;0.0009984047012344696
52:46.9;0.004560095025360496;-0.22381664709090185;-0.9720475690575499;0.995;0.000992096224158185
52:46.9;0.004624131511843292;-0.22385498266675502;-0.9720009247729876;0.995;0.0010061520600731415
52:46.9;0.004781996847814384;-0.22395032371198204;-0.9719378877351328;0.996;0.0010408771914083002
52:46.9;0.005030747382449262;-0.2240811687622788;-0.9718588010166671;0.997;0.0010955722991029407
52:47.0;0.005363247092210769;-0.2242153865502819;-0.9717633490183311;0.998;0.001168567311251437
52:47.0;0.005767798372026566;-0.22431638955856917;-0.9716527358162049;0.9990000000000001;0.0012571356842661307
52:47.0;0.006227550760622523;-0.22435024375446522;-0.9715319297480381;1.001;0.001357378294729798
52:47.0;0.006720203993893372;-0.22429213459303626;-0.9714112161114674;1.0;0.001464197342108731
52:47.0;0.007218369718026656;-0.22413109865540135;-0.971306208318684;0.997;0.0015714385650136662
52:47.0;0.0076906448742442264;-0.22387242155145193;-0.9712358401634507;0.997;0.0016721993673443607
52:47.0;0.008103179346176855;-0.22353746187456822;-0.9712187180679743;0.995;0.0017592307620442006
52:47.0;0.008421586227244473;-0.22316099506291306;-0.971268909063888;0.995;0.0018253732246778266
52:47.1;0.008613346631649544;-0.2227865103134546;-0.9713923380494264;0.995;0.001864041124649444
52:47.1;0.008650847660978454;-0.22246022106226085;-0.9715846236775795;0.995;0.0018697849584556926
52:47.1;0.008514719701608336;-0.22222478233602855;-0.97183069181858;0.995;0.0018388802819886056
52:47.1;0.00819680982531588;-0.2221136017865854;-0.9721061458299591;0.996;0.0017698387622981232
52:47.1;0.007702341476691856;-0.2221462195250338;-0.9723802452292304;0.998;0.0016637873684968072
52:47.1;0.007051148717619118;-0.222325016915452;-0.9726202025064841;0.997;0.0015247249071448754
52:47.1;0.006277857464058848;-0.222633708704926;-0.9727962014326922;1.0;0.0013596409556620361
52:47.1;0.005430639708474003;-0.22303833177669816;-0.9728862374956716;1.001;0.0011783995251006124
52:47.1;0.004568066675532467;-0.22349137260821217;-0.9728797225278666;1.001;0.000993235763113811
52:47.1;0.0037538838489847657;-0.22393898884666266;-0.9727788787336753;1.001;0.0008177577640558131
52:47.2;0.003050221349146537;-0.22433005738729764;-0.9725974370142394;0.997;0.0006655059531086066
52:47.2;0.002510404277961828;-0.2246247996945977;-0.972357060676394;0.997;0.0005483112306422263
52:47.2;0.002172591025093718;-0.2248007947516856;-0.9720828231398236;0.998;0.0004747654346534793
52:47.2;0.00205503593886852;-0.22485518289268785;-0.971799213666763;0.997;0.00044905430794298855
52:47.2;0.0021535324596094903;-0.22480301021868537;-0.971527362106921;0.996;0.00047033638956649247
52:47.2;0.0024417348745812886;-0.2246724256654315;-0.9712834130552455;0.995;0.0005328368503969015
52:47.2;0.0028748840396006494;-0.22449790120894608;-0.9710779206645179;0.996;0.0006267389659695
52:47.2;0.003396575305429694;-0.2243130685377624;-0.9709162699407634;0.996;0.0007397374450149772
52:47.2;0.003947232771532644;-0.22414495938565435;-0.9707999334894242;0.997;0.000858917502401103
52:47.2;0.0044725236234117996;-0.22401093414981;-0.9707280604755466;0.997;0.0009725668086049202
52:47.2;0.004930017565496221;-0.22391852661331077;-0.9706987938767571;0.997;0.0010715760154826487
52:47.2;0.00529290285810209;-0.22386744817046425;-0.9707098823688405;0.997;0.0011502025423335111
52:47.3;0.005550484695010828;-0.22385242247085863;-0.9707585129374491;0.996;0.0012061572058382052
52:47.3;0.0057060184225495615;-0.22386558924813765;-0.9708406644229824;0.9940000000000001;0.0012401335900416506
52:47.3;0.0057727882410639735;-0.2238980117395119;-0.9709505276837954;0.996;0.001254968907144981
52:47.3;0.005769530031491484;-0.22394064571720598;-0.9710805750898136;0.997;0.0012546674502127038
52:47.3;0.00571648547730227;-0.22398517150531674;-0.971222578966737;0.998;0.0012435611405052062
52:47.3;0.005633147144865537;-0.2240246045392868;-0.9713693371776723;0.9990000000000001;0.0012258327082184588
52:47.3;0.005537927150267671;-0.22405340562656087;-0.9715163788616741;0.998;0.0012054492048939143
52:47.3;0.00544904750084677;-0.2240671464087502;-0.9716627941247347;0.997;0.0011863541411194075
52:47.4;0.00538550856051007;-0.22406219183655124;-0.9718106854857205;0.998;0.001172673120646224
52:47.4;0.005367169390576857;-0.2240358673582313;-0.9719633572713245;0.998;0.0011687261124596353
52:47.4;0.005413454135997331;-0.22398720091338276;-0.9721227710100814;0.996;0.0011787420602031252
52:47.4;0.005540729783044101;-0.22391793289934225;-0.9722869076429512;0.996;0.0012062859918489603
52:47.4;0.005758982436035436;-0.2238333091643199;-0.9724477758807692;0.996;0.00125353584382453
52:47.4;0.006068876761440888;-0.22374219888191832;-0.9725908573156377;0.997;0.0013206459478488028
52:47.4;0.006460265594362904;-0.2236562660983974;-0.972696495257312;0.998;0.0014054286234635497
52:47.4;0.006912749307820567;-0.22358828966861935;-0.9727431422905637;0.998;0.001503481328396623
52:47.4;0.007398290515609713;-0.22355013214485298;-0.9727118233014526;0.9990000000000001;0.0016087572119848719
52:47.4;0.007885348968254073;-0.22355092733725346;-0.9725909106788325;1.001;0.0017144609599501475
52:47.5;0.008343584137134106;-0.22359575802656523;-0.9723802508055973;1.001;0.0018140628913544431
52:47.5;0.008747982825009892;-0.22368490245259162;-0.9720936076276487;1.001;0.0019021846883203678
52:47.5;0.009081413551449645;-0.22381374880869215;-0.9717584490224916;0.9990000000000001;0.0019751429822292563
52:47.5;0.009335089242919484;-0.22397336008516464;-0.9714126209394867;0.997;0.0020310404891277613
52:47.5;0.009507065540677819;-0.22415139706636444;-0.9710983660645199;0.995;0.0020694320045288386
52:47.5;0.009599467743897635;-0.2243330178979241;-0.9708549703559766;0.993;0.0020907144016101913
52:47.5;0.009615426857203527;-0.22450165372234376;-0.9707116603907887;0.992;0.002095455100272677
52:47.5;0.009556704629161625;-0.22463995544995666;-0.9706822620884383;0.993;0.0020838778634079246
52:47.5;0.00942282903321184;-0.2247312722223545;-0.9707627852376355;0.9940000000000001;0.0020556915032127546
52:47.5;0.009212246863240535;-0.2247617085749643;-0.9709325410135204;0.995;0.0020103744168949006
52:47.6;0.008925433975814672;-0.22472242999694933;-0.9711586336807665;1.0;0.0019478967794251871
52:47.6;0.008569053801688464;-0.2246116676014497;-0.9714028353253499;1.0;0.0018696682306662388
52:47.6;0.008159342309608384;-0.2244358780333975;-0.9716291602820485;1.002;0.0017792950791596116
52:47.6;0.007722698838702233;-0.2242096862965519;-0.9718102089947258;1.003;0.0016826931513737264
52:47.6;0.0072926142038212665;-0.22395442554339864;-0.9719306707491797;1.0;0.0015873700249847812
52:47.6;0.006903930752823242;-0.22369531225104577;-0.971987088797366;0.996;0.001501114451274359
52:47.6;0.006586622262337696;-0.22345772269887304;-0.9719840907179816;0.993;0.0014305969101269464
52:47.6;0.006361162827418553;-0.223263515230258;-0.9719286705169948;0.991;0.0013803482344924357
52:47.6;0.006236582014197097;-0.22312840216357174;-0.9718250603503102;0.993;0.0013523515007852805
52:47.6;0.006211232349467865;-0.22306087354698492;-0.9716724979759612;0.996;0.001346235643634177
52:47.6;0.0062755116108115586;-0.22306253560518208;-0.9714667996951056;0.998;0.0013598898586280887
52:47.7;0.00641535563127214;-0.22312937078079711;-0.9712048918632555;1.0;0.0013902353849775035
52:47.7;0.006615206484143119;-0.22325336322330636;-0.9708902975182645;1.0;0.0014338759342319043
52:47.7;0.006859390064754056;-0.2234239992911523;-0.9705373957181721;1.0;0.0014873993772130444
52:47.7;0.007131511879645811;-0.2236293101438066;-0.9701728190396847;0.997;0.001547246243880661
52:47.7;0.007412455625334983;-0.22385641606393708;-0.9698333194683356;0.993;0.0016092694007065439
52:47.7;0.007678355077677891;-0.22409184644617683;-0.9695606499466095;0.993;0.00166828109337297
52:47.7;0.007900014903888657;-0.22432194368915023;-0.969395077625788;0.993;0.0017179102862728958
52:47.7;0.00804459857052185;-0.22453334930219232;-0.9693694105289682;0.9940000000000001;0.0017509532194395242
52:47.7;0.00807946710368804;-0.22471334202713822;-0.969504728079132;0.995;0.0017601979351312062
52:47.8;0.00797740552803766;-0.22484995044953932;-0.9698079879885806;0.996;0.0017395632449255431
52:47.8;0.007722143769783146;-0.22493202828358638;-0.9702710097199743;0.996;0.0016853194693648074
52:47.8;0.007312877408523037;-0.22494955984335818;-0.9708702501410841;0.993;0.001597109283940035
52:47.8;0.006766600217807763;-0.2248943095450243;-0.9715673084374065;0.993;0.001478501870211463
52:47.8;0.006117722060866339;-0.2247605751719916;-0.9723109102827037;0.997;0.001336949601432146
52:47.8;0.00541537655749326;-0.22454555135437407;-0.9730413584193297;0.9990000000000001;0.0011832170413764967
52:47.8;0.00471928136692341;-0.2242490853263733;-0.9736975318000799;1.002;0.0010304587717107282
52:47.8;0.004094684358308367;-0.22387328755570868;-0.9742251357956528;1.004;0.0008930628769622555
52:47.8;0.0036064565360876856;-0.2234228059244873;-0.9745841498815787;1.005;0.0007852854454485435
52:47.8;0.003312434503977679;-0.22290606546664454;-0.9747535859927139;1.005;0.0007197207561619093
52:47.9;0.0032565185736182366;-0.222336860944753;-0.9747324509653592;0.9990000000000001;0.0007057492970302871
52:47.9;0.0034624333928847677;-0.22173531708204683;-0.9745369285537927;0.9990000000000001;0.0007481946518744495
52:47.9;0.003929259531910955;-0.2211276418622637;-0.9741949612475839;0.995;0.0008464467248665361
52:47.9;0.004629659632036611;-0.22054464975350754;-0.9737401319224575;0.996;0.0009942341113796632
52:47.9;0.005511274494318445;-0.22001924021093747;-0.9732066884511982;0.997;0.0011800972209198546
52:47.9;0.006501408790813577;-0.21958302969740323;-0.9726267794800579;0.997;0.0013885210562634715
52:47.9;0.007514775422016183;-0.2192624723231979;-0.9720298461444695;0.997;0.0016016215850594092
52:47.9;0.008463383336470606;-0.21907517704141447;-0.9714432761444391;0.995;0.0018011696898502605
52:47.9;0.009266917456420264;-0.21902742080371;-0.9708933304831115;0.997;0.0019706309593498918
52:47.9;0.009861823006342649;-0.21911355700763838;-0.9704057133400822;0.996;0.0020969100333445225
52:47.9;0.010207767634553238;-0.21931724515486367;-0.9700054018954061;0.9940000000000001;0.0021715893859239545
52:48.0;0.010290714949143957;-0.21961386532986044;-0.9697155472242583;0.9940000000000001;0.002191541317746709
52:48.0;0.010122359647324736;-0.21997338749603335;-0.969555714286477;0.9940000000000001;0.002158860980173941
52:48.0;0.009736247225958396;-0.22036309397090792;-0.9695400841016703;0.9940000000000001;0.0020801575215487695
52:48.0;0.009181380589825204;-0.22074986421547327;-0.9696760185599825;0.995;0.0019653282210962213
52:48.0;0.008514367434717042;-0.221102218736528;-0.9699629000041571;0.995;0.0018259993225939865
52:48.0;0.007791427303665637;-0.2213924911232241;-0.9703909825681855;0.9940000000000001;0.0016738890258184394
52:48.0;0.007061917617046844;-0.22159905352220072;-0.9709402498479383;0.9940000000000001;0.001519438242584647
52:48.0;0.006364845734497199;-0.22170803117966092;-0.971579703223756;0.9940000000000001;0.0013710324723870066
52:48.0;0.005728683709285872;-0.22171404129797045;-0.9722678137633336;0.993;0.0012349061454340344
52:48.0;0.00517335198276887;-0.22162002823790244;-0.9729549060363254;0.9990000000000001;0.0011155107143085421
52:48.0;0.004712616226467382;-0.22143663257309285;-0.9735878520854824;0.9990000000000001;0.0010159835799823818
52:48.1;0.004355701839951155;-0.2211814021212402;-0.9741165974010376;1.002;0.0009384641639018825
52:48.1;0.00410801779267977;-0.2208777894542254;-0.9745011849838694;1.005;0.00088423303213273
52:48.1;0.003971620702385489;-0.2205537321317292;-0.9747175913600288;1.003;0.0008538094968324268
52:48.1;0.003946009917793629;-0.22023974894421014;-0.9747608589267807;1.002;0.000847133697875486
52:48.1;0.0040292418682017295;-0.2199666450986958;-0.9746446484567794;1.001;0.0008638263979865133
52:48.1;0.004218815260697937;-0.21976293207960582;-0.9743973160556871;0.996;0.0009034019593863661
52:48.1;0.004511715849473013;-0.21965204668525806;-0.9740555624363798;0.996;0.0009652964850665497
52:48.1;0.004903355681971222;-0.21964961955697065;-0.9736573096685365;0.9940000000000001;0.0010486486002221633
52:48.1;0.0053855800816444985;-0.219761330798156;-0.973235539485783;0.9940000000000001;0.001151865376155949
52:48.1;0.005944208088540279;-0.2199819309041154;-0.9728143856440326;0.995;0.0012720699641994438
52:48.2;0.006556842696755054;-0.22029564967794918;-0.9724081283302909;0.996;0.0014045890103956428
52:48.2;0.007192026814257254;-0.22067775479725946;-0.9720230930382133;0.998;0.0015427176120076675
52:48.2;0.007810765801599793;-0.22109685558737174;-0.9716617870060904;0.9990000000000001;0.0016779974851129655
52:48.2;0.008370601557407806;-0.22151776127811956;-0.9713279843052404;1.001;0.0018010722075463756
52:48.2;0.008831272482241885;-0.22190492503708387;-0.9710310789491032;1.001;0.0019029323807728685
52:48.2;0.009160374831885157;-0.222226318672355;-0.9707880344025585;0.9990000000000001;0.001976210268269465
52:48.2;0.00933768306503326;-0.22245711094247028;-0.9706218577703807;0.996;0.002016208721719689
52:48.2;0.00935746583321854;-0.22258234887260853;-0.9705567374899636;0.993;0.0020214820995013375
52:48.2;0.009228641636117247;-0.22259823809576085;-0.9706112730538641;0.992;0.0019939067127932725
52:48.2;0.00897285424995539;-0.22251218116108332;-0.9707918717920262;0.99;0.0019382533162513697
52:48.3;0.008620810036598241;-0.22234195005449983;-0.9710882804175007;0.993;0.0018613506639177397
52:48.3;0.00820766250778633;-0.2221141565145757;-0.9714726680698109;0.996;0.0017710316237310785
52:48.3;0.007768628881108893;-0.2218618358703806;-0.9719027511038008;0.997;0.0016751349077893667
52:48.3;0.007335945313555849;-0.2216209131876939;-0.9723282598426389;1.0;0.0015808102147905516
52:48.3;0.006937653543510457;-0.22142577217219214;-0.9726990999695311;1.001;0.0014942363248332548
52:48.3;0.006597989006932098;-0.2213047086128191;-0.9729732070106758;1.002;0.0014207024294622531
52:48.3;0.006338591511668412;-0.22127615519251992;-0.9731222930378514;1.0;0.0013648810474100907
52:48.3;0.006179475845253416;-0.22134624319477933;-0.9731344087026709;0.997;0.0013310569063810427
52:48.4;0.006138898989137317;-0.2215079553837968;-0.9730134029405879;0.997;0.0013231181848990595
52:48.4;0.0062318612176775565;-0.22174195619999063;-0.9727764479266184;0.997;0.0013442458207433537
52:48.4;0.0064674727458336355;-0.22201905441811218;-0.972451064743412;1.0;0.0013963446072167258
52:48.4;0.006845660960658746;-0.222304100165364;-0.972072329272873;0.998;0.0014793176539248465
52:48.4;0.007353981465306975;-0.2225608683085397;-0.9716799445158192;0.997;0.0015903568248996336
52:48.4;0.007965559638983896;-0.22275718791987198;-0.9713146556112618;0.997;0.0017234868014979856
52:48.4;0.008639071723106621;-0.22286944271550235;-0.9710140647596058;0.996;0.001869576012671882
52:48.4;0.00932124284949724;-0.22288563646189974;-0.9708084110896315;0.995;0.0020169235423255585
52:48.4;0.009951849183231649;-0.22280647821032867;-0.9707169528556766;0.993;0.0021524060998631632
52:48.4;0.010470602317708834;-0.22264440245260778;-0.9707456018933146;0.995;0.0022630225292434277
52:48.4;0.010824650658320526;-0.222420840851596;-0.970886453377786;0.996;0.0023375333141935828
52:48.5;0.01097528578360853;-0.22216213228041456;-0.9711194228138531;0.996;0.0023678735860014326
52:48.5;0.010902918344341601;-0.22189441226295084;-0.971415492572425;0.995;0.0023501422546794134
52:48.5;0.010609863498680653;-0.22163814318505182;-0.9717408116400432;0.9940000000000001;0.0022850975383229217
52:48.5;0.010120631740060787;-0.22140371601799533;-0.9720612786499521;0.997;0.0021781419122371896
52:48.5;0.009479622239697399;-0.22118999889988647;-0.9723475510262282;1.002;0.002038816043221509
52:48.5;0.008746524853504705;-0.22098684416681638;-0.9725799631377395;1.003;0.0018798676424746984
52:48.5;0.007990058540339752;-0.22078071672137492;-0.9727519352228549;1.001;0.0017159838793187692
52:48.5;0.007280689728226243;-0.22056126368287213;-0.9728702221221729;1.002;0.0015622720952488455
52:48.5;0.006682871988510944;-0.22032657461479768;-0.9729512371522748;0.997;0.0014325873087707196
52:48.6;0.006247547010113657;-0.22008562274370994;-0.973014071308598;0.991;0.0013378897499170736
52:48.6;0.006006116174850827;-0.21985738031063726;-0.9730721696380643;0.991;0.0012849310651177506
52:48.6;0.00596721056424112;-0.2196670879602492;-0.9731265852804858;0.992;0.0012755741021156645
52:48.6;0.006117010950101697;-0.219540837596537;-0.9731635356798833;0.9940000000000001;0.0013068941150449634
52:48.6;0.006422912018361955;-0.2194999295592327;-0.9731573934714226;0.998;0.001371985257573324
52:48.6;0.006839487200852647;-0.21955644077403957;-0.9730782731084352;1.0;0.0014612263620268767
52:48.6;0.007315350609160321;-0.21971094930918408;-0.9729020224895885;1.004;0.0015637090603519345
52:48.6;0.007799644945697822;-0.21995257216427294;-0.9726198142287424;1.004;0.0016685798361963998
52:48.6;0.008247212506685546;-0.2202609318134242;-0.9722445406786759;1.002;0.0017661198452708522
52:48.6;0.008621882170450228;-0.22060947356033758;-0.9718119979429797;1.0;0.0018484533650307631
52:48.6;0.008897759762398618;-0.22096943161571886;-0.9713763311652064;0.997;0.0019098549798390108
52:48.6;0.009058836317656364;-0.22131366259840352;-0.9710007300482262;0.9940000000000001;0.00194670522488709
52:48.7;0.00909750988018318;-0.22161963563073322;-0.9707453132407925;0.99;0.001957203910785826
52:48.7;0.009012792317624647;-0.22187108602519517;-0.9706546485564146;0.988;0.0019409967653708342
52:48.7;0.008809068177937768;-0.22205818999801563;-0.9707476984339568;0.987;0.0018989045552559223
52:48.7;0.008496138276603369;-0.22217655725110122;-0.9710129007143955;0.991;0.0018329254643505417
52:48.7;0.008090718334344797;-0.2222257456390351;-0.9714100588552952;0.997;0.0017465621749264372
52:48.7;0.007618642025269105;-0.2222081937353017;-0.9718787009590425;1.0;0.0016453174418822037
52:48.7;0.007116281380693856;-0.22212925865899544;-0.9723504629997796;1.004;0.0015370277357795348
52:48.7;0.006629816032221694;-0.22199837914063283;-0.9727619390154002;1.0070000000000001;0.0014317192058386674
52:48.8;0.0062119017649687695;-0.22183052948296028;-0.9730646336522464;1.0;0.0013408728067548434
52:48.8;0.005916149229807311;-0.22164675547635154;-0.9732299375053064;1.0;0.001276191825060582
52:48.8;0.005790096797091163;-0.22147304003161294;-0.9732490157975004;0.997;0.0012480462060489223
52:48.8;0.00586746280433063;-0.22133747097048986;-0.9731291890001982;0.996;0.001263792541296941
52:48.8;0.00616091264933025;-0.2212660969764776;-0.9728889541068297;0.9940000000000001;0.0013262432882623501
52:48.8;0.006657068771862078;-0.22127816915824827;-0.972553470083587;0.995;0.0014326334949334022
52:48.8;0.007315334258318288;-0.22138188142937634;-0.9721516467160346;0.996;0.001574382541669264
52:48.8;0.008071305567072636;-0.22157186164150086;-0.9717150704528376;1.0;0.0017377901621121608
52:48.8;0.008844677229925527;-0.2218292049329343;-0.9712780079828205;0.9990000000000001;0.0019056549477944305
52:48.8;0.009550740798576738;-0.2221240237207507;-0.9708770793943051;0.997;0.0020596661856056376
52:48.9;0.010113673110621899;-0.22241982418678705;-0.9705493964175933;0.995;0.0021832328103126805
52:48.9;0.010478986855276928;-0.22267874767710794;-0.9703290041523635;0.995;0.0022642119537349095
52:48.9;0.010622297126370368;-0.2228667168822756;-0.9702425431395508;0.9940000000000001;0.0022969099777877524
52:48.9;0.010552280973358455;-0.22295768446892256;-0.9703053727495964;0.995;0.002282849221907567
52:48.9;0.010307218151941834;-0.2229364945704649;-0.9705190103571745;0.995;0.002230112041647626
52:48.9;0.009946179392942336;-0.22280024369768855;-0.9708702047608306;0.995;0.0021514592403200877
52:48.9;0.009537123595512795;-0.22255826910880291;-0.9713316609411594;0.996;0.0020617152859671896
52:48.9;0.009144619333048163;-0.22223089889150727;-0.9718643695158783;0.996;0.0019750392685485597
52:48.9;0.008819700832208004;-0.22184703816028192;-0.9724214492399051;0.997;0.0019026636387980266
52:48.9;0.008593639094513696;-0.22144080385973502;-0.972953245341026;0.9990000000000001;0.001851512852451211
52:49.0;0.008476326779841366;-0.2210477037925361;-0.97341316122947;1.001;0.0018238575407177533
52:49.0;0.008458861462893628;-0.2207009601430593;-0.973763344907254;1.001;0.001817898190180143
52:49.0;0.008519112311332884;-0.22042839838095032;-0.9739790755665043;1.0;0.0018289907780347184
52:49.0;0.00862874098470703;-0.220250065705806;-0.9740509453505467;0.9990000000000001;0.0018511650895092376
52:49.0;0.00876015975133753;-0.22017661242822126;-0.9739847297409734;0.9990000000000001;0.001878604505616376
52:49.0;0.008891983623469692;-0.2202085073082814;-0.9737994731030123;0.9990000000000001;0.00190678743947476
52:49.0;0.009011820277579085;-0.22033623032593502;-0.9735243080328742;0.9990000000000001;0.0019330595666373494
52:49.0;0.009116072841871823;-0.22054151114036363;-0.973194271163063;0.997;0.0019565803000733527
52:49.0;0.009207542335627166;-0.22079949640624313;-0.9728454389154266;0.995;0.001977814925766781
52:49.0;0.009292242136218975;-0.22108164582804768;-0.9725101253631852;0.9940000000000001;0.0019978705208040333
52:49.0;0.00937662058067669;-0.22135918298300997;-0.9722132559560516;0.995;0.002017926875186373
52:49.0;0.009465714378003694;-0.2216068196398254;-0.9719709303131366;0.995;0.0020388712083596397
52:49.1;0.009562149293189756;-0.2218061966459701;-0.9717915327356007;1.0;0.0020611153880351995
52:49.1;0.009665634961946758;-0.22194834030885502;-0.9716787556138157;1.001;0.0020845148755054416
52:49.1;0.0097727142304744;-0.2220345659143123;-0.9716349244137006;1.0;0.002108331541487557
52:49.1;0.00987676946539163;-0.22207550223994643;-0.9716626941340801;0.998;0.0021312338176074064
52:49.1;0.009968387769742279;-0.22208814469140783;-0.9717640424089669;0.995;0.0021513502672285243
52:49.1;0.010036267276634505;-0.2220911737505203;-0.9719370377417987;0.993;0.0021664149801578166
52:49.1;0.010068967912075769;-0.2220993656171947;-0.9721720062365939;0.992;0.0021740793263978495
52:49.1;0.010057622531879104;-0.22211865219106203;-0.9724489493168876;0.992;0.0021724369116102346
52:49.2;0.00999916369460997;-0.2221436749314435;-0.9727376265170221;0.998;0.0021606943958355626
52:49.2;0.009899145819670146;-0.2221589973077211;-0.973000841329799;0.998;0.002139808183383609
52:49.2;0.009773123364999779;-0.22214378627247472;-0.9732003351581081;1.0;0.0021128555204195966
52:49.2;0.009645741113883782;-0.22207863538800646;-0.973303833246928;1.005;0.002084926817387944
52:49.2;0.00954724191144467;-0.22195268358940562;-0.9732914760057535;1.004;0.0020624396402566655
52:49.2;0.009507913994161763;-0.22176904335108888;-0.973159888102065;1.002;0.002051966977814342
52:49.2;0.009551649774175622;-0.22154679187757054;-0.9729226179882995;1.0;0.0020588379047960406
52:49.2;0.009690006423823361;-0.22131864305646573;-0.9726068223985839;0.996;0.0020858322375039975
52:49.2;0.009918134705056744;-0.2211247127469347;-0.9722473038425409;0.9940000000000001;0.002132279009495628
52:49.2;0.010213764835102935;-0.22100400768214049;-0.9718796541188798;0.992;0.0021938073844353975
52:49.3;0.010539874684303518;-0.22098597786972032;-0.9715342620910716;0.992;0.002262863127140362
52:49.3;0.010850670325665522;-0.22108436404052872;-0.9712325690412099;0.992;0.0023299029684845543
52:49.3;0.01109950891757984;-0.2212947074754377;-0.9709863590910562;0.995;0.0023849974585905915
52:49.3;0.011246960612427977;-0.22159578230251506;-0.9708000359984623;0.9990000000000001;0.0024195045773200167
52:49.3;0.011267442676242153;-0.22195425724164283;-0.970674769990628;1.001;0.002427518667278451
52:49.3;0.011153385698084762;-0.2223311896893701;-0.9706125019320763;0.9990000000000001;0.002406871994896744
52:49.3;0.010916446599644958;-0.22268872215230365;-0.9706178185805935;0.996;0.0023595423555601985
52:49.3;0.010585799419093675;-0.22299575211646566;-0.970696942743128;0.996;0.0022914158490058324
52:49.3;0.010203949666075211;-0.2232319340248153;-0.970854615381807;0.997;0.00221145867953173
52:49.3;0.009820848716005236;-0.22338957824640657;-0.9710902367930555;0.995;0.0021304508386293247
52:49.3;0.009487315543028715;-0.22347306336741488;-0.9713942968439957;0.992;0.002059510815162249
52:49.4;0.009248774229582108;-0.22349588398234885;-0.9717459154633934;0.993;0.002008660000234773
52:49.4;0.009140046775541989;-0.2234762853341313;-0.972112513087516;0.995;0.001985621174944065
52:49.4;0.009181592262614934;-0.22343288881651532;-0.9724524548992702;0.997;0.001994956729551475
52:49.4;0.009377403274687187;-0.22338151258214914;-0.9727206210516871;1.0;0.002037595361500598
52:49.4;0.009714717409863405;-0.22333376505846592;-0.9728758219936167;1.001;0.0021107751367674464
52:49.4;0.010165573043070867;-0.22329723716919844;-0.9728883646979347;1.004;0.002208402470714954
52:49.4;0.010690066282917568;-0.22327653980127066;-0.972745990296075;1.002;0.002321790021850632
52:49.4;0.011241029467951594;-0.22327424440258442;-0.9724568188436395;0.9990000000000001;0.0024407035933794565
52:49.4;0.011769625968081671;-0.22329106202334068;-0.9720487999946171;0.998;0.0025545950670708096
52:49.4;0.012231062038239083;-0.22332521029949215;-0.9715661316699884;0.997;0.0026538372625267057
52:49.5;0.012589531467675311;-0.22337142428247828;-0.9710636221855655;0.996;0.002730768383902306
52:49.5;0.01282164695234445;-0.22342017909109732;-0.9705999105107342;0.995;0.0027803947310282894
52:49.5;0.012917756010073037;-0.22345764412678168;-0.9702302496558309;0.992;0.002800638817707239
52:49.5;0.012880886255893464;-0.22346678718998764;-0.969999588318804;0.993;0.0027920955747274072
52:49.5;0.012723878549647375;-0.22342965169872633;-0.9699368962610271;0.993;0.002757425602927385
52:49.5;0.012466006631691983;-0.22333029565032533;-0.9700516873999753;0.993;0.0027006597378668525
52:49.5;0.012130270635490591;-0.22315769391439402;-0.9703333339727023;0.9940000000000001;0.00262665664773097
52:49.5;0.01174174088966227;-0.2229080654307389;-0.9707532891597859;0.996;0.002540780489480848
52:49.5;0.01132661387090498;-0.2225862644350327;-0.9712699318552804;0.996;0.0024487158971242965
52:49.6;0.010911391554685722;-0.22220605872652954;-0.9718353186701635;1.002;0.0023562898652200433
52:49.6;0.010521669239217567;-0.22178936222959714;-0.9724025638482547;1.002;0.0022691930901782053
52:49.6;0.010180290144421972;-0.22136458060270162;-0.9729320451198926;1.001;0.002192556515356904
52:49.6;0.00990500305689406;-0.22096412828621867;-0.973394746490585;1.0;0.002130420768304327
52:49.6;0.009706145961939139;-0.22062115906129984;-0.9737720977005238;0.998;0.0020852172359723115
52:49.6;0.009585207745285854;-0.22036570477562095;-0.974053028509643;0.9940000000000001;0.0020574445421708957
52:49.6;0.009535102440664403;-0.22022059978409197;-0.9742299219942201;0.993;0.00204571329922173
52:49.6;0.009542398310744363;-0.2201977664003175;-0.9742955596610816;0.996;0.0020472042438131536
52:49.6;0.009590932609192773;-0.22029559861960685;-0.9742427882058912;0.998;0.002058419366901723
52:49.6;0.009665773153865503;-0.22049811115276252;-0.9740673968300141;0.9990000000000001;0.0020760149622879097
52:49.7;0.009756543831385528;-0.22077620819590604;-0.9737732246565304;1.005;0.0020975199436517864
52:49.7;0.00985947357041266;-0.2210910010428617;-0.973377532556503;1.005;0.002121808138540081
52:49.7;0.009977794904702122;-0.2213986631254853;-0.9729142560194786;1.003;0.002149236136120734
52:49.7;0.010120249538486682;-0.2216560803623126;-0.9724330559089305;0.9990000000000001;0.0021813762667733795
52:49.7;0.010297712355056292;-0.2218265723933198;-0.9719933981999554;0.996;0.0022203305800954673
52:49.7;0.010518485627871136;-0.22188487469570875;-0.971654746637595;0.993;0.002267738080934677
52:49.7;0.010783409249440256;-0.22182043082886962;-0.9714653458247433;0.99;0.002323726149566726
52:49.7;0.011082092469533372;-0.22163839079563116;-0.9714524928238893;0.99;0.0023860982651199678
52:49.7;0.011391247863654723;-0.22135846133236478;-0.9716167366643661;0.992;0.002449979307642143
52:49.7;0.011675813233752462;-0.22101211501204343;-0.9719313968331871;0.9940000000000001;0.0025080652541037652
52:49.8;0.011893303639028088;-0.2206384306623181;-0.9723474670203349;0.998;0.0025515562896024253
52:49.8;0.012001017134050483;-0.2202787315702207;-0.9728027089299783;0.998;0.0025716709208579054
52:49.8;0.011964456527557144;-0.21997061575531532;-0.973232913847415;1.001;0.00256138247945449
52:49.8;0.011764725037443396;-0.21974238857635695;-0.973583149911261;1.003;0.0025169157078647813
52:49.8;0.01140314871120269;-0.21960885617417894;-0.9738170721298811;1.005;0.0024386643077672597
52:49.8;0.010902270126115342;-0.219569215217745;-0.9739225903433698;1.004;0.0023313787169350585
52:49.8;0.010303060127211074;-0.21960764007943476;-0.9739124860181267;1.0;0.0022036043095860504
52:49.8;0.009658803950295497;-0.21969684247600113;-0.9738194789950536;0.998;0.002066453435846866
52:49.8;0.009026843133770866;-0.21980411018938842;-0.9736867435858592;0.995;0.001931928111332326
52:49.8;0.008460006159903957;-0.21989842338326934;-0.9735562231864593;0.991;0.0018111475472977377
52:49.8;0.007999612987653122;-0.21995683662286805;-0.9734577424948759;0.99;0.0017128666184266568
52:49.9;0.007671284912878425;-0.2199686814006749;-0.9734018439280385;0.9940000000000001;0.0016425595699006983
52:49.9;0.007484043694784314;-0.21993689433299635;-0.97337838455636;0.996;0.0016021976869828012
52:49.9;0.007432648703688888;-0.2198764274932586;-0.9733611964400091;0.9990000000000001;0.0015907293996243526
52:49.9;0.007502389845993499;-0.219810259936679;-0.9733172315977905;1.003;0.0016050996484604464
52:49.9;0.007674660110773491;-0.2197640939203194;-0.9732173871981419;1.004;0.001641442776254507
52:49.9;0.007931414503884668;-0.21976104876155708;-0.9730458449165273;1.003;0.0016960344467804682
52:49.9;0.00825743595848797;-0.21981736164066848;-0.9728053023670831;1.0;0.0017657659349977599
52:49.9;0.008640411163435207;-0.2199396495041222;-0.9725168639063961;0.998;0.0018481409029238469
52:49.9;0.009069395712604789;-0.2201239617859354;-0.9722150194006483;0.9940000000000001;0.0019409216212996478
52:50.0;0.009532383001268746;-0.22035659095787333;-0.971939408905687;0.992;0.002041581493039399
52:50.0;0.01001371813226101;-0.22061643010572146;-0.9717257585254597;0.992;0.002146727553796635
52:50.0;0.010492112172242798;-0.22087856442999215;-0.9715984418470677;0.993;0.0022516625554968176
52:50.0;0.010940043801495327;-0.22111859021681535;-0.9715664348116891;0.995;0.0023502649299574465
52:50.0;0.011325302572574402;-0.2213168480546227;-0.9716232236124936;0.997;0.0024353544385245494
52:50.0;0.011615041832248794;-0.22146155453948932;-0.9717501017540926;0.9990000000000001;0.0024996184244806033
52:50.0;0.011781823043088203;-0.2215500345568197;-0.971921540929754;1.0;0.002536971131041249
52:50.0;0.01181010684832855;-0.22158793002207022;-0.9721109276486016;0.9990000000000001;0.002543992065343962
52:50.0;0.011701159241368936;-0.22158697112243206;-0.9722950864036888;1.0;0.0025209904579764396
52:50.0;0.011474683494116405;-0.22156223998310473;-0.9724566540224786;1.0;0.0024723315712260325
52:50.1;0.011166371011551763;-0.22152974694663208;-0.9725840847719406;0.995;0.002405865051627361
52:50.1;0.01082174909665444;-0.221504660979279;-0.9726697117046407;0.995;0.00233155530904717
52:50.1;0.010487922335468306;-0.22149999157815495;-0.9727070602655739;0.9940000000000001;0.0022596711709478513
52:50.1;0.010205344352268607;-0.22152535329513975;-0.9726890994373809;0.996;0.0021989995991609505
52:50.1;0.010001421260527867;-0.22158571822463577;-0.972608695674619;0.998;0.002155468268488901
52:50.1;0.0098872333994612;-0.22168037979558886;-0.9724613968377603;1.0;0.0021314463889750826
52:50.1;0.009858151905455912;-0.22180245700348766;-0.9722495285620378;1.001;0.0021258841790977646
52:50.1;0.009898168388632916;-0.22193922045034364;-0.971985909020974;1.003;0.0021352506513829185
52:50.1;0.009986556751548168;-0.2220733306794999;-0.9716953623766399;1.001;0.0021549753686252253
52:50.1;0.01010475888705816;-0.22218478700494498;-0.9714125955241295;0.997;0.0021809414417168524
52:50.2;0.010241404912435841;-0.22225323865047714;-0.9711760639056429;0.99;0.0022105767873195716
52:50.2;0.010394123357374954;-0.22226036853097836;-0.9710191997652413;0.99;0.002243250194345645
52:50.2;0.010568110378901164;-0.2221921000141223;-0.97096193347933;0.99;0.0022799648838344798
52:50.2;0.010772572746515134;-0.22204036663225746;-0.9710055762779863;0.992;0.002322592906300664
52:50.2;0.011016417706205322;-0.2218042995395032;-0.9711327670096821;0.9940000000000001;0.0023729520518922897
52:50.2;0.011304239916665706;-0.22149088414402182;-0.9713124102888673;0.9990000000000001;0.002431958505537397
52:50.2;0.011633449475062447;-0.22111513730382756;-0.9715081066233382;1.003;0.0024990411752475244
52:50.2;0.011993295496444898;-0.22069960348064124;-0.9716875131657353;1.003;0.002571974798533722
52:50.2;0.012366105466581888;-0.22027283291057506;-0.9718296335077755;1.001;0.0026471833406669087
52:50.2;0.012730259961595308;-0.2198667473272577;-0.9719277957950642;0.997;0.002720387849832713
52:50.3;0.01306381691020445;-0.2195131575742041;-0.9719879167670976;0.9940000000000001;0.002787350017490511
52:50.3;0.013347646659084696;-0.21923992527988687;-0.9720235001937378;0.9940000000000001;0.0028444683881142215
52:50.3;0.013567308892415553;-0.21906743937968756;-0.9720496351510772;0.993;0.0028890827844145085
52:50.3;0.013713552249311556;-0.21900611258764394;-0.9720779109778648;0.9940000000000001;0.002919491912461473
52:50.3;0.01378199670697214;-0.21905529976644195;-0.972113321447024;0.9940000000000001;0.0029348289959144434
52:50.3;0.013772781898751616;-0.21920367683644285;-0.9721535084795726;0.995;0.0029349746372841126
52:50.3;0.013690609889624165;-0.21943103363292488;-0.9721902197459333;0.996;0.0029206000757669177
52:50.3;0.013545046451578967;-0.21971139587467328;-0.9722125092566365;0.9990000000000001;0.0028933054610715825
52:50.3;0.013350538412851545;-0.2200170746943572;-0.972210863434278;1.001;0.0028557200867400006
52:50.3;0.013125534575939537;-0.22032281262100864;-0.9721810351222043;1.002;0.002811406290735481
52:50.4;0.012890400268294607;-0.22060902616778874;-0.9721261492221335;0.997;0.0027644727033172955
52:50.4;0.012664447756867573;-0.22086339343649752;-0.9720560967243334;0.997;0.0027189506550404485
52:50.4;0.012463085617809093;-0.22108059171844527;-0.9719844102561046;0.995;0.0026781536902744075
52:50.4;0.012296173860270905;-0.22126060695158237;-0.9719239144392462;0.993;0.002644273439686182
52:50.4;0.01216792040510509;-0.2214064517697135;-0.9718827946375247;0.9940000000000001;0.00261830675418626
52:50.4;0.01207779141512605;-0.22152211102371888;-0.9718624729853697;0.995;0.0026002159577288835
52:50.4;0.012021638748166615;-0.22161104061985046;-0.9718580414815535;0.998;0.0025891540968490867
52:50.4;0.011992504318778137;-0.22167494352951247;-0.9718610065404241;1.0;0.0025836319560931433
52:50.4;0.011980975745256722;-0.22171242126120308;-0.97186310572053;0.998;0.002581590233051485
52:50.4;0.011975268139729323;-0.22171770218204268;-0.9718595762319304;0.997;0.002580412481566124
52:50.5;0.011961327002822805;-0.22168044134622505;-0.9718507675311717;0.997;0.0025769519624406
52:50.5;0.011923357896498437;-0.22158755667891394;-0.97184197053043;0.997;0.0025676723223058066
52:50.5;0.011845319101637204;-0.22142700464190254;-0.971842012609849;0.998;0.002549018687984015
52:50.5;0.011713777721534983;-0.22119229613366123;-0.9718612289443684;0.998;0.0025180899082450957
52:50.5;0.011521968751108004;-0.22088621395087946;-0.971909154861668;0.997;0.0024735516162819877
52:50.5;0.011274179539447997;-0.22052252348898277;-0.9719920887452373;0.995;0.0024165769586375003
52:50.5;0.010989122687166798;-0.22012517361394307;-0.9721107410973214;0.996;0.0023515189090557538
52:50.5;0.010700923499601339;-0.21972525705047777;-0.9722584171687441;0.995;0.002286035404732327
52:50.5;0.01045669669632612;-0.21935650124310987;-0.9724203065171387;0.9940000000000001;0.002230483634334977
52:50.5;0.010310386630162793;-0.21905030014247473;-0.9725743888226994;0.9940000000000001;0.0021965527272158744
52:50.6;0.010313514196754851;-0.21883135983097718;-0.9726942993342592;0.998;0.002195293545182195
52:50.6;0.0105045803173664;-0.21871472921902904;-0.9727540961412399;0.998;0.00223490880010214
52:50.6;0.010899746246152267;-0.2187043824114555;-0.9727341660479053;1.0;0.0023188253689882957
52:50.6;0.011487252369262835;-0.21879312689111433;-0.9726269193152498;1.001;0.002444534229323106
52:50.6;0.012226679546248958;-0.21896364374685995;-0.9724408201978391;1.0;0.0026034169149356514
52:50.6;0.013052748590072076;-0.21919051794829464;-0.9722015915343734;1.0;0.0027815064010180755
52:50.6;0.013882816565466333;-0.21944290935786653;-0.9719499707298517;1.0;0.0029610316453517584
52:50.6;0.014627127142691035;-0.2196873234062087;-0.9717360376109424;0.996;0.0031225711523235576
52:50.6;0.015200552485797339;-0.21989007213577486;-0.9716107704991485;0.992;0.003247560985920763
52:50.6;0.01553413685551132;-0.2200194189010969;-0.9716162701982272;0.991;0.0033208015184547543
52:50.7;0.015584621574412429;-0.22004781797944273;-0.9717769036292274;0.99;0.0033325747580733238
52:50.7;0.01534044381479643;-0.2199547460374982;-0.9720937808072607;0.993;0.0032800421630521564
52:50.7;0.014823362191699966;-0.21973010950947172;-0.9725441194108653;0.997;0.0031677113782982583
52:50.7;0.014085656995278896;-0.21937738920967798;-0.9730855178797523;1.0;0.0030069068978232204
52:50.7;0.013203526783610397;-0.2189153002624636;-0.9736636253056093;1.002;0.0028143299499771425
52:50.7;0.01226768119629105;-0.21837712767721668;-0.9742208698159335;1.002;0.0026099191833868726
52:50.7;0.011372287626316228;-0.21780761627009068;-0.9747041165879103;1.001;0.0024143136933506074
52:50.7;0.010603625668624977;-0.21725785673997997;-0.9750700451100072;1.0;0.002246289326167458
52:50.7;0.010030051499141924;-0.21677896737260996;-0.9752880432739301;0.9990000000000001;0.0021205728952133442
52:50.7;0.009694846333685274;-0.2164155963462858;-0.9753410900428553;0.998;0.002046378698479919
52:50.8;0.00961300666712034;-0.2162002895556146;-0.9752253680333376;0.997;0.002026844844540296
52:50.8;0.009772186728607963;-0.2161495989374491;-0.9749493658118306;0.998;0.002059340933798454
52:50.8;0.010137181873769297;-0.2162625510676264;-0.9745330571738962;1.0;0.0021364618169398136
52:50.8;0.010656819823705296;-0.21652164962289402;-0.9740072835611112;1.0;0.0022474557768790977
52:50.8;0.01127189550008016;-0.21689591792820417;-0.9734128547722435;1.0;0.0023798271209632877
52:50.8;0.011922681303492149;-0.21734507269966857;-0.9727985443288233;0.9990000000000001;0.002520847922405942
52:50.8;0.01255464739582567;-0.21782410510782013;-0.9722173051856227;0.996;0.002658727364131195
52:50.8;0.013121627399001893;-0.21828792303813105;-0.9717206150504052;0.993;0.0027832923533404586
52:50.8;0.01358671478299328;-0.2186958278754544;-0.9713517589117088;0.993;0.0028862336618839753
52:50.8;0.013922125077213821;-0.2190155345126333;-0.9711396462122306;0.992;0.0029611617809199705
52:50.9;0.014109484357337712;-0.21922635222276;-0.9710948236344535;0.9940000000000001;0.003003762140264593
52:50.9;0.014141261267024445;-0.2193210937603981;-0.9712086264652395;0.9940000000000001;0.0030121811086367438
52:50.9;0.014022846906511986;-0.21930638892902568;-0.9714554830761704;0.997;0.002987516967028725
52:50.9;0.013774093156228252;-0.21920135764107818;-0.9717976580780597;1.0;0.0029341485914078074
52:50.9;0.01342930401736793;-0.21903488504006632;-0.972191173022675;0.998;0.002859686784668696
52:50.9;0.013035117568871298;-0.21884189245885816;-0.9725913900859717;0.998;0.0027744431798550403
52:50.9;0.012645989665226051;-0.21865900865644275;-0.9729571356161899;0.997;0.0026903817285978105
52:50.9;0.012317439100312185;-0.21852001973268284;-0.9732531597737145;0.996;0.0026196150519323907
52:50.9;0.012098006231864267;-0.21845152951037047;-0.9734515426749424;0.996;0.0025726649599204696
52:50.9;0.01202148261522534;-0.21846941235015013;-0.9735329742139196;0.997;0.002556815198142235
52:51.0;0.012100962016012934;-0.21857672677890277;-0.9734886435335817;0.998;0.002574866430900048
52:51.0;0.012325841635255965;-0.21876360067644313;-0.9733228769449008;1.001;0.002624512089148138
52:51.0;0.012662384400180055;-0.21900925046109873;-0.9730558426445701;1.003;0.0026984583366542344
52:51.0;0.013057914693116329;-0.21928587251255094;-0.9727248446748046;1.004;0.002785316094603993
52:51.0;0.013448171137796259;-0.2195636176563563;-0.9723823650340055;1.0;0.0028711817112767836
52:51.0;0.013766776099017884;-0.21981542442610516;-0.9720896017155175;0.996;0.0029416886869189298
52:51.0;0.01395524867504646;-0.2200205481072438;-0.9719058382564871;0.991;0.002984179983386366
52:51.0;0.013971839055953967;-0.22016614651638836;-0.9718758373836537;0.988;0.002989612497837067
52:51.0;0.013797963798996882;-0.220246877350041;-0.9720186521517771;0.988;0.0029539242872975457
52:51.0;0.013441675850844857;-0.2202629571190253;-0.972321252643203;0.991;0.002878754713691012
52:51.1;0.012937809567973321;-0.2202175663136335;-0.9727390980925638;0.9940000000000001;0.002771463002985473
52:51.1;0.012344520689419993;-0.22011477129521;-0.9732037258158083;0.9990000000000001;0.0026444002079952077
52:51.1;0.01173640798452549;-0.21995897571686682;-0.9736355149841008;1.002;0.002513467615245057
52:51.1;0.011194981606127776;-0.21975615853192243;-0.9739587143813229;1.006;0.00239610026314896
52:51.1;0.010797591022283334;-0.2195161668505511;-0.9741156099414182;1.0070000000000001;0.00230889342580555
52:51.1;0.010606231095088965;-0.21925471144185957;-0.9740770247532509;1.006;0.0022651831371006755
52:51.1;0.01065789851063886;-0.21899379433702598;-0.9738470841592355;1.002;0.0022729723723493686
52:51.1;0.0109580997235521;-0.21875999074934077;-0.9734614045033793;1.001;0.0023335756377245325
52:51.1;0.011478796229134882;-0.2185808110929177;-0.9729793323549534;0.9940000000000001;0.002441248530157998
52:51.1;0.01216153774714925;-0.21847987769076224;-0.97247212699615;0.992;0.002583908309341172
52:51.2;0.012925497657165413;-0.21847201015401768;-0.9720097860091614;0.991;0.00274481902496522
52:51.2;0.01367884176445596;-0.2185595866477612;-0.9716493304025889;0.99;0.0029048836492503623
52:51.2;0.01433121955182559;-0.21873132094370676;-0.9714266924041111;0.991;0.0030451182193436056
52:51.2;0.014805525156039645;-0.21896378039491743;-0.971353295964868;0.992;0.003149004760808064
52:51.2;0.015047712808661748;-0.21922515674000803;-0.9714174501816408;0.996;0.003204548020472781
52:51.2;0.015033627507722079;-0.21948048323514374;-0.9715898344566251;0.998;0.0032058459936919
52:51.2;0.01477179076099326;-0.21969748374637246;-0.9718316200076366;1.0;0.0031539097054782243
52:51.2;0.014301547423353508;-0.21985209272679987;-0.972103314358084;1.002;0.003056511670209681
52:51.2;0.01368696016249846;-0.2199324282855159;-0.9723723440660194;1.003;0.002927041438107334
52:51.2;0.013007715373047514;-0.2199401098391208;-0.972617665550275;1.0;0.0027825797248684256
52:51.3;0.012348632913776183;-0.21988853106146367;-0.9728303917962592;0.997;0.0026415484967081968
52:51.3;0.011789269355190386;-0.21979870693287273;-0.9730106119906273;0.995;0.0025213294721276283
52:51.3;0.011394837784338908;-0.21969403806608434;-0.9731618285799819;0.993;0.0024361918400436886
52:51.3;0.011209352331963738;-0.21959547061996523;-0.9732851042669881;0.993;0.002395763670374936
52:51.3;0.011251648588641952;-0.21951817762729975;-0.9733749337879074;0.9940000000000001;0.002404179040340029
52:51.3;0.01151471910695832;-0.2194702553252832;-0.9734182088225103;0.996;0.002459962478708674
52:51.3;0.0119683801717581;-0.21945323564920372;-0.973396633012806;0.998;0.0025566260173200727
52:51.3;0.012564581594391196;-0.2194638062939289;-0.9732918632682507;1.002;0.0026838239913327777
52:51.3;0.013244119534839602;-0.21949610731742605;-0.9730917979808407;1.003;0.0028288096600403985
52:51.3;0.013943565351063801;-0.21954398513446102;-0.9727960043485777;1.001;0.0029779483279706743
52:51.3;0.014601706376430695;-0.21960250018082647;-0.9724185290326007;0.9990000000000001;0.0031181292759633957
52:51.4;0.015165159583869553;-0.21966817976928535;-0.9719873376986043;0.997;0.0032379843356891277
52:51.4;0.015592872304039806;-0.2197380766008021;-0.9715408370907211;0.996;0.003328836779436309
52:51.4;0.01585915658277695;-0.2198082259767882;-0.9711225869276742;0.9940000000000001;0.003385307189532894
52:51.4;0.015954896094709445;-0.21987232328982853;-0.9707752779953979;0.9940000000000001;0.0034055185763007746
52:51.4;0.01588670705211101;-0.21992132061108743;-0.9705348358859329;0.993;0.0033908794505173073
52:51.4;0.015674157212774043;-0.21994416625806656;-0.9704254588081663;0.992;0.0033454830002379553
52:51.4;0.015345538860635095;-0.2199293822998012;-0.9704564172614062;0.992;0.003275227214733335
52:51.4;0.01493297756951446;-0.21986698469112015;-0.9706213375579444;0.9940000000000001;0.003186810706336814
52:51.4;0.014467819134674669;-0.21975033455227644;-0.9709003075949718;0.997;0.003086791207458749
52:51.5;0.013977264824334252;-0.21957756692914215;-0.9712643897052631;0.9990000000000001;0.0029809015189863567
52:51.5;0.01348290314370074;-0.21935229243669793;-0.9716812564180836;1.0;0.002873752867336496
52:51.5;0.013001114714596942;-0.21908345265080098;-0.972120252613124;0.9990000000000001;0.002768918404200816
52:51.5;0.012544776367603415;-0.21878439420035378;-0.9725555550184565;0.998;0.0026692772386467537
52:51.5;0.01212555670595856;-0.2184712720725432;-0.972966990916958;0.996;0.0025774730376956867
52:51.5;0.0117561371333329;-0.21816096234397234;-0.9733389717512131;0.996;0.00249635184639736
52:51.5;0.011451669761774997;-0.21786887285023288;-0.9736585816047842;0.9940000000000001;0.002429241535233474
52:51.5;0.0112298533137303;-0.2176072160609146;-0.9739140923200225;0.996;0.0023799510589977463
52:51.5;0.011109375783924779;-0.21738421552535156;-0.9740949971788497;0.9990000000000001;0.0023524422817971314
52:51.5;0.011106997674523693;-0.21720430718671568;-0.9741938929627334;1.002;0.0023502308181085393
52:51.5;0.011233949340674398;-0.2170689511841935;-0.9742093401049108;1.002;0.0023756500039641935
52:51.6;0.01149249571028542;-0.2169775482004664;-0.9741479684906811;1.0;0.0024291485660642735
52:51.6;0.011873463152244005;-0.2169281535774011;-0.9740243494951459;0.997;0.002508783255505898
52:51.6;0.012355173730648325;-0.21691797841815172;-0.9738584180692188;0.995;0.002609998318660671
52:51.6;0.012903772540158034;-0.21694386810459246;-0.9736715931847385;0.995;0.0027256907352996894
52:51.6;0.01347481149632585;-0.21700284837996017;-0.9734833173312829;0.996;0.0028465357741370473
52:51.6;0.014016250971903094;-0.21709248963415356;-0.9733092679801165;0.998;0.0029616076503862537
52:51.6;0.014473147849825651;-0.21721067134599847;-0.9731614139545783;0.9990000000000001;0.0030593491032309544
52:51.6;0.014793794852677155;-0.21735448865903317;-0.9730490911362901;0.9990000000000001;0.0031288371296475563
52:51.6;0.014936444296497934;-0.2175183266984041;-0.9729798890339204;0.997;0.0031611633706721126
52:51.7;0.014875524486580574;-0.21769150361953882;-0.9729595272623924;0.995;0.0031507107978462237
52:51.7;0.0146063162029947;-0.21785642809420785;-0.9729907404681476;0.995;0.0030961342543878406
52:51.7;0.014147220366938237;-0.21798858072491636;-0.9730718320789498;0.997;0.003000887837070751
52:51.7;0.013539078601871046;-0.2180592861239095;-0.9731955727041229;0.996;0.0028731865192633543
52:51.7;0.012841446379137476;-0.21804123479380866;-0.9733487573809497;0.997;0.002725342283168521
52:51.7;0.01212615868427892;-0.21791558894966284;-0.9735125138207151;0.9990000000000001;0.0025724863850886863
52:51.7;0.011469022676870926;-0.2176787352893613;-0.9736634135798442;0.997;0.002430811421187783
52:51.7;0.01094089551547935;-0.2173465854667712;-0.9737753689692621;0.998;0.0023156049938829154
52:51.7;0.01059937478859746;-0.21695485884236973;-0.973822274319777;0.9990000000000001;0.0022393879332281274
52:51.7;0.01048194209183234;-0.21655478880877457;-0.9737813353578054;1.0;0.0022104006222485573
52:51.7;0.010601268278894946;-0.21620478004103125;-0.973636707061509;1.0;0.0022316190258898894
52:51.8;0.010943483682362413;-0.2159595840767981;-0.9733825551952181;0.996;0.0023004438413067297
52:51.8;0.011469872241275995;-0.21585953592006907;-0.9730246204842089;0.995;0.002409093461386009
52:51.8;0.012121626314553137;-0.2159227736972426;-0.9725800562516314;0.995;0.0025455679922753217
52:51.8;0.012826653439412505;-0.2161424801763994;-0.9720761237373355;0.996;0.002694968959812233
52:51.8;0.013507313379078477;-0.21648932665804727;-0.9715485328359845;0.996;0.0028409917060054314
52:51.8;0.014088191078408472;-0.2169175997896195;-0.971039804546246;0.997;0.0029674749146384924
52:51.8;0.014503250208580237;-0.2173728126896685;-0.9705974568977189;0.997;0.003059917472210754
52:51.8;0.014701752077366431;-0.2177990180272496;-0.9702714026882406;0.997;0.0031068353895391696
52:51.8;0.014652293887073675;-0.218144984514644;-0.9701098911270014;0.996;0.0031007859380998253
52:51.9;0.014344653403800468;-0.21836907140825157;-0.970153725597339;0.993;0.0030389373186216276
52:51.9;0.013789838152929373;-0.2184427359231403;-0.970429205541932;0.993;0.0029232141663920745
52:51.9;0.013019149685062872;-0.21835253440748537;-0.9709409533537612;0.99;0.002760156308306832
52:51.9;0.012082733790116464;-0.21810061720619858;-0.9716662677651865;0.988;0.002560585181203849
52:51.9;0.011047395285909999;-0.21770400255488184;-0.9725528789150014;0.99;0.0023390501389090974
52:51.9;0.009993078394959814;-0.2171930765991147;-0.9735218200485437;0.995;0.0021129584729352117
52:51.9;0.009007495450175705;-0.2166096301542085;-0.974476141165009;1.001;0.0019013103952795825
52:51.9;0.008178706776843037;-0.21600438566153685;-0.9753143762574118;1.005;0.0017230260080982834
52:51.9;0.0075860092309026714;-0.21543365562837236;-0.9759459150271207;1.008;0.0015949705493566505
52:51.9;0.007290270646684224;-0.21495472295848542;-0.9763047017365916;1.006;0.0015299457239993997
52:52.0;0.007325409560579203;-0.2146198470648451;-0.9763582690877881;1.004;0.001535009263747035
52:52.0;0.007692660204371493;-0.21446943488323128;-0.9761106288319582;1.001;0.0016104268350235198
52:52.0;0.008358753576610731;-0.21452554142235417;-0.9755992786164859;0.998;0.0017494115893439892
52:52.0;0.009258540061571969;-0.21478709582992786;-0.9748878497935036;0.995;0.0019386765345886286
52:52.0;0.010301926335665824;-0.21522807444371525;-0.9740564146763483;0.995;0.002159739996528776
52:52.0;0.011384330708443927;-0.2157994025284242;-0.973191350946844;0.9940000000000001;0.0023908701053607377
52:52.0;0.012399352744868882;-0.21643464015856884;-0.9723761869913242;0.9940000000000001;0.002609516818960073
52:52.0;0.013251998162131327;-0.21705863033491243;-0.9716842304979576;0.996;0.0027950113757834387
52:52.0;0.013870553987935243;-0.21759763298891827;-0.9711731785419339;0.996;0.0029311946116812233
52:52.0;0.014215196635326497;-0.2179892426208888;-0.9708814136946827;0.995;0.00300852843924949
52:52.1;0.014281757895161538;-0.2181905348501307;-0.9708255037228266;0.992;0.003025232450730914
52:52.1;0.014099949845751428;-0.21818328313424362;-0.9709988118168382;0.992;0.002987154866947353
52:52.1;0.013726661754793722;-0.217975599446873;-0.9713718504711515;0.9940000000000001;0.002906419687360666
52:52.1;0.013235917170587298;-0.21759985727109607;-0.9718952489615148;0.996;0.0027991882469363266
52:52.1;0.012707290444052105;-0.21710722684869932;-0.9725055193082645;0.997;0.002682991589783469
52:52.1;0.012214574807153752;-0.216559646679459;-0.9731327931078828;0.998;0.0025741152986583477
52:52.1;0.011816553367561764;-0.2160205464686798;-0.9737091959631968;0.9990000000000001;0.002485507927914585
52:52.1;0.011551366396620914;-0.21554596856699917;-0.9741766250839482;1.0;0.0024255541163641153
52:52.1;0.011435015122891072;-0.21517766484834366;-0.9744930141472036;0.9990000000000001;0.0023977983863232213
52:52.1;0.01146351801215523;-0.21493914943434386;-0.9746365514602662;0.9990000000000001;0.002401464318549634
52:52.2;0.011617595892018813;-0.21483487434386594;-0.9746077400832983;1.001;0.0024324891070983214
52:52.2;0.01186845597112658;-0.2148521262629834;-0.9744293666352296;1.001;0.00248475883186655
52:52.2;0.012183158760530598;-0.2149649493852869;-0.9741441926643245;1.0;0.002551236985228252
52:52.2;0.012528329352199098;-0.21513923812146413;-0.9738099300719535;0.9990000000000001;0.0026247442135673878
52:52.2;0.012871621358058985;-0.21533817751447878;-0.9734913833973108;0.995;0.0026982761874696907
52:52.2;0.013181115945408309;-0.21552736279067689;-0.9732505391997791;0.992;0.002764898851673962
52:52.2;0.013423722038484158;-0.21567897367736008;-0.9731363958515775;0.991;0.0028174386934610826
52:52.2;0.0135644944560689;-0.21577438988347186;-0.9731768932695802;0.991;0.0028483627551170267
52:52.2;0.013568720321490044;-0.21580488156099492;-0.9733750554490074;0.992;0.002850233023598045
52:52.2;0.013407197994825851;-0.21577048237226407;-0.9737105296124664;0.996;0.002816825359166555
52:52.3;0.013063452036855704;-0.21567752939521678;-0.9741464076093873;1.003;0.0027446507435277
52:52.3;0.012540847059838045;-0.21553548432785752;-0.9746396370678547;1.003;0.002634448546179816
52:52.3;0.01186754756162461;-0.21535376318239516;-0.9751519411757612;1.004;0.0024922163207211512
52:52.3;0.011097574950571431;-0.21513948166568658;-0.9756579471223428;1.0070000000000001;0.0023294092257518137
52:52.3;0.010306871205894056;-0.21489697398240548;-0.9761482314462228;1.004;0.0021620857830900167
52:52.3;0.009584344777602819;-0.21462944350007598;-0.9766262973177281;1.0;0.0020090009491733514
52:52.3;0.009019181517854054;-0.21434229558314338;-0.9770999241282711;0.996;0.0018889218257215428
52:52.3;0.008686954516696379;-0.2140469792476322;-0.977569153822117;0.992;0.0018177080905134356
52:52.3;0.008637735460832798;-0.21376391976266898;-0.9780147315138121;0.991;0.001805841794601285
52:52.3;0.008888896159390586;-0.213523471998693;-0.9783912023316346;0.991;0.0018569747321641216
52:52.4;0.009423753501666514;-0.21336450130956106;-0.9786279799952018;0.997;0.001967721863988994
52:52.4;0.01019580001721269;-0.21333077071637743;-0.9786397818197643;1.002;0.0021286177377571837
52:52.4;0.011137593762071197;-0.21346555168215278;-0.978345117214925;1.014;0.002326008273325446
52:52.4;0.012172714769587171;-0.21380494567318487;-0.9776886033866518;1.015;0.002544519277707196
52:52.4;0.013228077820342016;-0.21437068748337174;-0.9766608270332604;1.014;0.002769528960394231
52:52.4;0.014243345664286098;-0.21516383960895746;-0.9753094804537447;1.01;0.0029889850686383203
52:52.4;0.015175340782774938;-0.2161611408333532;-0.9737379149072984;1.0;0.003194170960056961
52:52.4;0.015997750895216305;-0.21731507009668405;-0.9720910243072494;0.99;0.00337952534195202
52:52.4;0.016698210448083485;-0.2185575569156932;-0.9705320002128666;0.986;0.0035419760234449444
52:52.4;0.017274705328412916;-0.21980690566244693;-0.9692157847969709;0.983;0.0036802087955604534
52:52.5;0.01773204272203925;-0.22097750221618095;-0.9682652381854996;0.986;0.003794033574256846
52:52.5;0.01807858645132477;-0.22199113028679812;-0.9677543831029847;0.986;0.0038838749626120966
52:52.5;0.01832373276033942;-0.22278762393198356;-0.9677007705011232;0.988;0.003950445710129408
52:52.5;0.018476641826303465;-0.2233324771316511;-0.9680670707786616;0.992;0.0039946650572761574
52:52.5;0.018546266272249024;-0.22362016449005456;-0.9687706618900899;0.997;0.004017801083600993
52:52.5;0.018542299850980323;-0.22367319452163537;-0.9696989078304522;1.0;0.004021744223890126
52:52.5;0.01847652893861226;-0.2235376152842018;-0.9707269332957132;1.002;0.004009295620466172
52:52.5;0.01836393861009579;-0.22327606853992765;-0.9717344662995289;1.004;0.003984332882611387
52:52.5;0.018222883830205802;-0.22295961621649843;-0.9726189327102018;1.003;0.0039517188072479455
52:52.5;0.01807406547451636;-0.22265933736586965;-0.9733031321592721;1.0;0.00391692164989481
52:52.6;0.017938732091540063;-0.22243849395481688;-0.9737372845843595;0.997;0.003885469367593942
52:52.6;0.01783680113053536;-0.22234608740139516;-0.9738968354184695;0.9940000000000001;0.003862419281765803
52:52.6;0.0177853491201097;-0.22241249637479985;-0.9737785984901448;0.995;0.003851960320999484
52:52.6;0.017797601454722155;-0.22264749841591067;-0.9733979291690722;0.9990000000000001;0.0038571783034912015
52:52.6;0.017882331553779853;-0.22304065202127887;-0.9727883804871719;1.002;0.003879953701749063
52:52.6;0.018043327376837826;-0.22356386118487007;-0.9720032291840841;1.002;0.003920901556751663
52:52.6;0.018278517989060123;-0.22417581566409953;-0.9711166657864742;1.001;0.00397924928055052
52:52.6;0.018578816914172576;-0.2248277523402483;-0.9702223369740052;1.0;0.00405265134753738
52:52.6;0.01892742724020422;-0.22546963108848103;-0.9694280293231495;0.997;0.004137092316980789
52:52.6;0.019300549466647957;-0.22605563429752823;-0.9688466158446851;0.993;0.004227075800707228
52:52.7;0.019669893403939567;-0.22654817527377893;-0.9685844307912083;0.993;0.004316185075722759
52:52.7;0.020006555246001177;-0.22692025654688064;-0.9687288793682679;0.991;0.004397925118358624
52:52.7;0.020285305821278105;-0.22715660002004412;-0.9693371884712843;0.993;0.004466648671221286
52:52.7;0.020488410755107045;-0.2272541210674854;-0.9704277867957773;0.9940000000000001;0.004518385312612885
52:52.7;0.020608436038646302;-0.22722207944291545;-0.9719751492323395;0.9940000000000001;0.004551459954942808
52:52.7;0.02064961312716931;-0.2270818435336742;-0.9739084489705602;0.996;0.00456680496281554
52:52.7;0.02062733194130257;-0.22686589986978828;-0.9761142471125339;1.001;0.004567861540584455
52:52.7;0.020565617778218928;-0.22661572843336533;-0.9784433723519103;1.001;0.0045600279530165645
52:52.7;0.02049302379136671;-0.22637848944366223;-0.9807217439567563;1.005;0.004549744474585495
52:52.7;0.020437786417713516;-0.22620302884749188;-0.9827644298918062;1.0090000000000001;0.00454340761276348
52:52.8;0.020423086155338183;-0.22613615292923567;-0.9843918962362047;1.015;0.0045463136968107954
52:52.8;0.020463023872983585;-0.22621999477184282;-0.9854469187360054;1.015;0.0045617768279598205
52:52.8;0.02055974723717708;-0.22649070913719108;-0.985810093486154;1.018;0.004590515130087507
52:52.8;0.020702148777014675;-0.22697819151009044;-0.9854119071004828;1.016;0.004630387770655403
52:52.8;0.020866635121885333;-0.22770623875672974;-0.9842400550742437;1.015;0.004676580203930785
52:52.8;0.021020341017881285;-0.22869257934148607;-0.9823415820185146;1.014;0.004722308529623736
52:52.8;0.02112661478529104;-0.2299483996202999;-0.9798199377132686;1.012;0.004759995885869238
52:52.8;0.021151828279123566;-0.2314772626569322;-0.976827078810603;1.01;0.004782708811030695
52:52.8;0.021071935236643802;-0.23327382447852452;-0.9735505115014359;1.003;0.004785517643234782
52:52.8;0.02087720357642196;-0.23532312963908314;-0.9701952870358896;0.996;0.004766461640712155
52:52.9;0.020574514130343564;-0.2376006689327529;-0.9669621063103117;0.986;0.004727011971768652
52:52.9;0.02018781696490082;-0.24007242987381008;-0.964024625743338;0.98;0.004672182244405032
52:52.9;0.019757611535463866;-0.24269430816850723;-0.9615105050229086;0.982;0.004610500430162758
52:52.9;0.019339668071261536;-0.2454112609907603;-0.9594904461672911;0.982;0.0045539070050699074
52:52.9;0.019002361578492152;-0.24815737128668947;-0.9579772287261531;0.992;0.004517414521785708
52:52.9;0.018821546754647676;-0.2508580885255123;-0.9569336278423662;0.991;0.0045181977619459055
52:52.9;0.01887234981275635;-0.2534350839342945;-0.9562858278115844;0.991;0.004573834364531783
52:52.9;0.01921853953079304;-0.25581285561189077;-0.9559386454710683;0.993;0.00469972846072115
52:52.9;0.019901559847283975;-0.2579255232834585;-0.9557901772951005;0.992;0.004906185902133141
52:52.9;0.020932036827200965;-0.25972225592626985;-0.9557449253482952;0.995;0.005195922412172353
52:53.0;0.022286002348203937;-0.2611700232662287;-0.9557250397442055;0.997;0.00556273619020967
52:53.0;0.023906295122141395;-0.26225311552623093;-0.9556790469291608;0.997;0.005991630144507934
52:53.0;0.025707794320426896;-0.2629701323354916;-0.9555868872628256;0.995;0.006460132463275285
52:53.0;0.027584654157267574;-0.26332998576185407;-0.9554601302826521;0.991;0.006940334915072971
52:53.0;0.029418461218604662;-0.2633483414395439;-0.9553372902387751;0.991;0.00740128742565853
52:53.0;0.031087019540869724;-0.2630453072244216;-0.955275545866798;0.9890000000000001;0.007811569568288012
52:53.0;0.032473614110188335;-0.26244463387453354;-0.9553408635334787;0.99;0.008141917124520028
52:53.0;0.033476257238909346;-0.2615742877364686;-0.9555982407473819;0.992;0.00836772288884069
52:53.0;0.034015896384782335;-0.2604679653021942;-0.9561029398259955;0.99;0.008471121113367557
52:53.0;0.03404235121079282;-0.25916698002456057;-0.95689285687511;0.99;0.008442333975268035
52:53.1;0.03353730811113775;-0.2577218889571559;-0.9579821528948087;0.9890000000000001;0.008280125606413374
52:53.1;0.03251480102686049;-0.25619313617064016;-0.9593568738685078;0.988;0.007991508808201653
52:53.1;0.031020328110966163;-0.25464997369255205;-0.9609738256145824;0.991;0.007591045273637194
52:53.1;0.029129320000753783;-0.2531672085208283;-0.9627638878770606;0.995;0.007099987621587439
52:53.1;0.02694443440752893;-0.2518199248113392;-0.9646400352118997;0.9990000000000001;0.0065452229425145055
52:53.1;0.024590365839429473;-0.2506770615657391;-0.9665088059181964;1.004;0.005957792871429897
52:53.1;0.022205299693988857;-0.24979532389632308;-0.9682825751844372;1.0070000000000001;0.005370850450727879
52:53.1;0.019929374597681595;-0.2492149277273735;-0.9698894552013159;1.008;0.004817147677920737
52:53.1;0.017891650076833764;-0.24895792821965376;-0.9712781940356956;1.005;0.004326333510457018
52:53.1;0.01619769376416973;-0.24902888689948394;-0.9724169702634999;1.002;0.003922432156577327
52:53.2;0.014920004335631934;-0.24941719743660265;-0.9732870521034352;0.998;0.003621898622741902
52:53.2;0.014092983596422073;-0.25010073538257205;-0.973874151162942;0.997;0.0034325806815465984
52:53.2;0.013713105057925765;-0.25105095936111704;-0.9741612102498322;1.0;0.003353733284537827
52:53.2;0.01374375618007563;-0.2522393982146183;-0.9741258758635145;1.004;0.003377018527550139
52:53.2;0.014123443372237412;-0.2536446946013524;-0.9737440875872947;1.0090000000000001;0.0034882789679960744
52:53.2;0.014775797358344306;-0.2552587295280134;-0.9729988583837781;1.013;0.003669812371616813
52:53.2;0.015619833896134954;-0.25709023510707185;-0.9718914466994815;1.015;0.0039028310609437486
52:53.2;0.016578792666541334;-0.25916467355822054;-0.9704512719025392;1.014;0.0041696772194604395
52:53.2;0.017585785779325448;-0.2615198885922997;-0.9687411866385723;1.01;0.0044552724318227144
52:53.2;0.018585267694622706;-0.26419802465401593;-0.9668558897166611;1.008;0.004747447100152025
52:53.3;0.019531245016712794;-0.2672351897888511;-0.9649128295488919;1.0;0.005036300729355977
52:53.3;0.020385032341255226;-0.27065094013426955;-0.9630365293953638;0.995;0.005313292266627628
52:53.3;0.021115691414072626;-0.2744397646742815;-0.961338809564379;0.991;0.005570944349164003
52:53.3;0.021704869435219255;-0.2785663101520522;-0.9598986066364307;0.99;0.005803782526107893
52:53.3;0.022155676822680024;-0.2829650768309502;-0.9587454316825428;0.9890000000000001;0.0060106462390295025
52:53.3;0.022503394152691144;-0.28754415546509954;-0.9578498289669238;0.991;0.0061979775345039475
52:53.3;0.022824408753100614;-0.2921918688579951;-0.9571229051840106;0.995;0.0063831547310138174
52:53.3;0.02323916050457853;-0.29678504229975244;-0.9564255255955378;0.998;0.006596500548119265
52:53.3;0.02390567051307667;-0.30119781046344135;-0.9555863644633051;1.001;0.006880542534399393
52:53.3;0.02500274096600271;-0.305310102723868;-0.9544268998653911;1.004;0.007285703078016693
52:53.4;0.02670520876799463;-0.3090150653092082;-0.9527908025151332;1.0090000000000001;0.007862726812576123
52:53.4;0.029155956378293834;-0.31222487948968014;-0.9505745941043339;1.0170000000000001;0.00865328487193851
52:53.4;0.032439830445894415;-0.3148749620303205;-0.9477552127426948;1.024;0.009680836503080274
52:53.4;0.036563817436465855;-0.31692667345221853;-0.9444084654227036;1.02;0.01094385160058244
52:53.4;0.04144661272556016;-0.31836775047705973;-0.9407120257688661;1.0090000000000001;0.012412944335436783
52:53.4;0.046919009899439056;-0.3192093221818254;-0.9369290815396784;0.993;0.014032373125812332
52:53.4;0.05273452675580424;-0.31948021527842757;-0.9333733760555928;0.978;0.01572513672180123
52:53.4;0.05858853946933341;-0.31922151153536765;-0.9303613841257792;0.966;0.017400290445972584
52:53.4;0.06414415103872935;-0.3184844069336044;-0.9281609423819156;0.96;0.01896131812263898
52:53.4;0.06906302407341909;-0.31733260836628063;-0.9269467215877262;0.958;0.020314917605210366
52:53.5;0.07303885504814253;-0.31584841430017624;-0.9267713900356801;0.9690000000000001;0.021379880620674422
52:53.5;0.07583012312109326;-0.3141399528902671;-0.9275578387058321;0.9690000000000001;0.022095606926819996
52:53.5;0.07728778013341676;-0.3123459675558541;-0.92911356888506;0.982;0.022429290699604535
52:53.5;0.07737371722988325;-0.3106345706062076;-0.9311644993701802;0.996;0.022380493513757257
52:53.5;0.07616716195373349;-0.30919380697109233;-0.9334021391624658;1.0090000000000001;0.021982007525096072
52:53.5;0.07385746723920471;-0.3082140618362525;-0.9355348429106171;1.015;0.021296430942243483
52:53.5;0.07072293263110936;-0.30786447942414386;-0.937331862914816;1.011;0.020408600548449923
52:53.5;0.0670972776526412;-0.308267239212972;-0.9386502008007346;1.0;0.01941493988665568
52:53.5;0.06332818964216952;-0.30947447454246235;-0.9394392504736859;0.988;0.01841156089428211
52:53.5;0.05973482750439402;-0.31145243082050333;-0.9397250509582842;0.977;0.017483168491851577
52:53.6;0.05657181363312933;-0.31407616408324585;-0.9395818174347811;0.971;0.016694356519328647
52:53.6;0.054005344461193434;-0.3171363045428353;-0.9391011916863301;0.973;0.01608403810615319
52:53.6;0.05210356595099478;-0.3203576747388401;-0.9383688019258701;0.981;0.015663043004765384
52:53.6;0.05084036833558532;-0.3234278693922073;-0.9374539090293905;0.9940000000000001;0.015414734626595409
52:53.6;0.050110454152421484;-0.32603207111972166;-0.9364125058273287;1.008;0.015298747143786628
52:53.6;0.04975336234914473;-0.32788838087547834;-0.9352991096899278;1.011;0.015258048251936634
52:53.6;0.04958354991818304;-0.3287769034828756;-0.9341796753121923;1.003;0.015228927943051173
52:53.6;0.04942195213776752;-0.32855756009351866;-0.9331387625584558;1.0;0.015152266177130799
52:53.6;0.04912320602167164;-0.3271756245489916;-0.9322776125716788;0.9890000000000001;0.014983487114334232
52:53.6;0.048593830489464064;-0.3246573548842814;-0.9317039434397594;0.9790000000000001;0.01469888235613996
52:53.7;0.047799372573574396;-0.3210991974350916;-0.9315174612413286;0.976;0.014297246870615007
52:53.7;0.046760685087013275;-0.3166534948698324;-0.9317967519264941;0.976;0.013797053338267053
52:53.7;0.04554060531519602;-0.3115123286980629;-0.9325928095284187;0.98;0.013230190599905956
52:53.7;0.04422330790065796;-0.3058900550369037;-0.933931691155277;0.991;0.01263373301600784
52:53.7;0.04288999897199692;-0.3000050464612129;-0.9358245678544047;0.996;0.012041456978384848
52:53.7;0.041595871550252676;-0.2940618560452939;-0.9382794775099289;0.9990000000000001;0.011476808623592823
52:53.7;0.0403533946156131;-0.28823589437826536;-0.9413072712401538;0.9940000000000001;0.010948624240713448
52:53.7;0.03912577376579954;-0.2826633031411397;-0.9449158113299004;0.986;0.010450221247911376
52:53.7;0.03783242566910813;-0.2774382500802307;-0.9490910246383027;0.9790000000000001;0.00996181312260469
52:53.7;0.03636606819655483;-0.2726181290834228;-0.9537690095297052;0.971;0.00945571314711666
52:53.8;0.034618770483849017;-0.2682350225774508;-0.9588078304603846;0.9670000000000001;0.008903457568420706
52:53.8;0.03251251730772521;-0.26431032405417354;-0.9639696687665339;0.97;0.008283771153707355
52:53.8;0.030028831051772224;-0.2608690671077711;-0.9689232492314259;0.985;0.007590150521091087
52:53.8;0.02723163846717683;-0.2579510038826349;-0.9732725270141491;1.01;0.006836683257537608
52:53.8;0.02427797677855038;-0.2556161463387779;-0.9766104793893248;1.035;0.006060691175437029
52:53.8;0.021412675282275563;-0.25394309278409083;-0.9785882094596294;1.052;0.00532117221260897
52:53.8;0.018945788262797733;-0.25301955722703046;-0.9789829068668575;1.053;0.00469290626487875
52:53.8;0.017214664854464143;-0.25292641541969574;-0.9777468852861662;1.043;0.004257152445388616
52:53.8;0.01653539251633306;-0.25371845554201783;-0.975024838214299;1.026;0.00409055509936062
52:53.8;0.017150745280478403;-0.255405678211919;-0.9711353061388757;1.008;0.0042539588907282554
52:53.9;0.019183662713504718;-0.25793835746685206;-0.9665212743942971;0.987;0.004782542938437092
52:53.9;0.02260572543035856;-0.2611983094652976;-0.9616811019057696;0.968;0.0056783203720762124
52:53.9;0.027227934750423302;-0.26499864988898786;-0.9570941070104103;0.956;0.006905784228876537
52:53.9;0.03271686902535678;-0.2690938304672558;-0.9531555821275894;0.958;0.008391493680079706
52:53.9;0.038634608544809615;-0.2731997144643689;-0.9501336683472489;0.9690000000000001;0.010028626686336632
52:53.9;0.04449632437636657;-0.27702056032216044;-0.9481550183927369;0.985;0.011687334900251131
52:53.9;0.04983514312766908;-0.28027795301805647;-0.9472185317806024;1.001;0.013230456617845878
52:53.9;0.054261362422688024;-0.2827366935153027;-0.9472293770035168;1.008;0.014532088280757664
52:53.9;0.05750450016233748;-0.28422373888011765;-0.9480416775859497;1.013;0.015494929733034093
52:53.9;0.05943180751006901;-0.28463784738444714;-0.949498496232445;1.011;0.01606223095861667
52:54.0;0.06004312747391964;-0.28394952081805225;-0.9514610529522893;1.002;0.016221666220138205
52:54.0;0.05944716851348069;-0.282192969626301;-0.9538236852950231;1.002;0.01600093887962671
52:54.0;0.05782741873904291;-0.279453368501522;-0.9565152729933332;1.0;0.015457350858279244
52:54.0;0.05540624007196484;-0.2758528349546457;-0.959490356095892;0.997;0.01466482028078339
52:54.0;0.05241352376753765;-0.27153780666822575;-0.9627136988197654;0.997;0.01370158520118477
52:54.0;0.0490635955184687;-0.2666697337110173;-0.9661417388797878;0.9940000000000001;0.012640782049200203
52:54.0;0.04554196143868642;-0.26142000885033145;-0.969704355691849;0.993;0.011544892746540863
52:54.0;0.04200174645269174;-0.2559684338947929;-0.9732907932850303;0.9940000000000001;0.010463967340181507
52:54.0;0.038568159095281246;-0.250502943334849;-0.9767438085904522;0.996;0.009436749135551375
52:54.0;0.03534812569071039;-0.24521765919719982;-0.9798655279083822;1.002;0.008493459344082214
52:54.1;0.032441408615444776;-0.2403070369771462;-0.9824364963334279;1.025;0.007658975482940167
52:54.1;0.029949396496282345;-0.23595569940548988;-0.9842455320349945;1.025;0.006955398213093146
52:54.1;0.027978706044281515;-0.2323253307319544;-0.9851234806682563;1.0290000000000001;0.006403462347526215
52:54.1;0.026638378080318346;-0.22954053259411275;-0.984972121278822;1.026;0.006022698212739811
52:54.1;0.026031056020565543;-0.22767542699586812;-0.9837816724533425;1.0170000000000001;0.005830511738941789
52:54.1;0.02623983602393752;-0.22674320822172322;-0.9816343205540973;1.01;0.005840434235737896
52:54.1;0.02731333021718572;-0.2266913621828695;-0.9786947627757762;1.003;0.006059780479887736
52:54.1;0.02925186253869079;-0.22740481394675938;-0.9751912639560061;0.996;0.006486986289833541
52:54.1;0.031997994406507725;-0.22871772733505744;-0.9713917617334143;0.9940000000000001;0.0071091389232976225
52:54.1;0.03543478383599823;-0.23043260369677185;-0.9675792119354637;0.991;0.007900603083540068
52:54.2;0.03939440309090428;-0.23234339518849442;-0.9640292894952728;0.9890000000000001;0.00882378839601482
52:54.2;0.04367692926190944;-0.23425825696036331;-0.9609923099947945;0.9890000000000001;0.009832567065180632
52:54.2;0.04807526842700833;-0.23601770963212865;-0.9586800350550486;0.992;0.010877773020622532
52:54.2;0.05240039009712124;-0.23750534367893825;-0.9572567089934217;0.993;0.011913416473681375
52:54.2;0.056502316698380683;-0.2386502925835893;-0.9568323643507864;0.991;0.012902209303567353
52:54.2;0.06028416344782755;-0.23942272261933784;-0.957456041244814;0.985;0.013819344631175871
52:54.2;0.06370747282184122;-0.23982494011091743;-0.9591078487714418;0.981;0.014653864361742633
52:54.2;0.06678808487516624;-0.23988125352291162;-0.9616913066012464;0.978;0.015407457916861062
52:54.2;0.06958341391252708;-0.23962934390416413;-0.9650297692095191;0.982;0.01609112622726589
52:54.2;0.07217352629450881;-0.23911467188929436;-0.96887159037415;0.9890000000000001;0.016720542777076006
52:54.3;0.07463909279199799;-0.23838814772260783;-0.97290716823133;1.011;0.01731101028863438
52:54.3;0.07703942769208795;-0.23750659121780876;-0.9767972202879445;1.011;0.017872821971929492
52:54.3;0.0793941093739603;-0.23653515303078732;-0.9802075580869287;1.02;0.018407805690941543
52:54.3;0.08167181989132481;-0.2355505015687408;-0.9828441007937327;1.025;0.018907795727366818
52:54.3;0.0837892202781542;-0.23464341389688395;-0.9844831288344903;1.028;0.019355517872023973
52:54.3;0.08562082743238808;-0.23391957939046254;-0.9849934546962293;1.031;0.01972783102906378
52:54.3;0.08701859638700506;-0.23349765867762098;-0.9843480524203163;1.031;0.02000061225280776
52:54.3;0.08783771484882268;-0.2335037927086726;-0.9826233104726725;1.0270000000000001;0.020154036019758754
52:54.3;0.0879633756629203;-0.2340621405256464;-0.9799849979805412;1.016;0.02017680920059582
52:54.3;0.08733287296333278;-0.23528188677600323;-0.9766617524788553;1.0;0.020068292479426108
52:54.4;0.08594903087133862;-0.23724215862797657;-0.9729098187766873;0.987;0.019838344946967974
52:54.4;0.08388411533354927;-0.2399769010640553;-0.9689760749150581;0.9790000000000001;0.019505730676869105
52:54.4;0.08127613657057467;-0.24346186823779475;-0.965068014584168;0.981;0.019096418498890325
52:54.4;0.07832036566055482;-0.24760576623938882;-0.9613377167098838;0.985;0.018642812955959723
52:54.4;0.0752580601495206;-0.2522476429631233;-0.9578822965759627;0.993;0.01818411977589427
52:54.4;0.07236275115182958;-0.2571630133929879;-0.9547579841402543;0.9990000000000001;0.01776711342341376
52:54.4;0.06992308550462867;-0.2620808602620818;-0.9520010270676933;1.0090000000000001;0.01744589710750452
52:54.4;0.06822141686250591;-0.2667108235187612;-0.949647190677542;1.005;0.017279201256050786
52:54.4;0.06750908183754477;-0.2707755569773059;-0.9477428301581039;0.997;0.01732455813968614
52:54.4;0.06798084150081389;-0.2740413565646276;-0.94634391056982;0.99;0.017629972579214035
52:54.5;0.06975162737299374;-0.27634210912820495;-0.9455038676356481;0.978;0.018224881878886774
52:54.5;0.07283934084904639;-0.277594244565749;-0.9452552293199209;0.978;0.019112854479944104
52:54.5;0.07715773951751118;-0.27780155808712736;-0.9455920043947038;0.976;0.020268329884371102
52:54.5;0.08252226935010282;-0.2770498441148239;-0.9464591618074211;0.982;0.02163868935527859
52:54.5;0.08866921443582475;-0.27549328756169933;-0.9477525108278165;0.987;0.023151483564721152
52:54.5;0.09528582391182094;-0.2733361521488663;-0.9493287279824272;0.9940000000000001;0.024725324118987597
52:54.5;0.10204679121016898;-0.2708131925311186;-0.9510227147625359;1.001;0.02628209980322326
52:54.5;0.10865087890140099;-0.26817088902594094;-0.952668214852915;1.004;0.027757896432626165
52:54.5;0.11485115812577339;-0.26565021511709186;-0.9541174475174861;1.0070000000000001;0.02911034741022365
52:54.5;0.12047372581644882;-0.26347092439091463;-0.9552562315817337;1.006;0.030321097459552557
52:54.6;0.12542245336008612;-0.2618174401112612;-0.9560123646639005;1.004;0.031393329129861536
52:54.6;0.12967032754477614;-0.2608269008351172;-0.9563565373352177;1.0;0.03234542186950081
52:54.6;0.13324060620534234;-0.26058017087125074;-0.9562965782747124;0.997;0.03320248325112702
52:54.6;0.13618295379591475;-0.2610965678299683;-0.9558670181831936;0.995;0.03398766973100007
52:54.6;0.13855034565168306;-0.26233292962067256;-0.9551165184422296;0.992;0.034714968777761354
52:54.6;0.14038137588676486;-0.26418743332105227;-0.9540957640456168;0.993;0.035384545194766075
52:54.6;0.14169015756077755;-0.26650813471540186;-0.9528482155719653;0.993;0.03598105373813754
52:54.6;0.14246361374962135;-0.26910568138051594;-0.9514055244199673;0.995;0.036474764126441614
52:54.6;0.14266489394166254;-0.2717693239257031;-0.9497883170008888;0.997;0.036825137324818694
52:54.6;0.1422420660638427;-0.2742851618301244;-0.9480117114703505;1.001;0.036986570849390304
52:54.7;0.14114204998670496;-0.27645528749858517;-0.9460936367072612;1.006;0.03691606849714064
52:54.7;0.13932954871006034;-0.27811601998159047;-0.9440629434638909;1.005;0.03658223094345111
52:54.7;0.1368087926869591;-0.27915293512071226;-0.9419639334346545;1.001;0.035974145216304376
52:54.7;0.13364317455729813;-0.2795103432942282;-0.9398550437807005;0.992;0.03510795583469521
52:54.7;0.12996659296265814;-0.2791934768153125;-0.9378019893610874;0.983;0.03402891883223816
52:54.7;0.12598205133078738;-0.27826276682701373;-0.935868431318263;0.975;0.032807910579992834
52:54.7;0.12194698769251265;-0.2768209999053679;-0.9341087512202957;0.97;0.031533164089881494
52:54.7;0.11814873381138605;-0.27499558762120896;-0.9325671705578826;0.972;0.03029946219566808
52:54.7;0.11487556652470986;-0.272919077215106;-0.9312854707094615;0.978;0.02919741399299941
52:54.7;0.1123885165995948;-0.2707108492587181;-0.9303184071703138;0.988;0.028304742892849823
52:54.8;0.11089722515065606;-0.26846196480342005;-0.9297522483578511;0.995;0.027680292883996215
52:54.8;0.11054101197448823;-0.2662243247093495;-0.9297189218758442;0.9890000000000001;0.02736042506145104
52:54.8;0.11137489792126602;-0.2640053395644362;-0.9303978343073646;0.981;0.027357015750539927
52:54.8;0.11335999842324485;-0.26176971248781655;-0.9320007410311032;0.971;0.027656389619136516
52:54.8;0.11635869433283567;-0.25944939515785626;-0.9347408547273789;0.9670000000000001;0.028219071943105835
52:54.8;0.12013686031951838;-0.25696055534944023;-0.938792621472632;0.965;0.02898093598534363
52:54.8;0.12437648912648039;-0.2542236544952017;-0.9442510258978408;0.971;0.029856693945192355
52:54.8;0.12870055600737298;-0.251181563377168;-0.9510986856596733;0.978;0.030746363960770934
52:54.8;0.13270808432429826;-0.2478118027284107;-0.9591864574233703;0.985;0.0315444097551247
52:54.8;0.13601331340308012;-0.24413141287726833;-0.9682304633221772;0.9940000000000001;0.032150211018148814
52:54.9;0.13828123275297496;-0.2401950568243135;-0.9778263438762753;1.0190000000000001;0.03247798235468103
