Time;AccX;AccY;AccZ;Acc-old;Acc-trns
56:23.7;0.016697604666936344;-0.2767426676659724;-0.9373094187607542;0.9790000000000001;0.004331250266055547
56:23.7;0.009651258537702203;-0.27089518909964033;-0.9471163246761809;1.018;0.002476216221251467
56:23.8;0.003128471053566089;-0.2654566642540604;-0.9560816381596476;1.048;0.0007940004548582255
56:23.8;-0.002426716867461222;-0.2607433073780334;-0.9634553642988192;1.058;0.0006096265571974954
56:23.8;-0.006644944237362028;-0.25701214173303194;-0.9687352442737797;1.058;0.0016544364201572445
56:23.8;-0.00926174550071652;-0.2544343355394051;-0.9717224748283206;1.0390000000000001;0.0022898699029128724
56:23.8;-0.010139405495685698;-0.2530757315541455;-0.9725221483390522;1.014;0.0024955282665705585
56:23.8;-0.009278315365961628;-0.25288940387082504;-0.9714929185148684;0.991;0.002279498978122382
56:23.8;-0.0068163139526602485;-0.25372245347683475;-0.9691611511861041;0.9740000000000001;0.0016761175940704345
56:23.8;-0.003015101916492393;-0.2553362513311774;-0.9661204828582974;0.966;0.0007437821723476084
56:23.8;0.0017660765514236358;-0.2574364819793761;-0.9629372807153325;0.97;0.0004378018750537691
56:23.8;0.007107753018350234;-0.2597078922086777;-0.9600771294070137;0.966;0.0017722443487694218
56:23.9;0.012575152849019364;-0.26184931782109094;-0.9578601699295699;0.9640000000000001;0.0031540373650371482
56:23.9;0.017765240442680637;-0.2636058265630256;-0.9564474073474867;0.986;0.0044790631897354966
56:23.9;0.02234799158511733;-0.2647946036682672;-0.9558563637736023;1.0070000000000001;0.005656401975588109
56:23.9;0.026093337706594322;-0.2653199565866055;-0.955999667830411;1.021;0.006618465265864949
56:23.9;0.028878693278176885;-0.2651734894909223;-0.9567339970867594;1.02;0.007326538708067958
56:23.9;0.030678082089784377;-0.2644196289572461;-0.9579038328535557;1.0070000000000001;0.007770407728769011
56:23.9;0.03153885629367621;-0.26317185311758395;-0.9593684056908945;0.993;0.007962891365056424
56:23.9;0.03155422874649958;-0.26156746115971685;-0.9610092088104132;0.983;0.00793174668695862
56:23.9;0.03083967133692061;-0.25974725923824993;-0.9627241918935032;0.986;0.007711921495284949
56:23.9;0.029518819457370952;-0.25784275947814894;-0.9644185645444265;0.993;0.007340395950534587
56:24.0;0.027719961733356932;-0.255969991048576;-0.965999992094176;1.001;0.006854232036528995
56:24.0;0.025578997307837772;-0.2542275197613072;-0.9673805698840261;1.0070000000000001;0.00629076463932237
56:24.0;0.023241861938200766;-0.25269653963098065;-0.9684832717174404;1.004;0.005688035989130435
56:24.0;0.020860793891267233;-0.2514415031484089;-0.9692489901306485;1.002;0.00508397204263625
56:24.0;0.018583286259516118;-0.25051009660856405;-0.9696416544129196;1.003;0.004513973604579529
56:24.0;0.016537081849790747;-0.24993197814546908;-0.9696511074475164;1.003;0.004007709188376574
56:24.0;0.014816712367807886;-0.24971670393944564;-0.9692943145618719;1.004;0.0035863701360229366
56:24.0;0.013476321115202788;-0.2498520548103949;-0.9686148989798276;1.004;0.0032614101712840674
56:24.0;0.012530734510862415;-0.2503040646091998;-0.9676802526624471;1.003;0.0030351230940925903
56:24.0;0.011963511762454686;-0.25101939190596045;-0.9665754841226295;0.997;0.0029026971715385855
56:24.1;0.01173846848334692;-0.2519296096991217;-0.9653943718053628;0.995;0.002854929674088115
56:24.1;0.011810582929550232;-0.2529562200080712;-0.9642288410384895;0.993;0.0028806919154763257
56:24.1;0.012132986956600565;-0.25401529709126147;-0.9631592325784701;0.9940000000000001;0.0029684223569091113
56:24.1;0.012658471270733376;-0.2550215152604578;-0.9622470787984791;0.995;0.0031063092038777352
56:24.1;0.013336268777013984;-0.2558921410128661;-0.9615307533787526;0.995;0.0032813644356163097
56:24.1;0.014106978552238776;-0.2565515377919553;-0.9610233069466131;0.993;0.003478103878302177
56:24.1;0.014898963467841692;-0.2569359383855168;-0.9607117378373546;0.99;0.003677680581980444
56:24.1;0.015627965611719703;-0.25699768217355595;-0.9605577891082999;0.9890000000000001;0.003857937178537054
56:24.1;0.016199590349922976;-0.2567082887934422;-0.960501375413137;0.991;0.003994311357477685
56:24.1;0.01651364353070374;-0.2560600106741376;-0.9604680331094027;0.993;0.004061323459583568
56:24.2;0.016470072047192686;-0.25506541615706996;-0.9603809043286097;0.998;0.0040345081080521445
56:24.2;0.015976884199412667;-0.2537546575130052;-0.9601760861725233;0.9990000000000001;0.003892754317127384
56:24.2;0.014959945537779585;-0.2521708197877738;-0.9598186986280168;0.998;0.003620879308545187
56:24.2;0.013373527989171786;-0.25036457766798964;-0.9593165699584242;1.001;0.0032120390795722393
56:24.2;0.011210081053802327;-0.24838953560181276;-0.9587288461286282;1.003;0.0026695486681452708
56:24.2;0.008508070115056056;-0.2462991038093907;-0.9581672132400382;1.001;0.0020078681829857
56:24.2;0.005356906279786998;-0.244145177541207;-0.9577876289292866;0.9940000000000001;0.0012526548434601324
56:24.2;0.0018974908546780175;-0.24197851137121293;-0.957771594196307;0.983;0.0004397627548521478
56:24.2;-0.001683387779296448;-0.23985026296261747;-0.9582988492382821;0.9740000000000001;0.0003869237031357087
56:24.2;-0.005165704376664238;-0.23781364236049674;-0.9595170357376385;0.9690000000000001;0.001178742664735951
56:24.3;-0.008315082521921306;-0.23592443245577185;-0.9615159857329914;0.987;0.0018862358362120772
56:24.3;-0.010905371705281925;-0.2342398336616125;-0.9643126125660755;0.987;0.0024633100060987116
56:24.3;-0.012741220021586603;-0.23281615880364928;-0.9678475893743358;0.987;0.0028709862178994887
56:24.3;-0.013677137539685542;-0.23170621187825885;-0.9719913477969457;0.998;0.003080316132752026
56:24.3;-0.013631023853495329;-0.23095655364788026;-0.9765567638625756;1.0070000000000001;0.0030743708985686586
56:24.3;-0.012591365336376281;-0.23060443916716983;-0.9813165288982807;1.012;0.0028493749527913836
56:24.3;-0.010617660779654196;-0.23067472973129546;-0.986022481161006;1.015;0.00241499192773989
56:24.3;-0.007834067540698684;-0.23117778599070096;-0.9904238594408341;1.0170000000000001;0.001793719401358404
56:24.3;-0.004417092904368331;-0.2321090941797022;-0.9942828989305407;1.023;0.0010193859897451988
56:24.3;-0.00057893289038402;-0.23345018330548334;-0.9973879482454759;1.0290000000000001;0.0001347989653907308
56:24.4;0.0034512031794078015;-0.23516957023015506;-0.999564588018472;1.032;0.0008112645802903786
56:24.4;0.007444794392163329;-0.2372229706140335;-1.0006843240911696;1.03;0.0017672848098384598
56:24.4;0.01118798708061733;-0.2395530807290642;-1.000669978453963;1.03;0.002681912392810409
56:24.4;0.014490700392970382;-0.2420896075744177;-0.9994976548312403;1.03;0.003506285720662343
56:24.4;0.017191607408210158;-0.24474998406184192;-0.9971960837343946;1.026;0.004195847753109344
56:24.4;0.01916046782486501;-0.24744111280663209;-0.993844293011652;1.025;0.004711902735144306
56:24.4;0.020298975013974874;-0.2500624289209517;-0.9895681141476723;1.028;0.005023058629298573
56:24.4;0.020541105925579953;-0.25251004236478153;-0.9845352788486722;1.022;0.0051066225623972615
56:24.4;0.019853925648451745;-0.25468114614405174;-0.9789480082317907;1.0090000000000001;0.004949972816030076
56:24.4;0.018239047188875063;-0.2564783403788423;-0.9730321361775299;1.003;0.004551767028645891
56:24.5;0.015734050811367282;-0.257814705199562;-0.9670235162968412;0.9940000000000001;0.003922701565512098
56:24.5;0.012413375378390322;-0.25862041709830047;-0.9611543187077702;0.9940000000000001;0.003085643994977947
56:24.5;0.008388767919309483;-0.2588500393439035;-0.9556419404112501;0.9940000000000001;0.002075112355724583
56:24.5;0.0038087272035241745;-0.25848845417724575;-0.9506813574091802;0.987;0.000935957211411246
56:24.5;-0.001144924093732569;-0.2575538811324611;-0.9464395564331629;0.981;0.0002790857594144767
56:24.5;-0.006265209127999831;-0.25609725541256445;-0.9430503176748399;0.976;0.0015131269339706155
56:24.5;-0.011333058386929166;-0.254197567329179;-0.9406090087234846;0.972;0.0027097401741927193
56:24.5;-0.016133514704572548;-0.2519533455537936;-0.939168271911155;0.968;0.003817618539346169
56:24.5;-0.020472625074033905;-0.24947160179345;-0.938735704026576;0.966;0.004794441068338691
56:24.5;-0.024192670676419042;-0.24685633673968174;-0.9392744638217849;0.968;0.005609454230772178
56:24.6;-0.027183416145175887;-0.24419858640175096;-0.9407074413671297;0.973;0.0062445587916310705
56:24.6;-0.029387282703903006;-0.24156941445708438;-0.9429247618885656;0.977;0.0066938876402563826
56:24.6;-0.03079754304566633;-0.2390168121450171;-0.945793059176072;0.977;0.006962106191974438
56:24.6;-0.031450510744983264;-0.23656714154413624;-0.9491642539762982;0.976;0.007061931473706274
56:24.6;-0.031414086328166044;-0.23423101257951595;-0.9528825209809908;0.981;0.007011455618535529
56:24.6;-0.030775278363103745;-0.23201212514480998;-0.9567899739934047;0.987;0.006831707876726465
56:24.6;-0.029628750207063122;-0.22991639007673093;-0.9607323849878587;0.993;0.006544638984111148
56:24.6;-0.028067745426655234;-0.22795853124138668;-0.964565291611083;0.996;0.0061715607650524315
56:24.6;-0.026178410918881838;-0.22616450096927707;-0.9681594156644079;0.998;0.005732111010630619
56:24.6;-0.024038307521058105;-0.22456960794338862;-0.9714038998898267;0.997;0.005243903732042815
56:24.7;-0.02171900096558755;-0.22321336660881352;-0.9742067811670732;0.996;0.00472292653962974
56:24.7;-0.019291136178011297;-0.2221326911794105;-0.9764935795555479;0.996;0.004184462470407407
56:24.7;-0.01682943009977201;-0.22135551396576808;-0.9782059167375394;0.996;0.0036440979311735287
56:24.7;-0.014415152177346706;-0.22089681546150952;-0.9793022759635285;1.001;0.0031183542505766756
56:24.7;-0.012134596489338087;-0.2207579996334517;-0.9797623331446107;1.008;0.0026245963982284696
56:24.7;-0.010073487629421986;-0.2209291561727841;-0.9795946483244059;1.012;0.00218011445810362
56:24.7;-0.008308639472140873;-0.2213927847964071;-0.9788453698422392;1.015;0.0018005594631898853
56:24.7;-0.006898730545078101;-0.2221272243365986;-0.9776041144552751;1.014;0.0014980765049682641
56:24.7;-0.005875832506561472;-0.22310857351877686;-0.976003101359844;1.0090000000000001;0.0012794899078869815
56:24.7;-0.005238935135510486;-0.22431125585324996;-0.974206893330007;1.003;0.001144841295606276
56:24.8;-0.004950387034651219;-0.22570845782435967;-0.9723925836852493;0.9840000000000001;0.001086497236087382
56:24.8;-0.004935811568082643;-0.22727331784489574;-0.9707238104686069;0.9840000000000001;0.001088936878051547
56:24.8;-0.005087615330449229;-0.22898045077701806;-0.9693252317574436;0.9840000000000001;0.0011292294371781965
56:24.8;-0.005271884003126644;-0.23080678427224088;-0.9682645096502481;0.9840000000000001;0.0011781712746121126
56:24.8;-0.005338428572156262;-0.2327312640061781;-0.9675458279125282;0.991;0.0012020975419287415
56:24.8;-0.005133767341460154;-0.23473357218214916;-0.9671150642203751;0.995;0.0011654389779259414
56:24.8;-0.004516597617390024;-0.23679185708342332;-0.96687414448982;0.996;0.0010340656491273786
56:24.8;-0.003374795318510466;-0.2388794446935601;-0.966701004925103;0.997;0.0007793246063662857
56:24.8;-0.0016420374626422848;-0.24096124370834435;-0.9664716566321053;1.002;0.00038240131712893426
56:24.8;0.0006893730781262468;-0.24299120798704577;-0.9660814636858831;1.004;0.00016182984882150527
56:24.9;0.003563870818754535;-0.24491194397740762;-0.9654631123544327;1.003;0.000842689542199195
56:24.9;0.00686875539545777;-0.24665670022879396;-0.9645990379429433;1.003;0.0016342473618471726
56:24.9;0.010449262310185163;-0.24815323677731907;-0.9635268718430059;1.003;0.002498442776743821
56:24.9;0.014127899804594777;-0.24932887616393046;-0.9623374454220395;0.998;0.003389827281629979
56:24.9;0.017724299698220695;-0.2501162981323206;-0.9611655793645122;0.996;0.00426097795051335
56:24.9;0.021073448996851745;-0.2504595469434472;-0.9601746629626999;0.993;0.0050678465079927485
56:24.9;0.024040123657549272;-0.25031910019128223;-0.9595370150120858;0.988;0.005774207931802663
56:24.9;0.02652736844388691;-0.24967476415233017;-0.9594126880111272;0.986;0.006354395988159931
56:24.9;0.02847837494497281;-0.24852609739503972;-0.9599295508684559;0.983;0.006794015997678612
56:24.9;0.029873087535728877;-0.24689115271199555;-0.9611673438075762;0.985;0.0070889946047972595
56:25.0;0.030721959160411018;-0.24480466967047196;-0.9631478838197055;0.9890000000000001;0.007243718754853578
56:25.0;0.031059080081865576;-0.242316417593308;-0.9658324118778355;1.0;0.0072689754793700285
56:25.0;0.030935858535805095;-0.2394897522916356;-0.9691251226402522;1.0;0.007180074654898199
56:25.0;0.030415440962815225;-0.23640008403065058;-0.9728802393190752;0.995;0.006995215949073107
56:25.0;0.0295678398724571;-0.23313296901513464;-0.9769104440834434;0.9990000000000001;0.006734076485729198
56:25.0;0.02846616536210771;-0.2297818352906503;-0.9809969297980592;1.004;0.0064167084916863975
56:25.0;0.027184623454180722;-0.22644544315601914;-0.9849029746717431;1.011;0.00606289932171005
56:25.0;0.02579845867136579;-0.22322475423629645;-0.9883919174310696;1.021;0.005692005336931188
56:25.0;0.024384799803229922;-0.2202187234757734;-0.991247818433424;1.0270000000000001;0.005322990361897314
56:25.0;0.02302212936469858;-0.21751912876360568;-0.9932948265850409;1.0290000000000001;0.004974175665909939
56:25.1;0.021786166360636416;-0.21520507854518167;-0.9944105502494825;1.0270000000000001;0.004662287543216885
56:25.1;0.0207419609792175;-0.2133378281388658;-0.9945301406477481;1.012;0.004400840533380603
56:25.1;0.01993473222094609;-0.21195656716852238;-0.9936410748481962;1.012;0.004198429059007682
56:25.1;0.019383362072363755;-0.21107607462682262;-0.9917721623502325;1.0090000000000001;0.004057700900717147
56:25.1;0.019079423498072;-0.21068697325023203;-0.9889817782863255;1.003;0.003975495094908985
56:25.1;0.01899191956392627;-0.21075852498151865;-0.9853492752219464;1.003;0.003944066366611082
56:25.1;0.019075497785600037;-0.21124310293118506;-0.9809717061095845;1.002;0.003952891550548745
56:25.1;0.019279300662631886;-0.2120812454603892;-0.975966319121982;1.003;0.003990509708192707
56:25.1;0.01955459480200667;-0.21320641393562226;-0.9704773121622797;1.004;0.004046080075866138
56:25.1;0.019860405090198558;-0.2145488576821879;-0.9646833668623596;0.9990000000000001;0.004110542089905455
56:25.2;0.020166724079431958;-0.2160384360657915;-0.9588015208481947;0.993;0.004177294510438808
56:25.2;0.02045508648013812;-0.21760697700813386;-0.9530836104907371;0.978;0.004242336729782854
56:25.2;0.020717142398669796;-0.21919109666901057;-0.9478038091064244;0.978;0.004303989572347406
56:25.2;0.02095275587623123;-0.2207358448744246;-0.9432385156300046;0.9690000000000001;0.004362501027930313
56:25.2;0.021168892136199016;-0.22219877196958687;-0.9396413875143588;0.955;0.004419792920215516
56:25.2;0.02137921068828795;-0.22355359296766317;-0.9372169286618143;0.955;0.004479333992944481
56:25.2;0.02160328148292526;-0.22479218403770349;-0.9360969212219541;0.951;0.004545919575575071
56:25.2;0.02186448449557271;-0.22592344935104322;-0.9363243158793485;0.9490000000000001;0.004625160994238701
56:25.2;0.022186298712820483;-0.2269684474330951;-0.9378480057476911;0.9540000000000001;0.0047226178264988235
56:25.2;0.022587192345351177;-0.22795279743088687;-0.9405300675331781;0.963;0.004842614079325181
56:25.3;0.023074805436615654;-0.228898659380348;-0.9441647783197786;0.986;0.00498688200104519
56:25.3;0.023640568001200513;-0.22981853034704972;-0.9485053528405017;0.986;0.0051532680861829565
56:25.3;0.024256015959514297;-0.23071180342667122;-0.9532914252131856;0.986;0.0053347610331948144
56:25.3;0.02487189020724984;-0.23156383850315426;-0.9582708833326;0.9890000000000001;0.005519094425488306
56:25.3;0.025420884412727753;-0.23234705272681344;-0.9632137757565984;0.991;0.005689190930452868
56:25.3;0.02582448446321192;-0.23302364362834135;-0.9679200019191648;0.993;0.005824667163890848
56:25.3;0.02600324075319935;-0.23354949083641097;-0.9722239388364031;0.997;0.005904358406467864
56:25.3;0.025888239390654058;-0.23387875267349573;-0.975998779480996;1.005;0.005909388728409087
56:25.3;0.025430712206397317;-0.2339685930971082;-0.9791621662067955;1.014;0.0058260030962814496
56:25.3;0.024607500457516203;-0.2337831314373376;-0.9816827787564241;1.021;0.005647442864312371
56:25.4;0.023421857030770092;-0.23329562140085633;-0.9835853781191436;1.018;0.0053745236395082744
56:25.4;0.021900622987862696;-0.23248876547039365;-0.9849507703143462;1.018;0.005015023409188555
56:25.4;0.020089427127773805;-0.2313545515375924;-0.9859081091463469;1.018;0.00458228438963125
56:25.4;0.018047129634396523;-0.2298955529721456;-0.9866190730645678;1.013;0.004093437985195349
56:25.4;0.01583986917845405;-0.2281285602543903;-0.9872553589170545;1.0090000000000001;0.0035674734513713646
56:25.4;0.013534805623702302;-0.22608968503687557;-0.9879724092875665;1.005;0.0030232745514265453
56:25.4;0.011194211774692478;-0.22383892373668615;-0.9888835004100938;1.002;0.0024778456991954886
56:25.4;0.008871238453737326;-0.2214620132008876;-0.9900388614114225;1.001;0.0019450722530480883
56:25.4;0.006608827577191763;-0.21906808527795096;-0.9914140726419698;1.002;0.0014353526418540879
56:25.4;0.004442495302053336;-0.21678278938942291;-0.992910688538939;1.0070000000000001;0.0009562291157793377
56:25.5;0.0024060605461961376;-0.21473792553069795;-0.9943698392692688;1.023;0.0005137635014505722
56:25.5;0.0005379506005558375;-0.21305971405037222;-0.9955964976829763;1.023;0.00011411089106252007
56:25.5;-0.0011143622043094533;-0.21185789535477573;-0.9963892249511872;1.023;0.00023523397627252395
56:25.5;-0.002493394051873135;-0.21121686019258695;-0.9965696073147439;1.026;0.0005248402573134495
56:25.5;-0.0035349943333284396;-0.21118891716534594;-0.9960074877174062;1.0290000000000001;0.0007435710089071025
56:25.5;-0.0041759703653365884;-0.2117894615141675;-0.9946398370669082;1.032;0.0008796858447511515
56:25.5;-0.0043646071994907975;-0.21299405191692364;-0.9924810948688788;1.026;0.0009226455322733707
56:25.5;-0.00407164756316285;-0.21473770968972597;-0.9896226447949816;1.016;0.0008652629743102529
56:25.5;-0.003299264080536509;-0.21691710741755638;-0.9862207014938201;1.0070000000000001;0.0007058054341996932
56:25.5;-0.002086062730501013;-0.2193966099988012;-0.9824748673812659;0.9990000000000001;0.0004496542746451475
56:25.6;-0.0005065612419127681;-0.22201870021246367;-0.9786020842699364;0.9940000000000001;0.00011005952905106944
56:25.6;0.0013357666424777847;-0.22461796943414797;-0.9748114189321151;0.993;0.0002924796797655891
56:25.6;0.0033210625345293956;-0.2270365627894322;-0.9712840929453481;0.993;0.0007323507534173812
56:25.6;0.005328133213679951;-0.22913874330299094;-0.9681609817096392;0.9940000000000001;0.0011820100724052552
56:25.6;0.007248021818788782;-0.23082282198368437;-0.9655373923481508;0.992;0.0016153526024161033
56:25.6;0.008993565201094334;-0.23202908702741007;-0.9634634147832034;0.99;0.0020105253194655824
56:25.6;0.010504311308435748;-0.23274243376712095;-0.9619480416042818;0.99;0.002351769589939058
56:25.6;0.011747266214070705;-0.23298906306999698;-0.9609659129122721;0.9890000000000001;0.0026301488556125813
56:25.6;0.012714478307684296;-0.23282815489206085;-0.9604658933177576;0.991;0.002843256162443872
56:25.6;0.013418581664800333;-0.23234088197473923;-0.9603804218566308;0.99;0.0029941637304494776
56:25.7;0.013887137070525482;-0.23161951829352417;-0.9606342267030221;0.99;0.003089910729285938
56:25.7;0.014156456458617225;-0.23075854400131168;-0.9611511869261592;0.9890000000000001;0.0031398149585161535
56:25.7;0.014265705000044334;-0.22984820683263185;-0.9618588992592441;0.9890000000000001;0.0031538840765417187
56:25.7;0.014252001642092843;-0.22896992888688875;-0.9626913389273513;0.9890000000000001;0.003141531202349656
56:25.7;0.014146992597658848;-0.22819270908071398;-0.9635904297738668;0.9890000000000001;0.003110701714602502
56:25.7;0.01397527243443266;-0.22757010456502036;-0.9645073310509794;0.99;0.0030674749501397166
56:25.7;0.013754867822416528;-0.2271380605157352;-0.9654039539928093;0.993;0.003016167164717578
56:25.7;0.013499475565359012;-0.22691426399589412;-0.9662547115756156;0.996;0.002959854199627703
56:25.7;0.01322147461558762;-0.22689950922857527;-0.9670478522419326;0.996;0.0029010914343502213
56:25.7;0.012934269004895941;-0.22708098294938142;-0.9677852752540401;0.997;0.002842507796998134
56:25.8;0.012652608440700616;-0.22743677136427715;-0.9684799259946614;0.996;0.002786964091745947
56:25.8;0.0123905054086992;-0.22794042833247316;-0.9691506894559306;0.9940000000000001;0.0027371694914960745
56:25.8;0.012157779660114781;-0.22856427267845822;-0.9698156305150266;0.9940000000000001;0.0026949567112316514
56:25.8;0.011956944558658396;-0.22928041284056652;-0.9704850851681639;0.991;0.002660578246861864
56:25.8;0.011781692818843836;-0.23005935547878045;-0.9711564136245147;0.993;0.002632308442672921
56:25.8;0.01161741115123127;-0.23086709108465595;-0.9718121200192517;0.996;0.002606475827955791
56:25.8;0.011443610941818628;-0.23166227283726318;-0.9724222495526409;1.0;0.0025779428443897605
56:25.8;0.01123773999147198;-0.23239524392741548;-0.9729504656044545;1.004;0.0025409548348002287
56:25.8;0.01097938942989336;-0.23301018728967338;-0.9733617640738088;1.004;0.0024901607330246947
56:25.8;0.010653977744763355;-0.2334506271795022;-0.9736293685351322;1.004;0.0024215893376768193
56:25.9;0.010255783880412256;-0.233667213811006;-0.9737391203594186;1.003;0.0023335078106974717
56:25.9;0.00979062622188698;-0.23362584521228105;-0.9736909389980098;1.003;0.0022271654711431698
56:25.9;0.009277744360125155;-0.23331421483607445;-0.9734978175675404;1.003;0.002107262231192368
56:25.9;0.008749570488840423;-0.23274554259023827;-0.9731830011061238;1.002;0.001981812763282253
56:25.9;0.00824835091198778;-0.2319589021375732;-0.9727758606553076;0.9990000000000001;0.0018611910636246835
56:25.9;0.007819707514035622;-0.2310160607048422;-0.9723070584157685;0.998;0.0017564513353160896
56:25.9;0.0075043412836581745;-0.22999545405578936;-0.9718038122941248;0.9990000000000001;0.0016772987652663631
56:25.9;0.007329914524225317;-0.2289846944712733;-0.9712859127326005;0.996;0.0016302434157962837
56:25.9;0.007305486383279615;-0.22807311669989977;-0.9707626852883737;0.9940000000000001;0.0016174702718141185
56:25.9;0.007420255211391949;-0.22734517956694864;-0.970230989035475;0.9940000000000001;0.0016367401449533382
56:26.0;0.007646927525722748;-0.2268747472411818;-0.9696747287691333;0.9940000000000001;0.001682283595732268
56:26.0;0.007948560519784193;-0.22671984988729768;-0.9690665970316494;0.993;0.0017463514722559144
56:26.0;0.008286622520841757;-0.22691763788620478;-0.968372459874536;0.993;0.001820908989012558
56:26.0;0.008627411388390134;-0.22747990245315344;-0.9675582622953139;0.993;0.0018988937566776116
56:26.0;0.008944502871284333;-0.22839007535834094;-0.9665989090985715;0.995;0.0019746027444103205
56:26.0;0.009216945521236341;-0.2296023263922018;-0.9654881747441757;0.998;0.0020431971002999234
56:26.0;0.009425246819038297;-0.23104271403933546;-0.9642480131205527;1.0;0.0020997798417149664
56:26.0;0.009547853769718354;-0.23261239038756215;-0.9629347637522312;1.0;0.0021386290857875988
56:26.0;0.009559461258031093;-0.23419358760221534;-0.9616393188304801;0.997;0.0021528839953072255
56:26.1;0.009430836801100595;-0.23565926229713408;-0.960478998921428;0.992;0.002134630039536046
56:26.1;0.009129603336262079;-0.23688614399186173;-0.9595809513469113;0.978;0.002075263202595092
56:26.1;0.008622174991626663;-0.2377692026013965;-0.9590600473405226;0.978;0.001966157180190943
56:26.1;0.007877386319505514;-0.23823434705835908;-0.9589971122593389;0.978;0.0017997153435944384
56:26.1;0.0068719279044154495;-0.23824634984023946;-0.9594237367371372;0.978;0.0015707798050295214
56:26.1;0.005596974159605233;-0.2378105932758266;-0.9603175263255069;0.9840000000000001;0.001278201589436332
56:26.1;0.004064650329783366;-0.23696916014789532;-0.9616084594617126;0.99;0.0009262181669120339
56:26.1;0.002312607009804008;-0.23579283111979898;-0.9631944800067602;0.9990000000000001;0.0005252262456068776
56:26.1;0.0004053925409582677;-0.2343705366098035;-0.9649624413612821;1.003;9.168307648041901e-05
56:26.1;-0.0015678383876015455;-0.23279762735716533;-0.9668091606520499;1.005;0.0003528747635679984
56:26.2;-0.003499249305963599;-0.2311646661257541;-0.9686572997202619;1.006;0.0007835495995662472
56:26.2;-0.005271609016654298;-0.22954868882625856;-0.9704623218728332;0.998;0.0011743476611529979
56:26.2;-0.006769934312765515;-0.22800822284417294;-0.9722095229304225;0.998;0.0015007032918058095
56:26.2;-0.0078933591430728;-0.2265821908917852;-0.9739031273504934;0.998;0.0017418204921103595
56:26.2;-0.008564831554289451;-0.22529196432334933;-0.9755512016022397;0.996;0.001882411623686026
56:26.2;-0.008737283429666454;-0.22414541829428075;-0.9771501394617892;0.993;0.0019136723784014226
56:26.2;-0.00839605635195072;-0.22314180176353582;-0.9786719174127019;0.993;0.001833552741715905
56:26.2;-0.007557737414157027;-0.22227655191014567;-0.9800571061526732;0.997;0.0016464055894799287
56:26.2;-0.006265725746615306;-0.22154557373392297;-0.9812160362020599;1.003;0.0013620689624064583
56:26.2;-0.004583317569730177;-0.22094853652170113;-0.982038820978079;1.008;0.000994488430999684
56:26.3;-0.0025856255301214865;-0.22049053152441817;-0.9824126029449767;1.015;0.00056007926779819
56:26.3;-0.0003519307283992783;-0.22018158917692632;-0.9822423304729779;1.0170000000000001;7.611264891742056e-05
56:26.3;0.002040066963735738;-0.22003416681028748;-0.9814702740946631;1.016;0.00044056672906642435
56:26.3;0.004517265448067354;-0.22005936679593138;-0.9800898082065105;1.011;0.0009742745180040009
56:26.3;0.007011558463567955;-0.22026309720232193;-0.9781507823794572;1.005;0.0015106439230004468
56:26.3;0.009458682070147937;-0.22064345447700753;-0.9757563612731861;1.001;0.0020363999027568306
56:26.3;0.011797250120903144;-0.22119005219501714;-0.9730532591693735;0.998;0.002539118618317313
56:26.3;0.013969692150605723;-0.22188512126575763;-0.970217985508507;0.995;0.0030073525142276197
56:26.3;0.015925735879425498;-0.22270557424491927;-0.9674412583879232;0.992;0.0034312724324639106
56:26.3;0.017627423164564397;-0.22362502585731658;-0.9649120271084202;0.986;0.003803618524098509
56:26.4;0.019053602175518197;-0.22461484465750894;-0.9628023115083013;0.983;0.004120526131019773
56:26.4;0.020202102758144956;-0.2256437978375577;-0.96125431322557;0.983;0.004381857783763651
56:26.4;0.021088835960557432;-0.2266768174934023;-0.9603712075284354;0.987;0.0045909107133626816
56:26.4;0.02174389918608019;-0.22767422757642014;-0.9602120055326924;0.987;0.004753553972408236
56:26.4;0.022205195625970384;-0.22859266539927553;-0.9607893789015388;0.9890000000000001;0.004876913903471794
56:26.4;0.022510517032475058;-0.22938808003952352;-0.9620686519242311;0.988;0.004967780294146998
56:26.4;0.02268963134469266;-0.2300202991437111;-0.9639669255024368;0.9840000000000001;0.005031016442640051
56:26.4;0.02275821020547932;-0.23045813360450812;-0.9663530320160487;0.985;0.005068342537586315
56:26.4;0.022715110226827193;-0.23068394726241634;-0.9690506557725086;0.99;0.005077836376466821
56:26.4;0.022543800209403206;-0.23069679212194777;-0.9718472432202409;0.998;0.005054366028841878
56:26.5;0.022217687280130523;-0.23051322840071745;-0.9745097504234347;1.004;0.004990923253074789
56:26.5;0.02170772403585111;-0.2301651571716776;-0.9768058486122837;1.008;0.0048804753445559875
56:26.5;0.020989815882519296;-0.2296948801501423;-0.9785275418302305;1.012;0.004717729084911714
56:26.5;0.020050131418887864;-0.22914862938910935;-0.9795138267974385;1.014;0.004500337227638232
56:26.5;0.01888783074259425;-0.2285701561946563;-0.979669478277713;1.014;0.004229423608016597
56:26.5;0.01751567615608338;-0.22799570601758162;-0.9789776186052102;1.016;0.003909546093521709
56:26.5;0.015959232930703292;-0.22745120147026898;-0.977504219666852;1.015;0.003548288220943902
56:26.5;0.014255137125714962;-0.2269517863390232;-0.9753931671728507;1.008;0.003155620100083677
56:26.5;0.01244832608997482;-0.22650334341570177;-0.9728513635566367;1.0;0.0027430395239122093
56:26.5;0.010587949274610138;-0.22610536885192556;-0.9701250129135088;0.99;0.002322471690774421
56:26.6;0.008722559961155993;-0.22575430880654795;-0.967470522132439;0.981;0.0019050998949602812
56:26.6;0.0068962244069023515;-0.22544625832205842;-0.96512538231772;0.978;0.0015005074448660987
56:26.6;0.005147051580510286;-0.2251784287275793;-0.9632847683942365;0.982;0.0011164518509315794
56:26.6;0.003508486251102825;-0.22494967344273548;-0.9620876808472443;0.987;0.0007593111892820534
56:26.6;0.0020123386746288175;-0.22476061140053116;-0.9616129155373142;0.987;0.00043493220479980983
56:26.6;0.0006913517533122608;-0.2246135818118043;-0.9618821277779828;0.9890000000000001;0.0001493677838234246
56:26.6;-0.00042100404144401234;-0.22451253112757935;-0.9628664577739648;0.9890000000000001;9.101079518762393e-05
56:26.6;-0.0012939844820153185;-0.22446281658589948;-0.9644942505486358;0.9890000000000001;0.0002801387067638663
56:26.6;-0.001904268919045605;-0.22447060709844313;-0.9666589537567366;0.988;0.0004132006900904377
56:26.6;-0.0022392454208533;-0.22454176754226993;-0.9692274878366255;0.995;0.0004873315787143826
56:26.7;-0.002297633292644899;-0.22468081214617674;-0.9720498014876668;1.001;0.0005018052682346666
56:26.7;-0.0020878291146070767;-0.2248904916109659;-0.9749695693420904;1.0070000000000001;0.00045778030488853773
56:26.7;-0.0016252922050696795;-0.22517172611512815;-0.97783453705411;1.0070000000000001;0.00035785796007965266
56:26.7;-0.0009306445752514439;-0.22552325322655103;-0.9805043076406513;1.005;0.00020579019745648627
56:26.7;-2.9595026766774893e-05;-0.22594088746846275;-0.9828543953638316;1.006;6.5720786415327355e-06
56:26.7;0.0010459063869569867;-0.22641672194060203;-0.9847774890880888;1.006;0.00023320584219384028
56:26.7;0.0022573706429631787;-0.2269385606847128;-0.9861843231412063;1.01;0.0005052068882989729
56:26.7;0.003561956821764784;-0.22748985556530552;-0.9870062594502527;1.016;0.0007997800974443982
56:26.7;0.004916702124516064;-0.2280505244425192;-0.987199925477573;1.02;0.00110690433129008
56:26.7;0.00628282987654224;-0.22859870767615023;-0.9867521524886949;1.021;0.0014172196118598134
56:26.8;0.007628327710847161;-0.22911280530130396;-0.9856823028525896;1.015;0.001722723841312899
56:26.8;0.00892803618719644;-0.2295728928114777;-0.984039694044441;1.008;0.0020169222914128517
56:26.8;0.01016156194234769;-0.22996118504459553;-0.9818960757965269;1.001;0.0022944602128720797
56:26.8;0.01131029215888112;-0.23026195785068476;-0.9793357305202602;1.001;0.0025505134390948277
56:26.8;0.012355328414330805;-0.2304616314702465;-0.9764469888545637;0.9990000000000001;0.002780363613359556
56:26.8;0.013277729543268467;-0.2305495223171665;-0.9733179664000042;1.0;0.002979495850699656
56:26.8;0.014061104786149844;-0.23051930431571502;-0.9700370319581769;1.0;0.0031442354441805044
56:26.8;0.01469515230636499;-0.23037072646799078;-0.9666964500421418;0.9990000000000001;0.003272589308603808
56:26.8;0.015178158562635649;-0.23011081851879028;-0.9633965933505119;0.997;0.003364815291442123
56:26.8;0.015517111510842582;-0.22975390698537815;-0.9602480651950944;0.993;0.003423396696396948
56:26.9;0.015725467071968386;-0.22932042306061662;-0.9573696961699353;0.987;0.0034524386065322528
56:26.9;0.015819882622951455;-0.22883537125888795;-0.9548815640837982;0.976;0.0034568132655671993
56:26.9;0.01581759559515008;-0.2283275183848738;-0.9528940492874451;0.976;0.0034414648578676506
56:26.9;0.01573539598556126;-0.22782945196701454;-0.951495836665011;0.976;0.0034110998661461456
56:26.9;0.015590064242934916;-0.2273775505266508;-0.9507441464915346;0.9740000000000001;0.003370226962375123
56:26.9;0.015399432560307895;-0.2270106037413072;-0.950659071765488;0.973;0.0033233467644540127
56:26.9;0.01518283125135618;-0.22676624351024793;-0.9512225144403694;0.973;0.003275014988788218
56:26.9;0.014959729288842719;-0.22667508958424193;-0.9523818917351676;0.976;0.003229525067923892
56:26.9;0.014746343435691386;-0.22675348197923978;-0.9540585767042498;0.982;0.0031901664912501577
56:26.9;0.014551495158357087;-0.22699667470105775;-0.9561599938740659;0.9890000000000001;0.00315833129063631
56:27.0;0.014373837800853797;-0.22737493559526478;-0.9585926952830354;0.995;0.003132921002190497
56:27.0;0.014201965302122138;-0.22783469520200328;-0.9612725653868408;0.996;0.003110390058820171
56:27.0;0.014017220382811469;-0.2283056152488001;-0.9641285575547741;0.991;0.0030854139703153155
56:27.0;0.013797704330857799;-0.22871241999156364;-0.9670985997973282;0.991;0.0030518791903662167
56:27.0;0.013522243674612603;-0.2289882572054134;-0.970119706991086;0.991;0.003003912627098218
56:27.0;0.013174205966696375;-0.22908568463772352;-0.9731167148145423;0.993;0.002936887647493417
56:27.0;0.012745495883237418;-0.22898283438174963;-0.97599408595154;0.993;0.002848438518244867
56:27.0;0.012240567777897176;-0.22868460441626945;-0.9786338770787227;0.998;0.0027394207206711554
56:27.0;0.011679655666736784;-0.22822019073612015;-0.9809015115488624;1.004;0.002614625588118316
56:27.0;0.011100002175847754;-0.22763840646823125;-0.9826595086836233;1.012;0.002482971082416962
56:27.1;0.010553739411014857;-0.2270014235085443;-0.9837874434644454;1.018;0.00235687322308407
56:27.1;0.010101582922999602;-0.22637681899969128;-0.984204454754323;1.023;0.002250643521441269
56:27.1;0.00980295962766675;-0.22582820535151102;-0.9838892346535337;1.023;0.002178119012733568
56:27.1;0.009705092894469778;-0.22540605976471487;-0.9828921718254746;1.023;0.0021501618907743244
56:27.1;0.009834403879723003;-0.22514107335757444;-0.9813354782210042;1.014;0.0021728026004566017
56:27.1;0.010192534728212946;-0.2250416179773882;-0.9793995981595104;1.004;0.0022464924479738725
56:27.1;0.010757403410001112;-0.22509562156759633;-0.9772975871872495;0.992;0.0023664717764961146
56:27.1;0.011488222519744554;-0.2252759911850433;-0.9752426974501178;0.986;0.0025239483032409495
56:27.1;0.012332523277717566;-0.22554778592443214;-0.9734167618933464;0.983;0.002707630094270036
56:27.1;0.01323285274158137;-0.22587498083678312;-0.9719468967725274;0.9840000000000001;0.0029051204653839815
56:27.2;0.014131239356801483;-0.22622516344805618;-0.9708955573053902;0.991;0.0031037996303670086
56:27.2;0.014970863763598831;-0.22657136917181928;-0.9702650692275407;1.004;0.0032911091342146008
56:27.2;0.015696021885364363;-0.2268911409680725;-0.9700133839603352;1.004;0.003454497328944792
56:27.2;0.016252413091588078;-0.22716398311368258;-0.9700743957842424;1.004;0.00358147867277611
56:27.2;0.0165895699024171;-0.22736919893388824;-0.9703757467440723;1.002;0.0036602158034331673
56:27.2;0.016666121195832426;-0.227485808828262;-0.9708498401211157;1.0;0.0036807888824573086
56:27.2;0.0164569772514404;-0.22749502956156198;-0.9714374241308756;0.998;0.0036369456547327094
56:27.2;0.01596012674642101;-0.22738448061375705;-0.9720855784029416;0.995;0.0035277813184128926
56:27.2;0.01520039006790721;-0.22715248546791092;-0.9727430469840022;0.9940000000000001;0.0033586934026246574
56:27.2;0.014228417120996163;-0.22681090573599982;-0.9733560121352727;0.996;0.003141175757878429
56:27.3;0.013114967218446622;-0.22638566952614378;-0.9738667553499938;0.998;0.002891449969282662
56:27.3;0.011942171864884606;-0.22591495818477908;-0.9742162866197823;1.002;0.002628352983767591
56:27.3;0.010794102377190992;-0.22544557807330473;-0.9743503498166975;1.002;0.0023710646715032783
56:27.3;0.009748387812286992;-0.2250282210410797;-0.9742270507704247;1.002;0.0021371252185952037
56:27.3;0.008869623202610477;-0.22471207241429178;-0.973824258783121;1.003;0.0019409402428714698
56:27.3;0.008204665511314116;-0.2245389295450038;-0.9731454974871001;1.004;0.0017927936524748753
56:27.3;0.007779898107776973;-0.2245372189406553;-0.9722233481425628;1.002;0.0016983542992514023
56:27.3;0.007600747529097848;-0.2247170596574869;-0.9711192513524174;1.0;0.0016586888079086202
56:27.3;0.007653558348430266;-0.2250679551312217;-0.9699187619196854;0.997;0.0016707536668108653
56:27.3;0.007909385676968318;-0.22556001876954335;-0.9687222706550178;0.993;0.0017282404245293733
56:27.4;0.008328772711222485;-0.22614830740113917;-0.9676324928740571;0.99;0.0018225724265455033
56:27.4;0.008866440608922563;-0.22677898506644106;-0.9667408995335381;0.988;0.001943847584050308
56:27.4;0.009475141398826428;-0.22739602912165374;-0.9661155093509198;0.985;0.002081601683005938
56:27.4;0.010108479967254802;-0.22794758115142294;-0.9657922756508652;0.988;0.0022253819975088457
56:27.4;0.010722913133558;-0.22839138622884028;-0.9657716955052188;0.992;0.0023651951586542994
56:27.4;0.011279300801668555;-0.22869881641523254;-0.9660210146732464;0.993;0.00249191181872783
56:27.4;0.011744332211500464;-0.22885689944627263;-0.966480865887825;0.995;0.0025976796840947447
56:27.4;0.012091866157992568;-0.22886811665721637;-0.9670742754792729;0.996;0.002676322580642045
56:27.4;0.01230405929701444;-0.22874855503874097;-0.9677160052887981;0.997;0.002723671326895828
56:27.4;0.012372464409164485;-0.22852549027782748;-0.9683207435519512;0.996;0.0027378528210623802
56:27.5;0.012299546936202162;-0.2282350237303133;-0.9688094341303399;0.996;0.0027196296237579853
56:27.5;0.012100480761126351;-0.22791946752652112;-0.9691138869848793;0.995;0.0026727532357188792
56:27.5;0.01180398428409064;-0.22762363206123906;-0.9691804428519079;0.993;0.002604057762220035
56:27.5;0.011450587716927658;-0.22738928016968069;-0.9689737505509068;0.993;0.00252295658385517
56:27.5;0.011087583598482602;-0.22724771466050897;-0.9684816507487027;0.996;0.0024402135175078756
56:27.5;0.010761322122516187;-0.22721171447442515;-0.9677214285703178;0.9990000000000001;0.0023661741645146896
56:27.5;0.010508549262064945;-0.22726919385094715;-0.9667462078735751;1.001;0.002308850501194707
56:27.5;0.01034872765371738;-0.22738103892061115;-0.9656488100110878;1.001;0.0022722725075407283
56:27.5;0.01027894714973384;-0.22748449655508504;-0.9645599820383838;0.998;0.0022554316838706
56:27.5;0.010272619996941597;-0.2275020024745603;-0.9636388161671301;0.993;0.0022520640199958303
56:27.6;0.010282791258545103;-0.22735393709820867;-0.9630551225224588;0.988;0.0022514621203969616
56:27.6;0.010250274398901632;-0.22697281570259398;-0.9629658348977316;0.98;0.002240372411027518
56:27.6;0.01011573492310509;-0.22631633132791315;-0.9634894894431232;0.98;0.0022057704594745492
56:27.6;0.009833574416501623;-0.2253774103910007;-0.96468384165938;0.978;0.002137995552253077
56:27.6;0.009384587752286318;-0.22419028169966462;-0.966531416119875;0.981;0.0020335177012873306
56:27.6;0.008784194403390065;-0.22283192296696458;-0.9689363216223901;0.9890000000000001;0.001896594919785504
56:27.6;0.008083814632722564;-0.22141802556452225;-0.9717334456797602;0.9990000000000001;0.0017393079051226167
56:27.6;0.00736477523326348;-0.22009233569188294;-0.9747084615900189;1.002;0.0015799347548364855
56:27.6;0.006726117755441771;-0.21900922183873314;-0.9776246577468813;1.005;0.0014401211058237577
56:27.6;0.0062688813416913545;-0.2183121080378351;-0.9802516488532037;1.011;0.0013415456464794858
56:27.7;0.0060801050045659576;-0.21811293988989938;-0.9823917285595973;1.012;0.0013027983756559976
56:27.7;0.006220097866340732;-0.21847748744363224;-0.9839008940241776;1.0170000000000001;0.001337073451635772
56:27.7;0.006715515206314701;-0.21941830954566174;-0.984702614718471;1.0170000000000001;0.0014509661900909568
56:27.7;0.007558393918099229;-0.22089437447621416;-0.9847931491607197;1.0170000000000001;0.001644217236588144
56:27.7;0.00870944604041712;-0.2228156150416937;-0.9842378093307204;1.013;0.0019100124598735108
56:27.7;0.010103848035621883;-0.2250515387885674;-0.9831584267009112;1.0070000000000001;0.0022355907211288675
56:27.7;0.011658454362473585;-0.22744361310312147;-0.9817137371043193;1.001;0.002603152379271448
56:27.7;0.013279687738662616;-0.22982066499523748;-0.9800762217008678;0.997;0.0029911403582538916
56:27.7;0.014871464305412517;-0.2320156012851042;-0.9784101756411272;0.9990000000000001;0.0033759179495330824
56:27.7;0.0163425080036709;-0.23388124031982188;-0.9768554018088023;1.0;0.0037337426187929227
56:27.8;0.017612126471574504;-0.2353031603833083;-0.9755188484922546;1.003;0.004042734500560763
56:27.8;0.018613415431722;-0.23620799508908374;-0.9744738434206561;1.0070000000000001;0.004284408282595956
56:27.8;0.019293675484841104;-0.23656651285836452;-0.9737645344070006;1.0070000000000001;0.0044444926330018475
56:27.8;0.019613336567532696;-0.23639202540093018;-0.9734121746342898;1.0070000000000001;0.004513163595914784
56:27.8;0.019545577116349074;-0.23573550630311801;-0.9734201002733113;1.004;0.00448511732989175
56:27.8;0.01907828970760804;-0.23467878564579878;-0.9737755642277119;1.0;0.004359855984880965
56:27.8;0.018218569892723933;-0.23332675517109436;-0.9744484359693831;0.9990000000000001;0.00414226316960943
56:27.8;0.016998199100949376;-0.23179911784641913;-0.9753883757747897;0.998;0.0038431936332910008
56:27.8;0.015477145880881503;-0.23022184451493813;-0.9765228397842699;1.0;0.00347952379351467
56:27.8;0.013741778956350231;-0.22871827627516142;-0.9777579148089005;1.002;0.0030730892111557155
56:27.9;0.01189594119859061;-0.2273999384352081;-0.9789828145743452;1.003;0.0026482819450497005
56:27.9;0.01004574788923975;-0.22635766378660457;-0.9800775977803318;1.0070000000000001;0.002228629834811199
56:27.9;0.008281783368240049;-0.22565435154098412;-0.9809228737932062;1.0070000000000001;0.0018331687318744998
56:27.9;0.006664185713793995;-0.22532098633737047;-0.9814100870844525;1.0070000000000001;0.0014736666400348931
56:27.9;0.005215746179715622;-0.2253569792022327;-0.9814513141854415;1.008;0.0011536025889441047
56:27.9;0.00392545306995285;-0.22573479067075222;-0.9809880522806335;1.01;0.0008692646248105656
56:27.9;0.0027614793571142746;-0.22640761565492806;-0.9799986847664058;1.011;0.0006127147354757646
56:27.9;0.0016898873146812378;-0.22731785798909684;-0.9785039910580647;1.013;0.00037588405410832513
56:27.9;0.0006936057322462552;-0.228403601019814;-0.9765695858086458;1.011;0.00015471015275634657
56:27.9;-0.00021439638590541033;-0.22960104370135723;-0.9743039252898843;1.003;4.796072840154343e-05
56:28.0;-0.000988937190211552;-0.23084330179287238;-0.9718508779519933;0.998;0.00022186337651738944
56:28.0;-0.0015632202860835875;-0.23205875369882076;-0.969377006209204;0.996;0.00035165018623066946
56:28.0;-0.0018681479853420349;-0.23317263137031397;-0.967055149939145;0.987;0.00042125017250844125
56:28.0;-0.0018517395684194775;-0.23411310474363062;-0.9650470238391882;0.987;0.00041836380766559824
56:28.0;-0.0014906298851523213;-0.2348201117409634;-0.963488061049499;0.99;0.00033724960672537184
56:28.0;-0.0007905093076484874;-0.2352540282956455;-0.9624770601427259;0.991;0.0001789923391791969
56:28.0;0.00022209806502114995;-0.2354018327283661;-0.9620711857372546;0.991;5.0299286225918666e-05
56:28.0;0.0015106865598837455;-0.23527944505793305;-0.962284963666286;0.992;0.00034202830827020924
56:28.0;0.003035963178670346;-0.2349297861841508;-0.9630914241375123;0.992;0.0006869135749376304
56:28.0;0.004756481476913235;-0.23441678111469336;-0.964424157364032;0.991;0.0010753320455381798
56:28.1;0.006624713487610422;-0.23381631901656133;-0.966179861937326;0.991;0.0014965798741048055
56:28.1;0.008583652070707503;-0.2332061999296816;-0.968221598369535;0.993;0.0019381481196859484
56:28.1;0.010568171133833319;-0.2326575732752859;-0.970383337828079;0.993;0.0023859446361109253
56:28.1;0.012511488606142386;-0.23222956048961305;-0.9724765929585949;0.993;0.0028255672087866097
56:28.1;0.01435397466068339;-0.23196730336191898;-0.9743001218845372;0.998;0.0032440811235769362
56:28.1;0.016051272774027583;-0.23190267563207168;-0.9756537381329685;1.002;0.003631708207100724
56:28.1;0.017579248969458342;-0.2320563599332817;-0.9763565654896958;1.008;0.003982926054472998
56:28.1;0.01893339891239577;-0.2324395815288845;-0.976268511435682;1.015;0.004296432092710325
56:28.1;0.020121662458017695;-0.23305385512650242;-0.9753118367346586;1.018;0.00457365756906311
56:28.1;0.02115251614571786;-0.233888150753722;-0.9734882196908854;1.014;0.004816160547661901
56:28.2;0.022022620225019735;-0.2349147347349279;-0.9708865292505475;1.008;0.00502282125278126
56:28.2;0.022708666256521754;-0.23608653890345963;-0.9676781804058217;1.002;0.005187926343626746
56:28.2;0.023166704374849117;-0.2373388685280601;-0.9640998903345583;0.988;0.005300967698272495
56:28.2;0.023339685223007327;-0.23859621400152722;-0.9604267164880218;0.988;0.005348386390925141
56:28.2;0.02317079947504557;-0.23978239777526594;-0.956940297306325;0.982;0.005316712307494604
56:28.2;0.022618016951599314;-0.2408312094132524;-0.9538973284273644;0.9740000000000001;0.005195997390815757
56:28.2;0.021665223895422723;-0.24169512831092443;-0.951502142950418;0.97;0.004982425905729295
56:28.2;0.020326995426122575;-0.24235041087701514;-0.949886629771759;0.9670000000000001;0.004679384418012876
56:28.2;0.018646370231564395;-0.24279743561782496;-0.9491006759476593;0.968;0.004296854830437612
56:28.2;0.01668723287613156;-0.24305632436125035;-0.9491153261904122;0.976;0.0038495524306333658
56:28.3;0.014524134659007794;-0.2431592588726576;-0.949838360182488;0.985;0.003354523068720217
56:28.3;0.012232416419891862;-0.24314180529928853;-0.9511386962497469;0.995;0.0028288879447656225
56:28.3;0.009880923500294141;-0.24303558297408548;-0.952873240609206;0.993;0.00228824504903555
56:28.3;0.007528656131922775;-0.24286387526899603;-0.9549091936409587;0.993;0.0017459928327446257
56:28.3;0.005225364635787531;-0.24264069315532652;-0.9571371344342878;0.991;0.0012135408658791769
56:28.3;0.003014847734053655;-0.2423728069583933;-0.9594740278843265;0.99;0.0007011040867173693
56:28.3;0.0009390577565546977;-0.24206349456850584;-0.9618584131283032;0.9890000000000001;0.000218641576932817
56:28.3;-0.0009589646422880858;-0.24171638147577396;-0.9642414917156567;0.9890000000000001;0.00022350873178548743
56:28.3;-0.0026349747331852087;-0.24133807907409988;-0.9665779437687785;0.9890000000000001;0.0006146659951896473
56:28.3;-0.004047060183104172;-0.2409390751793491;-0.9688196317442841;0.993;0.0009446911184701329
56:28.4;-0.00516222027005917;-0.24053270489238948;-0.9709143429405426;0.998;0.0012055676445703928
56:28.4;-0.005963672484953392;-0.24013204835905147;-0.9728102844091232;1.01;0.0013931313437408467
56:28.4;-0.006455885172561578;-0.239745214282894;-0.9744647834558824;1.01;0.001508244993917398
56:28.4;-0.006665530648193389;-0.23937075458654725;-0.9758533368065635;1.01;0.0015570063005745185
56:28.4;-0.006638461699089249;-0.23899551017044274;-0.9769747682299622;1.01;0.0015500315703076283
56:28.4;-0.006433780926847167;-0.2385961845749772;-0.9778502335966202;1.01;0.0015010740159944176
56:28.4;-0.006116163971341957;-0.2381442891189861;-0.9785162438501777;1.004;0.001425237796034262
56:28.4;-0.005747652361292538;-0.2376129744203217;-0.9790134850670859;1.001;0.0013370551380395017
56:28.4;-0.005380145849394958;-0.2369839669293522;-0.9793743978855041;1.0;0.0012487104920348806
56:28.4;-0.0050493766104842295;-0.23625309298267522;-0.9796132328625649;1.0;0.0011686108385771858
56:28.5;-0.004770457402474772;-0.23543335139818455;-0.979721948378447;1.0;0.0011003499918229675
56:28.5;-0.004534926988990699;-0.23455508596408386;-0.9796737780933044;1.013;0.0010420693869068547
56:28.5;-0.004309711489357947;-0.23366352382324762;-0.979433819804727;1.013;0.0009863117696756768
56:28.5;-0.0040387867204905075;-0.23281451585370636;-0.9789731853372853;1.013;0.0009205169097827946
56:28.5;-0.003648052352824691;-0.23206934588678607;-0.9782818241908302;1.014;0.0008282144912451244
56:28.5;-0.003053322460247548;-0.2314891385305851;-0.9773761439746866;1.01;0.0006908201959948976
56:28.5;-0.0021706620879529417;-0.23112934768270482;-0.9762996615828796;1.005;0.0004898131646584688
56:28.5;-0.000927460831306734;-0.2310351020574063;-0.9751166779791576;1.003;0.00020894410891139205
56:28.5;0.0007280607306659778;-0.2312382202930604;-0.9739003665707423;0.996;0.00016396145163365608
56:28.5;0.002820914427979983;-0.23175638665474466;-0.9727177543967257;0.9940000000000001;0.0006359287593703753
56:28.6;0.005347450978637706;-0.232594637076372;-0.9716145895583884;0.993;0.001208482974865357
56:28.6;0.008276232930418214;-0.23374877455825077;-0.9706030026087306;0.991;0.001877689070588508
56:28.6;0.011549602547219455;-0.2352093317511502;-0.9696543829075687;0.991;0.0026341381736992384
56:28.6;0.015084432435633741;-0.23696386265081038;-0.968699267917308;0.991;0.003462581992774824
56:28.6;0.018772101274149286;-0.2389957075249939;-0.9676353170772868;0.991;0.0043412490414307826
56:28.6;0.022479233897730187;-0.24127891318999994;-0.9663434657613753;0.995;0.005241219987583649
56:28.6;0.026051053123199403;-0.2437707204004158;-0.9647110462026068;1.002;0.006126382051022369
56:28.6;0.029318253383475133;-0.24640421839945617;-0.9626588360294072;1.008;0.00695438346459671
56:28.6;0.03210707901747136;-0.2490840395034771;-0.9601668286732248;1.01;0.007678800689910574
56:28.6;0.03425146413658806;-0.25168713351195027;-0.9572922063825249;1.006;0.008252483765336448
56:28.7;0.03560563816526212;-0.2540692214379807;-0.9541738787543662;0.998;0.008631740074961423
56:28.7;0.0360555657714193;-0.25607627626052587;-0.9510210974444743;0.988;0.008780754037350007
56:28.7;0.03552823265992843;-0.2575594806420671;-0.9480878923199229;0.971;0.008675604498493058
56:28.7;0.033998718896435964;-0.25839140794849985;-0.9456390463103524;0.971;0.008307417124708862
56:28.7;0.031495302485680346;-0.25848089289947307;-0.9439155969672913;0.97;0.007684354490242972
56:28.7;0.028102231945595614;-0.2577845236318701;-0.9431069302391774;0.973;0.006832168844928768
56:28.7;0.02395891288913759;-0.25631355549720636;-0.9433328527744801;0.976;0.005793001528940708
56:28.7;0.019253879706674446;-0.2541355950304901;-0.9446353045244493;0.977;0.004622191396189838
56:28.7;0.014212549325049778;-0.2513706435320773;-0.9469775314957996;0.9790000000000001;0.003383188662180362
56:28.7;0.009079273735169365;-0.24818164321866268;-0.9502483895693568;0.9790000000000001;0.0021412033195557833
56:28.8;0.004095940568137441;-0.24476057190242598;-0.9542702109210777;0.98;0.0009566795103003315
56:28.8;-0.0005194553721193569;-0.2413118810672206;-0.9588097383326539;0.986;0.00012018752266129023
56:28.8;-0.004590578393148803;-0.23803543881262673;-0.9635923947821736;0.986;0.0010529370113840158
56:28.8;-0.007993867385622988;-0.2351110087453287;-0.9683203046240713;0.9940000000000001;0.0018199059409327778
56:28.8;-0.010661691076778838;-0.23268555442435992;-0.9726942331619359;1.0;0.0024130807658747505
56:28.8;-0.01257831121092519;-0.23086387111384535;-0.9764389087503166;1.008;0.0028354590926878654
56:28.8;-0.013770856102604073;-0.22970295178882835;-0.9793297466611627;1.018;0.0030978220199378674
56:28.8;-0.0142979231554867;-0.22921071464124235;-0.9812172497512966;1.024;0.0032156816568151758
56:28.8;-0.014238144029719754;-0.22934934676198665;-0.9820442895930682;1.023;0.00320687449780376
56:28.8;-0.013680369998933656;-0.23004258710156272;-0.981851880173273;1.018;0.003089954345210729
56:28.9;-0.012716399243958707;-0.2311856347980586;-0.9807712202937686;1.011;0.002883319126008454
56:28.9;-0.011436520003782003;-0.23265642518638477;-0.9790029487568692;1.006;0.0026049113295716895
56:28.9;-0.009927343192262506;-0.23432717589886304;-0.9767873968685592;0.992;0.0022722480624032815
56:28.9;-0.00827073440547723;-0.236074899648673;-0.9743714599624517;0.992;0.0019024727424586643
56:28.9;-0.006542917590758769;-0.23778962273217008;-0.9719783704252386;0.988;0.0015122407920086362
56:28.9;-0.004813660892087264;-0.23937985339180687;-0.9697856715923573;0.99;0.001117477666249114
56:28.9;-0.0031456650588738227;-0.2407756732481407;-0.9679141524566871;0.9940000000000001;0.0007330978135509788
56:28.9;-0.001593771776645098;-0.24192988415406577;-0.9664275731959261;0.997;0.00037263613067741016
56:28.9;-0.00020338142497877405;-0.2428173751615363;-0.9653406629923739;0.9990000000000001;4.767290822446796e-05
56:28.9;0.0009919850662995723;-0.24343310519685632;-0.9646315442606036;0.998;0.00023294115939257422
56:29.0;0.001973335724764376;-0.24378956401056645;-0.9642548216310508;0.997;0.0004638824136190405
56:29.0;0.002738380244374201;-0.24391430381632903;-0.9641529131891046;0.997;0.0006439867622222042
56:29.0;0.003302967282309674;-0.24384717816333923;-0.9642648437036805;0.996;0.0007766374685257387
56:29.0;0.003701466097743678;-0.24363651613257006;-0.9645327087199207;0.996;0.0008698274649485656
56:29.0;0.003985030555278927;-0.24333416634991167;-0.9649061983121906;0.996;0.0009356638360239353
56:29.0;0.00421638411643756;-0.24299026271567284;-0.9653454242138617;0.998;0.0009890352752398622
56:29.0;0.004460934752645595;-0.24264872128624762;-0.9658221255049902;0.998;0.0010454446111242666
56:29.0;0.0047761465398901285;-0.2423439892893853;-0.9663191108306411;0.998;0.001118485773449479
56:29.0;0.005202448634924115;-0.24209915771095733;-0.9668276647916172;0.996;0.0012177275966273261
56:29.0;0.005758370056444837;-0.24192559172013756;-0.9673428972366498;0.995;0.001347602568641955
56:29.1;0.006440658896845378;-0.24182426207186888;-0.9678577195249239;0.9940000000000001;0.0015074457393475641
56:29.1;0.007228362600595723;-0.24178836534086873;-0.9683569512586179;0.995;0.0016924303458587817
56:29.1;0.008088792958703853;-0.24180611167926966;-0.9688133660322156;0.995;0.0018949210257129523
56:29.1;0.008982908922113416;-0.2418627522040602;-0.9691869891896921;0.995;0.002105685769909193
56:29.1;0.009868189855463597;-0.24194176962453834;-0.9694281627858283;0.997;0.0023145362201536304
56:29.1;0.010698576599655186;-0.24202563374797784;-0.9694842882199833;1.001;0.0025103145404100596
56:29.1;0.01142280926603582;-0.24209648244333265;-0.9693094352689634;1.005;0.0026805495817803057
56:29.1;0.011983552246061992;-0.24213695260556242;-0.9688748762024626;1.006;0.0028113462699399672
56:29.1;0.012319432444867778;-0.24213112196872558;-0.968177758906564;1.003;0.002887994864139186
56:29.1;0.012370616245387468;-0.2420650836336225;-0.9672455437139916;0.997;0.0028964112248310286
56:29.2;0.012086709788704159;-0.24192655078758676;-0.966135526778354;0.996;0.0028250730385387716
56:29.2;0.011434625969280517;-0.2417034593264512;-0.964930629183887;0.995;0.002666864323753991
56:29.2;0.010404270431016088;-0.24138240769214755;-0.9637332520339829;0.995;0.0024203272514947962
56:29.2;0.009011246354249297;-0.2409481737248958;-0.9626581425749577;0.995;0.0020901650923544892
56:29.2;0.007296985551646191;-0.24038519371959116;-0.9618240142931712;0.993;0.0016871232742655087
56:29.2;0.005326965865412925;-0.2396811890147618;-0.9613432386228897;0.99;0.0012274175834593138
56:29.2;0.00318765916700041;-0.23883252186224166;-0.9613095256634449;0.987;0.0007318609743117667
56:29.2;0.0009830212773911978;-0.23785035619434342;-0.961784759914291;0.983;0.00022487678075057866
56:29.2;-0.0011689390253891239;-0.236766168465412;-0.9627873995600011;0.983;0.0002664660608789484
56:29.2;-0.003139842902855828;-0.23563476609933598;-0.9642854177744375;0.987;0.0007134324947701487
56:29.3;-0.00479597303918374;-0.23453313527145717;-0.9661962047711242;0.991;0.0010867915913660847
56:29.3;-0.006005847732922105;-0.2335543796797987;-0.9683941982978849;0.996;0.0013583588351944015
56:29.3;-0.006650760734390158;-0.23279741669276777;-0.9707249796586316;1.002;0.0015029539919139156
56:29.3;-0.006637226106829755;-0.23235437008465265;-0.9730230321187187;1.002;0.0015005849217688844
56:29.3;-0.005908910958179987;-0.2322982476331263;-0.9751298540191895;1.006;0.0013384921609585936
56:29.3;-0.004455481766843636;-0.23267322146506295;-0.9769097814782375;1.0070000000000001;0.001012734329113474
56:29.3;-0.0023168572719686354;-0.23348883772179685;-0.9782620944953302;1.011;0.0005292009674639285
56:29.3;0.00041741712828918283;-0.23471844694327276;-0.9791287982097663;1.011;9.593063364689834e-05
56:29.3;0.003613375280052063;-0.2363014832082637;-0.9794977505496997;1.0090000000000001;0.0008363401756500561
56:29.3;0.007102063436544413;-0.238148880817603;-0.9794011805020324;1.0090000000000001;0.001656508677295446
56:29.4;0.010692816699153014;-0.24015075794741375;-0.9789102895260252;1.011;0.002513732019708853
56:29.4;0.014189646105421368;-0.24218543795109881;-0.9781269163670081;1.0090000000000001;0.003361358243322943
56:29.4;0.01740924172380881;-0.24412900426945172;-0.9771728988898362;1.0070000000000001;0.004153083365354045
56:29.4;0.020197965170106212;-0.2458648900102556;-0.976177533014899;1.0070000000000001;0.004847668817051736
56:29.4;0.022444393310177602;-0.24729314521415216;-0.9752638637985923;1.005;0.005413050533758235
56:29.4;0.024084758357263047;-0.24833874884077953;-0.9745349134598474;1.003;0.005828867521926903
56:29.4;0.025101003292025095;-0.2489578351535414;-0.9740610782803472;1.001;0.006086996746089479
56:29.4;0.025513326244136214;-0.24914058551857943;-0.9738701359728268;0.998;0.006190313039620171
56:29.4;0.025369755867747607;-0.24891024647875792;-0.9739415464424702;0.9990000000000001;0.00615023846723881
56:29.4;0.02473493439842639;-0.24831873409260302;-0.9742065762628378;1.0;0.005983720582037649
56:29.5;0.023679632713444868;-0.2474396574123745;-0.9745550803112165;1.003;0.005710191291983146
56:29.5;0.022271830733632376;-0.2463594820098315;-0.9748486304000602;1.0090000000000001;0.005348874219546193
56:29.5;0.02056986298486596;-0.24516777394940426;-0.9749382359743735;1.0090000000000001;0.0049166793503312945
56:29.5;0.018618397190929212;-0.24394800453291784;-0.9746836870247166;1.0090000000000001;0.004426936152775114
56:29.5;0.01644809287488455;-0.2427703690701142;-0.973971407215982;1.01;0.0038891745545944056
56:29.5;0.014078911774808677;-0.24168724562192698;-0.9727285948113419;1.008;0.0033098971775396184
56:29.5;0.011525842700827082;-0.2407312029392235;-0.9709323162900637;1.0070000000000001;0.0026939779116382503
56:29.5;0.008805274772328134;-0.23991532272083507;-0.96861270064945;1.002;0.002046214030395439
56:29.5;0.005940458843589869;-0.23923541386265185;-0.9658500038710676;0.996;0.001372635243842884
56:29.5;0.002964817190882974;-0.2386733051914179;-0.9627663399594384;0.99;0.0006812753345085831
56:29.6;-7.800296185767825e-05;-0.2382004529709006;-0.9595138828969293;0.987;1.782809499220112e-05
56:29.6;-0.0031379436945128893;-0.2377815736098027;-0.9562617797142777;0.98;0.0007135101269132406
56:29.6;-0.006165261636207322;-0.23737823366700322;-0.9531838078462541;0.98;0.001394983470768818
56:29.6;-0.00911725033370533;-0.236952224876428;-0.9504482103899238;0.98;0.002053303406309537
56:29.6;-0.011961747679823519;-0.23646849351207178;-0.9482101210484867;0.98;0.002682084821481338
56:29.6;-0.014676098251682475;-0.23589748813157507;-0.9466056472798422;0.9790000000000001;0.003277200542653996
56:29.6;-0.01724233416139782;-0.2352170690547676;-0.9457458324828099;0.975;0.003835653149641609
56:29.6;-0.019640340952745552;-0.23441449493288774;-0.9457091431143805;0.97;0.004354026552631041
56:29.6;-0.02184123085203955;-0.23348895079244655;-0.9465327104864516;0.9690000000000001;0.0048270196838228925
56:29.6;-0.023803310177116368;-0.23245433137755164;-0.9482043894636021;0.968;0.005246587983314538
56:29.7;-0.02547247271282079;-0.2313411846837508;-0.950658670392407;0.971;0.005602071847473241
56:29.7;-0.026787506225950004;-0.23019665468273912;-0.9537790502156456;0.98;0.005881377718268067
56:29.7;-0.027688955118920673;-0.22908185887522678;-0.9574077132052985;0.993;0.0060728728447425676
56:29.7;-0.02812853972841073;-0.22806681101944334;-0.9613606837507397;0.993;0.006167307940143184
56:29.7;-0.02807585535747038;-0.22722346717578748;-0.9654443674448109;0.996;0.006159045775403261
56:29.7;-0.027520637521847163;-0.22661769907126433;-0.9694695591695771;0.996;0.006046255464616363
56:29.7;-0.026471267506512224;-0.22630114819302993;-0.9732614795027862;0.997;0.005830301705884904
56:29.7;-0.024951745964864963;-0.2263042249417961;-0.9766667928518135;1.003;0.005514930248315651
56:29.7;-0.022999152562989844;-0.22663171506631397;-0.979559143439405;1.0090000000000001;0.005105792749479153
56:29.7;-0.0206621435894928;-0.22726211654230347;-0.981843720449107;1.013;0.004610465634328049
56:29.8;-0.017999658943146625;-0.22815112395041195;-0.9834598566809899;1.016;0.004038717964439367
56:29.8;-0.015078691682723473;-0.22923884941983821;-0.9843800282614931;1.0070000000000001;0.0034026295952138456
56:29.8;-0.01197095017954138;-0.2304593010456527;-0.9846048021636873;1.0070000000000001;0.0027163442806264148
56:29.8;-0.008749719613674586;-0.23174965824858734;-0.9841557056368834;1.0070000000000001;0.001995616349009724
56:29.8;-0.0054884771770571175;-0.2330569375752807;-0.9830694721157663;1.0070000000000001;0.0012574713759349908
56:29.8;-0.0022613021166483023;-0.23434085191481224;-0.9813962107345469;1.01;0.0005200570288229591
56:29.8;0.0008564131969208698;-0.23557297480368128;-0.9792017835857517;1.01;0.00019755180996152625
56:29.8;0.0037884691152837114;-0.236733199972225;-0.9765727002386905;1.01;0.0008758454925411783
56:29.8;0.006460101261422275;-0.23780521311298083;-0.9736207374063818;1.0090000000000001;0.0014957207269663453
56:29.8;0.008801689884238736;-0.23877294658346568;-0.9704843753543301;1.005;0.002039575231590486
56:29.9;0.010753416764276246;-0.23961917621637263;-0.9673249691649932;1.001;0.002492530302098793
56:29.9;0.012270122953641313;-0.24032606797127942;-0.9643170656398189;0.987;0.0028436074812641745
56:29.9;0.013325184141934503;-0.240876713271401;-0.9616342219134337;0.987;0.0030865829029317914
56:29.9;0.01391202691037936;-0.24125680563085333;-0.9594334515747103;0.987;0.003220214778556325
56:29.9;0.014042446188690008;-0.24145608679707398;-0.9578416235058075;0.985;0.0032476904765940703
56:29.9;0.013742247835499691;-0.241469460932771;-0.956945560538135;0.982;0.0031754642019659793
56:29.9;0.013046332847829722;-0.24129760077033627;-0.9567861713581921;0.982;0.0030120095729836774
56:29.9;0.011995741542407908;-0.24094688024509844;-0.9573568243602338;0.985;0.0027670833738050967
56:29.9;0.01063759584603783;-0.24042886862567184;-0.9586061622918819;0.9890000000000001;0.0024517168701919064
56:29.9;0.009026620439888127;-0.23975986448111428;-0.9604447185749001;0.993;0.0020786149110637968
56:30.0;0.007225891257564845;-0.23896051847973188;-0.962753648308425;0.995;0.00166238934455832
56:30.0;0.0053050229706176275;-0.23805509708259592;-0.9653935022794072;0.995;0.0012191836359669533
56:30.0;0.003335572928592168;-0.2370702161044414;-0.9682114979959628;0.995;0.0007656277603847616
56:30.0;0.0013852408158712417;-0.23603358074311973;-0.9710469588379167;0.995;0.00031749676663167867
56:30.0;-0.0004868717440551693;-0.23497336851203995;-0.9737360055689163;0.996;0.00011139724303404034
56:30.0;-0.002232723752579439;-0.23391818072283366;-0.9761175792031282;0.9990000000000001;0.0005098014946222835
56:30.0;-0.003815725010750061;-0.23289675752884667;-0.9780428896904547;1.0070000000000001;0.0008691573577881248
56:30.0;-0.005209851335612474;-0.2319366279960564;-0.9793890399809065;1.013;0.0011834499873114481
56:30.0;-0.006398399915100132;-0.2310615978202623;-0.9800751117371099;1.0190000000000001;0.0014489670647515182
56:30.0;-0.007373285381362384;-0.23028889432082533;-0.980076600567244;1.021;0.0016641560898968332
56:30.1;-0.00813523043641651;-0.2296271631087313;-0.9794331245607905;1.0190000000000001;0.001829649525685828
56:30.1;-0.008694119826536626;-0.22907614996351053;-0.9782455041322756;0.9990000000000001;0.0019482889060808395
56:30.1;-0.009068103706684583;-0.22862825669461484;-0.9766616758355641;0.9990000000000001;0.00202483915089109
56:30.1;-0.009280538388547246;-0.22827169718345547;-0.9748550629265058;0.9990000000000001;0.002065215095604389
56:30.1;-0.009354995006951826;-0.22799475488850776;-0.9730009252737922;0.993;0.0020753037426732065
56:30.1;-0.009309425302968492;-0.22779039701607695;-0.9712548510938752;0.9890000000000001;0.0020596407895077024
56:30.1;-0.009151168252791303;-0.22766010357946667;-0.9697357826348695;0.986;0.0020203047761247093
56:30.1;-0.008874811360491553;-0.2276156324000569;-0.9685157006489823;0.987;0.0019564460735716728
56:30.1;-0.008464160211609537;-0.22767797830169936;-0.9676178278656816;0.992;0.0018646991076583012
56:30.1;-0.007897647504593082;-0.22787365615345762;-0.9670235442665426;0.997;0.0017403192119022845
56:30.2;-0.007154980953415979;-0.22822916207089858;-0.9666857584874281;0.998;0.0015785739738488703
56:30.2;-0.0062229109460266024;-0.2287650366483537;-0.9665446435688606;1.0;0.0013759579254216559
56:30.2;-0.005099041934731064;-0.2294911202865393;-0.966541473069257;0.996;0.0011310321848059884
56:30.2;-0.003793527786299689;-0.23040391119461456;-0.9666278687462035;0.996;0.0008448749401403386
56:30.2;-0.0023291602472598114;-0.23148591140417576;-0.9667700061176592;0.997;0.0005212512405245203
56:30.2;-0.0007407749865970171;-0.23270646026375583;-0.9669487491650499;0.9940000000000001;0.00016668564707939988
56:30.2;0.0009252743958642279;-0.2340237805530949;-0.9671569124790724;0.993;0.00020942449440140672
56:30.2;0.0026115120980486632;-0.23538804463712223;-0.9673948213341544;0.9940000000000001;0.0005946757124054197
56:30.2;0.004250275497895875;-0.23674498938342226;-0.9676656069033138;0.9940000000000001;0.0009736955450988805
56:30.2;0.005766214401038768;-0.23803935304165535;-0.9679717091902501;0.993;0.0013286243636981665
56:30.3;0.007081028253442627;-0.23921746710363853;-0.9683136980042235;0.992;0.0016402320375125947
56:30.3;0.008120067512178149;-0.24022861200553197;-0.9686921449895933;1.004;0.0018896011745411592
56:30.3;0.00881938378337565;-0.24102510951097844;-0.9691124463144865;1.004;0.002060035487336113
56:30.3;0.009131644558623335;-0.24156168797256503;-0.9695907327957586;1.004;0.002138777025037526
56:30.3;0.009029989047350003;-0.24179526367388096;-0.9701576715207065;1.006;0.0021182505865475175
56:30.3;0.008509580898934516;-0.24168647693811274;-0.970857423492571;1.008;0.0019967145294170277
56:30.3;0.007586932231501084;-0.24120393478536367;-0.9717403376302479;1.004;0.0017782827841934764
56:30.3;0.006297413419135143;-0.24033108295117986;-0.9728491651038156;0.9990000000000001;0.0014723723705546195
56:30.3;0.0046918714539692504;-0.23907413831148935;-0.9742004047739405;0.99;0.0010927655867398868
56:30.3;0.002833345230432404;-0.2374684993481843;-0.9757651104809881;0.985;0.00065652427347452
56:30.4;0.0007941598860023969;-0.2355812274381375;-0.9774558461261381;0.983;0.0001828713938990244
56:30.4;-0.0013470854481047476;-0.2335082300428858;-0.9791266071994504;1.012;0.00030798969738652136
56:30.4;-0.0035090865588212703;-0.23136632614629007;-0.9805886914812699;1.012;0.0007961247254073931
56:30.4;-0.005611735211015448;-0.22928205235664106;-0.9816387521232985;1.012;0.0012630452966016544
56:30.4;-0.007579850095030018;-0.2273796534195688;-0.9820908906265798;1.0190000000000001;0.0016926372715338441
56:30.4;-0.009346636118548053;-0.225769864947472;-0.9818057047652544;1.0190000000000001;0.002071795376638958
56:30.4;-0.010856808934017049;-0.2245404266373981;-0.9807121969378632;1.014;0.002390772848126348
56:30.4;-0.012068592079380408;-0.22374942230734032;-0.9788201672328619;1.01;0.0026431477454966217
56:30.4;-0.012953472919683375;-0.22342233244650764;-0.9762222148908459;1.0090000000000001;0.00282527996084045
56:30.4;-0.013493585460771937;-0.223552784576186;-0.9730861455311648;1.0070000000000001;0.002935342191831989
56:30.5;-0.013678237958245803;-0.2241063322026074;-0.9696389880697583;1.002;0.002972311708965645
56:30.5;-0.013502043780691565;-0.2250264068314907;-0.9661434200219828;0.9790000000000001;0.002935449394762009
56:30.5;-0.012966297806769682;-0.22624136589257898;-0.9628685730020609;0.9790000000000001;0.002824587405300375
56:30.5;-0.012082975990338723;-0.2276713388777132;-0.9600600749359923;0.9790000000000001;0.002641074691478021
56:30.5;-0.010878940155944731;-0.22923390127482235;-0.9579153253170425;0.976;0.0023888702105696684
56:30.5;-0.009398064331655015;-0.2308484814483837;-0.9565675696930901;0.978;0.0020753009676583384
56:30.5;-0.007700379359952134;-0.23244009426668188;-0.9560790976406753;0.981;0.001711263895566791
56:30.5;-0.005858583676894667;-0.23394297264773609;-0.9564422705366695;0.985;0.001310875368430803
56:30.5;-0.00395294737613512;-0.23530410929657863;-0.9575864333938184;0.987;0.0008906940046450923
56:30.5;-0.002065884725085519;-0.23648615214742777;-0.9593884289064977;0.986;0.0004687122192674055
56:30.6;-0.00027729880345738324;-0.23746893798795565;-0.9616849452840647;0.986;6.332681166605572e-05
56:30.6;0.0013388922487967436;-0.23824921180100905;-0.9642861684454553;0.998;0.0003075976670146486
56:30.6;0.002717473263976374;-0.2388385109785341;-0.966990812022208;0.998;0.0006276130748083504
56:30.6;0.003804588233836002;-0.23925958880744172;-0.9696018628743097;0.998;0.0008826132719754734
56:30.6;0.0045607662153721445;-0.2395419684012654;-0.9719416845786462;1.005;0.0010618413496806913
56:30.6;0.00496437505542324;-0.23971723886136787;-0.9738654973227462;1.0090000000000001;0.0011589450132425483
56:30.6;0.005014882880639002;-0.23981471422380865;-0.9752724566067472;1.01;0.0011729043052146574
56:30.6;0.004734433903152891;-0.23985811090157913;-0.976112924695884;1.01;0.0011084663916891536
56:30.6;0.004166188705949751;-0.23986366329483086;-0.9763904093993839;1.011;0.000975723813008004
56:30.6;0.0033690544845846153;-0.23983957265609407;-0.9761575969107353;1.0070000000000001;0.0007887671491693791
56:30.7;0.002409895446959107;-0.23978638744807507;-0.9755069982498313;1.005;0.000563706594341229
56:30.7;0.0013550130133529103;-0.23969802714948005;-0.9745575223485965;0.998;0.0003165303833485567
56:30.7;0.00026261796080914723;-0.239563315274481;-0.9734390497824187;0.998;6.124258356510113e-05
56:30.7;-0.0008222419987436768;-0.23936794776794376;-0.9722775942819876;0.998;0.00019136210083009003
56:30.7;-0.0018692696081834227;-0.2390968941257359;-0.9711832351169835;0.998;0.00043405729190229537
56:30.7;-0.002860890501636087;-0.23873722683033388;-0.9702416778918858;0.9990000000000001;0.0006626760989445214
56:30.7;-0.0037875413319512366;-0.23828123400882012;-0.9695089993581766;0.996;0.0008749818936733863
56:30.7;-0.004641917101473795;-0.2377294533225812;-0.9690087239662198;0.9940000000000001;0.0010693209091149631
56:30.7;-0.00541411840249681;-0.23709305321560725;-0.9687309542686157;0.991;0.00124351135626459
56:30.7;-0.006089480796359698;-0.23639494381450749;-0.9686343007222806;0.992;0.0013943708417950076
56:30.8;-0.0066499100448749755;-0.23566913182008167;-0.9686520084626923;0.9940000000000001;0.0015180506277568172
56:30.8;-0.007077882302368135;-0.23495797781057348;-0.968703185759557;1.004;0.0016109581571042584
56:30.8;-0.007360984466754647;-0.23430749677735144;-0.9687080882237303;1.004;0.0016707636249312994
56:30.8;-0.00749494373886117;-0.2337619257295611;-0.9686039452573487;1.004;0.0016970255739267167
56:30.8;-0.007484133391256004;-0.23335943109823015;-0.96835688705861;1.004;0.0016912286317015426
56:30.8;-0.007339553475998309;-0.23313000480247445;-0.9679669639943211;1.0;0.0016562593657972972
56:30.8;-0.007075071985930301;-0.2330950578672829;-0.9674656548172114;0.9940000000000001;0.0015955098329215964
56:30.8;-0.006703422874693305;-0.23326733305043681;-0.9669073186112385;0.99;0.0015119428953499405
56:30.8;-0.0062336400439204276;-0.23364987899094067;-0.966357549670184;0.988;0.0014074893749573775
56:30.8;-0.005670916370103591;-0.23423369694633664;-0.9658819933289524;0.99;0.0012830000858371625
56:30.9;-0.0050187874708133755;-0.23499494642355237;-0.965538326647547;0.993;0.0011387459504659453
56:30.9;-0.004282633188438154;-0.235893541196544;-0.9653720964878516;0.995;0.0009752628244757623
56:30.9;-0.003473110708378638;-0.2368746859809179;-0.9654151723277035;0.995;0.0007942393470854284
56:30.9;-0.0026084705162916803;-0.2378735244834318;-0.9656848590351748;0.995;0.0005991940080834848
56:30.9;-0.0017153041065077444;-0.23882195062934522;-0.9661823100875828;0.993;0.00039579877911069295
56:30.9;-0.0008274562663108781;-0.23965647416382568;-0.966890123918059;0.992;0.00019173938901159514
56:30.9;1.713602168497114e-05;-0.24032598429185364;-0.9677702803161494;0.993;3.985501838594774e-06
56:30.9;0.0007812924935912042;-0.24079792341196932;-0.9687642477341654;0.996;0.00018225711519821836
56:30.9;0.0014336749286859335;-0.2410615295813476;-0.9697966424330742;1.0;0.000335165473932143
56:30.9;0.0019522039488302683;-0.24112756874426033;-0.9707825273096189;1.003;0.00045697664534875924
56:31.0;0.002324693451358947;-0.24102474117673633;-0.9716371677393809;1.003;0.0005444166975314681
56:31.0;0.002547092602885364;-0.24079360426179688;-0.9722863992213067;1.006;0.0005963262026104915
56:31.0;0.0026208284650299676;-0.24047947232578454;-0.9726757464611347;1.006;0.0006130341867171183
56:31.0;0.0025507744194518474;-0.24012593974646013;-0.9727767980813949;1.006;0.000595832699968304
56:31.0;0.002344590734330586;-0.2397701845455492;-0.9725898741874371;1.004;0.000546753995783851
56:31.0;0.0020132311830438573;-0.23944039868786346;-0.9721426961072034;1.003;0.00046862029505777877
56:31.0;0.0015716825883789884;-0.2391550787336267;-0.971485444544913;1.002;0.0003651579397383677
56:31.0;0.0010389323153735593;-0.23892368077932705;-0.9706830476908573;0.996;0.00024094831676058868
56:31.0;0.0004369823585720051;-0.23874808383995508;-0.9698059258357462;0.993;0.00010117859225209073
56:31.1;-0.0002102431889264867;-0.23862428090793472;-0.9689210227818482;0.993;4.8609924532092764e-05
56:31.1;-0.0008770720085562816;-0.23854392356811116;-0.9680852855056494;0.996;0.00020254299528164364
56:31.1;-0.0015352026698562092;-0.23849576102380995;-0.9673429181143992;0.998;0.00035418228702206094
56:31.1;-0.002152782146542696;-0.23846718969903805;-0.9667259533452263;0.998;0.0004962860807811314
56:31.1;-0.00269489893440125;-0.23844590292974846;-0.9662562889430723;0.998;0.0006209043190866464
56:31.1;-0.003126511527630559;-0.23842137762381554;-0.9659472164198484;0.995;0.0007200433149492907
56:31.1;-0.003417873575367506;-0.23838593897064567;-0.9658033937232097;0.993;0.0007869105300080814
56:31.1;-0.00355127298211442;-0.23833527920355385;-0.9658194761801552;0.992;0.0008174634598252146
56:31.1;-0.0035268476502490712;-0.23826839991905166;-0.9659785648526289;0.993;0.0008117468978726614
56:31.1;-0.0033651393805962716;-0.2381870493778097;-0.9662518065709828;0.993;0.0007744823419163051
56:31.2;-0.0031051005241652637;-0.23809491846839467;-0.9665999699035833;0.9940000000000001;0.0007146157247717709
56:31.2;-0.0027978754088346177;-0.23799695516792335;-0.966977183588401;0.995;0.0006438964027847316
56:31.2;-0.0024979580000593976;-0.23789889162581593;-0.9673365635209937;1.0;0.0005748508187595686
56:31.2;-0.0022538207452519245;-0.2378067207980957;-0.9676369413198536;1.0;0.000518627971721209
56:31.2;-0.002100016956862197;-0.23772598054256822;-0.9678492890409618;1.0;0.0004831780361192389
56:31.2;-0.002052320170703898;-0.23766114516310521;-0.9679612472190462;1.0;0.0004721296436955245
56:31.2;-0.002106752555244004;-0.23761550895212216;-0.9679786493778174;1.001;0.0004845672860105376
56:31.2;-0.002242611329742206;-0.23759156245730728;-0.9679235696598859;0.998;0.0005157343888272717
56:31.2;-0.0024289058248600807;-0.23759146702167308;-0.9678289475957608;0.995;0.0005585217924742311
56:31.2;-0.0026327144355174272;-0.23761720459394797;-0.9677306126200008;0.993;0.0006053912179482937
56:31.3;-0.0028270352242460526;-0.2376703329225733;-0.9676584126342794;0.993;0.0006501720126647898
56:31.3;-0.0029955638944847854;-0.23775172636490854;-0.9676284445000243;0.991;0.0006891454497467814
56:31.3;-0.003132991069534269;-0.23786188196880498;-0.9676379500366482;0.993;0.0007211023325605048
56:31.3;-0.0032413659927338564;-0.23800203466034395;-0.9676638261371193;0.993;0.0007465059050078507
56:31.3;-0.0033247128597045984;-0.23817554869166274;-0.9676651899417532;0.993;0.0007662604952246624
56:31.3;-0.0033844544747137703;-0.238388545437269;-0.967589991653597;0.9940000000000001;0.0007806662926297224
56:31.3;-0.003417238825282382;-0.23864898041194152;-0.9673852925400566;0.9990000000000001;0.0007889225969375758
56:31.3;-0.00341533238080363;-0.23896401776619275;-0.9670102721828054;1.001;0.0007892172602040995
56:31.3;-0.0033686908267993214;-0.23933619135460382;-0.9664499885608803;1.004;0.000779199947949637
56:31.3;-0.003267471981329081;-0.23975959895704269;-0.9657268142847207;1.006;0.0007565578917915344
56:31.4;-0.0031040346509596225;-0.2402179646328897;-0.9649060668060705;1.005;0.0007194772741876813
56:31.4;-0.002874006137638333;-0.24068601385814814;-0.964092869240684;1.005;0.000666894930879425
56:31.4;-0.0025764684080739446;-0.24113411934863935;-0.9634187707428381;0.9840000000000001;0.0005985474578669136
56:31.4;-0.0022136628312500015;-0.2415345785976645;-0.9630195212749995;0.9840000000000001;0.0005149035402560173
56:31.4;-0.0017908485781863626;-0.24186724371021992;-0.9630090366683379;0.9840000000000001;0.0004171250621677831
56:31.4;-0.0013168839948179503;-0.2421227420381172;-0.9634563588616031;0.981;0.0003071957128231165
56:31.4;-0.0008056262953780168;-0.2423025725088496;-0.9643708624847909;0.983;0.0001882503265236843
56:31.4;-0.00027760308233228294;-0.2424162803740225;-0.9656981304485338;0.992;6.498714494921255e-05
56:31.4;0.00023898594015348617;-0.24247663214180876;-0.9673265621441803;0.9990000000000001;5.6055128991376355e-05
56:31.4;0.0007086746475325308;-0.24249438368565865;-0.9691024409481611;1.0;0.00016653988804676104
56:31.5;0.001090550592249722;-0.24247459631153317;-0.9708493845057454;1.001;0.00025672249361143707
56:31.5;0.0013411008754242494;-0.24241589526506968;-0.972388453391946;1.0;0.00031612754043207185
56:31.5;0.0014182752881544336;-0.24231250287196318;-0.9735572989617103;1.012;0.00033457838190656175
56:31.5;0.0012873887080832127;-0.24215747860022052;-0.9742280259019123;1.012;0.00030371636989424896
56:31.5;0.0009283747575995881;-0.24194558748247452;-0.9743226000637134;1.012;0.00021884861674464863
56:31.5;0.00034232841473939873;-0.2416751509863059;-0.9738233365676593;1.016;8.056661649773515e-05
56:31.5;-0.00044487664011027466;-0.24134884638209408;-0.9727760577111123;1.01;0.00010444741656094836
56:31.5;-0.0013830306797147779;-0.2409735077767129;-0.9712845195087983;1.003;0.00032370363826518045
56:31.5;-0.0024018896327544946;-0.2405591311655363;-0.9694961728491007;0.9940000000000001;0.0005601714791586665
56:31.5;-0.003417836487844244;-0.2401176428545035;-0.9675815132987171;0.988;0.0007940775453523487
56:31.6;-0.00434081465425413;-0.23966214863735333;-0.9657113508806918;0.988;0.0010046574919612237
56:31.6;-0.005080448386468624;-0.23920704328494896;-0.9640367271586168;0.9890000000000001;0.0011715736254997058
56:31.6;-0.0055522306987136165;-0.23876873368706325;-0.9626746119509796;0.987;0.0012762168599852056
56:31.6;-0.0056854490737975345;-0.2383662423386826;-0.961700254049828;0.987;0.001303314583277026
56:31.6;-0.005433091686759396;-0.23802078610783808;-0.9611456862556673;0.987;0.0012429427926890545
56:31.6;-0.004782043720270017;-0.2377535702698804;-0.9610036335920482;0.987;0.001092611128146399
56:31.6;-0.0037612435753633013;-0.23758165940117698;-0.9612361020882705;0.99;0.0008589629743489864
56:31.6;-0.0024455149676372336;-0.2375128858758407;-0.9617865472137292;0.996;0.0005586453651566878
56:31.6;-0.0009527506512402128;-0.23754166911452715;-0.962593557596738;1.001;0.00021785222946389698
56:31.6;0.000567032570846423;-0.23764761348223853;-0.9636027440714187;1.003;0.00012984926368766648
56:31.7;0.0019497679441399342;-0.2377979316885285;-0.9647729888654744;0.998;0.0004473177530448654
56:31.7;0.0030386672534237565;-0.2379536130568271;-0.9660745624677742;0.992;0.000698531662143466
56:31.7;0.0037038412158723224;-0.2380780150395704;-0.9674798594750967;0.99;0.0008531268018653926
56:31.7;0.0038566315043763893;-0.23814546031345096;-0.9689508477280128;0.99;0.0008899225236605973
56:31.7;0.0034573224564061976;-0.238147113275991;-0.9704286742673798;0.99;0.0007990037713198557
56:31.7;0.00251620733770539;-0.23809219105994928;-0.9718298165410967;0.998;0.0005822128621935644
56:31.7;0.0010882125683803734;-0.23800401821908854;-0.9730505670153451;1.008;0.00025201908872894983
56:31.7;-0.0007384958493760599;-0.23791203803723315;-0.9739783455764098;1.002;0.00017112512462091076
56:31.7;-0.002858246111294805;-0.23784228273554922;-0.9745060956866922;0.992;0.0006624807232668578
56:31.7;-0.005164167160847643;-0.23780945441686055;-0.9745470947734904;1.001;0.0011968293732907522
56:31.8;-0.0075603326188653;-0.23781295735532387;-0.9740505800898568;1.013;0.001751289427379164
56:31.8;-0.009966990214012117;-0.23783701098091836;-0.9730187394259485;1.028;0.002306559565798611
56:31.8;-0.012320140210531879;-0.2378532155392741;-0.9715213630527002;1.011;0.0028469315954365187
56:31.8;-0.014569307149552652;-0.23782423644027667;-0.9697009189143013;1.011;0.0033599500215302706
56:31.8;-0.016676187438048537;-0.2377084371257099;-0.9677626106648692;1.011;0.0038362791705649924
56:31.8;-0.018614017487934252;-0.23746557570622762;-0.965948785312253;0.9890000000000001;0.004269675595525229
56:31.8;-0.020366306365514196;-0.23706331618224666;-0.9645009429992318;0.971;0.004656710981839446
56:31.8;-0.021923883797493684;-0.2364840133350182;-0.9636163600389824;0.965;0.004996011661134823
56:31.8;-0.02327972986206335;-0.23573093439242937;-0.9634102965129033;0.97;0.005286957236997658
56:31.8;-0.024422180630992843;-0.23483261482791143;-0.9638949391853356;0.9790000000000001;0.005528057517174
56:31.9;-0.025328755632084844;-0.23384369283574863;-0.9649808522772131;0.9890000000000001;0.005715552399240167
56:31.9;-0.0259635298215719;-0.2328408361669033;-0.966499411362357;0.9990000000000001;0.005842846540184565
56:31.9;-0.026279739305407623;-0.23191347845439847;-0.9682394479350551;1.013;0.005901057076577734
56:31.9;-0.026226836664225324;-0.2311508217598955;-0.9699888987428227;1.013;0.005880416901925035
56:31.9;-0.02575922483225496;-0.23062824610077948;-0.9715720283483303;1.013;0.005771919812285881
56:31.9;-0.02484368458153368;-0.23039665843503823;-0.9728748784227844;1.013;0.005568640375572949
56:31.9;-0.02346381459639048;-0.23047706508049695;-0.9738553892345959;1.011;0.005266484438168594
56:31.9;-0.02162147674388605;-0.23086104533296095;-0.9745380981692706;1.005;0.004864462195479021
56:31.9;-0.019336408976620714;-0.23151670308852362;-0.9749955827461819;1.0;0.004364764339715115
56:31.9;-0.01664543884368283;-0.2323985938179632;-0.9753207321861602;0.992;0.00377290787911356
56:32.0;-0.013602150520779765;-0.233458882637731;-0.9755958281023797;0.9840000000000001;0.0030980463681777094
56:32.0;-0.010276887267959441;-0.2346562749179021;-0.9758658123319166;0.982;0.002353335619629747
56:32.0;-0.006756163444744778;-0.23595975557155777;-0.9761231210561562;1.004;0.001556118568277563
56:32.0;-0.003140643074883511;-0.2373461254549523;-0.9763083882768664;1.004;0.0007277592767187106
56:32.0;0.00045799439335658004;-0.23879307319038856;-0.9763253914591485;1.004;0.00010677669409104246
56:32.0;0.003920251844702977;-0.24027132212468616;-0.9760641110383066;1.013;0.0009193783032692584
56:32.0;0.007121887457740572;-0.24173919222440313;-0.975425534234189;1.0170000000000001;0.001679330954588705
56:32.0;0.009937709235938775;-0.24314156810613485;-0.9743432163400924;1.015;0.0023542764850438633
56:32.0;0.01224674886960224;-0.2444137561840304;-0.9727973969079657;1.01;0.00291184905062506
56:32.0;0.01393878268589471;-0.24548909975412173;-0.9708191467670507;1.004;0.0033219676089777206
56:32.1;0.0149217653152982;-0.2463078694235591;-0.9684851273335744;0.9990000000000001;0.003559520091601588
56:32.1;0.015129253788193613;-0.24682470301015857;-0.9659060799550822;0.996;0.003606957548411259
56:32.1;0.014526211238594818;-0.24701289068426752;-0.9632127856081671;0.988;0.003456162964984198
56:32.1;0.0131116872159627;-0.24686536762164554;-0.9605425380835364;0.988;0.0031091047242453786
56:32.1;0.010918305613292018;-0.24639342145048582;-0.9580281837710589;0.988;0.002577286152031622
56:32.1;0.008009828700734955;-0.24562429356599252;-0.9557906292523021;0.987;0.0018804306236976543
56:32.1;0.00447801292762264;-0.2445983858280654;-0.9539343650666959;0.985;0.0010448583651487759
56:32.1;0.00043933500663541504;-0.2433664210393094;-0.9525447085040638;0.983;0.00010184549746844239
56:32.1;-0.003968313489264078;-0.24198682053608406;-0.9516855937437894;0.982;0.0009138842271752273
56:32.1;-0.008589633700421062;-0.24052340537363442;-0.9513973136866689;0.982;0.0019655944122937944
56:32.2;-0.013258016919368535;-0.23904312007353945;-0.9516940888259887;0.98;0.0030161448140999104
56:32.2;-0.01780481654924175;-0.23761306446918487;-0.952561761860042;0.976;0.004029962107251497
56:32.2;-0.022071603228007858;-0.23629628932220492;-0.9539564421728246;0.982;0.004975300623685896
56:32.2;-0.025923537621734074;-0.23514680454888454;-0.9558051941426471;0.982;0.00582643270008224
56:32.2;-0.029260633382469335;-0.2342051646762785;-0.9580094864936973;0.982;0.00656523082941905
56:32.2;-0.032023922500697785;-0.23349580391599092;-0.9604515416108544;0.99;0.007181729848198487
56:32.2;-0.03419550954357886;-0.2330263789248786;-0.9630033111899194;0.996;0.007673649286217751
56:32.2;-0.0357932842741721;-0.23278880194693988;-0.965536965744308;0.998;0.00804512025885055
56:32.2;-0.03686158599753925;-0.23276161673387166;-0.967934707943884;0.9990000000000001;0.00830484335350933
56:32.2;-0.037459299261437234;-0.23291344251587756;-0.9700958148604465;0.998;0.008463867077893716
56:32.3;-0.03764732646997624;-0.23320711988185583;-0.9719403184595052;1.0;0.00853327110763055
56:32.3;-0.03747772718102614;-0.2336039398008881;-0.9734102820172049;1.002;0.008522153213097225
56:32.3;-0.036986624409167716;-0.23406713464099863;-0.9744701167198687;1.005;0.008436331978900802
56:32.3;-0.03619208476139301;-0.23456396782996136;-0.9751067951886394;1.005;0.008278031653225297
56:32.3;-0.035096733307145175;-0.23506629044790509;-0.9753299204421487;1.005;0.008046529295798107
56:32.3;-0.033693626653052415;-0.2355499606703092;-0.9751711799416465;1.006;0.0077394776973011645
56:32.3;-0.031973526893313176;-0.23599373287650025;-0.9746827458865029;1.005;0.007354519308261211
56:32.3;-0.029931929153157698;-0.23637816857533894;-0.9739342078704809;1.004;0.006890832479609602
56:32.3;-0.027574608896578482;-0.23668496257626784;-0.9730077112484957;1.001;0.006350330229750739
56:32.3;-0.02492113274942281;-0.23689686532192106;-0.9719914910003185;0.9990000000000001;0.005738383323301953
56:32.4;-0.02200639057008555;-0.23699818124369548;-0.9709726844792352;0.9990000000000001;0.005064083315760956
56:32.4;-0.018880023883290763;-0.23697580861263987;-0.9700305099876738;0.998;0.004340022163585913
56:32.4;-0.015602990490917231;-0.2368210390668069;-0.969230443622966;0.996;0.003581419327584908
56:32.4;-0.01224111999489343;-0.23653241481304454;-0.9686194974621108;0.996;0.002804561885269116
56:32.4;-0.008857677115747453;-0.23611928332858104;-0.9682226430824925;0.996;0.002025007035570816
56:32.4;-0.005507984948229735;-0.23560478771827637;-0.9680405857898201;0.996;0.0012562336489885632
56:32.4;-0.002237368102277675;-0.235026903727136;-0.9680490485435788;0.993;0.0005090405550231614
56:32.4;0.0009186247419110721;-0.2344367290843144;-0.9681997333350064;0.992;0.00020851089404471082
56:32.4;0.003932906031113648;-0.23389392848067633;-0.9684234998253429;0.993;0.0008908361612426228
56:32.4;0.006784309641604874;-0.23345994058846514;-0.9686365389033132;0.996;0.0015341890524235042
56:32.5;0.009453236711702517;-0.23319013127691243;-0.9687497842586998;0.998;0.002135513487032139
56:32.5;0.01191605287862053;-0.23312612618548764;-0.9686806686402837;1.0;0.0026909399219625083
56:32.5;0.014140138889261775;-0.23328926652628967;-0.9683653541209575;0.9990000000000001;0.003194388075107829
56:32.5;0.016081388191304776;-0.2336760508669397;-0.9677693593784628;0.9990000000000001;0.003636717846416496
56:32.5;0.017684625481793937;-0.23425642914437017;-0.9668950628168481;0.9990000000000001;0.004005592160814607
56:32.5;0.018886570962238045;-0.2349755212035179;-0.9657852962331996;0.997;0.004286041042557729
56:32.5;0.01962129705459799;-0.2357587651085785;-0.9645227135175595;0.998;0.0044617786406156885
56:32.5;0.019828471760680137;-0.23651974650737317;-0.9632248411418671;0.9990000000000001;0.0045173560508633736
56:32.5;0.019463991778651067;-0.23716928096551027;-0.9620346665126165;0.996;0.004441003049004488
56:32.5;0.018511272889125983;-0.2376242036076708;-0.9611064440878357;0.99;0.0042276443638267535
56:32.6;0.01699050252763621;-0.23781464305634661;-0.9605869817734725;0.983;0.003881338435056073
56:32.6;0.014963091745680689;-0.23768877984819353;-0.9605945704639842;0.977;0.0034164112839425048
56:32.6;0.01252944874802589;-0.23721437607389723;-0.9611997935913715;0.983;0.002856844737580519
56:32.6;0.009820130706269957;-0.23637730860325828;-0.9624126558394507;0.983;0.0022340062158247485
56:32.6;0.00698275694343842;-0.2351786273804578;-0.9641783787582661;0.983;0.0015833690990702065
56:32.6;0.004167814817089104;-0.23363207932670887;-0.9663818658684343;0.992;0.0009410000799921759
56:32.6;0.0015150556350149824;-0.23176320997340616;-0.9688597803177131;0.997;0.0003401997624643581
56:32.6;-0.0008590857732537323;-0.2296100575619211;-0.9714184769089436;1.003;0.00019161689311713684
56:32.6;-0.0028719522432641984;-0.22722470168368242;-0.9738549690273003;1.006;0.0006355168068472094
56:32.6;-0.004480737930328428;-0.2246742967853179;-0.9759776554789218;1.008;0.0009825231897522032
56:32.7;-0.005682344010056124;-0.22204003890514093;-0.9776241434816336;1.008;0.0012334760904609448
56:32.7;-0.006507217969824872;-0.21941336390956304;-0.9786744937042098;1.0090000000000001;0.0013973226538643566
56:32.7;-0.007009224607120553;-0.21689000277767595;-0.9790590856600931;1.004;0.0014883957227101023
56:32.7;-0.007254015238235344;-0.21456335772530258;-0.978761098917454;1.004;0.0015233886667072214
56:32.7;-0.007307745876352022;-0.2125188158241722;-0.9778143506700306;1.004;0.001518578443357918
56:32.7;-0.0072272674884854;-0.2108300881113253;-0.9762976070359204;0.998;0.0014876095022200296
56:32.7;-0.0070524785798630795;-0.2095575607603259;-0.9743264491942428;0.9940000000000001;0.0014399572624215194
56:32.7;-0.006801456970909367;-0.20874778481819892;-0.9720438639911178;0.993;0.001380097259695074
56:32.7;-0.0064691080859234276;-0.20843321753326124;-0.9696108750192818;0.993;0.00130740101535272
56:32.7;-0.0060298927742920465;-0.20863176993431093;-0.9671979339793676;0.993;0.0012167613106784257
56:32.8;-0.005444393493069333;-0.209346108990193;-0.9649765599036051;0.988;0.0010998441866650335
56:32.8;-0.004668307275638493;-0.21056297828263207;-0.9631100638933383;0.9840000000000001;0.0009467108840081259
56:32.8;-0.003661609712123638;-0.2122529764827244;-0.961742912511987;0.981;0.0007474546276343293
56:32.8;-0.0023958773620246605;-0.21437095273757686;-0.96098976452427;0.981;0.0004935706017357778
56:32.8;-0.0008591292070571132;-0.21685658441784736;-0.9609261123966473;0.981;0.00017902805438608854
56:32.8;0.00094122457515568;-0.2196346478424146;-0.9615821213019264;0.983;0.00019878357184241314
56:32.8;0.002976719476997231;-0.2226152133804426;-0.9629402236479252;0.987;0.0006381048974289977
56:32.8;0.005197379859439833;-0.2256945143413231;-0.96493614306812;0.987;0.001131889513444717
56:32.8;0.0075325924198431544;-0.22875703412182255;-0.9674627977767567;0.988;0.0016670675580252674
56:32.8;0.009893529096099826;-0.23167909261453332;-0.9703770498233127;0.9940000000000001;0.002224224373317988
56:32.9;0.01217751030735358;-0.23433413036742112;-0.9735098319293957;1.002;0.0027780137777398332
56:32.9;0.014274549150361656;-0.23659942414752524;-0.9766797933033525;1.006;0.0032985896063136622
56:32.9;0.016075622691469487;-0.23836328700323603;-0.9797093050927584;1.018;0.0037540876041861114
56:32.9;0.01748143893433305;-0.23953168121721655;-0.9824403941433454;1.018;0.0041138300939332455
56:32.9;0.018410437858541295;-0.24003356055621658;-0.984747661580321;1.018;0.004351720991824147
56:32.9;0.018805578176106803;-0.2398246961428909;-0.9865459676141866;1.018;0.0044493638197797905
56:32.9;0.018640101433258945;-0.238890181904434;-0.987792454173044;1.018;0.004398577786904885
56:32.9;0.01792217537877003;-0.23724607783427304;-0.9884840514932394;1.0190000000000001;0.004203000395494604
56:32.9;0.01669758087368949;-0.2349403321480029;-0.9886519842293783;1.018;0.0038784176660553683
56:32.9;0.015049239955338052;-0.23205244517170734;-0.988354327853119;1.016;0.0034515437627665917
56:33.0;0.013092704880089198;-0.22869103946684788;-0.9876672573985766;1.012;0.0029572577843294643
56:33.0;0.010967774723816248;-0.2249888976330168;-0.9866757373060621;1.0090000000000001;0.0024347482269636528
56:33.0;0.008827691128577413;-0.22109578871842234;-0.9854647494319103;1.008;0.001923395934475476
56:33.0;0.006827813280393288;-0.21717008026526;-0.9841121011322228;1.005;0.0014592382332044348
56:33.0;0.0051150385655449075;-0.21337038549884016;-0.9826832796791289;1.005;0.0010724983209662725
56:33.0;0.003818479829894639;-0.20984804038420676;-0.981228260971662;1.001;0.0007862587055014622
56:33.0;0.0030415720547943953;-0.20674027285876884;-0.9797800442010934;0.998;0.0006161008161955372
56:33.0;0.0028556318941373306;-0.2041635117451339;-0.978354911471229;0.996;0.000570396406379818
56:33.0;0.0032949317630260977;-0.2022069470572611;-0.9769546723099334;0.996;0.0006509039564942214
56:33.0;0.00435369327169957;-0.2009273143635115;-0.9755710370845351;0.997;0.000853406028706599
56:33.1;0.00598581629875953;-0.20034585521587445;-0.9741916446386515;0.998;0.0011682832415840507
56:33.1;0.008108177769245785;-0.20044779252625766;-0.9728064821751499;0.996;0.0015810696261978863
56:33.1;0.010607604130445243;-0.2011843700928643;-0.9714130860882547;0.99;0.002073077275153596
56:33.1;0.01335042115713781;-0.20247739473809834;-0.9700195813099675;0.99;0.002622116671101415
56:33.1;0.016192805332584638;-0.20422565336393128;-0.9686460369894546;0.99;0.0032032991243194724
56:33.1;0.01899074763693681;-0.2063121387882642;-0.9673253576686937;0.993;0.0037900018024396047
56:33.1;0.02160962589634528;-0.2086114841974601;-0.966104101293569;0.993;0.004355212873038737
56:33.1;0.023933608517566887;-0.21099765927963712;-0.9650421613606603;0.995;0.004873400549332206
56:33.1;0.025874080072398362;-0.21335185873367135;-0.9642095562963523;0.993;0.005322709695793436
56:33.1;0.02737533880469197;-0.21556978125923784;-0.9636790580441098;0.986;0.005686955175880369
56:33.2;0.028415996102207696;-0.21756691140544218;-0.963514901521776;0.981;0.0059568157448581325
56:33.2;0.029005565402184002;-0.21928064754348528;-0.9637598650891186;0.9790000000000001;0.006129858889579649
56:33.2;0.029176966907871416;-0.22066919570292529;-0.9644244630191298;0.983;0.006209406226313938
56:33.2;0.028976684122356263;-0.2217082521987449;-0.9654816032741576;0.991;0.006202611039210036
56:33.2;0.028454880078095567;-0.22238693738996548;-0.9668677859258844;0.991;0.006118333194612946
56:33.2;0.027657574146954782;-0.22270441163014193;-0.9684893622201803;0.993;0.005965375145503407
56:33.2;0.02662194494436999;-0.22266838796134425;-0.9702314813460692;0.9940000000000001;0.005751401788504109
56:33.2;0.025374739706863117;-0.22229602110489036;-0.971968309313125;0.996;0.005482585212778652
56:33.2;0.02393340713282111;-0.22161626817861532;-0.9735743682409843;1.0;0.00516386996723327
56:33.2;0.02230959087171654;-0.2206716301782373;-0.9749371159056969;1.006;0.004799706857320512
56:33.3;0.020514179478248913;-0.21951723114230204;-0.9759700122969517;1.0090000000000001;0.004395003656043603
56:33.3;0.01856230853032338;-0.21821656447216697;-0.976623903233585;1.011;0.00395591590388379
56:33.3;0.016476604592163532;-0.21683502941817154;-0.9768936774044382;1.002;0.0034901529662267486
56:33.3;0.01428808470311885;-0.2154334376477679;-0.9768179366362526;1.002;0.0030067737723592503
56:33.3;0.012035550865339981;-0.21406341296723816;-0.9764717046423551;1.002;0.0025157534750972856
56:33.3;0.009764568733752326;-0.2127654331888447;-0.9759541322489259;0.996;0.002027605898693519
56:33.3;0.007526137618252209;-0.2115690997921218;-0.9753735766220755;0.992;0.001553085552153363
56:33.3;0.005374436272657079;-0.21049472394749016;-0.974832397528154;0.991;0.001102818610515917
56:33.3;0.0033634246936825314;-0.20955544541258916;-0.9744140894903703;0.992;0.000686790397035952
56:33.3;0.001542906550770597;-0.20875933864627233;-0.974175048387424;0.992;0.0003137780336142935
56:33.4;-4.5018979558228356e-05;-0.2081110309066101;-0.9741419713518557;0.993;9.12668376578866e-06
56:33.4;-0.0013684901521888472;-0.20761248966103538;-0.9743145411541184;0.995;0.0002768180067993404
56:33.4;-0.0024071244633347977;-0.20726293638117196;-0.9746722744784632;1.0;0.0004862714876119765
56:33.4;-0.003151655385002559;-0.2070580856574276;-0.9751838599477433;1.003;0.0006363813199435286
56:33.4;-0.003601707013183564;-0.2069891208184072;-0.9758166048932727;1.003;0.0007274851044194265
56:33.4;-0.003762164451488716;-0.2070421229230916;-0.976543220448372;1.003;0.0007606554072769144
56:33.4;-0.0036393805545132797;-0.20719873391116628;-0.9773438493841152;1.0;0.0007369906053635523
56:33.4;-0.003238481817528261;-0.20743833689931207;-0.9782029453457546;0.996;0.0006571423417923665
56:33.4;-0.0025625081393273077;-0.20774128851175575;-0.9791026060071967;0.995;0.0005212142502421796
56:33.4;-0.0016135344960546438;-0.20809230456373728;-0.9800153660874499;0.998;0.0003290539889222614
56:33.5;-0.00039530885775969257;-0.20848309031417542;-0.9808994975698714;1.001;8.084104033160052e-05
56:33.5;0.001083527116415697;-0.20891346838482766;-0.9816984621187582;1.003;0.000222220609493352
56:33.5;0.002806542568819054;-0.2093906267428153;-0.9823443326840782;1.002;0.0005772881125527619
56:33.5;0.004747492015693911;-0.20992675500013896;-0.982764046281604;1.004;0.0009794478006439743
56:33.5;0.006869441511889892;-0.21053574564696956;-0.9828875399502937;1.004;0.0014215138732311132
56:33.5;0.009125251673461817;-0.21122943512999423;-0.9826572635603966;1.008;0.0018940932546014516
56:33.5;0.011459487866356859;-0.2120135889556367;-0.9820383529737376;1.012;0.0023859281225624743
56:33.5;0.013811340248815137;-0.21288403329721792;-0.9810278259309878;1.011;0.0028844315690639884
56:33.5;0.016117460399509998;-0.2138236533815283;-0.9796603016725862;1.0090000000000001;0.0033761976801403412
56:33.5;0.018313617478754873;-0.21480092088434177;-0.9780079918201598;1.003;0.0038472701354560876
56:33.6;0.020335213352397113;-0.2157703429298671;-0.976174283513779;1.0;0.004283195005632767
56:33.6;0.022118101363629773;-0.21667509518517702;-0.9742820966918138;0.997;0.004669190165559035
56:33.6;0.02360146835017003;-0.21745195575909357;-0.9724592583607995;0.991;0.004990841257965746
56:33.6;0.02473322725556895;-0.21803810380186603;-0.970823409684793;0.991;0.005235442864750856
56:33.6;0.02547631408083445;-0.21837858227013024;-0.9694688746983716;0.991;0.005393622004217591
56:33.6;0.02581335563756908;-0.21843298503443076;-0.9684573033520223;0.99;0.005460635198859806
56:33.6;0.025748203812869967;-0.21818034151800805;-0.9678128106572718;0.988;0.005436932257237468
56:33.6;0.025304474351198175;-0.21762158177407395;-0.9675216626156858;0.988;0.005327948034591783
56:33.6;0.024521922694400736;-0.2167792110974712;-0.9675365785998628;0.991;0.005143272603052181
56:33.6;0.023451318649513858;-0.21569430264750816;-0.9677855103960763;0.9940000000000001;0.004895364759801469
56:33.7;0.022148411053005253;-0.21442149137145014;-0.9681837802723878;0.996;0.004597997068982761
56:33.7;0.020668012984162085;-0.21302296376471477;-0.9686473307573565;0.996;0.004264723059680604
56:33.7;0.019059708594100912;-0.2115626292791988;-0.969104450219644;0.995;0.003907741256421171
56:33.7;0.017366447512476534;-0.21010174347252572;-0.9695039787774318;0.995;0.00353744943028479
56:33.7;0.015626226019348956;-0.20869679604347374;-0.9698191945409842;0.995;0.003162719372842528
56:33.7;0.013875847027610026;-0.20739949726301662;-0.9700475514167595;0.9940000000000001;0.0027916452322411323
56:33.7;0.012155109205243287;-0.2062578400762795;-0.9702068728384762;0.993;0.0024323926215629975
56:33.7;0.010509743084708043;-0.20531685780364037;-0.9703288539819283;0.99;0.0020938022138230305
56:33.7;0.008991751076868656;-0.20461780325508247;-0.9704511573529617;0.987;0.0017855062541228864
56:33.7;0.007656536856950587;-0.20419510336984226;-0.9706099112296671;0.986;0.0015174780667995922
56:33.8;0.006557347570310403;-0.20407151120428002;-0.9708345925346349;0.99;0.0012991396181994842
56:33.8;0.005738567099577619;-0.20425290532111792;-0.9711465333690086;0.9940000000000001;0.001138299305943622
56:33.8;0.00522953408921765;-0.20472470951084235;-0.9715605864140541;0.996;0.0010401671888587356
56:33.8;0.00503992201953914;-0.2054515008932822;-0.9720878878733591;0.996;0.0010065576804242447
56:33.8;0.0051572015043009805;-0.20637997854742637;-0.972737408574078;0.996;0.001035326383773481
56:33.8;0.005546656125659439;-0.20744418021737254;-0.9735150311481066;0.9940000000000001;0.0011201473574749864
56:33.8;0.006154445344941605;-0.2085716844826432;-0.9744202664311582;0.995;0.0012508077858781246
56:33.8;0.006913933544753943;-0.20968993536543745;-0.9754417427342139;0.9940000000000001;0.0014141781519549264
56:33.8;0.007754691898980252;-0.21073205331995157;-0.9765530259467247;0.996;0.0015958459892823464
56:33.8;0.008612401967976515;-0.21164173395589433;-0.977710196596261;0.997;0.0017821150876107424
56:33.9;0.009437298519548394;-0.21237702006414705;-0.9788522269729988;0.998;0.0019618795886039197
56:33.9;0.010199380702561659;-0.2129126160341357;-0.9799048058520181;1.002;0.002127938569358421
56:33.9;0.010889721714570292;-0.21324040104738495;-0.9807877240882367;1.006;0.002277515249849653
56:33.9;0.011517993293992506;-0.21336826497458272;-0.981424978276108;1.01;0.0024119247501367285
56:33.9;0.012106904610339392;-0.2133178490882084;-0.9817555818644066;1.01;0.0025355004723986154
56:33.9;0.012684985470285138;-0.2131215756703354;-0.9817424945793088;1.011;0.0026540859456404826
56:33.9;0.01327969049395029;-0.21281882738140187;-0.9813775542165661;1.0070000000000001;0.0027735379955962734
56:33.9;0.013912591970464407;-0.21245112300662253;-0.9806815179244502;1.002;0.002898645266031601
56:33.9;0.014597375840913213;-0.2120567358758146;-0.9796997934595802;1.0;0.0030326331548109872
56:33.9;0.0153399157814047;-0.2116658687225761;-0.9784956219984831;0.9990000000000001;0.0031771132480087737
56:34.0;0.01613877039989259;-0.2112976675634212;-0.9771427260776089;1.0;0.0033321393063447066
56:34.0;0.016984795079818798;-0.21095972457050002;-0.9757186558444927;1.0;0.003496105020911082
56:34.0;0.017859875554095125;-0.21064970523428794;-0.9742989503106589;0.996;0.003665485609584086
56:34.0;0.018735835726261727;-0.21035826028315205;-0.97295165685963;0.992;0.0038346338556899057
56:34.0;0.019574597362783334;-0.21007262712783392;-0.9717321367023914;0.992;0.003995847177157543
56:34.0;0.020330154512977185;-0.2097805222760644;-0.9706789352231824;0.991;0.004139819889493258
56:34.0;0.02095254036974079;-0.20947365824298125;-0.9698117809162079;0.991;0.004256509027758652
56:34.0;0.02139349484015736;-0.20914997206501026;-0.9691322145544008;0.991;0.004336332521158558
56:34.0;0.02161261767521974;-0.20881399607009732;-0.9686266204714132;0.992;0.004371428465183392
56:34.0;0.0215821221104458;-0.20847558032814903;-0.9682710223846316;0.991;0.004356585801202321
56:34.1;0.021288899886324958;-0.20814766905842105;-0.9680369004072643;0.99;0.004289598886107669
56:34.1;0.02073408258383549;-0.20784376155870823;-0.9678974382228084;0.99;0.004171105340937422
56:34.1;0.019931352930062585;-0.2075754828184108;-0.9678338680832936;0.992;0.004004180550067852
56:34.1;0.018905336356019205;-0.20735055795466797;-0.967841547469106;0.996;0.003793969877407332
56:34.1;0.017690706299982564;-0.2071713180823622;-0.9679348399064316;0.996;0.003547487907636858
56:34.1;0.016331731677105284;-0.207033835225623;-0.9681491702730367;0.996;0.0032735263492138
56:34.1;0.01488146131371428;-0.20692798157550962;-0.9685385844840296;0.993;0.002982508760539201
56:34.1;0.013399793580957227;-0.20683882891942515;-0.9691681133036082;0.991;0.002686144028504593
56:34.1;0.011950282027825512;-0.20674958923030892;-0.9701017488555066;0.987;0.0023968458159412415
56:34.1;0.010596356134554093;-0.20664571034600898;-0.9713882265525724;0.987;0.002127040582227565
56:34.2;0.009397938758201248;-0.2065190301797904;-0.9730476780117047;0.986;0.001888542697707393
56:34.2;0.008408827070930547;-0.20637065772494168;-0.9750623269355985;0.99;0.0016920599521137406
56:34.2;0.007674319097604119;-0.2062117283040167;-0.9773735673296696;0.996;0.0015467274919923552
56:34.2;0.007228404751395386;-0.20606182712595042;-0.9798860605059567;1.005;0.0014595386117912934
56:34.2;0.00709056616041641;-0.20594533404441184;-0.9824773696969963;1.005;0.0014346812623524086
56:34.2;0.007263001618461172;-0.20588645870363922;-0.9850101558999393;1.008;0.0014729385642043907
56:34.2;0.0077290682131180176;-0.20590422135524375;-0.9873440944949523;1.011;0.0015713065596021497
56:34.2;0.008453136753452469;-0.20600865245694103;-0.9893460349482363;1.011;0.0017228662911265933
56:34.2;0.009381799565864355;-0.20619897036668733;-0.990898142882465;1.012;0.0019169097096045815
56:34.2;0.010446733191469125;-0.20646373076090943;-0.9919043414818048;1.014;0.0021394102137702554
56:34.3;0.011569591876662072;-0.20678238969537202;-0.9922955502190522;1.015;0.0023739558239628117
56:34.3;0.012668477424705919;-0.20712780118917865;-0.9920340016823961;1.015;0.0026030911426132256
56:34.3;0.013664666817984039;-0.2074696807235031;-0.9911164491595241;1.015;0.002809819159203172
56:34.3;0.014488476978012014;-0.20777925775933181;-0.98957579554038;1.014;0.002979023915405854
56:34.3;0.015084118592654844;-0.20803471801369;-0.987480719273862;1.014;0.0030987346001230226
56:34.3;0.01541405158694635;-0.20822602363531179;-0.9849330266659315;1.011;0.0031612476119487723
56:34.3;0.015463064797196526;-0.20835730885162373;-0.9820625199758679;1.006;0.003164050831042374
56:34.3;0.015241201623243099;-0.20844571283361127;-0.9790193614236302;0.997;0.003110308421454098
56:34.3;0.014783738655121226;-0.20851670389415697;-0.9759646764334433;0.9940000000000001;0.00300856381024367
56:34.3;0.014146916773035076;-0.20859698694366074;-0.9730611070800679;0.9940000000000001;0.0028715074268868598
56:34.4;0.013399921088022777;-0.20870677482869432;-0.9704649237127084;0.997;0.002714054914749509
56:34.4;0.012615103945879969;-0.20885370835302922;-0.9683195718174485;0.997;0.002551242460124105
56:34.4;0.01185851027673959;-0.20903077770674394;-0.9667485954998143;0.9840000000000001;0.002396370256073307
56:34.4;0.011182055836785033;-0.2092193403752728;-0.9658460691888214;0.9840000000000001;0.0022595991449465315
56:34.4;0.010618334696728737;-0.2093958795353497;-0.9656652560434751;0.9840000000000001;0.0021470944432920767
56:34.4;0.01017887698844794;-0.20953951171823054;-0.9662084741099963;0.981;0.0020608037485397154
56:34.4;0.009856097660009014;-0.20963770259905484;-0.9674211960537248;0.9790000000000001;0.0019988950302842023
56:34.4;0.009628233725295978;-0.20968906005170007;-0.9691925683777451;0.985;0.001956737069232721
56:34.4;0.009465795086801206;-0.20970318275229088;-0.9713638838498522;0.9940000000000001;0.0019281644557497413
56:34.4;0.009337956214255259;-0.20969821497521685;-0.9737449975856186;1.002;0.0019067414444763767
56:34.5;0.009217958513485317;-0.2096969713838617;-0.9761360180544443;1.0070000000000001;0.0018868494309415556
56:34.5;0.009087242216737575;-0.20972241684439397;-0.9783495859999294;1.0090000000000001;0.0018645370757808092
56:34.5;0.00893808021015746;-0.2097933493519162;-0.9802290853067123;1.01;0.0018380763576471264
56:34.5;0.008774421133312999;-0.20992116964592344;-0.9816598692935784;1.008;0.0018081553865730631
56:34.5;0.008610835561816639;-0.2101082662325341;-0.9825727649808802;1.008;0.001777678242385308
56:34.5;0.008469370004016017;-0.21034811159779052;-0.9829407997821616;1.004;0.0017511247488581898
56:34.5;0.008373964371108822;-0.21062694799869203;-0.9827711114528409;1.001;0.0017333945450208818
56:34.5;0.008343025252696269;-0.21092661577951982;-0.9820946465747618;0.9990000000000001;0.001728256848271875
56:34.5;0.008382444117519695;-0.21122755688340886;-0.9809565960455139;0.9990000000000001;0.0017368848798335914
56:34.5;0.00848186557687673;-0.21151092024325313;-0.9794101172367776;0.9990000000000001;0.0017570687957533038
56:34.6;0.008615520049811249;-0.21175942593886635;-0.9775144920697519;1.003;0.0017833946239516093
56:34.6;0.008746879435476041;-0.21195764113491747;-0.9753368795035019;1.006;0.0018082432979207319
56:34.6;0.00883554424209499;-0.21209257250207317;-0.9729551191264045;0.995;0.0018232724637907087
56:34.6;0.008845034274355075;-0.21215492511591025;-0.9704588222476824;0.995;0.0018210830446155199
56:34.6;0.00875029197712925;-0.21214096590686635;-0.96794754097285;0.995;0.0017967965600010852
56:34.6;0.00854357259519751;-0.21205502657769246;-0.965526423288445;0.987;0.0017492514757891312
56:34.6;0.00823774989774445;-0.21191254876678065;-0.96330017446827;0.9840000000000001;0.001681616330927043
56:34.6;0.007866857572826331;-0.21174271403172612;-0.9613663864753575;0.9840000000000001;0.001601395840398098
56:34.6;0.007484077740554417;-0.21158880016691944;-0.959809813905047;0.983;0.001519903979674953
56:34.6;0.007157019302773731;-0.2115047055271287;-0.9586987352307405;0.982;0.0014512237489076756
56:34.7;0.00695984030628334;-0.21154783341710487;-0.958083166694951;0.982;0.0014106233435188338
56:34.7;0.006962824506313506;-0.21177032012274213;-0.9579938338295001;0.982;0.001412580660385642
56:34.7;0.0072220248161229406;-0.21221093140973246;-0.9584409104750693;0.98;0.0014688994592891563
56:34.7;0.007772156644235483;-0.2128890350879582;-0.9594121158542035;0.98;0.001587449934221189
56:34.7;0.008623937666017018;-0.21380112366769133;-0.960870560381795;0.98;0.001771660406713563
56:34.7;0.009764725149568382;-0.21492003055900832;-0.9627534610062118;0.9840000000000001;0.0020204681361583486
56:34.7;0.011160804800826894;-0.21619687487387385;-0.9649729632741659;0.987;0.0023284132920934177
56:34.7;0.012760225050409836;-0.21756537321295924;-0.9674197226756961;0.99;0.0026857343092460376
56:34.7;0.01449537840490292;-0.21894763938175343;-0.9699691084268441;0.996;0.0030784189757097906
56:34.7;0.016285170205662957;-0.22026045548971007;-0.9724893015293335;0.9990000000000001;0.003488298709338352
56:34.8;0.01803791368236435;-0.2214212712203286;-0.9748502248037831;1.001;0.0038935301344635393
56:34.8;0.01965675397724303;-0.22235357675110132;-0.9769322462717732;1.002;0.004269926179833386
56:34.8;0.02104833485387983;-0.22299161968113707;-0.9786339794901845;1.0090000000000001;0.0045933186780641455
56:34.8;0.02213328148605002;-0.22328452400245435;-0.9798788090747433;1.0090000000000001;0.0048425799089184575
56:34.8;0.022855693309008634;-0.22319963053268865;-0.9806195961698325;1.0090000000000001;0.005002515453031645
56:34.8;0.02318922159769028;-0.22272463940964102;-0.9808408422678305;1.0090000000000001;0.0050658575895748525
56:34.8;0.023138750275365234;-0.2218683052855045;-0.9805579235449665;1.0070000000000001;0.005033944446780946
56:34.8;0.022737963945975007;-0.2206598902029439;-0.9798135481666176;1.004;0.004916073999860216
56:34.8;0.02204382217620007;-0.21914784796833858;-0.9786720341592687;1.002;0.004727823855089749
56:34.8;0.021129350070858574;-0.217398112318282;-0.9772123846225745;1.0;0.0044888063457489665
56:34.9;0.020076086938178233;-0.21549206728505374;-0.9755212552887116;0.997;0.004220336614535196
56:34.9;0.018967076915469405;-0.21352401616194577;-0.9736866771670994;0.997;0.003943359416035081
56:34.9;0.01788099044253743;-0.21159787901089636;-0.9717930815334695;0.992;0.003676856529492248
56:34.9;0.016887937104869178;-0.2098229371700445;-0.9699179261544595;0.992;0.0034368814423556683
56:34.9;0.016047265829653597;-0.20830848239707045;-0.9681299953526081;0.992;0.0032362471267380778
56:34.9;0.015407002440478688;-0.20715703769061453;-0.9664891766999304;0.986;0.0030847135298642183
56:34.9;0.01500385562251719;-0.20645573253070643;-0.9650473873891904;0.983;0.002989361671908444
56:34.9;0.014862315310837853;-0.20626605185020258;-0.9638507048744429;0.9840000000000001;0.0029547721430923856
56:34.9;0.014991876971677705;-0.20661344844437596;-0.9629431202014013;0.991;0.0029827388474734547
56:34.9;0.015383012824807881;-0.20747935952394678;-0.962371345438414;0.9940000000000001;0.003071559865307813
56:35.0;0.016004042458835292;-0.2087983898089873;-0.9621879059900839;0.993;0.003215264710691937
56:35.0;0.016801236016713062;-0.21046271826133525;-0.9624485742645552;0.988;0.003403250691505305
56:35.0;0.017703310458290794;-0.21233411257259047;-0.9632018698303988;0.9790000000000001;0.0036206919293420574
56:35.0;0.018629706717872188;-0.21426144214037113;-0.9644722648599423;0.9790000000000001;0.0038498143317717537
56:35.0;0.019500464473940455;-0.21609939709626444;-0.9662424276513187;0.9790000000000001;0.004071782902458747
56:35.0;0.020245121108880604;-0.21772400488080723;-0.9684408846409702;0.983;0.00426874103687095
56:35.0;0.02080906503253924;-0.21904250632699146;-0.9709395262221583;0.992;0.0044256100923383435
56:35.0;0.02115693959453901;-0.219997224960603;-0.9735621376588054;0.996;0.00453141381521653
56:35.0;0.021273051449957857;-0.22056429096141253;-0.9761023078570157;1.002;0.004579945733604457
56:35.0;0.02115878969595169;-0.22074896576127287;-0.9783473798579025;1.0090000000000001;0.004569646296634472
56:35.1;0.020827647447606835;-0.22057958635643682;-0.9801045316154222;1.015;0.004502751015919752
56:35.1;0.020299478763788213;-0.22010132076374028;-0.9812250353601631;1.018;0.0043840566320341775
56:35.1;0.019596157853177476;-0.21936986256005897;-0.9816228550481091;1.018;0.004219806665613899
56:35.1;0.018740009360877215;-0.21844506848505338;-0.981284385819141;1.008;0.004017047217910486
56:35.1;0.017754666040204006;-0.2173852177302822;-0.9802678941610775;1.008;0.0037834438688452115
56:35.1;0.01666680784118174;-0.21624295045715752;-0.9786936659600642;1.003;0.003527289976236306
56:35.1;0.015507430499486352;-0.21506341536299692;-0.9767275937382768;0.997;0.0032574656075505023
56:35.1;0.014312331590928032;-0.21388417913159447;-0.9745614001526895;0.991;0.002983309127792165
56:35.1;0.013122175096575069;-0.21273591997623434;-0.9723926862032344;0.99;0.0027144905738125695
56:35.1;0.011982284747415434;-0.2116432157472023;-0.9704076951793585;0.99;0.0024609241001122095
56:35.2;0.010941794586017064;-0.21062536363032053;-0.9687685231869182;0.992;0.0022326427941124593
56:35.2;0.010051635721660493;-0.2096974319388348;-0.967604697142256;0.992;0.0020395193070608456
56:35.2;0.00936106535736975;-0.20887154409046366;-0.9670076464210489;0.986;0.001890751540475786
56:35.2;0.008912908765752011;-0.20815816738530016;-0.9670265249498519;0.986;0.0017941192394448529
56:35.2;0.00873834042555026;-0.2075671573142061;-0.9676650025567637;0.986;0.0017551435065145129
56:35.2;0.008852432442030794;-0.20710831520560413;-0.9688798639889634;0.985;0.0017763563262671348
56:35.2;0.009251539949556326;-0.20679118805860144;-0.9705826369491999;0.988;0.0018568574936828452
56:35.2;0.009913131582302023;-0.20662399442879667;-0.9726452090844604;0.992;0.001992260277038867
56:35.2;0.01079795648034425;-0.2066119459894203;-0.9749097428952886;0.997;0.0021750107686758545
56:35.2;0.011853608343593842;-0.20675548695229845;-0.9772021773438493;1.001;0.002394925694165703
56:35.3;0.013018436750124372;-0.20704879120747013;-0.9793476994867196;1.004;0.0026397843162163483
56:35.3;0.014225555686569786;-0.20747855241957172;-0.9811862564221409;1.0070000000000001;0.0028959689802922346
56:35.3;0.015407338433804228;-0.20802314431494773;-0.9825863001862558;1.01;0.003149270633519021
56:35.3;0.01650054708013301;-0.20865240567806662;-0.9834552468846736;1.01;0.003385917262806002
56:35.3;0.017451434757118307;-0.2093281994605381;-0.9837455999327045;1.01;0.003593698833918866
56:35.3;0.018219394456943955;-0.2100057051610923;-0.9834563306253917;1.008;0.0037628777769125776
56:35.3;0.018777787795109083;-0.2106353885558337;-0.9826297583471857;1.0070000000000001;0.0038865626913044474
56:35.3;0.019111873486183206;-0.21116554021685266;-0.9813446959929941;1.004;0.003960480590003685
56:35.3;0.01921534859060914;-0.21154516201831758;-0.9797070198850494;0.9990000000000001;0.003982424811242065
56:35.3;0.01908758614371753;-0.21172715193968897;-0.9778390813148086;1.0;0.003951799995699228
56:35.4;0.01873299066208512;-0.2116720321705484;-0.9758693285609378;0.998;0.0038695660522755056
56:35.4;0.01816267019189497;-0.21135226913327038;-0.9739230066393896;0.995;0.0037386192419799897
56:35.4;0.01739744700838903;-0.21075661402464121;-0.9721141953527614;0.993;0.0035643801792511506
56:35.4;0.01647051585605201;-0.20989355146929675;-0.9705392780213533;0.991;0.003355207729347919
56:35.4;0.015428226833135366;-0.20879303597226373;-0.9692721066253507;0.991;0.0031223223630261446
56:35.4;0.014328450319071139;-0.20750584219056767;-0.9683611444256894;0.988;0.002879167329943983
56:35.4;0.013236869375385887;-0.20610012164141053;-0.9678286605104452;0.987;0.002640353101234306
56:35.4;0.012221720992831323;-0.20465552834703446;-0.9676719007700972;0.988;0.0024203823427251183
56:35.4;0.011347486675182457;-0.20325622084839964;-0.9678660739869862;0.9890000000000001;0.0022323320521924987
56:35.4;0.010668342807351119;-0.2019842682856476;-0.9683687871848433;0.988;0.002086677294883197
56:35.5;0.010222523954209757;-0.2009143525773669;-0.9691253750420094;0.99;0.0019904398784791563
56:35.5;0.010028808038289852;-0.20010988225582593;-0.9700746411926092;0.992;0.0019468074825293967
56:35.5;0.010086123112827262;-0.199620109614573;-0.9711546896676865;0.993;0.0019553160554232696
56:35.5;0.010376581420580117;-0.19947759657776346;-0.9723084763521106;0.993;0.0020125769616616356
56:35.5;0.01087093968026986;-0.19969555329463906;-0.9734886360498858;0.993;0.0021133253692027392
56:35.5;0.01153439982932011;-0.2002650839616084;-0.9746613553544278;0.998;0.0022514068635259106
56:35.5;0.012330859889633424;-0.20115286840238727;-0.9758092063188923;1.001;0.00242038528626175
56:35.5;0.013224952239296647;-0.2023002501789617;-0.976932308543711;1.002;0.002613695587765711
56:35.5;0.01418222847743232;-0.2036251179015403;-0.978046339417281;1.003;0.0028244588926700158
56:35.5;0.015168174084447199;-0.20502784304505547;-0.9791759313928148;1.001;0.0030451372858307027
56:35.6;0.01614692991345988;-0.20640136208131485;-0.9803433229354274;0.996;0.003267237569957116
56:35.6;0.017080834929369317;-0.2076437632033547;-0.9815541945079083;0.993;0.003481306573011197
56:35.6;0.017931569627920696;-0.2086706274437822;-0.9827845287010682;0.993;0.0036773751745019486
56:35.6;0.01866267670041306;-0.2094244114837742;-0.9839731014105553;1.0;0.003845780232353579
56:35.6;0.019242321707980292;-0.20987901842633075;-0.9850231126229768;1.0;0.0039780745401350875
56:35.6;0.019644947665842183;-0.21003892527019286;-0.9858139011859929;1.01;0.0040676689613826185
56:35.6;0.019851133399869297;-0.20993343506269385;-0.9862209685889871;1.0170000000000001;0.004109993659950263
56:35.6;0.019846237700247824;-0.2096075730227122;-0.986140343841724;1.021;0.004102266633324241
56:35.6;0.019619357700693053;-0.20911190825713508;-0.9855117472857099;1.02;0.0040432012232213
56:35.6;0.019163840406191866;-0.20849391036156853;-0.9843348282525645;1.0170000000000001;0.003932953140474205
56:35.7;0.01847944476282935;-0.20779274266296646;-0.9826745479992077;1.012;0.0037733666021332697
56:35.7;0.017575304747079128;-0.20703781562213003;-0.9806546473541968;1.0070000000000001;0.003568359749484017
56:35.7;0.016472381168520612;-0.20625009497266236;-0.9784407890287679;0.991;0.003324184266413279
56:35.7;0.015204181372177678;-0.2054448472669241;-0.976217107739919;0.991;0.0030493319847846854
56:35.7;0.013815465050744652;-0.20463488707639027;-0.9741613365480875;0.991;0.002754076969943121
56:35.7;0.012359678215707586;-0.20383376318335053;-0.9724233692878104;0.983;0.002449845372811211
56:35.7;0.01089584075605964;-0.20305849095959874;-0.9711101789097973;0.982;0.002148574455258032
56:35.7;0.009485103071783477;-0.20233157591420303;-0.9702784090202226;0.987;0.0018620960813882123
56:35.7;0.008187218385165871;-0.20168210059886782;-0.9699352040197711;0.991;0.001601571947801925
56:35.7;0.007057407593024683;-0.20114547193807622;-0.9700464677602949;0.996;0.001377044577562702
56:35.8;0.006143862032276341;-0.20076144806500096;-0.9705496493248357;0.998;0.0011971250844726024
56:35.8;0.005485656140949105;-0.20057058846797185;-0.9713669128281592;0.997;0.0010687574031718128
56:35.8;0.005110659257486538;-0.2006098618534574;-0.9724150963127289;0.992;0.0009969672624242417
56:35.8;0.0050333421094634285;-0.20090823761447224;-0.973610953516429;0.992;0.0009845542359931765
