Time;AccX;AccY;AccZ;Acc-old;Acc-trns
56:09.9;0.05163171720349259;-0.33120849985433165;-0.9251785594339428;0.9840000000000001;0.015821352350405805
56:09.9;0.0540385783272677;-0.32899367529124723;-0.9369921237324825;1.015;0.016658174383398942
56:09.9;0.05644270093475871;-0.3268308512035326;-0.9482229992728249;1.034;0.017492074474967045
56:09.9;0.05883966024919488;-0.3247628210467785;-0.9583071200398205;1.035;0.018312227558367065
56:09.9;0.0612390549900151;-0.32281741110683954;-0.9667995311999334;1.036;0.01911269202085718
56:09.9;0.06366541733936343;-0.32100766293991784;-0.9734068264288335;1.041;0.01989359983283897
56:09.9;0.06615355086667223;-0.31933491306553685;-0.9779970908189679;1.048;0.02066032391300369
56:09.9;0.06873898600464146;-0.3177936515549593;-0.9805908626230241;1.0390000000000001;0.021420824382993506
56:10.0;0.07144577647819401;-0.31637631722457304;-0.9813367672151289;1.026;0.022181892564688464
56:10.0;0.074274443493934;-0.3150761782797358;-0.980476424525244;1.0190000000000001;0.02294521498202274
56:10.0;0.07719318514464936;-0.3138886935557314;-0.9783053188523418;1.018;0.023704404436222622
56:10.0;0.08013498978362021;-0.3128131537450696;-0.9751371590350455;1.015;0.02444403511133693
56:10.0;0.08300195532582692;-0.3118550697740741;-0.9712774072321732;1.0190000000000001;0.025141108302856003
56:10.0;0.08567635090552876;-0.3110279979914669;-0.9670081041501393;1.0190000000000001;0.02576858430606552
56:10.0;0.08803600098264218;-0.3103534832484162;-0.9625825654910191;1.0190000000000001;0.026299949950292913
56:10.0;0.08997067706781352;-0.30985876203511137;-0.9582261048569279;1.0190000000000001;0.026713621502848183
56:10.0;0.09139715269089371;-0.3095723531328615;-0.9541381882139384;1.01;0.02699641607496371
56:10.0;0.09227156252260342;-0.30951797914940316;-0.9504923354811644;1.004;0.027145783144072223
56:10.1;0.09259726557376476;-0.3097080918514689;-0.9474322183885698;1.0;0.027170577154508692
56:10.1;0.09242602264004957;-0.310138970339961;-0.9450647384824384;0.992;0.027090197084891108
56:10.1;0.09185151141012339;-0.3107889716337651;-0.9434523976421599;0.988;0.026932204218720907
56:10.1;0.09099631982828946;-0.31162035938265265;-0.942607916191797;0.993;0.026728878403410216
56:10.1;0.08999499690100231;-0.31258423016156445;-0.9424936467896873;0.9990000000000001;0.026513304635006184
56:10.1;0.08897609582237276;-0.3136274930448228;-0.9430263747225855;0.9990000000000001;0.02631548092674813
56:10.1;0.08804602745100036;-0.31470021245499696;-0.9440857239618842;0.9990000000000001;0.026158824994560147
56:10.1;0.0872770746025332;-0.31576142351456327;-0.94552376619288;0.998;0.02605743731709495
56:10.1;0.08670104719567448;-0.3167823376145208;-0.9471748135211164;0.997;0.026014497619207207
56:10.1;0.0863093339297618;-0.31774690230486474;-0.948866118112592;1.003;0.026022201150905963
56:10.2;0.0860594343907378;-0.31865018187339045;-0.9504306976337774;1.013;0.02606352265801357
56:10.2;0.08588661079024312;-0.31949524608584734;-0.9517220422613022;1.0170000000000001;0.026115599123627764
56:10.2;0.08571750254226403;-0.3202894425655506;-0.9526280417575727;1.013;0.02615384189082401
56:10.2;0.08548201065453188;-0.3210409196809757;-0.9530806164812174;1.011;0.026155604196921575
56:10.2;0.08512118754889265;-0.32175603763236627;-0.953059321837137;1.011;0.02610263271281477
56:10.2;0.08459117820156234;-0.32243790751049384;-0.9525896801131091;1.011;0.025982266935914686
56:10.2;0.08386468304454643;-0.32308585913994364;-0.9517378966931097;1.011;0.025787807682282473
56:10.2;0.08293126583812718;-0.32369550478046005;-0.9506029046527197;1.012;0.025518438720337787
56:10.2;0.08179694494446577;-0.3242592188523981;-0.9493057223500152;1.008;0.025178828185419774
56:10.2;0.08048292590087863;-0.3247668326320093;-0.9479759678365582;1.0;0.024778371152512024
56:10.3;0.07902324694266555;-0.32520623860255243;-0.9467363037394202;1.001;0.02433003700525349
56:10.3;0.07746123317620544;-0.32556397702881396;-0.9456867861510851;0.9990000000000001;0.023848884622186244
56:10.3;0.07584492506540981;-0.3258264348384606;-0.944891400166752;0.993;0.02335042230059294
56:10.3;0.07422213802758458;-0.32598210656831655;-0.944368744354615;0.99;0.022849085731819457
56:10.3;0.07263629414153835;-0.3260246216807156;-0.9440888657173109;0.9990000000000001;0.02235717642861864
56:10.3;0.07112417523690764;-0.32595586387827774;-0.9439778703508169;1.003;0.02188456179176062
56:10.3;0.06971612145483003;-0.3257885303558668;-0.9439298862151287;1.003;0.02143920836257524
56:10.3;0.06843831651764855;-0.32554746546997154;-0.9438235788494167;1.003;0.021028314287077875
56:10.3;0.06731614477334441;-0.3252691882817294;-0.9435399524549394;1.006;0.02065962603342102
56:10.4;0.06637735997384256;-0.324999416289152;-0.9429791523529583;1.006;0.02034251512325562
56:10.4;0.06565392091250231;-0.3247889215197835;-0.9420745431502613;1.004;0.0200884830622984
56:10.4;0.06518174462473217;-0.32468852937604203;-0.940802377005381;1.001;0.0199109202343332
56:10.4;0.06499822637359425;-0.32474428810882566;-0.9391859789385766;0.998;0.019824152390906888
56:10.4;0.0651380378061605;-0.3249936915344537;-0.9372945125731444;0.9990000000000001;0.019842010599474845
56:10.4;0.06562815875415796;-0.3254634244795104;-0.9352371106715066;0.99;0.019976258127405448
56:10.4;0.06648300870984993;-0.3261685416218663;-0.9331534249938932;0.99;0.020235120341707005
56:10.4;0.06770004397661722;-0.3271124361628566;-0.9312020805200305;0.99;0.020621960177364434
56:10.4;0.06925591532355589;-0.3282868371938551;-0.929548626735473;0.99;0.02113403668593373
56:10.4;0.07110354200319267;-0.3296716509043493;-0.9283535718700588;0.99;0.021761370903068445
56:10.4;0.07317069782077673;-0.33123516674457754;-0.927759851533445;0.985;0.022485844888020346
56:10.5;0.0753603507694224;-0.3329353105076545;-0.9278790802917234;0.985;0.02328059912477313
56:10.5;0.07755238975594969;-0.33472234090040753;-0.9287769368382778;0.996;0.02410967231420934
56:10.5;0.07960629105030281;-0.33654292768583893;-0.9304583644772652;0.997;0.024927848867194305
56:10.5;0.08136493606604778;-0.33834503473034994;-0.9328522965395148;0.9890000000000001;0.025680884646207814
56:10.5;0.08266072642212259;-0.34008308493301725;-0.9357952676486092;0.987;0.026306622557860225
56:10.5;0.0833255272684684;-0.3417236924826704;-0.9390153474510149;0.987;0.02673781114604509
56:10.5;0.08320525389170512;-0.3432526130923003;-0.942120851286606;0.987;0.02690736797730085
56:10.5;0.08217869171042808;-0.34468303401986367;-0.9445995134461224;0.99;0.02675634872480692
56:10.5;0.08017924534432581;-0.3460649420530201;-0.9458328948261675;0.9890000000000001;0.02624423899065991
56:10.6;0.07721749736269794;-0.3474952947171325;-0.9451293296407968;0.988;0.025360387833836408
56:10.6;0.07340137798816201;-0.3491284274768013;-0.9417775635753058;1.002;0.02413446995793846
56:10.6;0.06894956954720033;-0.3511851059969761;-0.9351211209554655;1.031;0.022643080697349067
56:10.6;0.06419258554868011;-0.3539561673058242;-0.9246479344957972;1.057;0.02100926002638203
56:10.6;0.059555956195612526;-0.35779341174367874;-0.9100809360028324;1.041;0.019392667812096632
56:10.6;0.05552349568452575;-0.36308044416512114;-0.8914492830271543;0.9540000000000001;0.01797116778714417
56:10.6;0.05258563248318705;-0.3701829574063903;-0.8691253392150301;0.9540000000000001;0.016918658892681425
56:10.6;0.05118362979854961;-0.379387683566852;-0.8438272592641616;0.9540000000000001;0.016385807946070106
56:10.6;0.05166033298396936;-0.3908440817605109;-0.8165950318600567;0.935;0.01648798086224519
56:10.6;0.05422258339270255;-0.4045202962332469;-0.7887417400068538;0.904;0.017300368197093345
56:10.7;0.05891498732921201;-0.420178685083975;-0.7617750385416001;0.872;0.01885760541284945
56:10.7;0.06560306873922239;-0.4373704678907713;-0.7372881261824177;0.84;0.021154893828708984
56:10.7;0.07396566234513992;-0.4554466160731329;-0.7168296436450468;0.797;0.024148134550562125
56:10.7;0.08349995341324741;-0.47358499745301114;-0.7017689952571317;0.789;0.027750981380946206
56:10.7;0.09354661028960767;-0.4908406649146312;-0.6931740573992461;0.83;0.031828113016937304
56:10.7;0.10334418745855853;-0.5062287612083012;-0.691712038821969;0.865;0.03618746867729912
56:10.7;0.11211507550942038;-0.5188379007489241;-0.6975775055242521;0.865;0.04057776987918209
56:10.7;0.11916946070531595;-0.5279514925965365;-0.7104531757123898;0.865;0.04469865506716416
56:10.7;0.1240031089362074;-0.5331458983511836;-0.7295165448857863;0.902;0.04822961464273663
56:10.7;0.12636867910168442;-0.5343441254787308;-0.7535071997984657;0.955;0.05088009241829071
56:10.8;0.1263082073077165;-0.5318163037881012;-0.780860478660362;1.01;0.05245255660975821
56:10.8;0.12413825099288578;-0.5261252993644129;-0.8098946773635256;1.042;0.052896063456686473
56:10.8;0.12038632329581456;-0.5180253117799537;-0.8390179170206857;1.05;0.05232381083327562
56:10.8;0.11569108196845852;-0.5083348612022602;-0.8669098927673446;1.063;0.05098280616292988
56:10.8;0.11069055613215034;-0.49781355096460045;-0.8926406948614029;1.083;0.04918741123006564
56:10.8;0.10592446138068569;-0.48706785447179296;-0.9157075838310853;1.0170000000000001;0.04724355207695184
56:10.8;0.10176864637018009;-0.4764989366349905;-0.9359924805801453;1.0170000000000001;0.04538875742776152
56:10.8;0.09840838145623734;-0.4662940588043068;-0.9536639793257126;1.0170000000000001;0.043761011341011305
56:10.8;0.09584895321008469;-0.45645647496542824;-0.9690600094580323;1.041;0.04239722364306395
56:10.8;0.09395718788209312;-0.44686433059765596;-0.9825829861090114;1.092;0.04125484310447214
56:10.9;0.0925220118717309;-0.43734438411006693;-0.9946225086414744;1.125;0.040246387583523835
56:10.9;0.09131602956556216;-0.4277431452956207;-1.005502556096638;1.113;0.039274734474282036
56:10.9;0.09013986216387795;-0.4179797334935127;-1.0154403853507106;1.087;0.038258377336232295
56:10.9;0.0888402297886832;-0.4080720253898962;-1.024508190385714;1.078;0.03714171314016184
56:10.9;0.08730503618659341;-0.398137102029562;-1.0326007950488205;1.074;0.03589255733097299
56:10.9;0.08544526423073799;-0.3883737146478846;-1.0394209522585192;1.081;0.03449286693259676
56:10.9;0.08317382062562306;-0.37903581989708623;-1.0444924336684112;1.1079999999999999;0.03292851940933519
56:10.9;0.08039026838104522;-0.37040421551146335;-1.0472031169726812;1.1079999999999999;0.03118245651890053
56:10.9;0.07697901836442295;-0.3627614857952724;-1.046871427135344;1.1079999999999999;0.029233908761343203
56:10.9;0.07282553879381222;-0.3563736123610849;-1.0428255387430214;1.103;0.027064555835866765
56:11.0;0.06785046425643013;-0.3514784540893212;-1.0344872366367623;1.105;0.024670427087579185
56:11.0;0.062056372523976944;-0.34827925710632807;-1.021455786222939;1.104;0.022076670098739072
56:11.0;0.05557751943529697;-0.34694198736846726;-1.003586640514652;1.101;0.019351333276121752
56:11.0;0.04872025504505405;-0.34759562444869685;-0.9810566654069536;1.094;0.016614143099337758
56:11.0;0.041982282965584684;-0.350332499542729;-0.9544050195136424;1.081;0.014037158183006328
56:11.0;0.03604240069956316;-0.3552035567551993;-0.9245391488795619;0.9790000000000001;0.01183630975801564
56:11.0;0.03171820938136587;-0.3622038681844415;-0.8927019505021606;0.9790000000000001;0.010255768980748039
56:11.0;0.029895421335972908;-0.37124679940924965;-0.8604072157540295;0.9790000000000001;0.009549297876069856
56:11.0;0.031435273287952245;-0.38212916493334664;-0.8293537485282176;0.932;0.00996247483771125
56:11.0;0.03706637010221845;-0.39449304788880135;-0.8013200374833918;0.884;0.011717242402153749
56:11.1;0.04726950552313795;-0.4077919488517927;-0.7780365526875703;0.841;0.014997528893834947
56:11.1;0.06217109063849831;-0.4212699602411097;-0.7610414194162177;0.8029999999999999;0.019932293410945465
56:11.1;0.08146849372296494;-0.43396390865218;-0.7515373577813536;0.7809999999999999;0.02657014181639051
56:11.1;0.10441323116966082;-0.44473949776700056;-0.7502730463090971;0.787;0.034840195359231045
56:11.1;0.12987180518286798;-0.45237065203647464;-0.7574705307517269;0.8;0.04450154001870469
56:11.1;0.1564670429836974;-0.4556637489904145;-0.7728131985134525;1.0070000000000001;0.05509876754981179
56:11.1;0.1827757173309621;-0.4536142101778119;-0.7954933651616088;1.0070000000000001;0.06595408655124566
56:11.1;0.20753192594862552;-0.4455664508679614;-0.8242982721442634;1.0070000000000001;0.07622225428341695
56:11.1;0.22978267023449803;-0.43134120284423694;-0.8577063674849497;1.0070000000000001;0.08501133792448787
56:11.1;0.24896830483571158;-0.41130176152659037;-0.8939815793585933;1.082;0.09154469920085034
56:11.2;0.2649297464363617;-0.3863429785134425;-0.931271622580168;1.082;0.09531914035785864
56:11.2;0.2778549961924321;-0.35779875127964855;-0.9677157364089483;1.068;0.09620659281519632
56:11.2;0.28817886153984923;-0.3272827910895234;-1.001555586432614;1.08;0.09446269879995534
56:11.2;0.29645564746788167;-0.29650006312593985;-1.0312385575587197;1.1059999999999999;0.09064495985115321
56:11.2;0.30323155238677274;-0.26707272752483746;-1.0555066225548169;1.137;0.08548007481041608
56:11.2;0.30894216572577965;-0.24040784006382276;-1.073467159873494;1.171;0.079728680390356
56:11.2;0.3138492071306148;-0.21761265632254792;-1.0846410349713018;1.171;0.074078335783075
56:11.2;0.318015935905871;-0.19945375331765003;-1.0889817077311323;1.171;0.06907353477307603
56:11.2;0.32131232319811;-0.18635420824812074;-1.086861035872505;1.171;0.06507896032164494
56:11.2;0.323442932772419;-0.17841956570815592;-1.0790219594246258;1.1440000000000001;0.06226879010326203
56:11.3;0.3239949650505038;-0.17548019238654397;-1.0665023299118312;1.13;0.0606356687359251
56:11.3;0.3225026498639009;-0.17713952453738332;-1.0505372095014571;1.13;0.06001505404805029
56:11.3;0.31851800016756715;-0.18282239283493515;-1.0324483375064477;1.107;0.0601217617757182
56:11.3;0.31167299001165166;-0.1918208107855659;-1.013527831799721;1.07;0.0605941320145134
56:11.3;0.30171839233699105;-0.20333639220766353;-0.9949218915841829;1.023;0.061038785736661404
56:11.3;0.28853063803456613;-0.2165207905977052;-0.977523988145145;0.9670000000000001;0.06106874062563687
56:11.3;0.27209062768388814;-0.23051608728874376;-0.9618935165927028;0.9670000000000001;0.060331179965918816
56:11.3;0.2524532299595515;-0.24449329341460682;-0.9482175913712733;0.9670000000000001;0.058526949720089476
56:11.3;0.2297305100671526;-0.25768431002123016;-0.9363268769658856;0.9440000000000001;0.05542862975254233
56:11.3;0.20410004289016437;-0.26940709833792564;-0.9257658614292308;0.971;0.05090416195805606
56:11.4;0.17583372783814535;-0.2790925055072197;-0.9159086448489613;1.055;0.04494718694867814
56:11.4;0.1453330968239039;-0.2863268399773195;-0.9060989393679705;1.0590000000000002;0.03770528346088477
56:11.4;0.11315441537586733;-0.2909186493627978;-0.895779104518755;0.982;0.02948791020412658
56:11.4;0.08000985113033389;-0.2929751585417013;-0.8845779899131568;0.9390000000000001;0.020735303159783
56:11.4;0.04673818479752453;-0.29294461964959173;-0.8723598343101915;0.9490000000000001;0.01194408894158098
56:11.4;0.014247737762539271;-0.2915743975184231;-0.8592648040066869;0.973;0.0035696227697945694
56:11.4;-0.016554918074869023;-0.2897703559837889;-0.8457601157364022;0.973;0.0040572165755673305
56:11.4;-0.04482935622088544;-0.28840102434693454;-0.832680927862596;0.973;0.010765592038204133
56:11.4;-0.0698431473982296;-0.28812005217591047;-0.8212161324329585;0.917;0.016525505733340103
56:11.4;-0.09099172816325972;-0.28926007512171237;-0.8128061117092801;0.871;0.021393279669817442
56:11.5;-0.10780810472097896;-0.2918099335662021;-0.8089519661934652;0.7979999999999999;0.025449204865732426
56:11.5;-0.11997252646448286;-0.2954589164442731;-0.8109684199327911;0.731;0.028746359200069703
56:11.5;-0.12732416898702265;-0.29968206099866446;-0.8197363475310208;0.755;0.0312784907626635
56:11.5;-0.12987064381753485;-0.3038429126048522;-0.8355184230438573;0.795;0.03296978647299899
56:11.5;-0.12778998200255484;-0.30729600979508226;-0.8578861042341025;0.879;0.03368863102661191
56:11.5;-0.12142207467120794;-0.30947354430739993;-0.8857722527249255;1.024;0.03328459290672022
56:11.5;-0.11124934037344578;-0.30994240444407306;-0.9176243862640522;1.024;0.03164050373303495
56:11.5;-0.09786884381179407;-0.3084265726469503;-0.9516052864774229;1.024;0.02872454059998923
56:11.5;-0.08195875921837592;-0.304801157759883;-0.9857884030387167;1.056;0.024626103022472316
56:11.5;-0.0642394341425887;-0.2990686654630922;-1.0183231385659623;1.087;0.01956402601095607
56:11.6;-0.04542758130870667;-0.2913270687906015;-1.047570018769872;1.115;0.013863839248188726
56:11.6;-0.026185615749002824;-0.28173827772662496;-1.072209623607231;1.155;0.007910216078788673
56:11.6;-0.007073742407887195;-0.27050347152355064;-1.0913223405796526;1.186;0.002088214608528862
56:11.6;0.01148544567161974;-0.2578472988217597;-1.1044304696160883;1.199;0.0032707610529341363
56:11.6;0.029222833977906974;-0.2440090635908096;-1.1114922652562589;1.179;0.007925647154291556
56:11.6;0.046016987858158366;-0.22923790774148706;-1.1128422364053667;1.078;0.011739192490505014
56:11.6;0.061868232463994255;-0.21379051333810073;-1.1090873049240528;1.078;0.01466972163454278
56:11.6;0.0768565113815933;-0.19793161305167484;-1.1009877241688875;1.078;0.016748592187648702
56:11.6;0.09109005417592499;-0.18193612444924417;-1.0893576785079608;1.083;0.018053457942767498
56:11.6;0.10465526712444101;-0.16608770019252117;-1.075006101606377;1.083;0.018685705134795314
56:11.7;0.11757857939388268;-0.1506676039116071;-1.0587173029968966;1.081;0.01875547645813
56:11.7;0.12980671132688812;-0.13593234528242573;-1.041258541370317;1.068;0.018372934807492667
56:11.7;0.14120535229531922;-0.122084004055221;-1.0233993460614903;1.043;0.017642294135422842
56:11.7;0.1515711888877776;-0.1092395428989335;-1.0059311191601845;1.022;0.01665577229594605
56:11.7;0.160650547358845;-0.09740460705568643;-0.9896819794290703;1.012;0.015486645985591982
56:11.7;0.1681594562761036;-0.08645499974382673;-0.9755264561629295;1.028;0.014182423844084531
56:11.7;0.17380317940172268;-0.07612843810848036;-0.9643880738942737;1.028;0.012760170208221571
56:11.7;0.177296208340266;-0.0660324544104536;-0.9572259096553374;1.028;0.011206534524181896
56:11.7;0.1783852354459077;-0.055676394521319096;-0.9549910447495091;1.002;0.009484824699743396
56:11.7;0.17687751866386345;-0.04453049175139921;-0.9585423761113674;0.9690000000000001;0.0075499042791264724
56:11.8;0.17267482356625657;-0.03210631736487819;-0.968523733131153;0.9470000000000001;0.005369449752079002
56:11.8;0.16580889896087012;-0.018046716688655397;-0.9852198026116649;0.932;0.002948079347367578
56:11.8;0.15647018586760816;-0.002210506829724402;-1.0084199160194882;0.922;0.0003487906817117106
56:11.8;0.14501989174670285;0.015263096940352845;-1.0373232424718302;0.92;0.0022960658965627888
56:11.8;0.13197799250274636;0.033923268075812654;-1.070518006789112;0.951;0.004792842738215082
56:11.8;0.11798568649810967;0.053018100825362166;-1.1060592664759934;1.185;0.006918817721265369
56:11.8;0.10374894173020548;0.0715473420844585;-1.141645389408236;1.185;0.008474389229801654
56:11.8;0.08997608759313999;0.08834770585982457;-1.1748575901879015;1.185;0.009339155540927126
56:11.8;0.0773210009963985;0.10219792152840174;-1.203410967501929;1.265;0.00950940833150708
56:11.8;0.06633533089308398;0.11193711127527568;-1.2253824138866853;1.3219999999999998;0.009098936582143882
56:11.9;0.057427998672775475;0.11659398703994744;-1.2393994322156279;1.35;0.008298720315552493
56:11.9;0.05083293845418287;0.11551623078658789;-1.2447731312557895;1.348;0.007309344485344794
56:11.9;0.04659144167756139;0.10847644547807057;-1.241555649801726;1.331;0.006274914107961436
56:11.9;0.04455674576859819;0.09572634024462849;-1.2305111122454289;1.3019999999999998;0.005248442696589406
56:11.9;0.044423549815779693;0.07798007601868817;-1.2130022320728877;1.2590000000000001;0.004202023855516179
56:11.9;0.045776661359821155;0.05632723474330682;-1.190805246021887;1.091;0.003070458877638242
56:11.9;0.04814708779308423;0.03209746930512624;-1.165879263316526;1.091;0.0018017494317852081
56:11.9;0.051064983185134936;0.006712367938576099;-1.1401318468282202;1.091;0.0003907995224799994
56:11.9;0.05410464710657277;-0.018444426753716995;-1.1152236169347005;1.058;0.0011129142125299544
56:11.9;0.056921302263046474;-0.0421266891001723;-1.0924344202914051;1.038;0.002619555054969475
56:12.0;0.05927986804948929;-0.06329725186937751;-1.0725926306135551;1.04;0.004024638635742008
56:12.0;0.061073967232461494;-0.08117570262854772;-1.0560618898165715;1.052;0.005235661478260527
56:12.0;0.06233161714746138;-0.09526261569515901;-1.0427770031648096;1.053;0.006191877297383154
56:12.0;0.06320414678435159;-0.10534108921940107;-1.0323153018302846;1.047;0.006873148740329528
56:12.0;0.06393734576001407;-0.11145956977237165;-1.0239865934497496;1.042;0.007297367807188529
56:12.0;0.06482791415943556;-0.11390229390190833;-1.0169277859301418;1.022;0.007509043717705907
56:12.0;0.06617175064745309;-0.11315296648955162;-1.010194835279823;1.022;0.007563864017381934
56:12.0;0.06821136497822933;-0.10985410369654973;-1.0028505278272766;1.022;0.007514658217099437
56:12.0;0.07108817011066254;-0.10476145741863437;-0.9940486963235734;1.01;0.007402979160326159
56:12.0;0.07480456464744013;-0.09869250045496905;-0.9831138456385975;1.003;0.007257984970933068
56:12.1;0.07920241799987805;-0.09247025946398013;-0.9696128619254931;1.005;0.0071013167501339566
56:12.1;0.08396611939113587;-0.08686675226583196;-0.953413629214877;1.012;0.006954069434832775
56:12.1;0.0886549312711203;-0.08255173489091835;-0.9347221879872057;0.997;0.00684087498806294
56:12.1;0.09276085370558361;-0.08005228704728243;-0.9140865176763823;0.975;0.006787749153566597
56:12.1;0.09577983502246536;-0.07972789359588175;-0.892355595624983;0.9390000000000001;0.006814316893391066
56:12.1;0.09728058268380088;-0.08176371897019649;-0.8705901262473514;0.82;0.006924693212005565
56:12.1;0.09695779925136458;-0.08618065708160498;-0.8499362433816244;0.82;0.0071019710782796045
56:12.1;0.09466381545049023;-0.09285598814876768;-0.8314890008415865;0.82;0.007308873233700548
56:12.1;0.09041926399191895;-0.1015473577354006;-0.8161747988826379;0.79;0.007493984249864136
56:12.1;0.08440561015092463;-0.1119164168438847;-0.8046684903669722;0.7709999999999999;0.007601199063142987
56:12.2;0.07694200312958746;-0.12355218418722258;-0.7973481952243456;0.7759999999999999;0.007579873042849525
56:12.2;0.06844963359332158;-0.13599456140561741;-0.7942882453638322;0.792;0.007393852863798095
56:12.2;0.05940866508044666;-0.14875732517475102;-0.7952894337999185;0.8059999999999999;0.007028349780821268
56:12.2;0.05031413322508165;-0.1613499470753698;-0.7999399287565216;0.825;0.006494058517076466
56:12.2;0.041636653856092436;-0.17329879746061336;-0.8076946867119797;0.845;0.005827987278105366
56:12.2;0.033791281442391144;-0.18416911503726174;-0.8179594922981964;0.887;0.0050904158145602596
56:12.2;0.027115404538354728;-0.1935877335922797;-0.8301658984695999;0.887;0.004357714895172364
56:12.2;0.021855840808013866;-0.20126352115935575;-0.8438245117587856;0.887;0.003711801321431614
56:12.2;0.01816486224891489;-0.20700177500296713;-0.8585489394225396;0.894;0.0032282802881649047
56:12.2;0.016102838599819723;-0.21071186187589472;-0.8740512352574099;0.899;0.002965707500151846
56:12.3;0.015642774528394937;-0.21240996628288325;-0.8901168722331114;0.904;0.002957574606203878
56:12.3;0.01667188991787971;-0.21221800334446497;-0.9065699962677878;0.9209999999999999;0.0032075128121117928
56:12.3;0.018988423932995702;-0.2103575629483828;-0.9232391186036485;0.938;0.003687748097348776
56:12.3;0.022296632343764375;-0.2071362245233144;-0.9399309875931999;0.9420000000000001;0.004341015098998614
56:12.3;0.026206894407879124;-0.20292337226136453;-0.9564177302851103;0.9490000000000001;0.00508622125465503
56:12.3;0.030248413051391775;-0.19811516988939915;-0.9724404746514753;1.023;0.005827514363830748
56:12.3;0.03389801569667056;-0.19309368575908548;-0.9877283061329598;1.023;0.006465168507051965
56:12.3;0.03662230897645342;-0.1881893070226029;-1.0020232438111865;1.023;0.006905870996390797
56:12.3;0.03792707881494286;-0.18365446494168114;-1.0150984769076488;1.03;0.007070645465729046
56:12.3;0.0374089720844585;-0.17965194176291452;-1.0267642457223787;1.041;0.006900466116238998
56:12.4;0.03480553302336238;-0.17625739759088552;-1.0368649198847688;1.05;0.006360889100946245
56:12.4;0.030037370560923628;-0.1734740747250476;-1.0452732833313347;1.051;0.005446610792003772
56:12.4;0.023233391222121;-0.17125580622465691;-1.0518864157287096;1.061;0.0041853015734861585
56:12.4;0.014730349948307513;-0.1695327431869443;-1.056626221645171;1.079;0.0026386879750740057
56:12.4;0.005041888519646669;-0.16823411701907123;-1.0594455104730138;1.091;0.0008986403951931752
56:12.4;-0.005201307089713669;-0.16730385254893163;-1.0603365261062363;1.075;0.000922703481848127
56:12.4;-0.015330162799516895;-0.16670769825537152;-1.0593364514244785;1.075;0.0027072997214382054
56:12.4;-0.024717237805763508;-0.16643402501234014;-1.0565267165498315;1.075;0.004346328381158065
56:12.4;-0.03284081586951954;-0.1664921267259098;-1.0520269917786091;1.06;0.005752207199915982
56:12.4;-0.039324082475463845;-0.16691041082759092;-1.0459865777860655;1.053;0.00686543620639528
56:12.5;-0.04394844384461097;-0.1677341930377718;-1.038576331713372;1.045;0.007656028240129155
56:12.5;-0.04664327653463278;-0.1690212818459147;-1.0299847140160125;1.04;0.00812009707084879
56:12.5;-0.04745665904873865;-0.17083361450876378;-1.0204206487085934;1.04;0.008272746729858761
56:12.5;-0.04651499785950364;-0.17322431937155808;-1.0101227995793982;1.044;0.008139093594382947
56:12.5;-0.04398156101713875;-0.1762213599381919;-0.9993705781855828;1.0390000000000001;0.007745612166854995
56:12.5;-0.04002313267728805;-0.17981086023400866;-0.9884891244412202;0.993;0.007113754818949304
56:12.5;-0.034790411181793955;-0.1839239498709292;-0.9778424410915908;0.993;0.0062570082793184465
56:12.5;-0.028412539517661813;-0.1884296859947641;-0.9678157300062573;0.993;0.005181458852429958
56:12.5;-0.02100172413882974;-0.193134941475543;-0.9587923268119846;0.983;0.0038890215680957288
56:12.5;-0.012662343678609618;-0.19779166901481077;-0.9511280568636392;0.9690000000000001;0.0023821060106244286
56:12.6;-0.003500148075287411;-0.20211138621382804;-0.945122529220136;0.9520000000000001;0.0006685983711741355
56:12.6;0.006370412106743244;-0.20578505676130224;-0.9409887773580101;0.946;0.0012335757034161805
56:12.6;0.01682056129391678;-0.20850529606243326;-0.9388268271576656;0.9440000000000001;0.003292631022004461
56:12.6;0.027702439930504794;-0.2099881054604633;-0.9386081469156832;0.945;0.005460055241050373
56:12.6;0.03884545524931071;-0.20999240835888747;-0.9401758582284699;0.953;0.007669250179161704
56:12.6;0.050055678274857705;-0.20833676780594335;-0.9432618801715634;0.98;0.009836748244648051
56:12.6;0.06111993270073819;-0.20491362540170552;-0.9475176550155995;0.98;0.011867001993666002
56:12.6;0.07181338998235076;-0.19970181512554752;-0.9525510017030303;0.98;0.013660785703033458
56:12.6;0.08190811819543566;-0.1927773682865727;-0.957961238903079;0.987;0.015126238106466638
56:12.6;0.09118203881708495;-0.18432103147550016;-0.9633685515928939;0.996;0.016191111212186353
56:12.7;0.0994285842348289;-0.17461970623516634;-0.9684371789411311;1.001;0.0168141904689239
56:12.7;0.10646479093708144;-0.16405888253041526;-0.9728925387709133;0.997;0.01699302230398185
56:12.7;0.1121340193387597;-0.15310406864719248;-0.9765321332168181;0.991;0.016765274160232303
56:12.7;0.11630184835963993;-0.1422711606246259;-0.9792314407549744;0.99;0.01620275408205284
56:12.7;0.11884741403275968;-0.13208786810932427;-0.9809480070327674;0.9940000000000001;0.015399217619167349
56:12.7;0.11965437986054901;-0.12304986209838013;-0.98172701815689;1.004;0.014454413516497384
56:12.7;0.11860549863025066;-0.11557697243087724;-0.9817087950597928;1.004;0.013457327429235666
56:12.7;0.11558356408564777;-0.10997657892085075;-0.9811348483305937;1.004;0.012471680865949603
56:12.7;0.11048004740003273;-0.10642056245629736;-0.980347468156684;1.005;0.011526287113129323
56:12.7;0.10321085565632164;-0.10493806108488739;-0.9797789725829548;1.002;0.010611738241926079
56:12.8;0.09373677454033454;-0.10542257460813627;-0.979928744483728;0.998;0.00968362852033007
56:12.8;0.08208478416448617;-0.10765098498779319;-0.9813278533409892;0.996;0.008671511296955956
56:12.8;0.06836578277530478;-0.11131206519325794;-0.9844927640922329;0.99;0.007491927389200702
56:12.8;0.052784332366349364;-0.11604150299228692;-0.98987166163424;0.98;0.006063135434886769
56:12.8;0.03563674343941039;-0.12145968410498134;-0.9977894480374281;0.976;0.004318859386553516
56:12.8;0.01729555371747061;-0.12720791360885753;-1.0083997698811382;1.021;0.0022186118997637636
56:12.8;-0.0018171235136028008;-0.1329785117146117;-1.0216512627502907;1.021;0.00024687015650599897
56:12.8;-0.02125902861541916;-0.1385347727156351;-1.037269697428807;1.021;0.003054878231057218
56:12.8;-0.04059126293742976;-0.14371885103393267;-1.0547541078665423;1.046;0.006153150335074849
56:12.8;-0.05939452084341135;-0.14844871178590038;-1.0733873569256775;1.068;0.009464099375657595
56:12.9;-0.07728285194254261;-0.15270750816520617;-1.092264244455446;1.0959999999999999;0.012890544070821857
56:12.9;-0.09391903116454137;-0.1565292330286423;-1.1103380088479726;1.126;0.016323161138684445
56:12.9;-0.10903267435948916;-0.1599839555618801;-1.1264815538995254;1.151;0.019649756799348342
56:12.9;-0.12244076607404705;-0.1631653111953083;-1.1395566382746336;1.168;0.02276616017884354
56:12.9;-0.134068515442218;-0.16618254647761177;-1.1484836150978814;1.1740000000000002;0.025588039569394733
56:12.9;-0.14396581594459718;-0.16915875281534876;-1.1523062972941527;1.181;0.02806220499182025
56:12.9;-0.15231344796283583;-0.17223456021291156;-1.1502500978963301;1.181;0.030175246661158055
56:12.9;-0.1594152140173118;-0.17557290328581776;-1.1417741419285443;1.181;0.03195710727052376
56:12.9;-0.1656765120142657;-0.17935895994291598;-1.1266177934115638;1.163;0.033478086390402145
56:12.9;-0.17157401253693802;-0.18379164248047666;-1.1048399872749446;1.157;0.034839880055696736
56:13.0;-0.17762243281243187;-0.18906582714970818;-1.0768476011339316;1.159;0.03616305384854373
56:13.0;-0.18434122055504645;-0.19534550598517605;-1.0434061760891065;1.13;0.037573295344374626
56:13.0;-0.19221864944233713;-0.20272995611580027;-1.0056226130044397;1.069;0.03918758303930777
56:13.0;-0.20166998901207522;-0.2112200148456919;-0.9648896624673483;1.02;0.04110115222152592
56:13.0;-0.21299320520725026;-0.22069605179666724;-0.9227891492543329;0.97;0.04337732756092199
56:13.0;-0.22633321923658686;-0.2309175737407974;-0.8809617383299517;0.848;0.046042864299648274
56:13.0;-0.24166405068673874;-0.2415453401090423;-0.8409637876283579;0.848;0.04908943227168715
56:13.0;-0.25878831490295445;-0.2521763624667538;-0.8041431697662044;0.848;0.0524786212058134
56:13.0;-0.2773481627704611;-0.2623792743288825;-0.7715627506151943;0.828;0.05614693745930688
56:13.0;-0.2968464130910417;-0.2717234766908513;-0.7439794480774805;0.823;0.06000948599884449
56:13.1;-0.316682014050047;-0.2798015861514177;-0.7218682349536403;0.8320000000000001;0.06396339428785451
56:13.1;-0.336201844815382;-0.2862461105026221;-0.7054763647025839;0.863;0.06789255530526792
56:13.1;-0.3547633424488608;-0.2907413885504239;-0.6948936458075445;0.8859999999999999;0.07167437898134467
56:13.1;-0.37179445490256674;-0.293033091123033;-0.6901220563694804;0.885;0.07518747189083577
56:13.1;-0.3868336521230365;-0.2929386522624935;-0.6911271455476048;0.879;0.07831751127995176
56:13.1;-0.3995373023604251;-0.29036186072778836;-0.6978592623826974;0.868;0.08095892836487635
56:13.1;-0.40965297596016803;-0.28531311279051835;-0.7102425790262783;0.8690000000000001;0.08301270215464944
56:13.1;-0.41696915394719536;-0.27793288860652465;-0.7281385198718328;0.8690000000000001;0.0843835663416838
56:13.1;-0.4212601636901255;-0.2685107778794486;-0.7512940120621385;0.885;0.08498104013107721
56:13.2;-0.422247378378926;-0.25748906516673525;-0.7792848226040622;0.899;0.08472702752139658
56:13.2;-0.41959301820968475;-0.24544133369522114;-0.8114627989731216;0.9059999999999999;0.08356887773861685
56:13.2;-0.41293391250000117;-0.2330227876716281;-0.846915284552126;0.917;0.08149273909291456
56:13.2;-0.40195218186343745;-0.2208970534049401;-0.8844472038882784;0.945;0.07853011374041052
56:13.2;-0.3864679308112847;-0.20965132295061403;-0.9226003785998954;0.998;0.07475232374398866
56:13.2;-0.3665248039767471;-0.1997193214131586;-0.9597256207680105;1.04;0.07025391659417546
56:13.2;-0.34243108008042134;-0.19133745417333842;-0.9941145169019823;1.1640000000000001;0.06513427488080603
56:13.2;-0.31473580656701505;-0.18455087651153895;-1.0241750091461566;1.1640000000000001;0.05948896879264742
56:13.2;-0.28415791059754747;-0.17926154149311824;-1.0486079629979246;1.1640000000000001;0.05341460593997267
56:13.2;-0.251507270890943;-0.17529188349193262;-1.0665369139637244;1.159;0.04702060834362632
56:13.2;-0.21762097315545753;-0.17244075328828048;-1.0775675515168326;1.148;0.04043758068144517
56:13.3;-0.18331424590244386;-0.1705213219913358;-1.081781381889095;1.1320000000000001;0.03381539074951493
56:13.3;-0.14933976131637722;-0.1693798604477539;-1.079679047429672;1.104;0.027310641222809056
56:13.3;-0.11635413172024014;-0.16889845329947406;-1.0720888393526011;1.0859999999999999;0.021068725123974147
56:13.3;-0.08489373430497946;-0.1689867910434178;-1.0600548581485643;1.061;0.015207461914880835
56:13.3;-0.055361251116768005;-0.16956872615017685;-1.044718285316546;1.028;0.009807331380331711
56:13.3;-0.02802171671343719;-0.17056837167368283;-1.027204378432888;0.98;0.004909645144235129
56:13.3;-0.0030064761612886275;-0.17189903904406906;-1.0085286118430221;0.98;0.0005212180380171885
56:13.3;0.01967299400947828;-0.17345680629848859;-0.9895356394141972;0.98;0.003376705973206965
56:13.3;0.040098517088340606;-0.17511926515344914;-0.9708790533586741;0.976;0.0068175348936333185
56:13.3;0.058409263869812336;-0.17674937050357425;-0.9530387195222955;0.982;0.00983898172402817
56:13.4;0.07476561990588564;-0.1782039324538903;-0.9363629815973779;0.9790000000000001;0.012475657916175699
56:13.4;0.08932080465591272;-0.17934559723607219;-0.9211194824966885;0.961;0.01475568293027772
56:13.4;0.10220389306176411;-0.18005654258096368;-0.9075400091740775;0.9420000000000001;0.01670098652589752
56:13.4;0.11351545442814409;-0.1802522404513437;-0.8958504122017895;0.929;0.01833036704991063
56:13.4;0.12333578769252486;-0.17989434905004312;-0.8862837199629193;0.9229999999999999;0.0196643413714824
56:13.4;0.13174367629158076;-0.17900200158263438;-0.8790790981764222;0.9129999999999999;0.02073077888344213
56:13.4;0.13883999562690277;-0.17765970507033957;-0.874470349372869;0.9129999999999999;0.021569924083871116
56:13.4;0.14476716805830234;-0.17601850421228385;-0.8726671739005188;0.9129999999999999;0.02223704345737967
56:13.4;0.1497162435793584;-0.17428666829987705;-0.873831732516026;0.887;0.02280136788284514
56:13.4;0.15391876598336252;-0.17270797890082207;-0.8780535229827394;0.883;0.023341295912767925
56:13.5;0.15762568847011052;-0.17152920799145305;-0.8853285075943244;0.897;0.02393698940396362
56:13.5;0.16107690012621032;-0.17096143520545132;-0.8955507096412391;0.917;0.02466161993946941
56:13.5;0.16446424652305452;-0.17114075065271644;-0.9085213288749378;0.9390000000000001;0.025571727023003255
56:13.5;0.167892153841807;-0.17209401406675712;-0.9239728599640681;0.9640000000000001;0.026696564685466342
56:13.5;0.1713450222997916;-0.173716991740396;-0.9415988679127514;0.986;0.028027200483921644
56:13.5;0.17467601353927062;-0.1757732775342338;-0.961077164491802;1.0170000000000001;0.029508312975921578
56:13.5;0.1776290638968327;-0.17791788128653213;-0.9820761319261379;1.0170000000000001;0.031036931769474904
56:13.5;0.1798924849215487;-0.17974009841612448;-1.0042407630738244;1.0170000000000001;0.03247101332335077
56:13.5;0.18117020445662074;-0.18081469799582253;-1.0271644409996967;1.032;0.03364809496843529
56:13.5;0.18125487596191583;-0.18075287553849945;-1.0503601219033367;1.065;0.03441225547351619
56:13.6;0.18008881450353637;-0.17924897374122908;-1.0732459922105704;1.0979999999999999;0.03464516965972818
56:13.6;0.17779778688118814;-0.17612014025793105;-1.0951548279834087;1.133;0.03429342767159782
56:13.6;0.17468510661632505;-0.17133563653392528;-1.1153665468886154;1.165;0.033382679756820036
56:13.6;0.17118371854246917;-0.16503294550343986;-1.1331546870733398;1.183;0.0320127001385878
56:13.6;0.16777726595891954;-0.1575175599102653;-1.147833254980988;1.193;0.0303347829275775
56:13.6;0.16491057772374623;-0.14924192669832845;-1.1587922482367408;1.159;0.028519699258909324
56:13.6;0.1629116296470032;-0.14076159057567425;-1.1655180639226563;1.159;0.026727310717444653
56:13.6;0.16194123069806957;-0.1326753281455586;-1.1676053655733085;1.159;0.025086708758477592
56:13.6;0.16197786420834187;-0.12556226962715447;-1.1647728621976101;1.171;0.02368950952351022
56:13.6;0.16283714108563088;-0.11992591008342711;-1.1568923477774498;1.186;0.02259224766263166
56:13.7;0.16421814701267684;-0.11614909259654378;-1.1440308028688042;1.2009999999999998;0.02182100187275191
56:13.7;0.1657625714157845;-0.114462211238971;-1.1264952667226829;1.192;0.02137361479164343
56:13.7;0.16711039392244484;-0.11492691130483229;-1.1048641315833958;1.165;0.02121944755123593
56:13.7;0.16794044409378173;-0.11743707298053702;-1.0799890881908172;1.136;0.021300013717140766
56:13.7;0.16799199911884483;-0.1217379310817258;-1.0529584481886747;1.101;0.021534051550767482
56:13.7;0.16706964698316426;-0.12746195549363168;-1.0250217968434658;0.9940000000000001;0.021827863670110186
56:13.7;0.16503706136881;-0.1341760910470118;-0.9974868739021738;0.9940000000000001;0.02208837703824704
56:13.7;0.16180757901865536;-0.14143120358922526;-0.9716094224168002;0.9940000000000001;0.022234932484616363
56:13.7;0.15733944610786618;-0.14880489416754683;-0.948495904302975;0.955;0.02220702043363727
56:13.7;0.15164030689322383;-0.15593355571807144;-0.9290265633642906;0.9229999999999999;0.021967587687037715
56:13.8;0.14478154024932371;-0.1625334581456273;-0.9137978575022879;0.904;0.021503349007103552
56:13.8;0.13692030627871019;-0.16841066787632444;-0.9030866800933351;0.895;0.020824131466707328
56:13.8;0.12832426629275442;-0.17345889786637173;-0.8968437611181105;0.9;0.019962832544131334
56:13.8;0.11939022861500681;-0.17764585730971;-0.8947216876203546;0.9109999999999999;0.01897631289023844
56:13.8;0.11064544799800208;-0.18099097220156296;-0.8961365719381895;0.9229999999999999;0.01794587613977588
56:13.8;0.10272199500565565;-0.18353845917303072;-0.9003557510647772;0.9620000000000001;0.016974800148041952
56:13.8;0.09630276231120001;-0.18532988190913113;-0.9065978495162393;0.9620000000000001;0.01618075857377186
56:13.8;0.09204924315496327;-0.18638038743386093;-0.9141272500750068;0.9620000000000001;0.015682925796802884
56:13.8;0.09052700741650839;-0.18666256489027078;-0.9223265333652617;0.9740000000000001;0.015585476893217117
56:13.8;0.09214155216471201;-0.18610091334845935;-0.930738062538132;0.978;0.015959949145251562
56:13.9;0.09709291164658086;-0.18457854227227033;-0.9390731303977948;0.976;0.016829381332262663
56:13.9;0.10535648570716676;-0.18195589177699523;-0.9471907195741693;0.9670000000000001;0.01815786708457074
56:13.9;0.11669494414152909;-0.17809865746846149;-0.9550515781699844;0.96;0.019849040265227085
56:13.9;0.1306994049510319;-0.1729095399434103;-0.9626587580149123;0.955;0.02175529275667427
56:13.9;0.14685112461805783;-0.16635709530066234;-0.9700001955264753;0.96;0.02369683951376114
56:13.9;0.1645904994566298;-0.1584953060199344;-0.9770090671105988;1.011;0.02548706121512371
56:13.9;0.1833781317927425;-0.14947021959275644;-0.9835513404746971;1.011;0.026958718949031662
56:13.9;0.2027337150790213;-0.1395145439042113;-0.9894392351875252;1.011;0.02798559793413235
56:13.9;0.22224503255179148;-0.12893333754993064;-0.994462435607764;1.024;0.028496116034977304
56:13.9;0.2415500445550016;-0.11808200105133039;-0.9984301428078342;1.042;0.028477936029553716
56:14.0;0.2603030164110169;-0.10733624085695008;-1.001219706881932;1.0590000000000002;0.027974025811243818
56:14.0;0.2781375201991829;-0.09705579790654745;-1.0028254763163675;1.0659999999999998;0.027071132285308986
56:14.0;0.2946381420256691;-0.0875471362553575;-1.0033977395615534;1.07;0.02588236932548146
56:14.0;0.3093313652781347;-0.07903256014508916;-1.0032612723721834;1.072;0.024526978871230655
56:14.0;0.32170314983842563;-0.07163357994645145;-1.0029064060875406;1.075;0.023111725699729718
56:14.0;0.3312443047516808;-0.06537367201004336;-1.0029505505266751;1.068;0.021718549692272684
56:14.0;0.33751486508931305;-0.06019991041408814;-1.0040736656552913;1.068;0.020401134866012676
56:14.0;0.3402096995492618;-0.05601690114326146;-1.006936382673683;1.068;0.019189683172625274
56:14.0;0.33920682039098854;-0.05272356634311977;-1.0120917694204394;1.054;0.01810044484056414
56:14.0;0.3345885173804364;-0.05024475510364259;-1.0199006149457335;1.046;0.01714587368483303
56:14.1;0.3266358661773808;-0.04855297351677652;-1.030459306377461;1.036;0.016342201042262854
56:14.1;0.31580314197733755;-0.04767803781130289;-1.043550881209478;1.0390000000000001;0.01571261428136055
56:14.1;0.302680278062526;-0.047704068872643696;-1.0586309022707503;1.058;0.015285657168172533
56:14.1;0.2879500213968165;-0.04875485617245813;-1.0748572194687334;1.094;0.015089879528477002
56:14.1;0.2723424296108706;-0.05097000430989101;-1.0911656245154122;1.13;0.015146791721562568
56:14.1;0.25658562584177413;-0.05447510344536054;-1.106383057219265;1.185;0.015464500725620842
56:14.1;0.2413531068751303;-0.05934991115751227;-1.1193590844238515;1.185;0.016034019047041468
56:14.1;0.22721405223909552;-0.06559928819765506;-1.1290899673275259;1.185;0.016829176397917464
56:14.1;0.21459543192620376;-0.07313179463541145;-1.134813582269698;1.188;0.017809479586984173
56:14.1;0.20375908555930214;-0.08174986084658442;-1.1360658561742158;1.181;0.018923763532364347
56:14.2;0.19479128380890623;-0.09115313491763592;-1.1327000564663938;1.169;0.020112036636685728
56:14.2;0.18760311214758868;-0.10095408513134847;-1.1248741176091759;1.149;0.021304328999550922
56:14.2;0.18194369158738097;-0.11070379467623744;-1.1130121127940729;1.1320000000000001;0.022418130899895347
56:14.2;0.17742947183694127;-0.11992571508721041;-1.0977472541821771;1.117;0.023358257188213348
56:14.2;0.17359069034171673;-0.12815449137438922;-1.0798543908290918;1.095;0.024022901474580572
56:14.2;0.16993196534518876;-0.13497588972329522;-1.060179462019419;1.045;0.02431703757755841
56:14.2;0.1659992761073761;-0.1400629078690482;-1.0395741527290274;1.045;0.024170453873987866
56:14.2;0.16144178008808624;-0.14320253016056278;-1.0188457546779452;1.045;0.023554563960739763
56:14.2;0.15605621357262248;-0.1443084891951515;-0.998729132934611;1.03;0.02249161618342257
56:14.2;0.14980490909273758;-0.14341833695139197;-0.9798784565411409;1.015;0.02105246417727865
56:14.3;0.14280412681798757;-0.14067621082856874;-0.9628689933396574;0.995;0.019343213332141004
56:14.3;0.13528591047875455;-0.13630482090297047;-0.9481990071426822;0.972;0.017484905180929666
56:14.3;0.12754311390551815;-0.13057236694848443;-0.9362856036043014;0.9440000000000001;0.015592531799279252
56:14.3;0.11987129171869534;-0.12376170688712496;-0.9274531081427985;0.93;0.013759208020798004
56:14.3;0.11252041782860699;-0.11614764500576732;-0.9219173858073474;0.92;0.012048521301921557
56:14.3;0.1056642154975866;-0.1079838148203832;-0.9197723532493004;0.929;0.010494625617943126
56:14.3;0.09938829295101344;-0.09949732775332333;-0.9209836542371829;0.929;0.00910748722234533
56:14.3;0.09369359165429592;-0.09088955863305712;-0.925390353481563;0.929;0.007880410662941841
56:14.3;0.08850988019475413;-0.08234220648603374;-0.9327126295232454;0.937;0.006797701824934452
56:14.3;0.08371398241791775;-0.07402633534026817;-0.9425638231778782;0.95;0.0058411050881114574
56:14.4;0.07914808894801548;-0.06611060525424253;-0.9544664743763286;0.9590000000000001;0.004994272614342487
56:14.4;0.07463471934519919;-0.05876582486326568;-0.9678718305312884;0.973;0.004245057631141591
56:14.4;0.06998664050612126;-0.05216520874227859;-0.9821814813126235;0.9940000000000001;0.0035858146566359566
56:14.4;0.06501237880484118;-0.04648134352132869;-0.9967693310661595;0.995;0.0030121000743793974
56:14.4;0.05952051834346252;-0.041881507880809535;-1.0110024483657636;1.002;0.0025202360610187347
56:14.4;0.05332700632882236;-0.03852298486991016;-1.0242613138893235;1.018;0.0021041558501161527
56:14.4;0.04626785794964792;-0.036549111755138614;-1.035962315813886;1.054;0.0017518631530545504
56:14.4;0.038216453106039106;-0.036085327219282155;-1.045584110082165;1.054;0.0014419161290759135
56:14.4;0.029102409031630767;-0.03723384071827742;-1.0526949230175136;1.06;0.0011406943891803703
56:14.5;0.018928040593683106;-0.04006611303831513;-1.0569756683611842;1.068;0.0008015818233612184
56:14.5;0.007778249027429173;-0.044613071230610014;-1.0582357742988586;1.073;0.00036722006584038536
56:14.5;-0.00417894038421836;-0.05085382857531855;-1.0564206306780486;1.065;0.00022450535490749386
56:14.5;-0.016701019264926672;-0.058705129366461786;-1.051609739380873;1.055;0.001031035516953376
56:14.5;-0.029486078775567148;-0.06801500534698178;-1.0440054100406782;1.053;0.0020937484708412096
56:14.5;-0.04219128400811726;-0.07856399580715794;-1.0339134930908704;1.04;0.0034271294533256697
56:14.5;-0.054453211125427683;-0.09007527639798468;-1.0217185272970093;1.006;0.0050114149877287925
56:14.5;-0.06590930578970958;-0.10223128796905818;-1.0078568490537947;1.006;0.006790932615683769
56:14.5;-0.07621864660074014;-0.11469102522633869;-0.9927931926580345;1.006;0.008678595730994276
56:14.5;-0.08508014459512844;-0.12710300755936388;-0.9770051099486137;0.9940000000000001;0.010565276848298244
56:14.6;-0.09224870045460491;-0.13911403894528107;-0.9609739617629909;0.978;0.012332264673672476
56:14.6;-0.09755070135206807;-0.15037754024454084;-0.9451773781181405;0.9590000000000001;0.01386521765662791
56:14.6;-0.10089760332081661;-0.1605646508379955;-0.9300798810982019;0.946;0.015067841377062383
56:14.6;-0.10229413589076851;-0.1693789552801368;-0.9161223148516149;0.935;0.01587316934859208
56:14.6;-0.10183877960911199;-0.17657362345223043;-0.9037124536329295;0.9309999999999999;0.016250595589532117
56:14.6;-0.09971718633117259;-0.18196821664426774;-0.8932178583307381;0.93;0.016207758316490305
56:14.6;-0.09619157367570336;-0.18546177290753008;-0.8849595007719293;0.903;0.01578755341595471
56:14.6;-0.091589055816041;-0.18703939256413357;-0.8792038562871346;0.903;0.015061431453554628
56:14.6;-0.08628933154160313;-0.18677141594986743;-0.876153269696759;0.903;0.014120419587624604
56:14.6;-0.08070921820953264;-0.18480635941095544;-0.8759366175865951;0.8909999999999999;0.01306509988121615
56:14.7;-0.07528066086452988;-0.18135941329176436;-0.8786024175945948;0.888;0.011995432716205328
56:14.7;-0.07042119926958956;-0.176697604436747;-0.884116482176574;0.894;0.011001288793533142
56:14.7;-0.06650054346992737;-0.17112200819591608;-0.89236682318442;0.9079999999999999;0.010154872578059346
56:14.7;-0.0638108387066231;-0.16494718357243385;-0.9031773547785076;0.9259999999999999;0.009506319301025698
56:14.7;-0.06254832948010779;-0.15847850794309687;-0.916328526976714;0.935;0.009083166937508656
56:14.7;-0.06281038326023626;-0.1519895739041791;-0.9315801984077065;0.95;0.0088933521523454
56:14.7;-0.06460683577808529;-0.14570347166850164;-0.9486915957607001;0.9940000000000001;0.008930451667913666
56:14.7;-0.0678806853418747;-0.1397820916596328;-0.9674333459910402;0.9940000000000001;0.009179495347671728
56:14.7;-0.07253127687650618;-0.13432596188346516;-0.9875863511703318;0.9940000000000001;0.009621889418987149
56:14.7;-0.0784340323612031;-0.1293843589431176;-1.0089251081284423;1.018;0.01023871021637292
56:14.8;-0.08545372717896436;-0.12497297710194075;-1.0311895103296818;1.0390000000000001;0.011012492155285214
56:14.8;-0.09345042545967125;-0.12109540431922067;-1.0540529403861842;1.058;0.01192810267129266
56:14.8;-0.10227766960401513;-0.1177645809889199;-1.0770928542862395;1.071;0.012973246197964495
56:14.8;-0.11177342160298823;-0.11502018588648956;-1.0997680863625976;1.084;0.014138838174896598
56:14.8;-0.12174607122263915;-0.11293793430221505;-1.1214081745611038;1.099;0.0154190818163711
56:14.8;-0.1319591892422915;-0.11162833900453138;-1.141221974845065;1.121;0.01681063918717623
56:14.8;-0.14211908833186487;-0.11122523362963115;-1.1583319445715832;1.19;0.018310018077599577
56:14.8;-0.15186851857009676;-0.11186678800270468;-1.1718341485471233;1.19;0.019908341173480264
56:14.8;-0.16078820990107653;-0.11367292065314354;-1.180875000292734;1.19;0.021583165815332518
56:14.8;-0.16840735243042915;-0.11672282719536894;-1.184732481518223;1.213;0.023288265414897206
56:14.9;-0.17422479785657524;-0.1210355378830468;-1.1828941856876904;1.225;0.024944153531407814
56:14.9;-0.17774165320649998;-0.12655609583417857;-1.1751280006207216;1.2309999999999999;0.026433669676933294
56:14.9;-0.1785020616317556;-0.1331498966088999;-1.1615386598572734;1.224;0.027606906164797017
56:14.9;-0.17613552198241544;-0.14060667791395445;-1.142600199799559;1.214;0.028297443001574375
56:14.9;-0.17039291247562077;-0.14865392110044623;-1.119154825255796;1.1909999999999998;0.028347715598587658
56:14.9;-0.16116847231977324;-0.1569788131199189;-1.0923714113907588;1.156;0.027637035484212716
56:14.9;-0.14850186636021906;-0.16525801777100327;-1.0636617929703802;1.026;0.026103456029787985
56:14.9;-0.13256095506437143;-0.1731924836121947;-1.0345638327704605;1.026;0.023752096901957145
56:14.9;-0.11361515736282665;-0.1805405586687773;-1.006613831428833;1.026;0.02064780784607676
56:14.9;-0.0920117840329862;-0.18714178573396228;-0.9812324298280571;0.992;0.016896086097840612
56:15.0;-0.0681598633082733;-0.192928023537908;-0.9596336668983285;0.963;0.012619132543039573
56:15.0;-0.042517937499089796;-0.19792318366126513;-0.9427539613632286;0.938;0.007933543790650914
56:15.0;-0.015581945145397593;-0.2022341122402905;-0.931198460226948;0.9209999999999999;0.002934393373292447
56:15.0;0.01212748471841438;-0.20603470590726083;-0.9252082740995596;0.9129999999999999;0.002311801952201099
56:15.0;0.04007779624893445;-0.20954533989689483;-0.9246543985219042;0.922;0.007765354378395505
56:15.0;0.06773819772857828;-0.21301014991614753;-0.9290622512769041;0.9329999999999999;0.013405368292757666
56:15.0;0.09459660042533777;-0.21667533362705776;-0.9376661110439658;1.001;0.019219107821357228
56:15.0;0.12017948247066623;-0.22077131547673015;-0.9494855867175616;1.001;0.025191924809385164
56:15.0;0.14406842515492813;-0.22549931715647425;-0.9634097086379471;1.001;0.03129861057122171
56:15.0;0.1659068556612686;-0.2310206835575361;-0.9782748854599528;1.016;0.03749523685390856
56:15.1;0.18539922687023846;-0.2374477435179057;-0.9929318021904949;1.033;0.04371146742700723
56:15.1;0.20231214973060924;-0.24483672989337343;-1.006304639162368;1.056;0.049845735655929396
56:15.1;0.2164848423251556;-0.25318447452381815;-1.017446904489027;1.089;0.055766876367910015
56:15.1;0.22784809738588413;-0.26243104068925815;-1.025593818012324;1.1159999999999999;0.061324780648609564
56:15.1;0.2364429426923928;-0.2724690156706005;-1.0302062907513503;1.127;0.06636936707999637
56:15.1;0.24242644347751388;-0.28315683483188314;-1.0309989211896216;1.127;0.07077261619687765
56:15.1;0.24605549528792442;-0.2943316031344121;-1.027945675894982;1.092;0.07444578756763724
56:15.1;0.24764929266042437;-0.305818016687386;-1.0212623004576324;1.092;0.07734592892787812
56:15.1;0.24754172651901504;-0.3174321105104832;-1.0113711164879782;1.092;0.07947120878525546
56:15.1;0.24603881798592814;-0.32898095042814235;-0.9988560114331981;1.078;0.08084948736434863
56:15.2;0.24339167894132702;-0.34026218879215153;-0.9844117571638762;1.062;0.08152601413083994
56:15.2;0.23978795896289307;-0.3510681573601222;-0.9687885789800403;1.046;0.08155447965929447
56:15.2;0.23535917017995495;-0.3611964779207452;-0.952734559534184;1.033;0.08099282552575214
56:15.2;0.2301979492912523;-0.37046558295958465;-0.9369416852732064;1.025;0.07990277807478055
56:15.2;0.22437789843525416;-0.37873175315224566;-0.9220016033140305;1.02;0.07835080637332516
56:15.2;0.21796963104746556;-0.3859045097046847;-0.9083741391064087;1.005;0.07640831183308038
56:15.2;0.21104969821326564;-0.39195820684336935;-0.8963683582517987;0.982;0.0741499760696775
56:15.2;0.20370327976237274;-0.39693830629736343;-0.8861355517447931;0.982;0.07165082487598406
56:15.2;0.19602510097654458;-0.4009612113736015;-0.8776751643294595;0.982;0.06898391800554089
56:15.2;0.18812299862574824;-0.4042075756440546;-0.8708543757746995;0.978;0.0662204122089103
56:15.3;0.18012472703976123;-0.40691035283838733;-0.8654389877746672;0.978;0.06343201848346329
56:15.3;0.17218512879952175;-0.40933924541330197;-0.8611308257957822;0.9790000000000001;0.06069433540853274
56:15.3;0.16449034676268517;-0.41178260573488634;-0.8576065359888306;0.9790000000000001;0.05808934718076001
56:15.3;0.15725682934511087;-0.4145272746141725;-0.8545529870856159;0.9740000000000001;0.055705954834559306
56:15.3;0.15072392595837472;-0.4178370209822687;-0.8516950020419682;0.9640000000000001;0.053638078681199956
56:15.3;0.14513999106075243;-0.42193158575226797;-0.8488125896898212;0.96;0.051980558602642495
56:15.3;0.1407433603984111;-0.426969898662106;-0.845747227610389;0.9540000000000001;0.05082363896808112
56:15.3;0.1377413028281404;-0.43304004395732104;-0.8423994632248104;0.9540000000000001;0.050247021840704155
56:15.3;0.1362913807788035;-0.4401547050647899;-0.8387221725785783;0.9540000000000001;0.050314349745076065
56:15.3;0.13648917132202348;-0.44824878299519044;-0.8347136280352626;0.9540000000000001;0.05106870206926878
56:15.4;0.13836405726151857;-0.4571786528355596;-0.8304117861474234;0.955;0.052529435833484205
56:15.4;0.14188259479397738;-0.4667262188339823;-0.8258883670697451;0.9640000000000001;0.05469059772174398
56:15.4;0.14695767560977588;-0.4766106123937303;-0.8212406607222061;0.9570000000000001;0.05752099981689938
56:15.4;0.15346107597202516;-0.4865069202048985;-0.816580428665105;0.955;0.06096579309290359
56:15.4;0.16123718514325078;-0.4960691607563172;-0.812021433561235;0.966;0.06494936799378337
56:15.4;0.1701165999742769;-0.5049552404292448;-0.8076682919305304;0.968;0.06937973091795553
56:15.4;0.1799288107257889;-0.5128522009175488;-0.8036084667647816;0.976;0.07415448734977297
56:15.4;0.19051248934062337;-0.519498993244348;-0.7999077812400796;0.976;0.0791677101431745
56:15.4;0.2017207631287169;-0.5247028153739894;-0.7966096515403868;0.976;0.08431591568084448
56:15.4;0.21341994734010636;-0.5283460940667121;-0.7937383280219228;0.976;0.08950161285859565
56:15.5;0.2254838723675837;-0.5303844618119105;-0.7913055808138324;0.976;0.09463472092347125
56:15.5;0.2377883180238314;-0.5308388762738744;-0.7893195695345858;0.9790000000000001;0.09963366510007117
56:15.5;0.2502088325333599;-0.5297853543904022;-0.7877949958288104;0.981;0.10442772157925395
56:15.5;0.2626225850973965;-0.5273445049823893;-0.786764030682793;0.988;0.10896097820668073
56:15.5;0.2749131711882343;-0.5236719271226318;-0.7862867651669807;0.996;0.1131972317254025
56:15.5;0.28697650896228016;-0.5189499675654775;-0.7864581867271864;1.003;0.11712442583689624
56:15.5;0.29872561612556914;-0.5133807449736802;-0.7874074027055394;0.986;0.12075678301838096
56:15.5;0.3100918939134067;-0.5071802455697343;-0.7892860644044303;0.986;0.12413297907055769
56:15.5;0.3210211484367442;-0.5005741915274535;-0.7922469393362073;0.986;0.12731004415120753
56:15.5;0.3314651166497506;-0.493796501218648;-0.796417158743268;0.995;0.13035462564844869
56:15.6;0.3413726761997351;-0.4870891570890406;-0.801870659172835;0.997;0.13333419448666353
56:15.6;0.3506859178769584;-0.4807003308226716;-0.8086021271389897;0.987;0.13630997156870225
56:15.6;0.35934404712558576;-0.474878079279994;-0.8165045643013816;0.987;0.13933210367303656
56:15.6;0.36729504122480355;-0.46985919392204156;-0.8253555326845295;1.005;0.14243734214822862
56:15.6;0.374512414281912;-0.46585482794810196;-0.8348190024603913;1.028;0.1456495492728799
56:15.6;0.3810120514165634;-0.46303516758507945;-0.8444663716075176;1.036;0.14898242854517002
56:15.6;0.3868629206367918;-0.4615149273258777;-0.8538136356976521;1.062;0.15244245880416052
56:15.6;0.3921872549015815;-0.4613410696107842;-0.8623666967889763;1.062;0.15602980678194825
56:15.6;0.3971497037755039;-0.46248457860128056;-0.8696653671288332;1.062;0.1597363197533737
56:15.6;0.401938267688066;-0.46483851171430696;-0.8753189801634623;1.071;0.16354143498499976
56:15.7;0.40674114185343774;-0.46822391476656255;-0.879031362996393;1.085;0.16740794519228186
56:15.7;0.41172320084375236;-0.4724038394550883;-0.8806157806367669;1.097;0.1712794354671589
56:15.7;0.417004574163;-0.4771042038983953;-0.8799990752582704;1.094;0.17507989515101055
56:15.7;0.4226430657518322;-0.4820384422504571;-0.8772125327277466;1.083;0.17871468915888744
56:15.7;0.4286232653931312;-0.486931312539152;-0.8723692835186948;1.072;0.18207227098087764
56:15.7;0.4348569087792279;-0.4915374165623861;-0.8656332069455462;1.07;0.18502774890880194
56:15.7;0.4411980875524494;-0.4956521870514756;-0.8571881272744382;1.079;0.1874505828669981
56:15.7;0.4474713309507098;-0.49911558673398837;-0.8472161030566149;1.079;0.1892171732007934
56:15.7;0.4535035337851507;-0.5018102718314579;-0.8358902157879768;1.079;0.1902258196955388
56:15.7;0.4591488980876659;-0.5036566612177678;-0.8233819394656552;1.079;0.19040987383382543
56:15.8;0.4643010708054551;-0.5046073575854795;-0.8098779792105277;1.074;0.18974609831662342
56:15.8;0.4688925597631847;-0.5046425556606359;-0.795598836947418;1.058;0.18825709473153493
56:15.8;0.4728842724580429;-0.5037670505884209;-0.7808123579211084;1.042;0.18600786462012656
56:15.8;0.4762493354022274;-0.5020090494709012;-0.7658388875533426;1.035;0.18309789174956093
56:15.8;0.4789564790436918;-0.4994207618813415;-0.7510477711149232;1.0270000000000001;0.17965123495304455
56:15.8;0.48095824481136495;-0.49607976421720773;-0.7368457013750699;1.015;0.17580670735583528
56:15.8;0.48218764075181314;-0.49208922790611775;-0.7236568240349122;0.985;0.17170881637482605
56:15.8;0.48256379731767585;-0.48757603391031684;-0.7118959372771332;0.985;0.16749953363399975
56:15.8;0.4820034970606906;-0.48268778552601527;-0.7019397755772082;0.985;0.1633113431840228
56:15.8;0.48043352561540265;-0.47758989808889035;-0.6941021473359013;0.977;0.1592618755112822
56:15.9;0.4777998220483671;-0.47246174271847163;-0.6886147431557951;0.9590000000000001;0.1554493634111831
56:15.9;0.4740715616197344;-0.46748898749310264;-0.6856128039453728;0.941;0.1519477271158957
56:15.9;0.46923993378133516;-0.46285021411554306;-0.6851274696642943;0.9309999999999999;0.1488013304746862
56:15.9;0.46331265650135667;-0.4586990974391766;-0.6870901319625519;0.934;0.1460211488363121
56:15.9;0.45630600923642045;-0.4551462065549049;-0.6913532965005853;0.9470000000000001;0.14358436556937457
56:15.9;0.44823582190961797;-0.452244615188625;-0.6977271008413547;0.9570000000000001;0.14143782128283602
56:15.9;0.4391084511783552;-0.44998161774299855;-0.7060236258168173;0.9570000000000001;0.13950372448787704
56:15.9;0.428914178660822;-0.44827740444318415;-0.7160961386053963;0.9570000000000001;0.13768561968643647
56:15.9;0.41762784175960976;-0.4469916375961643;-0.7278605022654235;0.9570000000000001;0.1358741984063163
56:15.9;0.40522082346844707;-0.4459390090064257;-0.7412917613885761;0.963;0.13395421776626856
56:16.0;0.39168363556525015;-0.4449132320373661;-0.756397128283316;0.966;0.13181372122254317
56:16.0;0.3770534369160015;-0.44371580752572565;-0.7731727639748885;0.966;0.12935533699927762
56:16.0;0.36143879618029917;-0.4421835185611847;-0.7915547797768984;0.9670000000000001;0.12650808857195017
56:16.0;0.3450337694429343;-0.4402087524368133;-0.8113762987486193;0.973;0.12323741873801221
56:16.0;0.3281146790376514;-0.43774888905396653;-0.832342102006909;0.9790000000000001;0.1195508244836482
56:16.0;0.31101687734707095;-0.4348236804268885;-0.8540291972156495;0.986;0.1154967763621708
56:16.0;0.29409479592093174;-0.4315026030709773;-0.8759155100845752;1.042;0.11115601691495607
56:16.0;0.2776753483840511;-0.4278873985358894;-0.8974297347584935;1.042;0.1066270212765759
56:16.0;0.262019276794959;-0.42409646253738137;-0.9180063596106338;1.042;0.10201019632525173
56:16.0;0.24730220568265338;-0.4202557577753329;-0.9371297657498044;1.068;0.09739606134740454
56:16.1;0.23361733670034826;-0.4164967903449315;-0.9543613725097075;1.084;0.09286019270292893
56:16.1;0.2209933031816591;-0.41295870403858465;-0.9693520791611357;1.09;0.08846414486690597
56:16.1;0.20941887774486798;-0.40979011233448015;-0.9818424180875173;1.088;0.08425954196742763
56:16.1;0.1988679001377572;-0.40714678663217646;-0.9916517939078131;1.09;0.08029248539394944
56:16.1;0.1893193866660833;-0.4051833642795255;-0.9986602945163351;1.088;0.07660629845631596
56:16.1;0.18076916228146064;-0.40404006442203366;-1.002788607076521;1.082;0.07324165821268236
56:16.1;0.17323152935565264;-0.40382755458596825;-1.0039815453017764;1.081;0.07023419652570377
56:16.1;0.1667327840695279;-0.4046134234692887;-1.0021996956497292;1.081;0.06761071914440848
56:16.1;0.16130127519029325;-0.40641246969146283;-0.9974221417849904;1.081;0.06538585850685698
56:16.1;0.1569585001563498;-0.4091816515000097;-0.9896608591234486;1.079;0.06356051176161145
56:16.2;0.15371268030406146;-0.4128198544344444;-0.9789848871532755;1.075;0.06212211873992962
56:16.2;0.15155406283038916;-0.4171720202509168;-0.9655507134171563;1.071;0.061046088926481785
56:16.2;0.150451545370822;-0.42203620723748575;-0.9496344482874831;1.064;0.06029798853086929
56:16.2;0.1503510140452992;-0.4271716478846505;-0.9316607015699113;1.056;0.059836551805625755
56:16.2;0.1511754160567725;-0.43230676109752825;-0.9122220486579978;1.052;0.059617500681739356
56:16.2;0.15282566453030946;-0.4371478742838508;-0.892081634665964;1.037;0.059597667432771256
56:16.2;0.15518115812228808;-0.44139045081034745;-0.8721515151859036;0.978;0.05973843783482629
56:16.2;0.1580994893542072;-0.44473403341526124;-0.853444102040466;0.978;0.06000755251688763
56:16.2;0.1614162544941694;-0.4469010202824895;-0.837002274136549;0.978;0.06037890739496209
56:16.2;0.16494695270553672;-0.4476591842412617;-0.8238166343163262;0.9570000000000001;0.0608306353465474
56:16.3;0.1684936092786408;-0.4468478551276114;-0.8147338397066417;0.9179999999999999;0.06134213196897714
56:16.3;0.1718584513766108;-0.444405994937764;-0.8103592918431025;0.903;0.061891131006669105
56:16.3;0.17486472510950038;-0.4403968638814087;-0.8109667302647164;0.902;0.062452447777118905
56:16.3;0.1773811768766344;-0.4350210911786039;-0.8164361623309405;0.894;0.0629999316168
56:16.3;0.179343587010928;-0.42861042971827074;-0.8262407055723213;0.905;0.06351191003003469
56:16.3;0.18076507356647775;-0.4215985158970653;-0.8394951130833668;0.93;0.06397816328629799
56:16.3;0.1817282690952183;-0.4144710897930417;-0.8550670449414987;1.034;0.0644046021457382
56:16.3;0.18235893044742899;-0.40770519381945935;-0.8717330786932229;1.034;0.06481220640053711
56:16.3;0.18278953187928104;-0.4017119494521835;-0.8883404950490623;1.034;0.0652297225234754
56:16.3;0.18312567962754697;-0.39679592087488924;-0.9039324811602234;1.034;0.06568291834927613
56:16.4;0.1834248879326761;-0.3931364207301027;-0.9178145210975461;1.038;0.0661845265238084
56:16.4;0.18369129011388122;-0.39078909767921427;-0.9295635481321928;1.034;0.06672830426661362
56:16.4;0.18388551449045346;-0.38970318037223983;-0.938992735121417;1.025;0.06728894225542316
56:16.4;0.18394553333839506;-0.3897484211618001;-0.9460880364637563;1.014;0.0678273987662135
56:16.4;0.18381115069976892;-0.39074489866353335;-0.9509352075359288;1.013;0.0682992756435861
56:16.4;0.18344364777483735;-0.3924901161615297;-0.9536568596144384;1.018;0.06866312092200248
56:16.4;0.1828341795963804;-0.39478080033474555;-0.9543747440230117;1.053;0.06888621906475839
56:16.4;0.18199929133617557;-0.3974287264842778;-0.9532025010782585;1.056;0.0689468017443429
56:16.4;0.18096745349690435;-0.40027035125266963;-0.9502621321555457;1.056;0.06883309864790665
56:16.4;0.1797635876654306;-0.4031706740877996;-0.9457103123047202;1.056;0.06854073961391037
56:16.5;0.1783973092978685;-0.40602280605735047;-0.9397618535246467;1.057;0.06807012379413
56:16.5;0.17685714526230548;-0.4087449569201245;-0.9327027194336059;1.047;0.06742458173097045
56:16.5;0.1751106052904938;-0.4112756842956117;-0.9248889312792634;1.028;0.06660932993824012
56:16.5;0.17310946022936677;-0.41356780832857426;-0.9167308603104658;1.0190000000000001;0.06563105417911629
56:16.5;0.17079956301252636;-0.41558232098730885;-0.9086659708946497;1.006;0.06449827263464972
56:16.5;0.16813366567215468;-0.41728439950811524;-0.9011257335935183;0.998;0.06322258111417
56:16.5;0.165084051147592;-0.4186428622857249;-0.8945029830327471;0.9940000000000001;0.06182022795399085
56:16.5;0.1616514129671018;-0.41963280280063786;-0.8891246958883068;0.9940000000000001;0.060313094009814015
56:16.5;0.15786839088609947;-0.4202398145479115;-0.8852325720065829;0.9940000000000001;0.058728615656144255
56:16.5;0.15379825028641655;-0.42046384625131045;-0.8829709704175752;0.982;0.05709873396577011
56:16.6;0.14952936618538681;-0.4203216093273354;-0.8823805149914019;0.981;0.05545798935248897
56:16.6;0.14516618841279308;-0.41984772506497287;-0.8833967502273277;0.982;0.05384099477940737
56:16.6;0.14081887664869264;-0.4190951506875324;-0.8858547342314954;0.987;0.05228005330082049
56:16.6;0.13659494698828054;-0.41813475111925025;-0.8895002977727241;0.9940000000000001;0.05080389326538739
56:16.6;0.13259493401791997;-0.4170530883485078;-0.8940073735911235;0.987;0.04943782705114689
56:16.6;0.1289110561931478;-0.41594740559315196;-0.8990004853835432;0.9890000000000001;0.04820460324522782
56:16.6;0.12562575058164568;-0.41491762676460686;-0.9040826164441114;1.015;0.047124708143321745
56:16.6;0.12280760495498551;-0.4140565290851455;-0.9088682174454429;1.0190000000000001;0.04621530415408555
56:16.6;0.12050519460242874;-0.41344013973861915;-0.913017121013463;1.0190000000000001;0.04548805094226641
56:16.6;0.11874168054549467;-0.41312025774078004;-0.9162618828406385;1.0190000000000001;0.04494685435945683
56:16.7;0.11751250404200282;-0.41312016580823085;-0.9184231548001212;1.018;0.044586491576882575
56:16.7;0.11678644148220671;-0.4134338635181411;-0.9194125987416593;1.0170000000000001;0.04439243036097825
56:16.7;0.11650908716012205;-0.4140288633703138;-0.9192258840096336;1.014;0.0443417330310277
56:16.7;0.11660779899098718;-0.4148523877780275;-0.9179290048414885;1.013;0.044404837497179425
56:16.7;0.11699744383006301;-0.4158402027956042;-0.915641042593171;1.012;0.0445479884620936
56:16.7;0.11758670293657006;-0.416926457104793;-0.9125160092889868;1.011;0.04473610416091682
56:16.7;0.11828516343552814;-0.4180524383626112;-0.9087256115712129;0.9990000000000001;0.0449359371622315
56:16.7;0.11901139530234316;-0.4191725445788685;-0.9044444624768334;0.998;0.04511939629273659
56:16.7;0.11970145297593354;-0.4202567407790926;-0.8998397468927812;0.998;0.04526674665732448
56:16.7;0.12031642652733499;-0.42128970465030785;-0.8950671667285927;0.998;0.045369228809633094
56:16.8;0.12084762950581197;-0.42226735947710003;-0.8902730234557454;0.997;0.04543064076484861
56:16.8;0.12131856086855541;-0.4231916406979895;-0.8855999247763451;0.991;0.04546758646509326
56:16.8;0.12178313527642846;-0.4240644882737071;-0.8811927631220976;0.991;0.045508233531311976
56:16.8;0.12231986766571545;-0.424882321314931;-0.87720220481923;0.9890000000000001;0.04558955764851949
56:16.8;0.12302240135155515;-0.42563230809153935;-0.8737836364045426;0.9840000000000001;0.04575332844895109
56:16.8;0.12398801178011763;-0.4262913256511238;-0.8710899919983149;0.978;0.04604147364096536
56:16.8;0.12530654398851976;-0.426827809737263;-0.8692580667081006;0.9690000000000001;0.046491674617330024
56:16.8;0.12705154392969534;-0.4272059568735247;-0.868390327059434;0.9690000000000001;0.04713377496303125
56:16.8;0.12927342588081175;-0.4273911532426554;-0.8685365905586165;0.9690000000000001;0.0479869233187853
56:16.8;0.1319934261967891;-0.4273554097844188;-0.8696803332692695;0.9690000000000001;0.04905701933039577
56:16.9;0.13519804389951093;-0.4270818343114041;-0.8717328409510331;0.971;0.050334402193756275
56:16.9;0.13883535971874003;-0.42656736020881525;-0.8745367586776379;0.977;0.05179236941572836
56:16.9;0.14281526036051387;-0.425823351809093;-0.8778794017655566;0.9840000000000001;0.05338742189792985
56:16.9;0.14701480890702592;-0.4248744392859876;-0.8815146593047493;0.995;0.05506190427445427
56:16.9;0.15128848551642288;-0.42375625564844827;-0.8851904041329427;1.003;0.05674906300121511
56:16.9;0.15548170298306704;-0.4225124947814476;-0.8886767277262194;1.0070000000000001;0.05837980670052833
56:16.9;0.15944538625267063;-0.4211915580285141;-0.8917897730354648;1.011;0.05988997096244215
56:17.0;0.16304933113386497;-0.4198430654716649;-0.8944070528917448;1.0070000000000001;0.06122675197870461
56:17.0;0.1661923116167865;-0.4185144478772332;-0.8964725724713395;1.0070000000000001;0.06235314890045016
56:17.0;0.16880760259681343;-0.41724796346463555;-0.897992488575568;1.0070000000000001;0.06324976723959078
56:17.0;0.17086378950086853;-0.41607865945894007;-0.8990234016180987;1.005;0.0639140697465556
56:17.0;0.1723620007656762;-0.4150335621460848;-0.8996556853442533;1.002;0.06435778274233224
56:17.0;0.17333117081139027;-0.4141318999568818;-0.8999943610202755;0.998;0.06460336560382768
56:17.0;0.17382238477597586;-0.4133857670306969;-0.9001406273763229;0.995;0.06468023475049438
56:17.0;0.17390265557025683;-0.4128005965101326;-0.9001776027413023;1.005;0.06462115754798238
56:17.0;0.17364839221768605;-0.41237542588312504;-0.9001625425284443;1.008;0.06445913612418563
56:17.0;0.17313908952053858;-0.4121035465419012;-0.9001247783888499;1.002;0.06422501264468047
56:17.0;0.1724519451643132;-0.41197386134774555;-0.9000665704813532;1.002;0.06394585391767536
56:17.0;0.17165801169257203;-0.41197267367758866;-0.8999649856673945;1.002;0.06364409287372061
56:17.0;0.17082005801153352;-0.4120855620500814;-0.8997750812723551;1.002;0.06333739906664847
56:17.1;0.16999175220033055;-0.41229923085600345;-0.8994354396613911;1.002;0.06303915321060204
56:17.1;0.16921734775719058;-0.41260326227042704;-0.8988765020844852;1.004;0.06275922453718008
56:17.1;0.1685308146999612;-0.412991463212685;-0.8980314649650165;1.004;0.06250459542572477
56:17.1;0.16795359624325581;-0.4134622578454177;-0.8968489501801913;1.006;0.062279409111995566
56:17.1;0.16749127586584434;-0.41401774935200597;-0.895305873435968;1.008;0.062084413755700694
56:17.1;0.16713084471625728;-0.41466176289863943;-0.8934179471250283;1.0070000000000001;0.06191633913314289
56:17.1;0.1668407051440109;-0.41539786761025066;-0.8912446657169015;1.005;0.061767954998684385
56:17.2;0.1665746383316563;-0.4162285096209981;-0.8888862645508816;0.992;0.061629252227312616
56:17.2;0.16627939604208677;-0.4171557515401858;-0.8864725098275309;0.992;0.06148963945323927
56:17.2;0.16590418477551247;-0.41818297483415123;-0.8841463126832951;0.992;0.061340573011787025
56:17.2;0.16540976167497057;-0.41931625507121234;-0.8820465100879856;0.987;0.06117786549655064
56:17.2;0.1647752916333615;-0.42056458159786464;-0.8802928304873976;0.983;0.06100310615135589
56:17.2;0.16400187926549048;-0.42193887486421244;-0.8789744903342336;0.985;0.06082395219748322
56:17.2;0.16311232424296995;-0.4234501005443009;-0.878143609000698;0.981;0.06065331769205485
56:17.2;0.16214729643746414;-0.42510705498713824;-0.8778144045334375;0.987;0.06050771149578901
56:17.2;0.16115874466051058;-0.4269147132100827;-0.8779681879048562;0.986;0.060405123763351214
56:17.2;0.16020175362655445;-0.4288737096511643;-0.8785631859415747;0.998;0.06036284371897827
56:17.2;0.1593263430661203;-0.43098048247275744;-0.8795473167484953;0.998;0.060395474706125385
56:17.2;0.15857069730075887;-0.4332267194061345;-0.8808711232904706;0.998;0.06051325903883848
56:17.2;0.15795667888406023;-0.43559686114276736;-0.8824980194060965;0.998;0.06072065880439469
56:17.3;0.15748760661896669;-0.4380636370854389;-0.8844103285544206;1.001;0.06101510927649875
56:17.3;0.15714792952004966;-0.4405829904346838;-0.886611005420694;1.008;0.06138602439140643
56:17.3;0.15690465240520549;-0.44309024465316316;-0.8891210134423257;1.008;0.0618142898182311
56:17.3;0.15671058020934048;-0.44549902226655685;-0.8919717504509135;1.005;0.062272481728171084
56:17.3;0.15650932917494217;-0.44770403874514814;-0.8951924870479472;1.005;0.0627260111420246
56:17.3;0.156241824317592;-0.44958858212206004;-0.8987948856776408;1.0070000000000001;0.06313543353526056
56:17.3;0.15585379301467095;-0.45103655518085234;-0.9027584943607226;1.0270000000000001;0.0634600925736724
56:17.3;0.1553034081621021;-0.45194729104014736;-0.9070205225342205;1.0270000000000001;0.06366282228482792
56:17.3;0.15456782377338332;-0.4522499882719501;-0.9114705059689225;1.0270000000000001;0.06371479301948149
56:17.3;0.15364723334477323;-0.4519146242497985;-0.9159487808669443;1.0270000000000001;0.06359929903659002
56:17.4;0.1525653574255682;-0.45095750003208507;-0.9202489005216417;1.031;0.06331357728043673
56:17.4;0.151365870033485;-0.44944106945029366;-0.9241259704247781;1.035;0.06286832535250654
56:17.4;0.15010528767360068;-0.4474687993668619;-0.9273124773021825;1.04;0.06228519855379981
56:17.4;0.14884400648546128;-0.44517653997114565;-0.9295409118372158;1.045;0.06159310958097613
56:17.4;0.14763764769269566;-0.4427218860521644;-0.930570447148391;1.047;0.06082433439496623
56:17.4;0.1465302287065206;-0.4402720686341751;-0.9302141908053273;1.047;0.060011063353529195
56:17.4;0.1455495524247522;-0.4379901514613989;-0.9283637960776467;1.0390000000000001;0.059182514769381786
56:17.4;0.14470460714431493;-0.4360201126951845;-0.9250088942034572;1.0390000000000001;0.058362621352915714
56:17.4;0.14398496806570743;-0.4344732249219233;-0.9202493622609591;1.0390000000000001;0.05756860385044657
56:17.4;0.1433624949782413;-0.4334187755788381;-0.9142984253158474;1.034;0.05681084424672194
56:17.5;0.14279539627247975;-0.432880787689727;-0.907474274106477;1.023;0.05609405542780947
56:17.5;0.142234148451287;-0.4328406349151883;-0.9001784858285447;1.012;0.05541923563995026
56:17.5;0.1416281696741466;-0.43324455163658215;-0.8928618187630626;0.9990000000000001;0.054785673402571844
56:17.5;0.14093175408165629;-0.43401459780271967;-0.8859810292837437;0.988;0.05419230419777788
56:17.5;0.1401080154117906;-0.435061215449924;-0.8799526972373197;0.9790000000000001;0.053638012495257355
56:17.5;0.13913054108481376;-0.4362953761360435;-0.8751108652511745;0.972;0.05312099002906379
56:17.5;0.1379833831391635;-0.4376386321994394;-0.8716746820671972;0.9740000000000001;0.052637696175016624
56:17.5;0.13666036497475254;-0.43902991676744785;-0.8697304358653467;0.9740000000000001;0.0521820768285448
56:17.5;0.13516458269583995;-0.4404285289791755;-0.8692297050195288;0.9740000000000001;0.05174553842352833
56:17.5;0.13350853169632768;-0.4418134476522626;-0.870002855973375;0.98;0.051317870733437965
56:17.6;0.13171466079444177;-0.4431797955524176;-0.8717856529820579;0.987;0.05088898491981035
56:17.6;0.12981584680156624;-0.44453359814104193;-0.8742557139983896;0.997;0.05045111640161073
56:17.6;0.12785541216772447;-0.44588589981943466;-0.8770740963049004;1.003;0.050001051815270064
56:17.6;0.1258864610726928;-0.4472471322016887;-0.879925951883244;1.008;0.04954190657041711
56:17.6;0.12397032159542831;-0.448622572765273;-0.8825540532579944;1.012;0.04908402439750951
56:17.6;0.12217390551200859;-0.45000955680416943;-0.8847803381314984;1.013;0.04864471430591614
56:17.6;0.12056587362623959;-0.4513965901091739;-0.8865130011456445;1.003;0.048246718549022204
56:17.6;0.11921178869419648;-0.4527638712561238;-0.8877397284940022;1.003;0.04791556626218755
56:17.6;0.11816908104706586;-0.45408439032214654;-0.8885107850898493;1.003;0.04767636487034106
56:17.6;0.11748299782684488;-0.45532503308232153;-0.8889171810965769;0.9990000000000001;0.047550802208864026
56:17.7;0.11718415223867033;-0.4564478362806633;-0.8890683642259698;1.001;0.047554891178729054
56:17.7;0.1172875056290578;-0.45741197710455067;-0.889072365359431;1.001;0.04769758535544021
56:17.7;0.11779245952576754;-0.45817672738721626;-0.8890203080295063;1.004;0.04798021587453806
56:17.7;0.11868395649817806;-0.45870485056806237;-0.8889762711766754;1.005;0.04839667408680463
56:17.7;0.11993448879128024;-0.4589655067135699;-0.888972481633773;1.004;0.04893419558054225
56:17.7;0.12150669298200355;-0.4589359740225149;-0.8890092472926691;1.005;0.049574527191231496
56:17.7;0.12335605338212953;-0.45860219218640375;-0.8890589636279901;1.0090000000000001;0.05029527158137089
56:17.7;0.12543311861687123;-0.45795883164301454;-0.8890732909190929;1.0090000000000001;0.05107121882229733
56:17.7;0.12768452905849115;-0.4570099059303333;-0.8889919884813515;1.0090000000000001;0.05187543361474468
56:17.7;0.13005250777923247;-0.45577070682107246;-0.8887516057496969;1.0090000000000001;0.05267997234617317
56:17.8;0.13247340487773365;-0.4542711575999485;-0.8882927377803499;1.0090000000000001;0.0534564327447835
56:17.8;0.13487651545661114;-0.452559874776414;-0.8875653532375758;1.0090000000000001;0.0541767219559209
56:17.8;0.1371840470982084;-0.45070756760309055;-0.886532286868414;1.004;0.05481419216643561
56:17.8;0.13931245063613792;-0.448808124197971;-0.8851714059362248;1.004;0.05534495236865675
56:17.8;0.14117521021962;-0.4469760564005411;-0.8834772508149166;1.0;0.05574912734628115
56:17.8;0.14268738795674243;-0.44533967077576625;-0.8814629839118607;0.997;0.05601199621947096
56:17.8;0.14377203552921558;-0.444030184410826;-0.8791632257254407;0.995;0.05612500969904586
56:17.8;0.14436787631530798;-0.44316828166874234;-0.8766377818243883;0.995;0.056086639790652364
56:17.8;0.14443691899117542;-0.4428508809589986;-0.8739753418791052;0.995;0.05590297346668699
56:17.8;0.14397052765218316;-0.4431409029782272;-0.8712953152735418;0.992;0.05558796989122984
56:17.9;0.14299292838821698;-0.44406145120872326;-0.8687457297709342;0.991;0.05516330993599641
56:17.9;0.14156150580301255;-0.4455942726489587;-0.8664958089320712;0.988;0.05465768585053985
56:17.9;0.13976340511044696;-0.44768162503126846;-0.864722951938935;0.9840000000000001;0.05410528993562058
56:17.9;0.13770852106543663;-0.45023076217730146;-0.8635948545150198;0.978;0.05354340984334795
56:17.9;0.13552006540673428;-0.4531207435929443;-0.863248606985374;0.9740000000000001;0.05300946647146835
56:17.9;0.13332482949878144;-0.4562116191419102;-0.8637700741250014;0.9690000000000001;0.05253824150681028
56:17.9;0.13124524625315098;-0.4593557906768307;-0.86517807381972;0.9890000000000001;0.05216008400482142
56:17.9;0.12939433947637705;-0.46241038839741194;-0.8674172817402961;0.9890000000000001;0.051900426970828806
56:17.9;0.12787324998560293;-0.4652483394441778;-0.8703609858924215;0.9890000000000001;0.05178022704487991
56:17.9;0.12677004878021497;-0.4677657844860456;-0.8738222306381643;0.997;0.05181651472055496
56:18.0;0.1261584225352837;-0.4698851237660194;-0.8775715878134773;1.005;0.05202241387684368
56:18.0;0.12609543991892916;-0.47155465052390133;-0.8813600494986197;1.0170000000000001;0.05240645392632582
56:18.0;0.12661844459738536;-0.4727459618868398;-0.8849442290256198;1.022;0.052971308810696865
56:18.0;0.1277416520443655;-0.4734497332918277;-0.8881093444143594;1.0190000000000001;0.05371218803679953
56:18.0;0.1294533455691012;-0.4736703684812071;-0.8906856280674473;1.02;0.05461525185668209
56:18.0;0.1317149995271724;-0.47342067324689346;-0.8925561937683727;1.0170000000000001;0.05565677290198267
56:18.0;0.13446369227182928;-0.47271803982196003;-0.8936573636209986;1.018;0.05680391211825806
56:18.0;0.13761786769908618;-0.471583005268273;-0.893974348183624;1.018;0.05801736862163183
56:18.0;0.14108446885175746;-0.470039928705795;-0.8935355413826996;1.018;0.059255107582246974
56:18.0;0.14476495071520068;-0.46811871431167246;-0.89240788808711;1.0170000000000001;0.06047596831120567
56:18.1;0.14855942192096666;-0.46585637318578177;-0.8906943914113239;1.018;0.06164260160569322
56:18.1;0.1523700548494477;-0.4632976457717696;-0.8885334140231149;1.018;0.06272396180525111
56:18.1;0.15610513433962336;-0.4604944295094674;-0.8860982700571314;1.0170000000000001;0.0636976568727567
56:18.1;0.15968414280658522;-0.4575040804026146;-0.8835948813272766;1.015;0.06455203745882189
56:18.1;0.16304310096097305;-0.45438686811209;-0.8812551770601854;1.013;0.0652874760770641
56:18.1;0.1661384314880765;-0.45120298423327243;-0.879324294730505;1.014;0.0659160450293864
56:18.1;0.16894735710910835;-0.448009569055692;-0.8780403626933961;0.986;0.06645890372164172
56:18.1;0.17146385247693863;-0.4448586463967201;-0.8776076031461261;0.986;0.06694143076155487
56:18.1;0.17369123852195315;-0.4417975601323858;-0.8781670103304082;0.986;0.06738734458287489
56:18.1;0.1756341249217076;-0.43887328779295925;-0.8797711755071475;0.992;0.06781375270113381
56:18.2;0.17729191265385372;-0.436140168133955;-0.8823683224779861;0.998;0.06822835810477088
56:18.2;0.17865385183331742;-0.43366825541372384;-0.8857971502048392;0.996;0.06862846667026566
56:18.2;0.17969420654070511;-0.43154853620084344;-0.8897919318901854;1.002;0.06900049188857796
56:18.2;0.18036699818411303;-0.4298923645839597;-0.893996900227713;1.002;0.06931908508462847
56:18.2;0.1806019670554999;-0.4288245657583843;-0.8979891431244983;0.9990000000000001;0.06954617014005991
56:18.2;0.18030515131491065;-0.4284710383551797;-0.9013098814560542;0.997;0.06963117745742294
56:18.2;0.17936805672062192;-0.4289422423103811;-0.9035048422954258;1.0290000000000001;0.06951434024043247
56:18.2;0.1776871952470248;-0.4303147272047648;-0.9041731745669562;1.0290000000000001;0.06913436209602422
56:18.2;0.1751901569872968;-0.43261403917313174;-0.9030198761567925;1.0290000000000001;0.06843962486658407
56:18.2;0.17185964921137792;-0.43580289971436953;-0.8999029531461583;1.04;0.0673999716114359
56:18.3;0.16774786573384876;-0.4397774651646409;-0.8948668367201977;1.0390000000000001;0.0660158757197129
56:18.3;0.16297838501730474;-0.444372113930371;-0.8881554712765762;1.033;0.06432292763784213
56:18.3;0.15773692899436334;-0.44937115379875997;-0.8801998611839759;1.0170000000000001;0.06239070133094496
56:18.3;0.15225443455953272;-0.45452524812092443;-0.8715777437315091;0.995;0.06031621700584223
56:18.3;0.14678654952059506;-0.4595706491619832;-0.8629486825172032;0.976;0.058213473826494215
56:18.3;0.1415928426613051;-0.4642493000721776;-0.8549745549932382;0.95;0.05620122066443817
56:18.3;0.13691734036511422;-0.4683276655335486;-0.8482403821025759;0.955;0.05439102109391105
56:18.3;0.1329712309144065;-0.4716125189830872;-0.8431909005486423;0.955;0.052877257853778906
56:18.3;0.12991917473629347;-0.4739626194662609;-0.8400930121563285;0.96;0.0517302665905624
56:18.3;0.12787081092233712;-0.47529572371408285;-0.8390262558432873;0.96;0.05099303696747817
56:18.4;0.12687771656273228;-0.47559061037906747;-0.839897869144381;0.973;0.05068099179256272
56:18.4;0.1269347279722682;-0.4748838083284341;-0.8424770361517843;0.983;0.05078388137812
56:18.4;0.12798452501869934;-0.4732610331114323;-0.8464415919249797;0.988;0.051269042160592575
56:18.4;0.12992515097264629;-0.4708445238397248;-0.8514286471272177;0.993;0.05208576080702162
56:18.4;0.13262062554688675;-0.46777867569844767;-0.8570804694973613;1.001;0.053170787298751514
56:18.4;0.13591464197596492;-0.46421608089387517;-0.8630793528175899;1.001;0.05445492364851592
56:18.4;0.13964652467821392;-0.46030484797440685;-0.8691683227169199;0.998;0.05587011571884974
56:18.4;0.1436671458356485;-0.4561779092475829;-0.8751572801556877;0.998;0.057355863729975566
56:18.4;0.14785109576445035;-0.4519461155406016;-0.8809167716455205;0.998;0.058863500349203596
56:18.4;0.15210186816379384;-0.4476969965491032;-0.8863636405423759;0.998;0.06035741920071467
56:18.5;0.15634956079915333;-0.4434990002092346;-0.8914437674477075;1.003;0.06181348986537283
56:18.5;0.16054330349248147;-0.43940864450748773;-0.8961167841561121;1.008;0.06321576580863986
56:18.5;0.16464139077783568;-0.4354773838496217;-0.900345994486723;1.011;0.0645526488914136
56:18.5;0.16860157071992538;-0.43175609235260204;-0.9040942924133601;1.016;0.0658133228192063
56:18.5;0.1723734992011305;-0.4282965443005069;-0.9073248818768495;1.0170000000000001;0.06698505049729235
56:18.5;0.17589528812180089;-0.4251499526846019;-0.9100049496498109;1.0190000000000001;0.06805187495849517
56:18.5;0.1790956786891474;-0.4223626811464903;-0.9121108573621559;1.024;0.06899510352214655
56:18.5;0.18190168917508742;-0.41996991857421323;-0.913633798868904;1.024;0.06979544386850116
56:18.5;0.18424894399712158;-0.41798950698764903;-0.9145846199162079;1.024;0.07043593448307642
56:18.5;0.18609077614342;-0.41641849951443943;-0.914996401643213;1.024;0.07090457338166005
56:18.6;0.1874039181713292;-0.4152335484231434;-0.9149240820607221;1.028;0.07119609278630426
56:18.6;0.1881907510366941;-0.41439441467239063;-0.9144409645243473;1.026;0.07131285796097846
56:18.6;0.18847831262056267;-0.41384923151349795;-0.9136318756041574;1.0190000000000001;0.07126475252551771
56:18.6;0.18831357884117628;-0.4135404691147033;-0.9125829851062294;1.018;0.07106766072172628
56:18.6;0.18775485314936696;-0.41341102996290885;-0.9113694569100678;1.015;0.07074043091681498
56:18.6;0.18686053608466505;-0.41340994493689326;-0.9100432544727335;1.004;0.07030084498780097
56:18.6;0.18567797626689792;-0.41349679496490804;-0.9086239951527624;1.01;0.06976164988904031
56:18.6;0.18423560604882308;-0.41364399510707395;-0.9070956588847497;1.01;0.06912790254690596
56:18.6;0.1825408078007402;-0.41383660983088094;-0.9054106197333961;1.01;0.0683965915599801
56:18.6;0.18058435784916105;-0.41406979786207765;-0.9035003127809171;1.0070000000000001;0.0675588099344661
56:18.7;0.17835069183964988;-0.4143441971797836;-0.9012905950747206;1.012;0.06660408994000877
56:18.7;0.17583186373371254;-0.4146598822349774;-0.8987196860639263;1.014;0.0655260296913856
56:18.7;0.17304177607768992;-0.41500988607237826;-0.8957561206120968;1.011;0.06432787284107021
56:18.7;0.17002673234517762;-0.4153745579585433;-0.8924132862318641;1.0090000000000001;0.06302649092850218
56:18.7;0.16686944753325444;-0.41571823730371216;-0.8887569630264223;1.004;0.06165366829273895
56:18.7;0.16368572303897883;-0.4159894975841147;-0.8849033257586741;0.995;0.06025443169634599
56:18.7;0.16061485877731313;-0.4161252385816933;-0.8810070164211666;0.975;0.05888289370228434
56:18.7;0.1578063816711646;-0.41605767306812347;-0.8772421829759152;0.975;0.05759670047124524
56:18.7;0.1554066545801266;-0.4157225095686851;-0.8737825235325465;0.975;0.05645163255124059
56:18.7;0.15354835688730634;-0.4150666346750024;-0.8707865045761768;0.975;0.05549766192384708
56:18.8;0.15234370746684273;-0.4140541374825374;-0.868390503398844;0.971;0.05477680718499338
56:18.8;0.15188046240340106;-0.41267025106388333;-0.8667090081565332;0.97;0.05432232922992755
56:18.8;0.15221941520044063;-0.41092345326026264;-0.8658396623564847;0.9790000000000001;0.054158727825048464
56:18.8;0.1533927693605477;-0.40884605067325064;-0.8658705997297977;0.9840000000000001;0.05430223299677426
56:18.8;0.1554033399391639;-0.40649264353161296;-0.8668864095676858;0.985;0.05476148709826988
56:18.8;0.1582248244847702;-0.4039348570766734;-0.8689678650169496;0.986;0.05553792767221547
56:18.8;0.16180343119882237;-0.40125122816696007;-0.8721812631069378;0.9590000000000001;0.056625344121738405
56:18.8;0.16606069750947666;-0.39851377362072815;-0.8765569938628001;0.9590000000000001;0.05800832873553254
56:18.8;0.17089664701929355;-0.3957763063004829;-0.8820625028262664;0.9590000000000001;0.0596599236517863
56:18.8;0.17619265814813276;-0.39307064874171427;-0.8885783893386456;0.9790000000000001;0.06153952927432236
56:18.9;0.18181426075382137;-0.3904129913637464;-0.8958852369393198;0.991;0.063592307688383
56:18.9;0.18761390557162202;-0.38781590255796783;-0.9036648140559566;0.983;0.06575034111997687
56:18.9;0.19343335164851475;-0.3852976990138927;-0.9115166316204585;0.993;0.06793481070854199
56:18.9;0.1991067883232451;-0.3828840398072191;-0.9189901190615037;1.0170000000000001;0.0700590384659957
56:18.9;0.20446755885727969;-0.3806033968391705;-0.9256306041198138;1.042;0.07203354315928337
56:18.9;0.20935991542901256;-0.3784807588553185;-0.9310324416001221;1.053;0.07377380001875011
56:18.9;0.21365329927248106;-0.3765313184392794;-0.9348884476707229;1.046;0.07520911909590085
56:18.9;0.21725434351028977;-0.37475403404291324;-0.9370252382891905;1.046;0.07628972914458307
56:18.9;0.22011304656133787;-0.3731264689314406;-0.9374188738618489;1.046;0.0769902156998134
56:18.9;0.2222225694265734;-0.3716036558254474;-0.9361904573070057;1.037;0.0773094088971412
56:19.0;0.2236145206584159;-0.37012266317021225;-0.9335842516366519;1.0270000000000001;0.07726791565265144
56:19.0;0.22435237436765093;-0.36861259043666567;-0.9299324805984271;1.022;0.07690458839982692
56:19.0;0.22452474904819017;-0.3670080923951745;-0.925612790412219;1.01;0.07627271525597347
56:19.0;0.22423859538359076;-0.3652630694817443;-0.9210056286289643;1.0070000000000001;0.07543595853096552
56:19.0;0.22361146258733353;-0.3633604732097848;-0.916458342488244;1.002;0.07446367628988163
56:19.0;0.22276249712636817;-0.36131505699534;-0.9122607385307091;0.9940000000000001;0.07342553542120106
56:19.0;0.22180295084054535;-0.3591682125636444;-0.9086339902670607;1.001;0.07238593557205028
56:19.0;0.22082781606437313;-0.35697711591971254;-0.905731611282424;1.001;0.0713992548549195
56:19.0;0.21991011754262665;-0.3548026180588698;-0.9036481206606355;1.001;0.07050686036458162
56:19.0;0.21909847807340155;-0.3526997512494094;-0.9024294865391695;0.9940000000000001;0.06973612179414235
56:19.1;0.21841783265095566;-0.3507119966097286;-0.9020809261934968;0.987;0.06910098136251729
56:19.1;0.21787317444334534;-0.3488683090448913;-0.9025712568626317;0.987;0.06860358013989533
56:19.1;0.21745632150555347;-0.34718188081606544;-0.9038359491551738;0.991;0.06823680747550295
56:19.1;0.21715508476457204;-0.34565070939358417;-0.9057813809429062;0.997;0.0679877775374617
56:19.1;0.2169630985536868;-0.34426021655602096;-0.9082910547723778;0.997;0.06784186046398752
56:19.1;0.2168878171514071;-0.3429873189152678;-0.911232824052183;1.002;0.06778640102704722
56:19.1;0.2169541595786491;-0.3418049924900653;-0.9144657388554573;1.004;0.06781313494281632
56:19.1;0.2172018627385259;-0.3406866675942139;-0.91784558559776;1.005;0.06791853462630712
56:19.1;0.21767623263905003;-0.3396099692426049;-0.9212286718491278;1.005;0.06810184676707016
56:19.1;0.2184147886110642;-0.3385596783730855;-0.924473667313071;1.005;0.06836153711151935
56:19.2;0.21943426596771778;-0.33753029889356606;-0.9274418709265382;1.006;0.0686916437882609
56:19.2;0.2207217501181467;-0.33652834724073466;-0.9299972891264912;1.011;0.06907938560231408
56:19.2;0.22223153599686526;-0.3355736468822212;-0.932008467368149;1.011;0.06950457524598727
56:19.2;0.2238876273883141;-0.3346986560808891;-0.933353408199922;1.018;0.06994073310788652
56:19.2;0.22559101160880113;-0.3339453840388635;-0.9339276437126505;1.0170000000000001;0.07035751095844785
56:19.2;0.22723063711183905;-0.3333601546359325;-0.9336544197752406;1.0170000000000001;0.07072398648640377
56:19.2;0.22869697901019242;-0.33298699057076464;-0.9324954794704731;1.02;0.07101243902226426
56:19.2;0.22989656413449713;-0.33286065877441956;-0.9304611227754129;1.02;0.07120216200139057
56:19.2;0.23076484856100585;-0.3330005070039665;-0.9276183395352056;1.02;0.07128265651000322
56:19.2;0.231274582600789;-0.3334060974021873;-0.924095396362759;1.018;0.07125547681294395
56:19.3;0.2314379232104627;-0.3340550915293406;-0.9200809053018936;1.015;0.07113423032466715
56:19.3;0.231302124714145;-0.33490314855439224;-0.91581570417561;1.005;0.07094257355133071
56:19.3;0.23093993111179018;-0.3358855506250846;-0.911576814357757;0.998;0.07071045371119596
56:19.3;0.23043700014630447;-0.33692078316297724;-0.9076542406637075;0.988;0.07046938080544583
56:19.3;0.229879447725562;-0.33791637337343183;-0.9043232819767735;0.981;0.07024785903023663
56:19.3;0.22934416136149116;-0.33877673487968984;-0.9018166985790347;0.98;0.07006797059444032
56:19.3;0.22889301655625569;-0.3394122751065697;-0.9003016115764616;0.983;0.06994362148660371
56:19.3;0.22857048999083665;-0.33974869571306565;-0.899864808123705;0.983;0.06988037473615817
56:19.3;0.22840338581762865;-0.3397350001718403;-0.9005078167709185;0.983;0.06987636675519723
56:19.3;0.228401684594578;-0.33934869623112685;-0.9021512815696469;0.987;0.06992377362725939
56:19.4;0.22856022526149233;-0.33859754831552535;-0.9046473747197586;0.995;0.07001059873753715
56:19.4;0.22886135915082556;-0.33751835448074075;-0.9077983138089303;0.998;0.07012279845354444
56:19.4;0.22927861826521767;-0.3361735314712434;-0.911378210111376;1.0;0.07024666539757748
56:19.4;0.22978091386709032;-0.3346458654712307;-0.915155383015278;1.0090000000000001;0.07037108621581921
56:19.4;0.23033622430928027;-0.33303152112967893;-0.9189129476204374;1.012;0.07048909835718477
56:19.4;0.230913655325738;-0.33143149547274475;-0.9224658796460596;1.013;0.07059821230527602
56:19.5;0.23148345656870015;-0.32994193887375917;-0.925672813782921;1.013;0.07069927983475281
56:19.5;0.2320156267487118;-0.32864439151078595;-0.9284413559077354;1.013;0.07079424245970228
56:19.5;0.23247822048668845;-0.327597768051265;-0.9307268091667412;1.013;0.07088354523224745
56:19.5;0.2328362094502631;-0.32683383473719924;-0.9325253841422156;1.013;0.07096401719580563
56:19.5;0.23305139523170884;-0.3263567902859606;-0.9338637394706765;1.014;0.0710277198779612
56:19.5;0.23308373584749092;-0.32614635918422263;-0.9347869203195099;1.014;0.07106195187067055
56:19.5;0.23289429256109304;-0.32616317151580826;-0.935346577145334;1.014;0.07105036745289496
56:19.5;0.23244965314020302;-0.32635512790382687;-0.9355909751023143;1.016;0.07097499446623183
56:19.5;0.231727283032615;-0.32666375059111175;-0.9355577640601787;1.015;0.07081882568156778
56:19.5;0.23072100466171108;-0.3270298521293125;-0.93526990464869;1.014;0.07056859841781939
56:19.5;0.22944568176850905;-0.3273980724963666;-0.9347348671440826;1.016;0.07021735234689494
56:19.5;0.22794016995402933;-0.3277201262309826;-0.933947134249073;1.016;0.06976639380427314
56:19.5;0.22626782851454236;-0.3279568355509785;-0.932893691496305;1.016;0.06922638486039816
56:19.5;0.2245141870795975;-0.32807901690740476;-0.9315616774173823;1.013;0.0686173368644858
56:19.6;0.22278146175240526;-0.328067295826165;-0.9299472155473925;1.013;0.06796734202335841
56:19.6;0.22117985776127666;-0.32791100389672534;-0.928064687384271;1.011;0.06731003453973859
56:19.6;0.21981633063084058;-0.3276061243839405;-0.9259559360295776;1.005;0.06668102793238859
56:19.6;0.21878251491303868;-0.3271521240705394;-0.9236989502079233;1.006;0.06611390427570511
56:19.6;0.21814438554562612;-0.32654826752567867;-0.9214151861609396;1.015;0.06563670779756708
56:19.6;0.2179361146466782;-0.32579117268220725;-0.9192730784976006;1.022;0.06526991673662566
56:19.7;0.21815902244465468;-0.3248754212491047;-0.9174830581608421;0.9940000000000001;0.06502615696547755
56:19.7;0.21878435607911367;-0.3237977480372316;-0.916279970913319;0.9940000000000001;0.06491099739899057
56:19.7;0.21975754043252624;-0.3225637410322369;-0.9158939507891722;0.9940000000000001;0.06492388857088223
56:19.7;0.2210021477124911;-0.3211949733972526;-0.9165158161843314;0.9940000000000001;0.06505867262083465
56:19.7;0.22242321400586668;-0.3197344107161432;-0.918263044762666;0.983;0.06530352091324734
56:19.7;0.2239106551046991;-0.3182485325846135;-0.9211501955569845;0.977;0.06564046048203087
56:19.7;0.22534410983001382;-0.3168254500595973;-0.9250680261113702;0.981;0.06604499954618319
56:19.7;0.2266004378058331;-0.3155692351203434;-0.9297771814659703;0.992;0.0664866246217863
56:19.7;0.2275641322983013;-0.3145914103501028;-0.9349212770579534;1.003;0.06693075368522369
56:19.7;0.22813938450593538;-0.31400087462949;-0.9400600134513329;1.02;0.06734210741753496
56:19.7;0.2282612104241809;-0.31389369878642953;-0.9447179449733596;1.043;0.06768880989615754
56:19.7;0.2279028178594778;-0.3143441413137098;-0.9484402777434869;1.043;0.0679461814330722
56:19.7;0.22707772628608194;-0.3153976057375446;-0.9508448317760277;1.043;0.06809928928609854
56:19.7;0.22583702688400722;-0.31706558100753546;-0.9516609305752303;1.04;0.06814382191478548
56:19.8;0.22426310374363345;-0.31932262721640586;-0.9507509930251585;1.036;0.06808544962677178
56:19.8;0.22246129338495485;-0.32210587924603695;-0.9481153825925496;1.031;0.06793824166325928
56:19.8;0.22055098939282933;-0.3253174396877532;-0.9438834451264928;1.023;0.06772277182592752
56:19.8;0.2186573480189447;-0.3288293368189584;-0.9382945030464632;1.016;0.06746426684283918
56:19.8;0.2169040891081313;-0.3324902344579416;-0.9316727888398783;1.012;0.0671908360491112
56:19.8;0.21540751329865931;-0.3361333802888815;-0.9243996542003459;1.0090000000000001;0.06693176298464654
56:19.9;0.2142717303456066;-0.3395859283038476;-0.9168850207981774;0.99;0.06671591400055256
56:19.9;0.21358483519717852;-0.3426796101858259;-0.9095395119661557;0.99;0.06657025928386749
56:19.9;0.21341552935256797;-0.34526153996926373;-0.9027497257812807;0.99;0.06651836815965445
56:19.9;0.21380973755708368;-0.3472033841562704;-0.8968591197390219;0.99;0.06657875329590408
56:19.9;0.21478701928122834;-0.3484083095174679;-0.8921541473241023;0.981;0.06676309080277276
56:19.9;0.2163370011351648;-0.34881650052968055;-0.8888526434907965;0.9740000000000001;0.06707452322709566
56:19.9;0.21841671623372122;-0.3484100151867664;-0.8870923217631188;0.972;0.06750645840385489
56:19.9;0.22095022418048577;-0.3472168103066228;-0.8869202701451843;0.97;0.06804242296617183
56:19.9;0.22383168194318256;-0.3453128204174505;-0.8882863692850579;0.9690000000000001;0.06865738509912461
56:19.9;0.22693222071041716;-0.3428202645595998;-0.8910438931009855;0.9690000000000001;0.06932050962146369
56:19.9;0.23010996801649675;-0.3399004485990457;-0.8949598585766855;0.995;0.06999882117294234
56:19.9;0.23322146834004362;-0.33674107765153777;-0.8997352117352171;0.995;0.07066092851007438
56:19.9;0.23613192523740173;-0.33354081071273106;-0.9050307065129817;0.995;0.07127988700356815
56:19.9;0.238722111954776;-0.33049478238455204;-0.9104923447611769;0.995;0.07183457955653659
56:20.0;0.2408916781842066;-0.32778283075694237;-0.9157732618434025;1.002;0.07230959978154768
56:20.0;0.24256036191877814;-0.3255597275014733;-0.9205531341808884;1.008;0.07269413433918916
56:20.0;0.24366888978681106;-0.32394644040787063;-0.9245568946281582;1.013;0.0729805174540535
56:20.0;0.2441803711345075;-0.32302269293154334;-0.92757259509628;1.015;0.07316303146550862
56:20.0;0.24408183804201128;-0.3228218695749962;-0.929466804999004;1.021;0.07323729533973966
56:20.0;0.24338503450534385;-0.32332920663162823;-0.9301956867088075;1.025;0.0732003450748253
56:20.0;0.24212565160300337;-0.32448378073140133;-0.9298097547278713;1.024;0.07305129078418995
56:20.0;0.24036055476443396;-0.3261842393442942;-0.9284503007986381;1.015;0.07279219774835438
56:20.0;0.23816308340566902;-0.32829755676215655;-0.9263366171814474;1.015;0.07242873941676342
56:20.0;0.23561718182389366;-0.33066983890267443;-0.9237451693831052;1.01;0.07197036765964615
56:20.1;0.2328113635267762;-0.333138444034445;-0.9209831537143767;1.003;0.07142999401112049
56:20.1;0.22983314548248576;-0.3355446144901564;-0.9183591498354218;1.003;0.07082319108838235
56:20.1;0.22676425608556178;-0.337745153933452;-0.9161537815130268;0.993;0.07016687007745734
56:20.1;0.2236768468606926;-0.3396215638160819;-0.9145935537656134;0.9890000000000001;0.06947753879255417
56:20.1;0.22063087005474372;-0.34108597964689774;-0.9138310902818803;0.99;0.06876953300979503
56:20.1;0.21767271719641929;-0.3420840525886414;-0.9139347467076142;0.99;0.06805374291170005
56:20.1;0.2148351859867903;-0.3425949169966063;-0.9148893417734777;1.004;0.06733717547553195
56:20.1;0.2121388747202751;-0.3426283561951031;-0.9166071142111373;1.004;0.06662339921165467
56:20.1;0.20959508741817634;-0.34221971650590477;-0.9189451962444835;1.004;0.06591370717381241
56:20.1;0.20720989324379463;-0.3414234236320368;-0.9217250901977299;1.008;0.06520865003669785
56:20.2;0.20498833030452876;-0.34030574483194526;-0.9247512642659694;1.0090000000000001;0.06450945196113109
56:20.2;0.20293775202888048;-0.33893727635739945;-0.927827798593543;1.011;0.06381893622045069
56:20.2;0.20107008926143274;-0.33738599485170084;-0.9307724459031661;1.014;0.06314195721782553
56:20.2;0.19940341010694818;-0.3357120846867731;-0.9334273242994217;1.014;0.06248561748983853
56:20.2;0.1979629567680351;-0.33396535611236633;-0.9356656783364686;1.0170000000000001;0.06185944918440069
56:20.2;0.19678114394065413;-0.332185042298961;-0.9373946919357806;1.015;0.06127538433310021
56:20.2;0.19589569068049995;-0.3304010795281088;-0.9385548561342837;1.014;0.06074716311021985
56:20.2;0.1953456701692412;-0.32863620920693726;-0.9391166934819916;1.014;0.0602890946856571
56:20.2;0.19516622134573677;-0.3269088625895118;-0.9390757667134072;1.014;0.05991450585750487
56:20.2;0.19538296655998105;-0.3252368432429333;-0.9384469153332023;1.0090000000000001;0.05963430299806683
56:20.3;0.19600688381310438;-0.32364115965740164;-0.9372587095331016;1.008;0.05945584525270938
56:20.3;0.19703029161588814;-0.3221488453409783;-0.9355492900476844;1.006;0.05938219581172995
56:20.3;0.1984248518206139;-0.32079389867048436;-0.9333646843911227;1.004;0.05941191195872471
56:20.3;0.20014260924662644;-0.3196161401985241;-0.9307601009344912;1.001;0.05953961442963559
56:20.3;0.20212070192730386;-0.31865813123182984;-0.9278040085774238;1.01;0.05975744868898046
56:20.3;0.20428933163617546;-0.3179604087540958;-0.9245838477818736;1.012;0.06005719388686887
56:20.3;0.2065812110665619;-0.31755553568775097;-0.9212105892284548;0.995;0.06043234244442852
56:20.3;0.20893984125523313;-0.3174618593995538;-0.9178187627925297;0.995;0.06087931366392064
56:20.3;0.21132418281266585;-0.3176782387362619;-0.9145606976672518;0.995;0.06139728946656545
56:20.3;0.21370852158170744;-0.3181810641529636;-0.911596244431705;0.986;0.061986725818589744
56:20.4;0.21607808094453268;-0.3189245325471708;-0.9090796226067003;0.982;0.06264704127258551
56:20.4;0.21842232740831963;-0.31984456701087505;-0.9071448144519665;0.98;0.06337422053565671
56:20.4;0.22072828703437294;-0.320866003090754;-0.9058917072372532;0.981;0.06415905837755079
56:20.4;0.2229756733972043;-0.3219116459244298;-0.9053756392694426;0.9790000000000001;0.06498647456262305
56:20.4;0.2251349534390405;-0.32291116785876023;-0.9056022573215533;0.9840000000000001;0.06583600787898977
56:20.4;0.22716903925960572;-0.3238080748997529;-0.9065285126003649;0.986;0.06668348431504484
56:20.4;0.22903859692886225;-0.3245636784515697;-0.9080696256226776;0.998;0.06750372525252073
56:20.4;0.23070952751434565;-0.3251577772242364;-0.9101105127312594;0.998;0.06827375774067282
56:20.4;0.2321598006149541;-0.3255866421380067;-0.9125188066276656;0.998;0.06897559011132287
56:20.4;0.23338297403712527;-0.325859525532545;-0.9151565230321602;1.003;0.06959771323300647
56:20.5;0.23438754595559588;-0.32599478080501554;-0.917888880130938;1.001;0.07013507852946874
56:20.5;0.2351932998636034;-0.32601611097845934;-0.920590312066669;1.003;0.07058792379694023
56:20.5;0.23582670475519685;-0.3259492193120751;-0.9231484092196011;1.006;0.07096013832437333
56:20.5;0.23631696791404228;-0.3258192211544511;-0.9254667307396057;1.01;0.07125780133391832
56:20.5;0.236693115888201;-0.3256488102173544;-0.9274674290868214;1.0090000000000001;0.07148810575846663
56:20.5;0.23698156541239712;-0.3254563252670401;-0.9290944304427825;1.011;0.07165840497612556
56:20.6;0.23720364345243067;-0.3252527976180093;-0.9303175605055757;1.0190000000000001;0.07177506839118897
56:20.6;0.2373731086516405;-0.32503829418599656;-0.9311370852894019;1.0190000000000001;0.07184220801308301
56:20.6;0.23749431281212144;-0.3247991531520601;-0.9315866736516039;1.0190000000000001;0.07186068781769002
56:20.6;0.23756185252732995;-0.3245078478573644;-0.931732103054412;1.0190000000000001;0.07182786652370222
56:20.6;0.23756229585819333;-0.3241263726635105;-0.9316640044266188;1.016;0.07173831955382949
56:20.6;0.23747788173222778;-0.32361290473736404;-0.9314847857383354;1.013;0.07158545075083277
56:20.6;0.2372911299942657;-0.3229304253696608;-0.9312916523447087;1.01;0.0713635061720034
56:20.6;0.23698853454049998;-0.3220552751463864;-0.9311589974553688;1.0070000000000001;0.07106922779442806
56:20.6;0.2365616314955994;-0.3209835507093204;-0.931123998570596;1.002;0.0707024728688774
56:20.6;0.23600508585717897;-0.31973380018549225;-0.9311789566202464;1.0;0.07026564941203439
56:20.7;0.2353135047651771;-0.31834550952318574;-0.9312728594631396;1.015;0.06976257891425887
56:20.7;0.2344797618552432;-0.3168741892870527;-0.931322397216926;1.015;0.06919779841723649
56:20.7;0.23349631822577907;-0.31538479608057807;-0.9312294805412612;1.015;0.0685768459081122
56:20.7;0.2323586467096307;-0.3139449999022558;-0.930900482098672;1.015;0.06790717506608648
56:20.7;0.2310688069886122;-0.3126187058700707;-0.9302633602621575;1.016;0.06719890541469348
56:20.7;0.22963768582103652;-0.3114596227119287;-0.9292806722739958;1.01;0.0664648179159557
56:20.7;0.2280852758970185;-0.31050533335287894;-0.9279573030178584;1.0090000000000001;0.06571950873963577
56:20.7;0.22643916659527474;-0.3097732192909848;-0.9263421282904408;1.0070000000000001;0.06497807369561426
56:20.7;0.2247319309766124;-0.3092593528643236;-0.9245236340799818;0.998;0.06425481002960333
56:20.7;0.22299808685977104;-0.30894047969813887;-0.922620480043525;0.9940000000000001;0.06356221813995744
56:20.7;0.22127113992216904;-0.3087785069205721;-0.9207690083075205;0.993;0.0629104119814284
56:20.7;0.21958129857693276;-0.30872645603979487;-0.9191103838321886;0.993;0.0623070040577394
56:20.7;0.21795454914548137;-0.30873455182522;-0.9177794594251651;0.993;0.061757471647359403
56:20.8;0.21641345305903528;-0.30875547557153826;-0.91689582554688;0.99;0.06126591419794626
56:20.8;0.21497946255654393;-0.3087486776490338;-0.9165563063202794;0.993;0.060836080927280795
56:20.8;0.21367632862800975;-0.30868429078988274;-0.916827962000887;0.992;0.0604726209335191
56:20.8;0.2125341977110589;-0.3085470614969508;-0.9177409350541321;0.99;0.06018251574260303
56:20.8;0.211593661714585;-0.3083398445882791;-0.919281146214708;0.9890000000000001;0.0599764362247586
56:20.8;0.2109084052433143;-0.3080853693796626;-0.9213840994135014;0.986;0.059869506146364666
56:20.8;0.21054471168955427;-0.30782494159348645;-0.923932363698829;0.988;0.05988090057620677
56:20.8;0.21057623971561062;-0.30761346238246856;-0.9267596596923464;0.9990000000000001;0.06003186359772394
56:20.8;0.21107367961194937;-0.3075112796796078;-0.9296630029459605;0.9990000000000001;0.06034213606260011
56:20.8;0.21209124917227926;-0.30757451160479504;-0.9324215505704637;0.9990000000000001;0.06082545910988704
56:20.9;0.21365377438123018;-0.3078458822502986;-0.9348192374454628;1.004;0.06148533722360463
56:20.9;0.21574767452639082;-0.308347554457453;-0.9366690942973126;1.0190000000000001;0.062312162356934674
56:20.9;0.21831732314828656;-0.30907667015366347;-0.9378375658886726;1.025;0.06328226968382457
56:20.9;0.22126656865102848;-0.31000390415810963;-0.9382652737465267;1.028;0.06435889918748493
56:20.9;0.22446437832216598;-0.3110751727831924;-0.9379788912601777;1.021;0.06549465303949392
56:20.9;0.22775379923614636;-0.312216406875334;-0.9370898226498814;1.028;0.06663502621164408
56:20.9;0.23096402402543129;-0.3133407231776984;-0.9357784171792527;1.013;0.06772269047495123
56:21.0;0.23392512377726787;-0.314356732557435;-0.9342655629236403;1.001;0.06870209411242496
56:21.0;0.23648382996990527;-0.3151768479790078;-0.9327766709290988;1.001;0.06952378918342969
56:21.0;0.23851761052647225;-0.3157249555481291;-0.9315059625236313;1.001;0.07014795259880154
56:21.0;0.2399443929680507;-0.31594297365386576;-0.9305890092933051;1.001;0.07054678492941888
56:21.0;0.2407268452862473;-0.3157959515297874;-0.9300879412309068;1.0070000000000001;0.07070580908621801
56:21.0;0.2408716608763289;-0.31527557071610157;-0.9299895914977735;1.014;0.07062429339592066
56:21.0;0.24042455023789222;-0.31440161241754844;-0.9302141668268341;1.012;0.07031476446318581
56:21.0;0.23946144994438529;-0.3132202416508072;-0.9306308348635725;1.005;0.06980119633977783
56:21.0;0.23807721742282492;-0.3117980287818671;-0.9310771353068299;1.0070000000000001;0.069115724509721
56:21.0;0.2363743672636643;-0.31021220115897885;-0.9313807360750354;1.015;0.06829462201998493
56:21.1;0.2344544503301139;-0.3085394686522746;-0.9313825735780642;1.013;0.06737477315281415
56:21.1;0.2324130737809867;-0.3068461628413241;-0.9309592391320585;1.013;0.06639141388812927
56:21.1;0.23033789633221882;-0.3051814906127126;-0.9300416289064471;1.013;0.0653771484672113
56:21.1;0.22830826781560268;-0.30357453438093807;-0.9286275434038366;1.013;0.06436185275818365
56:21.1;0.22639505366794788;-0.3020347298440756;-0.9267869852587705;1.006;0.06337292377396848
56:21.1;0.2246593340092369;-0.3005553297291203;-0.9246594012559343;1.006;0.06243537009492688
56:21.1;0.2231493377997616;-0.29911972169954787;-0.9224423606505621;1.004;0.0615715219815479
56:21.1;0.22189582439249514;-0.2977099721983882;-0.9203716028863167;0.995;0.060800300043486265
56:21.1;0.22090683082855067;-0.29631533283450473;-0.9186933557725938;0.98;0.060135904190377905
56:21.1;0.22016361252013167;-0.2949380787105472;-0.9176316724110993;0.976;0.059586075765846465
56:21.2;0.21962033648229315;-0.2935959103732131;-0.9173557106127171;0.976;0.05915075920766222
56:21.2;0.21920919732580396;-0.2923215963223472;-0.9179528266049597;0.976;0.058822033875113366
56:21.2;0.21885015557073487;-0.291160309164279;-0.9194121849803166;0.976;0.05858538478550354
56:21.2;0.21846275813795424;-0.2901652496418157;-0.9216212581254432;0.976;0.05842184873250532
56:21.2;0.217977830723926;-0.2893930039346693;-0.9243758253262794;0.987;0.058310791058138564
56:21.2;0.21734786281612056;-0.28889966311479065;-0.9274030945329872;0.998;0.05823323946981811
56:21.2;0.21655509097927386;-0.28873705729115423;-0.9303960027823286;1.005;0.05817531718695702
56:21.2;0.21561590354437005;-0.2889476398402758;-0.9330543005115665;1.015;0.05813087512414683
56:21.2;0.21458034929219513;-0.2895578141735875;-0.9351258605198919;1.025;0.0581025649509399
56:21.2;0.21352648244766306;-0.29057171660598247;-0.9364404072734133;1.025;0.05810121708879261
56:21.3;0.21255032109182867;-0.29196822851565374;-0.9369282695984568;1.004;0.05814383901327212
56:21.3;0.21175303473527762;-0.29370224728433847;-0.9366205990177302;1.004;0.05825062877854541
56:21.3;0.2112276817681073;-0.2957086514527765;-0.9356339393081501;1.004;0.058441429508838065
56:21.3;0.2110478051097129;-0.29790648572848244;-0.9341459754057111;1.004;0.05873210212498862
56:21.3;0.21125920111918767;-0.30020224346091207;-0.9323678702557109;0.997;0.059131223581502954
56:21.3;0.2118752060462332;-0.3024929027187653;-0.9305155425759718;0.987;0.05963743537302299
56:21.3;0.21287565203820438;-0.30466985589454376;-0.928782025554847;0.985;0.06023782471587459
56:21.3;0.21420966883099907;-0.3066241437646885;-0.9273150777713153;0.988;0.06090777567504487
56:21.3;0.21580197577096358;-0.3082524801883354;-0.926204852461471;0.997;0.06161253077747291
56:21.3;0.21756155379132205;-0.30946315447631473;-0.9254837720658673;1.001;0.062310309433976224
56:21.4;0.2193915902090297;-0.3101810250727212;-0.9251364680778636;1.005;0.06295656202157049
56:21.4;0.22120012263528566;-0.3103511920727141;-0.9251149022275286;1.005;0.06350888062145248
56:21.4;0.22291067309296642;-0.3099414736112885;-0.9253539535311053;1.005;0.06393202220288342
56:21.4;0.22447171734388163;-0.30894422819875067;-0.9257846241956503;1.005;0.0642024614500148
56:21.4;0.22586431359236728;-0.3073779550411994;-0.9263438169926693;1.004;0.06431207796658547
56:21.4;0.227107860470267;-0.3052886633545895;-0.9269807015402213;1.0070000000000001;0.06427077490469164
56:21.4;0.22826330654320856;-0.3027505857144753;-0.9276601369378225;1.0090000000000001;0.06410766970528299
56:21.4;0.2294319027013479;-0.29986530365988245;-0.9283635673490628;1.008;0.06387017608540545
56:21.4;0.23074751620815914;-0.29675790958083625;-0.9290874234400956;1.008;0.06362033028243497
56:21.4;0.23236182311624323;-0.2935691060467644;-0.9298387230082544;1.008;0.06342825361374942
56:21.5;0.23442329526023703;-0.290443341265378;-0.9306276149895896;0.992;0.06336334940980484
56:21.5;0.23705233758645908;-0.28751480775552424;-0.931457475791012;0.992;0.06348446906380727
56:21.5;0.2403164299628518;-0.2848945669911465;-0.9323148698824594;0.992;0.06383079329555444
56:21.5;0.24421015801074075;-0.2826618663236109;-0.933162903384401;0.992;0.06441520784419524
56:21.5;0.24864474664954228;-0.2808607185070739;-0.9339409445862497;0.998;0.06522133830421431
56:21.5;0.25345016706029133;-0.27950098714600596;-0.9345718337893308;1.0070000000000001;0.06620466860204319
56:21.5;0.2583902742831358;-0.278562845122093;-0.9349755792567422;1.015;0.06729760675448837
56:21.5;0.2631881628556406;-0.27800350495721543;-0.935086670183601;1.0190000000000001;0.06841770309161405
56:21.5;0.26755660228843015;-0.2777648335904083;-0.9348710087146063;1.026;0.06947757077796912
56:21.5;0.271228394037777;-0.27778076225468595;-0.934337991865379;1.035;0.07039492105150173
56:21.6;0.2739830292490892;-0.2779844362134934;-0.9335432224205277;1.0090000000000001;0.07110146917632366
56:21.6;0.27566739099800275;-0.2783153354616203;-0.9325793021729886;1.0090000000000001;0.07154978044732713
56:21.6;0.27620893279136194;-0.27872554385591053;-0.9315572403527237;1.0090000000000001;0.07171731752049582
56:21.6;0.2756204193797941;-0.2791834334189712;-0.9305852394344212;1.0090000000000001;0.07160728253996307
56:21.6;0.2739961094921154;-0.27967346809987015;-0.9297507211087473;1.005;0.07124627913201863
56:21.6;0.27149987342967674;-0.2801920438425405;-0.9291079061616346;0.996;0.07067919367286278
56:21.6;0.2683464408158564;-0.28074052540572597;-0.9286716561083259;0.998;0.06996214858589192
56:21.6;0.26477806254852876;-0.2813177390517231;-0.928418415145995;1.004;0.06915488515240072
56:21.6;0.2610396853101285;-0.28191441794164745;-0.9282942458657047;1.006;0.06831396347956058
56:21.6;0.2573556303150771;-0.28251095754551087;-0.9282277651421411;1.004;0.06748752883401826
56:21.7;0.2539101774213231;-0.28307837798108715;-0.9281443550031917;1.004;0.06671175026222105
56:21.7;0.2508340638665325;-0.28358167646352006;-0.9279786616579516;1.004;0.06600892651479906
56:21.7;0.24819853789304352;-0.28398444631474973;-0.9276840615790636;1.004;0.06538736983646232
56:21.7;0.2460175939017799;-0.2842535105199146;-0.9272389468532284;1.0;0.0648430849714988
56:21.7;0.24425735632008394;-0.284362820281596;-0.9266501807798831;1.001;0.06436300019311889
56:21.7;0.2428500881133828;-0.2842967169454838;-0.9259543101793841;1.006;0.06392925854331266
56:21.7;0.24170957134572338;-0.2840528573789178;-0.9252168478747729;1.006;0.06352381072206759
56:21.7;0.24074470690596927;-0.2836443651936346;-0.9245289949127465;1.003;0.06313227560010368
56:21.7;0.23986924896219866;-0.2831000819727933;-0.9240004696747572;0.9990000000000001;0.06274610363081617
56:21.7;0.23900755970872636;-0.2824623663891875;-0.923747529753596;0.992;0.062362787763671275
56:21.7;0.23809813950037756;-0.28178343914113235;-0.9238766459809273;0.987;0.06198483596206837
56:21.7;0.2370971485014145;-0.28112213894675064;-0.9244660475178708;0.987;0.06161867353822863
56:21.7;0.23598299240843615;-0.2805422365366152;-0.9255487641505806;0.987;0.06127428668013009
56:21.8;0.23476144731649062;-0.28011199648516416;-0.9271009042362897;0.992;0.06096568978495712
56:21.8;0.23346990234918072;-0.2799035460998678;-0.9290376809585564;0.99;0.060711733186271086
56:21.8;0.23217934698968457;-0.2799899858080346;-0.9312183566510509;0.991;0.06053654242143381
56:21.8;0.23099349754232326;-0.2804383449745333;-0.9334606944398414;0.997;0.060469055587683916
56:21.8;0.2300452322407146;-0.28129798980910525;-0.9355650651495346;1.001;0.06054159548243691
56:21.8;0.22949022986633047;-0.28258635579020064;-0.9373470745155621;1.011;0.06078771492197947
56:21.8;0.22949660276012376;-0.28427538120235085;-0.9386755426796676;1.022;0.061239412274410154
56:21.8;0.2302290349295752;-0.2862820309819339;-0.9395103625945274;1.035;0.061923537353275486
56:21.9;0.231827478275921;-0.2884653418875004;-0.9399324105602448;1.035;0.06285722122376972
56:21.9;0.23438298101852897;-0.2906311583925616;-0.9401564389316324;1.035;0.06404251390722034
56:21.9;0.23791488384817333;-0.29254474425666566;-0.94051944403457;1.03;0.06546085761299694
56:21.9;0.24235352610280533;-0.2939509629475051;-0.9414415600777265;1.006;0.06706834604477847
56:21.9;0.24753124467450963;-0.2946006154097383;-0.9433632053404676;1.004;0.06879274013554658
56:21.9;0.253182480066732;-0.2942793128270015;-0.9466693518257767;0.997;0.07053289344844872
56:21.9;0.25895234278020274;-0.29283415451460276;-0.9516158245950678;0.996;0.0721611139647815
56:21.9;0.26441316217339034;-0.29019482646190975;-0.9582714687832161;1.0;0.07352944594053762
56:21.9;0.2690892521136909;-0.2863871685505149;-0.9664867166199331;1.002;0.07448105108217234
56:22.0;0.27248949939518907;-0.2815374155014437;-0.9758956978100803;1.063;0.07486680401944222
56:22.0;0.27414561299025475;-0.27586654914994335;-0.985952711121492;1.063;0.0745652414165466
56:22.0;0.2736524688699472;-0.26967688217760805;-0.9959944323312998;1.063;0.07350214274523932
56:22.0;0.2707068662045312;-0.2633336526785828;-1.0053144042542284;1.097;0.0716650717155399
56:22.0;0.265141506263871;-0.2572422350408154;-1.013239274666346;1.121;0.06910858626182995
56:22.0;0.2569507414289049;-0.25182003763013194;-1.0191985523023632;1.11;0.06594759433315531
56:22.0;0.2463040492191209;-0.24746332650446767;-1.0227779512185267;1.103;0.06233956325237705
56:22.0;0.23354356428456516;-0.24451192384083467;-1.0237479796141973;1.1;0.058460295253719374
56:22.0;0.21916310933624963;-0.24321699967421007;-1.0220660184759576;1.079;0.05448040521930113
56:22.0;0.20376780597319596;-0.24371759418493588;-1.0178556170591593;1.067;0.05054854151747328
56:22.1;0.18801678408452052;-0.24603009945769813;-1.0113692374660106;1.0290000000000001;0.04678370386545636
56:22.1;0.1725574988191635;-0.25005225839247036;-1.0029428125290714;1.0290000000000001;0.043275369911705476
56:22.1;0.15796561895588032;-0.25557978439734125;-0.9929520325249024;1.0290000000000001;0.04008827252090981
56:22.1;0.14470297827802134;-0.26233180195166406;-0.9817781034831286;1.02;0.037268486330120594
56:22.1;0.13309716924547868;-0.2699824704185944;-0.9697849240387882;1.0070000000000001;0.034848156963224734
56:22.1;0.12333872254604829;-0.27819709658555924;-0.9573054488594319;0.996;0.03284751881120357
56:22.1;0.11549092952694512;-0.2866687249683905;-0.9446356942997417;0.991;0.031274656148625866
56:22.1;0.10950928428578342;-0.2951480075618886;-0.9320372600018633;0.986;0.030124792963134868
56:22.1;0.10526773119808489;-0.3034589865010533;-0.919749306560618;0.98;0.029380875637698044
56:22.1;0.10258740694168425;-0.3114969757263599;-0.9080084711778046;0.981;0.02901601634716628
56:22.2;0.1012623118365704;-0.31920999719770937;-0.8970721814474738;0.97;0.028996909411935588
56:22.2;0.10107732082531522;-0.32656971766694787;-0.8872386613746872;0.97;0.029286676538096506
56:22.2;0.10181752041092862;-0.3335401199775191;-0.8788561024260857;0.97;0.02984615359444501
56:22.2;0.10327133390749821;-0.3400522898280888;-0.872313840534722;0.9520000000000001;0.03063361525520787
56:22.2;0.10523065356144966;-0.3459921533466891;-0.8680105547065925;0.932;0.031603379293968795
56:22.2;0.10749038252194117;-0.35120485396912277;-0.8663002263893166;0.917;0.03270382467742995
56:22.2;0.10984964488932712;-0.355515174357564;-0.8674250754157048;0.9079999999999999;0.03387573853558442
56:22.2;0.11211713545378749;-0.3587591247940661;-0.8714515552854079;0.9079999999999999;0.035052435463272934
56:22.2;0.11412209374909685;-0.3608187035448451;-0.8782272842164763;0.93;0.0361631038009566
56:22.2;0.11572978067183916;-0.3616507268780948;-0.8873728460051497;0.953;0.03713988950730947
56:22.3;0.11685743385943834;-0.36130218750862675;-0.8983131221211171;1.0070000000000001;0.03792754042009885
56:22.3;0.11748560348570704;-0.35990909351076344;-0.9103400220749848;1.0070000000000001;0.038492942256525345
