Time;AccX;AccY;AccZ;Acc-old;Acc-trns
58:54.8;-0.04479009142381385;-0.28540453565093005;-0.9174047055974425;0.9620000000000001;0.011727455210415703
58:54.9;-0.041640338542669735;-0.28296208541235524;-0.923667251383537;0.972;0.010883235960760265
58:54.9;-0.03849156799645851;-0.2809367731691541;-0.9296471105797388;0.972;0.010052922084413465
58:54.9;-0.035391312508395605;-0.2796399582835592;-0.9351393258985009;0.972;0.009254910402530835
58:54.9;-0.032430043843083366;-0.27926586480017995;-0.9399845777860751;0.9840000000000001;0.008513068312097631
58:54.9;-0.029739840836957035;-0.2798689937879532;-0.9440822795285656;0.998;0.007857841641801514
58:54.9;-0.02747312264743039;-0.28137067053067233;-0.9473958670681663;0.997;0.007323494105284414
58:54.9;-0.025768496830168425;-0.28358829761347765;-0.9499490258531291;0.986;0.006941889439793384
58:54.9;-0.02471573145260751;-0.2862756663343863;-0.9518135564654653;0.986;0.00673456870743381
58:54.9;-0.024332924919000264;-0.2891622629225654;-0.9530938053312645;0.998;0.006706123972007591
58:54.9;-0.0245651864927896;-0.2919841591595368;-0.9539137960672152;1.006;0.006842085327615154
58:54.9;-0.02530594007417187;-0.29450448849719063;-0.9544090534516808;1.014;0.00711293670031172
58:55.0;-0.026432296941367783;-0.29652441253622697;-0.9547197542259663;1.001;0.007482922846705425
58:55.0;-0.027840418764346623;-0.29788677790492946;-0.9549803725596372;1.001;0.007919931696272843
58:55.0;-0.029468966934174435;-0.29847594917738957;-0.9553040094957316;0.988;0.008402641872488795
58:55.0;-0.03130598729426738;-0.29821777594106585;-0.9557640924493189;0.9840000000000001;0.008923015387393662
58:55.0;-0.03338133393454575;-0.2970819300010986;-0.9563793313156893;0.99;0.009484405327675357
58:55.0;-0.03574972413345313;-0.29508566831496563;-0.9571083729180797;0.995;0.010096757545734617
58:55.0;-0.03846877830888002;-0.29229586543278974;-0.9578580258607367;1.001;0.01077040932949946
58:55.0;-0.04157440006725886;-0.2888268552749328;-0.9585043531212647;1.01;0.011509531668690134
58:55.0;-0.04505547039245982;-0.2848344993750456;-0.9589215718851;1.021;0.01230617841122348
58:55.0;-0.04883162006054552;-0.28050864225888184;-0.9590108733727141;1.023;0.013136235033447685
58:55.1;-0.052740046881893626;-0.27606484390166247;-0.9587207433719845;1.003;0.013958660339479977
58:55.1;-0.056537230919372045;-0.27173430793872455;-0.9580532456691871;1.003;0.014718672912171608
58:55.1;-0.0599174243593543;-0.26775103273456485;-0.9570563207579685;0.991;0.015354008855449588
58:55.1;-0.0625444378626942;-0.2643366832197781;-0.9558069847304302;0.98;0.015802155450321945
58:55.1;-0.06409013614825763;-0.2616848394229691;-0.9543922382642545;0.9740000000000001;0.016006510196659482
58:55.1;-0.0642723914598369;-0.2599470925986612;-0.9528945632613234;0.975;0.015920410917500315
58:55.1;-0.06288620932254933;-0.25922357170393495;-0.9513876751425575;0.987;0.015509129710099403
58:55.1;-0.0598245497391938;-0.25955901228895584;-0.9499444624869335;1.011;0.014750738602329115
58:55.1;-0.05508919230188086;-0.26094331869088244;-0.9486522483816204;1.03;0.013637024689432996
58:55.2;-0.04879510680103024;-0.2633145649164104;-0.9476232849368643;0.995;0.012175502067567096
58:55.2;-0.041172389451212196;-0.2665628401004847;-0.9469869828693199;0.995;0.010393209661961358
58:55.2;-0.032566624757376886;-0.27053431765279634;-0.9468579498470368;0.995;0.008342187440629725
58:55.2;-0.02343303542349883;-0.2750360458811798;-0.9472837679968591;0.972;0.006105177012068883
58:55.2;-0.01431579564719528;-0.27984360014460796;-0.9481826635886531;0.866;0.0037985940195260667
58:55.2;-0.005805227661089924;-0.2847156221313421;-0.9492906325801408;0.852;0.0015690245847437094
58:55.2;0.0015266439884806552;-0.28941861685003645;-0.9501516421137384;1.02;0.0004198142334190114
58:55.2;0.007203307564531528;-0.2937585247975621;-0.9501805664200018;1.062;0.002010613438133012
58:55.2;0.010921011374459654;-0.2976064399096997;-0.9487919865206719;1.071;0.0030837289085029803
58:55.2;0.012609172144736367;-0.3009061912781965;-0.9455483718138155;1.0759999999999998;0.0035875787974080815
58:55.3;0.012452087553919975;-0.30366338856996367;-0.9402747991696982;1.0590000000000002;0.0035554075977743075
58:55.3;0.010856384506294697;-0.30592501523291177;-0.9331093236238303;0.988;0.003099079632514746
58:55.3;0.008369246855200465;-0.30775677135855967;-0.9244844481467579;0.988;0.0023811875585593393
58:55.3;0.0055719464209875325;-0.30921970448642006;-0.9150548773191716;0.943;0.0015765989487122071
58:55.3;0.0029782587627661347;-0.31034714842167144;-0.9055960916916787;0.917;0.0008370371374713179
58:55.3;0.0009602830258520863;-0.31112623058212313;-0.8968976625819063;0.9109999999999999;0.00026796543132600795
58:55.3;-0.00028671941963623245;-0.31148966262804373;-0.8896705737742084;0.9079999999999999;7.945659930855072e-05
58:55.3;-0.0007397659588900603;-0.3113213890379542;-0.8844815016446217;0.9179999999999999;0.00020370048206186657
58:55.3;-0.000512504099170378;-0.31047578894106526;-0.8817184208351968;0.9329999999999999;0.00014029913610249812
58:55.3;0.0001973146786786282;-0.3088062465492897;-0.8815836402578655;0.94;5.371665905101145e-05
58:55.4;0.0011620233806227682;-0.30619602711240995;-0.8841055780685732;0.9359999999999999;0.0003145709026314265
58:55.4;0.0021678721641142156;-0.30258434213596086;-0.8891603091965491;0.9359999999999999;0.0005832573065427552
58:55.4;0.003042538380220024;-0.29798367082972843;-0.8964975022283758;0.9359999999999999;0.000812788621470762
58:55.4;0.003666011076439364;-0.29248755219401407;-0.9057700157939504;0.961;0.0009712233176297541
58:55.4;0.003967537326343515;-0.28626849325576864;-0.9165681149285693;0.983;0.0010410205881343664
58:55.4;0.0039131007900127445;-0.2795651729082486;-0.9284560077834197;0.99;0.0010156999539712014
58:55.4;0.003490226256770803;-0.27265949979961096;-0.941003491666159;0.993;0.000895499710803303
58:55.4;0.0026977899578124968;-0.2658470471778804;-0.9538048553314304;0.9890000000000001;0.0006840683598002315
58:55.4;0.0015450157969453798;-0.2594070081796571;-0.9664822338995458;0.987;0.0003873544095339218
58:55.4;5.749271689243869e-05;-0.2535785996251181;-0.9786775146221379;0.987;1.4268063773449376e-05
58:55.5;-0.001715709855557714;-0.24854896786629427;-0.9900415083951104;1.0190000000000001;0.0004221912353727439
58:55.5;-0.0036982717752522655;-0.24445335719296396;-1.0002290384619201;1.0190000000000001;0.0009042620146279297
58:55.5;-0.005787046475512847;-0.2413836884023056;-1.0089045350533747;1.0190000000000001;0.0014093373559712814
58:55.5;-0.00785585616956056;-0.23939940187537903;-1.015759064111054;1.051;0.0019103251394443973
58:55.5;-0.009762215598630237;-0.23853487296656642;-1.0205381759879892;1.067;0.002376454646981475
58:55.5;-0.011356742885987599;-0.2387994607463933;-1.023076765464635;1.073;0.002774567897498245
58:55.5;-0.012494399941769187;-0.24016876389919276;-1.0233319274059087;1.08;0.0030707782112454132
58:55.5;-0.013046630574543649;-0.24256926252119532;-1.0214026523513624;1.07;0.0032324447780972066
58:55.5;-0.012914573646835126;-0.24586246426491257;-1.0175281001948997;1.05;0.0032308642815110466
58:55.5;-0.012044311052204337;-0.24983729914913533;-1.012062148111831;1.028;0.003045414572126438
58:55.6;-0.010443720815568495;-0.2542188755335754;-1.0054292912147769;1.015;0.0026694056812263706
58:55.6;-0.008197307020141988;-0.2586957716493538;-0.9980735381495586;1.015;0.002116523393329416
58:55.6;-0.005472705583071997;-0.26295875128053897;-0.9904140348401009;1.015;0.0014253007037984514
58:55.6;-0.002512514972622893;-0.26673899969208187;-0.9828169083571228;1.014;0.0006586698676837275
58:55.6;0.00039157630366095855;-0.2698375941265796;-0.9755850991868807;1.0170000000000001;0.00010308228025921834
58:55.6;0.0029395403169438766;-0.2721437348513724;-0.9689618602878236;1.0170000000000001;0.0007751476677898578
58:55.6;0.004870191795136617;-0.27364136745589585;-0.9631412668863525;1.008;0.0012835648271112983
58:55.6;0.006003988427172943;-0.27440405544486;-0.9582795640165136;1.001;0.0015787835717488653
58:55.6;0.00627196252509825;-0.2745793149017476;-0.9545035246299532;0.993;0.0016437993647945152
58:55.6;0.0057245845967205675;-0.2743652873636393;-0.9519151565448702;0.988;0.0014951039301700237
58:55.7;0.00451827547264148;-0.27398282313588596;-0.9505943841120227;0.993;0.0011767691820612932
58:55.7;0.002881720421658592;-0.27364531762212724;-0.9506014925927871;0.99;0.0007496151536716882
58:55.7;0.001069342830443009;-0.2735294033375961;-0.9519793385666806;0.99;0.0002784508210672458
58:55.7;-0.000686219393365343;-0.2737520293597453;-0.9547533908153558;1.001;0.00017935419719156956
58:55.7;-0.0022104491653465795;-0.2743592735236906;-0.9589273523251921;1.0;0.0005815484231443248
58:55.7;-0.0034045871387102344;-0.2753269830402372;-0.9644734217855139;0.9990000000000001;0.0009040729896110553
58:55.7;-0.004243610233219879;-0.27656830978644753;-0.9713181354529186;1.01;0.0011399856934887784
58:55.7;-0.004759426384895158;-0.2779440641477563;-0.9793258831133377;1.0190000000000001;0.0012955054677506242
58:55.7;-0.005017952575155668;-0.27927582251305205;-0.9882817592515047;1.0170000000000001;0.0013849709741606117
58:55.7;-0.00509830010556856;-0.2803633342402479;-0.9978750020216176;1.012;0.0014263389945590832
58:55.8;-0.005077712606111616;-0.2810068862702628;-1.0076863032919898;1.025;0.0014378395813745785
58:55.8;-0.0050216278843674975;-0.2810341974035726;-1.0171855270085022;1.025;0.0014355022227343479
58:55.8;-0.00497769117356527;-0.28033014263671713;-1.0257477103231416;1.025;0.0014313251512538356
58:55.8;-0.004974173662099803;-0.27886601254372667;-1.0326940514606822;1.072;0.0014324788082420896
58:55.8;-0.0050241172843957845;-0.2767232019685202;-1.0373603224310486;1.1179999999999999;0.0014422314980260394
58:55.8;-0.005135878189948701;-0.2741029588387054;-1.039185558811859;1.1320000000000001;0.0014629232471791683
58:55.8;-0.00532851436706377;-0.27131108455041214;-1.0378020947668392;1.135;0.0015003349337960332
58:55.8;-0.005646962347560549;-0.2687115134873878;-1.033102692225763;1.1079999999999999;0.0015676339499604264
58:55.8;-0.006170092508035698;-0.26665790291195063;-1.0252656780886744;1.061;0.0016868736483928116
58:55.8;-0.007007721357503284;-0.2654270227634247;-1.0147316582898758;1.05;0.001887440069578739
58:55.9;-0.008288335158766811;-0.26517782702418535;-1.002139946881127;1.001;0.0022025860592939737
58:55.9;-0.010142286115432098;-0.2659447054400949;-0.9882433667252561;1.001;0.002665576275911945
58:55.9;-0.012684811433394534;-0.2676557874888521;-0.9738227568640724;1.001;0.00330628718095426
58:55.9;-0.016002364237903795;-0.2701604952180573;-0.9596167241262485;0.985;0.004148621400479844
58:55.9;-0.020144956132558334;-0.27325576747867564;-0.9462715052172594;0.972;0.0052089648362687885
58:55.9;-0.025125439314148474;-0.2767085496529858;-0.934308270330412;0.96;0.006495707122463523
58:55.9;-0.030924302977115792;-0.2802763141744163;-0.9241047495404848;0.956;0.008009538983812958
58:55.9;-0.037496444711636025;-0.2837273981769363;-0.91589023008906;0.956;0.009743944311516142
58:55.9;-0.044774879400069474;-0.28686113586980866;-0.90975314193673;0.9540000000000001;0.011685026526842626
58:55.9;-0.05266619200844786;-0.28952600902048176;-0.9056589910478384;0.9540000000000001;0.013809698754809066
58:56.0;-0.061034756132696634;-0.2916336284282168;-0.9034753841650919;0.951;0.016081669751330123
58:56.0;-0.06967783598456918;-0.2931673380077198;-0.9030009226196921;0.9620000000000001;0.01844583976803998
58:56.0;-0.07830120520791732;-0.2941848638986088;-0.9039950441671036;0.9620000000000001;0.020823552417301674
58:56.0;-0.0865115198079564;-0.294813052985754;-0.9062059861452082;0.968;0.023112534717400754
58:56.0;-0.09383977830216406;-0.2952310204800221;-0.9093944139611553;0.971;0.025194238887852008
58:56.0;-0.09979622107555464;-0.2956399544012381;-0.9133508966770484;0.977;0.026947276744522623
58:56.0;-0.10394101845344082;-0.29622438295085174;-0.9179053388350478;0.977;0.028262180597771875
58:56.0;-0.10595018336648701;-0.2971160963887874;-0.9229260656060766;0.977;0.02905325559860997
58:56.0;-0.10566164670935276;-0.29837205164463654;-0.9283076620606702;0.976;0.02926627508509809
58:56.0;-0.10309336965820426;-0.2999716027803891;-0.9339501873811624;0.9790000000000001;0.02888248737307553
58:56.1;-0.09843096751795853;-0.301831727625442;-0.9397352895114439;0.986;0.02791914919930873
58:56.1;-0.09198960069655075;-0.30383432395658677;-0.9455050349658979;0.986;0.026426485765388676
58:56.1;-0.08416304734919294;-0.3058567461303257;-0.9510479716428323;0.986;0.024481720730264653
58:56.1;-0.07537519346699702;-0.307796832508038;-0.9560960002284946;0.996;0.02218166221257188
58:56.1;-0.06604333442561189;-0.3095873969741075;-0.9603350548067545;1.002;0.019635187224849433
58:56.1;-0.05655564026745773;-0.3111996115836615;-0.9634308714854287;1.012;0.016956473210923504
58:56.1;-0.04726168499429785;-0.3126375532784446;-0.9650680028958301;1.022;0.014259630141480927
58:56.1;-0.03847266600241935;-0.31392778464821264;-0.9649969278400854;1.036;0.011654884344944553
58:56.1;-0.030465781643260886;-0.31510826661140057;-0.9630811664636187;1.0490000000000002;0.009245598117365519
58:56.1;-0.023486865603780136;-0.31621943146034004;-0.9593339403560524;1.046;0.007124976329326647
58:56.2;-0.017746918544698786;-0.31729749977783384;-0.9539340902439456;0.998;0.005371653309054236
58:56.2;-0.013411689550171768;-0.3183682638611424;-0.9472167240150682;0.998;0.004044479313108473
58:56.2;-0.010588543695605721;-0.3194399133851263;-0.9396436727508322;0.998;0.0031782540296110217
58:56.2;-0.009317584491115333;-0.3204950635094048;-0.931763860249803;0.987;0.0027824703546460764
58:56.2;-0.009571760672444862;-0.32148340346032156;-0.9241700707763548;0.977;0.002843821206394751
58:56.2;-0.011266734737206883;-0.3223168546287564;-0.9174531909422313;0.9670000000000001;0.003331693190831518
58:56.2;-0.014278815854716248;-0.32286873878109285;-0.9121543929426942;0.953;0.004205198918626176
58:56.2;-0.01846738050174924;-0.32297746179940534;-0.9087184288305235;0.9440000000000001;0.005420094396943961
58:56.2;-0.02369617367140253;-0.3224546703991255;-0.9074536484382808;0.9390000000000001;0.006933800578282556
58:56.2;-0.029847196300744776;-0.3210981448556704;-0.9085052251201777;0.94;0.008707004476673543
58:56.3;-0.03682288020593949;-0.3187098866814723;-0.9118470605146664;0.951;0.010701269302025408
58:56.3;-0.044536171729716745;-0.3151190389857945;-0.9172947351011224;0.9840000000000001;0.012873493767891778
58:56.3;-0.05289182129006996;-0.3102074129065366;-0.9245367767247138;0.9840000000000001;0.015169277112033218
58:56.3;-0.06176445205649217;-0.30393336184920405;-0.9331764075928706;0.998;0.01751784653232771
58:56.3;-0.07098003511146703;-0.29634910659180136;-0.9427742537501484;1.011;0.01983113385862647
58:56.3;-0.08030660449086637;-0.28760825713155846;-0.9528845178460404;1.011;0.022008623680616426
58:56.3;-0.08945690183911743;-0.2779629007283455;-0.963079962648244;1.0170000000000001;0.023947657355349657
58:56.3;-0.09810228283230252;-0.2677509814647688;-0.9729639555996359;1.015;0.025556827206817654
58:56.3;-0.10589549024587927;-0.25737502165844023;-0.9821713534475415;1.008;0.026768936935055682
58:56.3;-0.11249850679414818;-0.2472745004035883;-0.9903633808867598;1.0090000000000001;0.02754994047692754
58:56.4;-0.11760996204692586;-0.23789595307327682;-0.997223670020975;1.035;0.02790125525878648
58:56.4;-0.12098655034900159;-0.22966523840082007;-1.0024613483970837;1.035;0.027854796952429463
58:56.4;-0.12245575055543158;-0.22296523566816487;-1.005822093449489;1.035;0.027462338083889256
58:56.4;-0.1219207727753452;-0.21811976047544793;-1.0071039523432337;1.04;0.026782247501965378
58:56.4;-0.11936058756061727;-0.21538136933245358;-1.0061749624396406;1.041;0.025866793016476083
58:56.4;-0.11482796406569858;-0.21491922640562888;-1.0029911927419282;1.036;0.024752556066346024
58:56.4;-0.1084476440503813;-0.21680488337169185;-0.9976136580147158;1.03;0.02345587119806173
58:56.4;-0.10041551459445582;-0.22099746722286268;-0.9902219055736708;1.0270000000000001;0.021974583085349424
58:56.4;-0.09099828840709057;-0.22733288058203538;-0.9811220856587924;1.023;0.02029637744820297
58:56.4;-0.08053219294669868;-0.23552224913487602;-0.9707471145931134;1.018;0.01841228012879316
58:56.5;-0.06941828035201573;-0.2451625750168598;-0.959645972758239;1.0090000000000001;0.016331988683562677
58:56.5;-0.05811109640968702;-0.25575873940322424;-0.9484595683635544;0.9840000000000001;0.014096405181789128
58:56.5;-0.04709774521306847;-0.2667528609803662;-0.9378829785716885;0.9840000000000001;0.011783053674036507
58:56.5;-0.036866517201273485;-0.27755650435839585;-0.9286169701033713;0.9690000000000001;0.009502111816286615
58:56.5;-0.027866822520337422;-0.2875837929570302;-0.9213129487985015;0.9520000000000001;0.007383444829361321
58:56.5;-0.020464504207512963;-0.29628651209110934;-0.9165155069071848;0.9420000000000001;0.005557160323353418
58:56.5;-0.014899275712510113;-0.3031920504936372;-0.9146084020146094;0.9440000000000001;0.0041315989060350155
58:56.5;-0.01125268219133191;-0.3079412895963331;-0.9157721928417151;0.95;0.0031733021768237954
58:56.5;-0.009433947910205047;-0.31031971152778925;-0.9199613599930739;0.956;0.0026932236743723316
58:56.5;-0.009188359942483255;-0.310274844398995;-0.9269051950836996;0.96;0.002642529733038166
58:56.6;-0.010129251549429046;-0.3079182904402254;-0.936132100026302;0.997;0.002919779001605216
58:56.6;-0.011788735021986324;-0.30351708433685576;-0.9470123459448568;0.997;0.0033884882851617504
58:56.6;-0.013675349443023503;-0.2974799603742252;-0.9588114187712506;0.997;0.003900581396292844
58:56.6;-0.015324706909905174;-0.290338667839035;-0.9707473833752712;1.038;0.0043191997135178
58:56.6;-0.016334616129374247;-0.2827191838703623;-0.9820491052850011;1.047;0.004535210146370914
58:56.6;-0.016384428816887116;-0.27529742170948274;-0.9920117671182503;1.043;0.004474559358053589
58:56.6;-0.015244473308984475;-0.2687396312466819;-1.0000429792603573;1.042;0.004096970212788157
58:56.6;-0.012782732233072528;-0.26363614407836733;-1.0056936601321709;1.04;0.0033891778157700797
58:56.6;-0.008971404406724193;-0.2604420897347135;-1.0086729527122043;1.04;0.002356795937118059
58:56.6;-0.0038893694064249785;-0.2594368111722508;-1.0088503917415488;1.04;0.0010179760450859142
58:56.7;0.0022857101099494274;-0.26070762688027777;-1.006249389889267;1.035;0.0005996260828005647
58:56.7;0.00929746744471056;-0.26415683130609996;-1.0010356474440636;1.035;0.002458533078655455
58:56.7;0.01683792954891096;-0.26952544441883897;-0.9935034587478409;1.035;0.004508767513536293
58:56.7;0.024574059452695883;-0.27642586344485115;-0.9840613570629881;1.0290000000000001;0.006684635905652589
58:56.7;0.032170148698645776;-0.28437851842362855;-0.9732160287320673;1.021;0.008903466084017975
58:56.7;0.03930709966511;-0.2928505650171742;-0.9615520237993987;1.013;0.011068527603275867
58:56.7;0.045700464195810496;-0.30129483184746036;-0.949705617887133;1.004;0.013076794551813783
58:56.7;0.05111749189869826;-0.30918673114197276;-0.9383326460516868;0.9940000000000001;0.01483020693145066
58:56.7;0.055391646038382356;-0.3160574812714584;-0.928070903117738;0.983;0.016247685449905458
58:56.7;0.058431637775332716;-0.32152289372006;-0.919498402743794;0.971;0.01727471695888313
58:56.8;0.06022159738380281;-0.32530687084812115;-0.9130903248144555;0.9570000000000001;0.01788789546261508
58:56.8;0.060810774861385385;-0.32725779221153306;-0.9091795682384762;0.9570000000000001;0.018093400682329494
58:56.8;0.06029503802144839;-0.3273553856543829;-0.9079268873712378;0.9570000000000001;0.01792057503534583
58:56.8;0.058795372821015116;-0.32570631477460094;-0.9093052454175922;0.956;0.01741321746160046
58:56.8;0.05643821735495314;-0.3225282275438235;-0.9131002198217605;0.9540000000000001;0.016621088618241874
58:56.8;0.05334060625802232;-0.3181237685388628;-0.918926499670964;0.9570000000000001;0.015593185369142495
58:56.8;0.049602144782355945;-0.3128478477355581;-0.9262603033666984;0.9670000000000001;0.014373637212522139
58:56.8;0.045305212222555034;-0.30707292918665624;-0.9344870815171615;0.985;0.013000588225903751
58:56.8;0.040523261078709544;-0.3011573870153593;-0.9429615737267028;1.005;0.011507789343270599
58:56.8;0.035334824937888594;-0.2954206202003684;-0.951073519327049;1.023;0.009927910180315708
58:56.9;0.02983877842949637;-0.2901264307272647;-0.9583089713472335;1.03;0.008296098285726923
58:56.9;0.024165512010981265;-0.2854744525743332;-0.9642963970796821;1.0270000000000001;0.006652330140919686
58:56.9;0.01848018266004168;-0.2815986276241423;-0.9688296096801486;1.0270000000000001;0.005041783548761563
58:56.9;0.01297768608181033;-0.2785714298521885;-0.9718649498983676;1.018;0.003513498381254504
58:56.9;0.007871541232556274;-0.27641231840774577;-0.9734955952313856;1.005;0.0021181229171966798
58:56.9;0.003378855582372133;-0.2750988492767232;-0.973909969675935;1.0;0.0009052680963134177
58:56.9;-0.00029725691113015144;-0.274579108843865;-0.9733436822485717;0.995;7.944483476633598e-05
58:56.9;-0.00298626726001539;-0.27478414154412656;-0.9720347317555298;0.9940000000000001;0.0007976311768168924
58:56.9;-0.004567464467413842;-0.27563858135532926;-0.9701897650908458;0.993;0.001221439251850694
58:56.9;-0.004982898469711825;-0.277067712024407;-0.967965932007864;1.0;0.0013363740350694564
58:57.0;-0.004243514410078515;-0.27900038123406196;-0.9654691087665604;1.008;0.0011430595609838187
58:57.0;-0.0024276966391196153;-0.2813685759095219;-0.962765324607999;1.008;0.0006576433753932146
58:57.0;0.0003262289839816927;-0.2841048117634119;-0.9598993274189758;1.008;8.896656446306604e-05
58:57.0;0.0038309557583508613;-0.28713822734843597;-0.956913809794645;1.006;0.001052618439727277
58:57.0;0.007863004898616532;-0.2903902236888396;-0.953864612261788;1.004;0.002177996986607906
58:57.0;0.01217688375804186;-0.2937703388086073;-0.9508295642486313;1.0;0.0034013144271301753
58:57.0;0.01651986332640972;-0.2971726463047074;-0.9479104215392454;0.9940000000000001;0.004653530660040654
58:57.0;0.02064589810724215;-0.300473084343707;-0.9452286044485705;0.99;0.005863760321828538
58:57.0;0.02432738006879188;-0.30352883924168667;-0.9429163720278658;0.987;0.006962552418245808
58:57.0;0.027364731113549125;-0.3061813115150616;-0.9411055776213356;0.987;0.007885118264581714
58:57.1;0.029595053659490108;-0.3082636969654024;-0.939916003967012;0.988;0.00857492951120257
58:57.1;0.030900693989173673;-0.3096128678053424;-0.9394446545087004;0.988;0.008987904203642916
58:57.1;0.031216955477418727;-0.3100836420060439;-0.939756801764471;0.988;0.009096721085337236
58:57.1;0.030537149199888806;-0.30956292473812436;-0.9408792571237014;0.991;0.008894290832690914
58:57.1;0.02891317463957283;-0.30798204141500596;-0.9427959865631468;0.993;0.008395351765659299
58:57.1;0.026449845474571385;-0.305326612714176;-0.945445823043225;0.991;0.007635270826992917
58:57.1;0.023291554127127773;-0.3016435373917677;-0.9487220867806058;0.992;0.006665481144661662
58:57.1;0.0196020476055161;-0.29704440750356226;-0.9524746616590358;0.9940000000000001;0.005545953845521268
58:57.1;0.015541419645594055;-0.2917043511468515;-0.9565158142690353;1.0;0.004336364189190979
58:57.1;0.01124635669374485;-0.28585479711051065;-0.9606308692271907;1.002;0.003088260144656147
58:57.2;0.006818757547512701;-0.27976870869388853;-0.9645936662901516;1.0090000000000001;0.0018401312165181004
58:57.2;0.0023249295485321606;-0.27373895237019197;-0.9681850235322581;1.0090000000000001;0.000616175971398901
58:57.2;-0.002195459602829824;-0.26805394475869915;-0.9712110924022654;1.0090000000000001;0.0005715592887090702
58:57.2;-0.006713517157986734;-0.2629757282949458;-0.9735187049979269;1.014;0.0017187395478704564
58:57.2;-0.011192365550656854;-0.25872285423204044;-0.9750063831836584;1.013;0.002823346225769887
58:57.2;-0.015570108102817452;-0.2554577498602382;-0.9756307166900022;1.011;0.0038805758401507058
58:57.2;-0.01974873802329854;-0.2532782752610399;-0.9754078085616807;1.0090000000000001;0.004878917975867219
58:57.2;-0.02359149350235076;-0.2522142511981379;-0.974409711312361;1.008;0.005797845813496825
58:57.2;-0.0269290604985812;-0.25223001092065817;-0.9727564013758031;1.008;0.006607270059471128
58:57.2;-0.029573864560339443;-0.2532334175122225;-0.9706039406110342;1.005;0.007268941033977412
58:57.3;-0.03134125161492501;-0.25509053061004494;-0.9681292627527406;0.998;0.007740054533451785
58:57.3;-0.03207512433565627;-0.25764334556139257;-0.9655126345455357;0.998;0.007978940743453762
58:57.3;-0.031673546209995684;-0.26072661109658496;-0.9629201204423893;0.998;0.007951925662968252
58:57.3;-0.030109055304686962;-0.26418013369317234;-0.9604886408243908;0.991;0.007639932439347948
58:57.3;-0.027439825100832475;-0.267855315127365;-0.9583151917626761;0.985;0.007043523702329373
58:57.3;-0.02380979563393203;-0.27161700802210864;-0.9564513553930223;0.986;0.006185510032808485
58:57.3;-0.019437611810283688;-0.2753426297719415;-0.9549046475753106;0.9940000000000001;0.005110652683997305
58:57.3;-0.014596151900163952;-0.27892014053672637;-0.9536473878296183;0.998;0.003882451804457581
58:57.3;-0.009586149633308994;-0.2822458615344564;-0.9526311369085283;0.997;0.0025774874473198975
58:57.3;-0.004707919029442774;-0.28522295508729995;-0.9518026899862942;0.996;0.0012780869129664224
58:57.4;-0.0002347061495583593;-0.2877616867134666;-0.9511179220202199;0.998;6.423796942938077e-05
58:57.4;0.0036092624934933475;-0.2897821828253227;-0.950551599955124;0.998;0.0009941818839394366
58:57.4;0.006663151555793031;-0.2912189619629826;-0.9501027667826619;0.998;0.0018436136878789244
58:57.4;0.008834361981006586;-0.29202564039375445;-0.9497957452608946;0.9990000000000001;0.0024503402555498635
58:57.4;0.010094076183310919;-0.2921786947996783;-0.9496767568975399;0.996;0.0028008569717466844
58:57.4;0.010465870469795193;-0.2916797575134975;-0.9498063993320323;0.9940000000000001;0.0028994574313747955
58:57.4;0.01001060624063941;-0.2905559632271207;-0.9502489526456196;0.992;0.0027639333857560257
58:57.4;0.008810592619532442;-0.28885814002389926;-0.9510602379189375;0.988;0.0024204591443439025
58:57.4;0.00695561778273243;-0.2866574343357874;-0.9522761471481992;0.988;0.0018987239336741533
58:57.4;0.0045331482114228236;-0.2840416402548353;-0.9539039893363916;0.99;0.0012282494986258067
58:57.5;0.00162428068116153;-0.281112444175187;-0.9559182557256052;0.9990000000000001;0.0004364775448800214
58:57.5;-0.0016943883373629854;-0.2779839215815455;-0.9582609323273975;1.002;0.00045135308312858614
58:57.5;-0.0053443354343583925;-0.2747815511620991;-0.9608445910670823;1.002;0.001411024092271697
58:57.5;-0.009236389154734941;-0.2716404674758409;-0.9635557521232407;0.998;0.0024175392856056717
58:57.5;-0.01326218592683442;-0.26870176467019175;-0.9662573930807494;0.997;0.0034433285269908215
58:57.5;-0.017288095423960623;-0.26610629068162167;-0.9687918510288016;0.998;0.004456898763592772
58:57.5;-0.021153601552325867;-0.26398651078438695;-0.9709866114073332;1.001;0.005422247000400723
58:57.5;-0.024675673772645988;-0.2624579968025771;-0.9726648370255154;1.0070000000000001;0.006299296429277823
58:57.5;-0.027659776089053414;-0.26161198084676146;-0.97366082749305;1.01;0.007045535167361912
58:57.5;-0.029916830772243747;-0.261509507030664;-0.9738388645584716;1.018;0.007618863090948818
58:57.6;-0.031284120558911964;-0.26217720459587934;-0.9731124388785007;1.0170000000000001;0.007981451949714943
58:57.6;-0.03164702190361263;-0.2636047887558648;-0.9714600451758277;1.0170000000000001;0.00810421747233955
58:57.6;-0.03095785793985002;-0.2657443790818389;-0.9689340480251677;1.0170000000000001;0.007971300978347976
58:57.6;-0.029248543873212296;-0.26851159171492706;-0.9656602910883864;1.0090000000000001;0.0075838836575748084
58:57.6;-0.026634768761443155;-0.27178837509841275;-0.9618276092637583;0.998;0.00696268980285081
58:57.6;-0.02331039513566554;-0.2754273984896013;-0.9576685106175785;0.9890000000000001;0.006148539718996152
58:57.6;-0.019531841084531328;-0.2792576378655892;-0.9534349164645545;0.985;0.005200430476861843
58:57.6;-0.015593989281386153;-0.2830912019927873;-0.9493742887182524;0.9840000000000001;0.004191032895354447
58:57.6;-0.011800957965628257;-0.28673188441048064;-0.9457104640290847;0.9840000000000001;0.003200010819880287
58:57.6;-0.008436074750319619;-0.28998574472903504;-0.9426309264441759;0.9840000000000001;0.0023059970782484595
58:57.7;-0.0057355715460094174;-0.2926735149225987;-0.9402798983629272;0.986;0.0015784007427475711
58:57.7;-0.003869655617140699;-0.2946438493901539;-0.9387555358878129;0.986;0.001070341112308556
58:57.7;-0.0029326421140511505;-0.29578536342001494;-0.9381095204646163;0.986;0.0008137467930722141
58:57.7;-0.0029417884568238442;-0.29603515362614435;-0.9383477877047648;0.983;0.0008171815631423461
58:57.7;-0.003843395504561605;-0.29538270884307355;-0.9394317766208191;0.981;0.0010665111323561122
58:57.7;-0.005524406375685421;-0.2938695916854255;-0.9412805300768725;0.982;0.001528126626186174
58:57.7;-0.00782748458594427;-0.29158590864822753;-0.9437748055416281;0.987;0.0021540567096439553
58:57.7;-0.010567510706553356;-0.2886645505991734;-0.9467641991884458;0.993;0.002888071743124511
58:57.7;-0.01354803305001139;-0.2852737154012951;-0.9500770573143761;0.995;0.003671950656967467
58:57.7;-0.01657709947585219;-0.28160746218893806;-0.953531699577565;0.996;0.004451309971429107
58:57.8;-0.019482251232821313;-0.277873634163195;-0.956947347262198;0.996;0.005180533940749998
58:57.8;-0.02212409031658694;-0.27427907344493224;-0.960154068813092;1.001;0.005826382909650427
58:57.8;-0.024407121836748365;-0.2710135039061416;-0.9630017827226469;1.001;0.006369928995802836
58:57.8;-0.026285935491826947;-0.2682346673117812;-0.9653681844191926;1.004;0.006806617185366291
58:57.8;-0.02776488811699193;-0.2660570945624155;-0.9671650465505051;1.0070000000000001;0.007144492169342049
58:57.8;-0.02889054424876466;-0.2645455924624408;-0.9683422526626195;1.006;0.007400910219504671
58:57.8;-0.0297374960970326;-0.2637135024309035;-0.9688890159063829;1.003;0.0075982013353903385
58:57.8;-0.030389421261346562;-0.26352555316649307;-0.9688321660823211;1.003;0.007758784908500181
58:57.8;-0.03091866799128641;-0.2639051326456866;-0.9682322122979096;1.005;0.007900382890135569
58:57.8;-0.03136889830406761;-0.264745460721898;-0.9671781952491525;1.008;0.008032195781702934
58:57.9;-0.03174514579908074;-0.2659233114544932;-0.9657816007193264;1.002;0.00815291029008503
58:57.9;-0.03201349586405327;-0.2673130645371505;-0.9641688891807392;1.002;0.008250996451663817
58:57.9;-0.03210967871575781;-0.26879876577984374;-0.9624725752691334;1.002;0.008307141229064478
58:57.9;-0.03195421608389187;-0.2702828310834242;-0.9608214503979442;1.001;0.00829830354960498
58:57.9;-0.03147163157509184;-0.2716912594519256;-0.9593303436423509;0.998;0.008202818589157805
58:57.9;-0.030610844831876798;-0.2729757570169192;-0.958089491853246;0.991;0.008005813557775823
58:57.9;-0.02936263985959074;-0.27411307917572275;-0.9571543511354802;0.988;0.007703832552237283
58:57.9;-0.02776976953974212;-0.2751019351978467;-0.9565380878529512;0.988;0.007307489308887766
58:57.9;-0.025926911435233863;-0.2759581034079401;-0.9562095616149512;0.99;0.0068414320485323185
58:57.9;-0.023970051284090257;-0.27670844630462493;-0.9560986434395748;0.993;0.006341530434006937
58:58.0;-0.022056611923025285;-0.2773843145554445;-0.9561088395457448;0.995;0.005849625117334797
58:58.0;-0.020339364082740903;-0.2780149871877368;-0.9561353541888321;1.006;0.005406608911194894
58:58.0;-0.018939454909812286;-0.27862216537556367;-0.9560851420042552;1.006;0.005045215342996901
58:58.0;-0.017925130010155717;-0.27921631853168;-0.9558944012250162;1.003;0.004784240782282158
58:58.0;-0.017301037352367835;-0.2797949673329651;-0.9555394102768546;0.9990000000000001;0.004625520884314074
58:58.0;-0.01700941624605934;-0.28034264069962456;-0.9550390005191667;0.9990000000000001;0.0045540697297539465
58:58.0;-0.016941755683719893;-0.28083244210320635;-0.9544496231051441;0.996;0.004541075283946547
58:58.0;-0.016958639740649102;-0.2812293563834412;-0.9538551115245428;0.995;0.004549190029915078
58:58.0;-0.01691507055509968;-0.281495199194446;-0.9533531061869869;0.992;0.004539401450045328
58:58.0;-0.016687374104255838;-0.2815945417270987;-0.9530399744883659;0.9890000000000001;0.004478404853788795
58:58.1;-0.0161967704344809;-0.28150054735055363;-0.9529963173745374;0.991;0.004345091164153022
58:58.1;-0.01542532326627853;-0.2811997474711515;-0.9532751670927931;0.991;0.004134923511761058
58:58.1;-0.014421835307763756;-0.28069506401501987;-0.9538942761724806;0.991;0.0038614956529780943
58:58.1;-0.01329672332784087;-0.28000656349082065;-0.954832981628097;0.99;0.003555005325745586
58:58.1;-0.012205871543248939;-0.2791697200151462;-0.9560337653221518;0.992;0.003257694368317932
58:58.1;-0.011325229544799255;-0.27823157631758405;-0.9574086154652155;0.997;0.003016829462498878
58:58.1;-0.010820672351929775;-0.2772456961173667;-0.9588497850058381;1.002;0.0028765348175782703
58:58.1;-0.010819536109475336;-0.27626662835303795;-0.9602433801883853;1.003;0.0028702411729216145
58:58.1;-0.011389674473091622;-0.27534408001734234;-0.961483300530359;1.0;0.0030152880102066485
58:58.1;-0.012529470307798113;-0.27451712046135157;-0.9624833822520631;1.0;0.0033105136730419275
58:58.2;-0.014169593034113111;-0.2738096904330979;-0.9631868491721418;1.0090000000000001;0.003736945254755147
58:58.2;-0.016184866665343883;-0.27322919621000014;-0.9635727921627457;1.0090000000000001;0.004261090508641155
58:58.2;-0.018412503403906277;-0.2727689814087585;-0.963658719843704;1.0090000000000001;0.004839840814179672
58:58.2;-0.020672490652435364;-0.2724138730993053;-0.9634975868647785;1.005;0.005425910882281438
58:58.2;-0.022787564709604295;-0.2721471698410637;-0.9631685026455145;1.002;0.00597315808844806
58:58.2;-0.024601779259549986;-0.2719572230875657;-0.9627621929352305;0.997;0.006441487122878963
58:58.2;-0.025996569187940216;-0.2718417420712855;-0.9623639501312383;0.9940000000000001;0.006800980473347749
58:58.2;-0.0269025585768843;-0.2718086606640456;-0.9620375151839077;0.992;0.007034753499536228
58:58.2;-0.02730543258352625;-0.2718738305374554;-0.9618131256627119;0.991;0.007140147227615606
58:58.2;-0.02724468933557871;-0.27205686608321783;-0.9616821994211502;0.991;0.007128089244527256
58:58.3;-0.026804692188175532;-0.2723765870259471;-0.961599971954658;1.001;0.007020613099677442
58:58.3;-0.026098852269921688;-0.2728470541795019;-0.9614957284504024;1.001;0.006846806235697392
58:58.3;-0.025250035003255237;-0.27347461779116244;-0.961288335110593;1.001;0.006637930192729039
58:58.3;-0.024371485258735084;-0.27425598007816865;-0.9609036998277299;1.008;0.006422704905332437
58:58.3;-0.02355149937271232;-0.2751771044864143;-0.9602909361673014;1.01;0.006223485576380107
58:58.3;-0.022843374160784025;-0.27621271897415295;-0.959434221215715;1.0070000000000001;0.0060536754129278
58:58.3;-0.022261341583397588;-0.27732618169492584;-0.9583574912743472;1.0;0.005916566467608022
58:58.3;-0.02178261583384312;-0.2784697365052306;-0.9571206506081591;0.992;0.005805701764477733
58:58.3;-0.021354785437245876;-0.27958551386229613;-0.9558089709233778;0.9890000000000001;0.0057066466219205594
58:58.3;-0.020907109774923847;-0.280607892485187;-0.9545198623934983;0.988;0.0055998816880606555
58:58.4;-0.02036407795863533;-0.281467891722422;-0.953351432885398;0.997;0.005464452242656219
58:58.4;-0.019659578580862792;-0.28209967849330636;-0.9523951179492348;0.997;0.0052819459873771095
58:58.4;-0.018750115822651646;-0.28244818162141627;-0.9517316414728124;0.997;0.005040309975955501
58:58.4;-0.017625717942189735;-0.2824762502583016;-0.9514277111066674;0.998;0.00473701273154893
58:58.4;-0.016317337672797128;-0.28217013890357806;-0.9515310431073132;0.993;0.00438110149464885
58:58.4;-0.014899488007989521;-0.28154249160756073;-0.9520628906527882;0.986;0.00399375052269055
58:58.4;-0.013486827667853989;-0.28063202297406153;-0.9530094924431168;0.983;0.003606984379869478
58:58.4;-0.012223856401642377;-0.2794993909887032;-0.954316049254406;0.983;0.003260478441855263
58:58.4;-0.011267919627999412;-0.2782196822110272;-0.9558875271573511;0.99;0.002996666311758406
58:58.4;-0.01076710612836825;-0.2768729703801171;-0.9575988126142072;0.998;0.002854717600597813
58:58.5;-0.010836155923444633;-0.27553493755288;-0.9593131961804378;1.01;0.0028642593465282133
58:58.5;-0.011534745458108996;-0.27426941787570586;-0.9609045403215617;1.01;0.0030399444342723903
58:58.5;-0.01285257335145081;-0.2731241166955114;-0.9622766467234908;1.01;0.003377925655813516
58:58.5;-0.01470437406332606;-0.27212988985895653;-0.9633744225573764;1.006;0.0038549424573576787
58:58.5;-0.016936330062363215;-0.2713031299411219;-0.964184704476881;1.006;0.004430312393619908
58:58.5;-0.01934376133804627;-0.27065023661246995;-0.964727832451924;1.001;0.005050729903473533
58:58.5;-0.021697934960756574;-0.2701727852592734;-0.9650429337708915;0.996;0.005657266505414649
58:58.5;-0.023777548339886642;-0.2698718224293545;-0.9651708268254658;0.991;0.006193395319768616
58:58.5;-0.02539905271385244;-0.2697500937387334;-0.9651391295596271;0.99;0.0066125511924980725
58:58.5;-0.02644014023144394;-0.2698121335176064;-0.9649541340046341;0.9940000000000001;0.0068838579716503125
58:58.6;-0.026852109682282216;-0.27006322448996745;-0.9646023581144971;1.011;0.006995071862342568
58:58.6;-0.026659391014140024;-0.27050821278493997;-0.9640611006984013;1.011;0.006952407818184039
58:58.6;-0.02594803280055718;-0.2711502131660396;-0.9633132262838711;1.011;0.006777693286050409
58:58.6;-0.02484737393922126;-0.27198860912586487;-0.9623597165669936;1.0070000000000001;0.006503822013855442
58:58.6;-0.023508807910699103;-0.2730160574523863;-0.9612255159794265;1.001;0.00616941647635135
58:58.6;-0.022084235293275897;-0.2742149238534791;-0.9599578386939949;0.996;0.005813338501764632
58:58.6;-0.020706470920513986;-0.27555406938597304;-0.9586189443420823;0.992;0.005469642270248346
58:58.6;-0.019473900826746816;-0.2769869802041174;-0.9572767069037624;0.991;0.005163566814273029
58:58.6;-0.018441157342225963;-0.27845198590673953;-0.9559962562908764;0.991;0.004909018677589754
58:58.6;-0.01761681372517792;-0.27987495285846;-0.9548348785349461;0.996;0.004707818057667836
58:58.7;-0.016968441055778213;-0.2811744016281537;-0.9538406191528347;0.998;0.00455086064187468
58:58.7;-0.016434559746705844;-0.28226840546148035;-0.9530532444419534;0.997;0.004421172995053712
58:58.7;-0.015941746468904353;-0.2830821843436293;-0.9525053346635021;0.993;0.0042984893274676545
58:58.7;-0.015423877484418374;-0.2835554683619393;-0.9522218718995287;0.998;0.004164565975712864
58:58.7;-0.01484001231103775;-0.2836490544057326;-0.9522179779190776;0.995;0.004008223943888012
58:58.7;-0.014187673631928573;-0.2833496606049742;-0.952495340459292;0.99;0.003829100332541498
58:58.7;-0.013508745850082046;-0.2826716335300333;-0.953038488871431;0.988;0.0036392148826011597
58:58.7;-0.012886107151778094;-0.28165453527820705;-0.9538129364247491;0.99;0.0034617977831463403
58:58.7;-0.012430809121462192;-0.28035707612051974;-0.9547674465014311;0.995;0.0033274268965176345
58:58.7;-0.012261814662685477;-0.27884913603480177;-0.9558412456779792;1.0;0.003268208970002434
58:58.8;-0.012482339297028857;-0.2772040319845396;-0.9569744975812636;1.005;0.003311279883804701
58:58.8;-0.013158151950791062;-0.2754926762618007;-0.9581183797760444;1.005;0.003473154690437337
58:58.8;-0.014303184883675293;-0.27378019327091246;-0.9592407850785853;1.001;0.0037563185414517075
58:58.8;-0.015875927302160222;-0.27212460130211413;-0.9603252517648819;0.997;0.0041488263344638295
58:58.8;-0.01778672701429942;-0.2705768739049868;-0.9613635750233469;0.992;0.004626732358971747
58:58.8;-0.019912927740944046;-0.26918192600464574;-0.9623452562149276;0.991;0.005158363274960812
58:58.8;-0.022117130390072275;-0.267980153791986;-0.9632482556712333;0.992;0.005709126178692287
58:58.8;-0.0242639627233811;-0.2670088672528185;-0.9640350246320916;0.998;0.006245687160414384
58:58.8;-0.02623225828357166;-0.26630278938642515;-0.9646557220844103;1.005;0.00673881819812793
58:58.8;-0.027921945518980484;-0.2658930361783669;-0.9650575908346852;1.008;0.007164829658401483
58:58.9;-0.029256967854587847;-0.26580431672832844;-0.9651970209744914;1.008;0.007505978516772594
58:58.9;-0.030186053337637127;-0.26605049988808954;-0.965050170034062;1.005;0.007750331986097488
58:58.9;-0.030682525704249477;-0.266629587866857;-0.964619199674271;1.004;0.00789142348417522
58:58.9;-0.030743803762116845;-0.2675200847380534;-0.9639330689251453;1.002;0.007927949447744111
58:58.9;-0.030390876006371026;-0.2686805692207004;-0.9630433214869466;0.9990000000000001;0.007863670402430576
58:58.9;-0.02966728704477705;-0.27005285099789794;-0.9620162208904748;0.998;0.007707419458281285
58:58.9;-0.02863657683728338;-0.27156763775448;-0.9609230878982332;0.998;0.007472875464062447
58:58.9;-0.027377532960983633;-0.2731510481973168;-0.9598307206310085;0.9940000000000001;0.007177807847049113
58:58.9;-0.025977487695554913;-0.2747304331222221;-0.9587934693306548;0.991;0.006842723412327605
58:58.9;-0.024524255641835514;-0.27623854897770106;-0.9578484520556452;0.99;0.006488987243604612
58:59.0;-0.023097383052530025;-0.2776160507929604;-0.9570153895422742;1.001;0.0061365781641163596
58:59.0;-0.02175990085865078;-0.2788129498616357;-0.9563014285628559;1.001;0.005801825442277218
58:59.0;-0.02055253435998404;-0.27978948906576584;-0.9557089887482985;1.001;0.005495692805552642
58:59.0;-0.0194922581987323;-0.2805163375093535;-0.9552431144306709;0.9990000000000001;0.005223170844745649
58:59.0;-0.018575912347909788;-0.2809740522960329;-0.9549155138123663;0.998;0.0049840376830211745
58:59.0;-0.017788256922331935;-0.2811522192248443;-0.954744359977948;0.996;0.004774875045011471
58:59.0;-0.01711293591367581;-0.28104878664045424;-0.954750418010719;0.9940000000000001;0.004591938848029853
58:59.0;-0.01654407272931787;-0.2806697311347217;-0.9549509009802013;0.992;0.004434238537402083
58:59.0;-0.016095591962829406;-0.28002877568411577;-0.9553529644628149;0.99;0.004305994501886861
58:59.0;-0.0158052618194765;-0.27914679182951874;-0.9559490044717551;0.988;0.004217635661506073
58:59.1;-0.015731251994813324;-0.27805081315450864;-0.9567157339528372;1.0;0.00418475824596746
58:59.1;-0.01594108180159752;-0.2767730542292721;-0.9576177854249048;1.0;0.00422506894386943
58:59.1;-0.016495785540623458;-0.27535056393084545;-0.9586143569839999;1.0;0.004354145134857163
58:59.1;-0.017433878120611077;-0.2738257720281206;-0.9596659567704473;1.003;0.004581296659741115
58:59.1;-0.01875891227894631;-0.27224736085429885;-0.9607388914225762;1.003;0.004906555352073291
58:59.1;-0.020432619648596783;-0.2706703255707414;-0.9618065503699882;1.001;0.005319274793755647
58:59.1;-0.022374647989539514;-0.2691543981975474;-0.9628474023068312;0.9990000000000001;0.005798493243514057
58:59.1;-0.024469383364298877;-0.2677609554272915;-0.9638402937255098;0.996;0.006315029044679639
58:59.1;-0.02657921541949453;-0.2665490874530799;-0.9647586003666094;0.995;0.006834992083067894
58:59.1;-0.0285619393790783;-0.26557123635484464;-0.9655656710346873;0.9940000000000001;0.007324037263868082
58:59.2;-0.03028880070087397;-0.264868508291498;-0.9662141403094651;1.002;0.007751500729177256
58:59.2;-0.031659668668242755;-0.26446613153339626;-0.9666505152033092;1.002;0.008093677860291278
58:59.2;-0.03261271674283372;-0.2643701706862953;-0.9668243164441744;1.002;0.008335794404952959
58:59.2;-0.03312729671148325;-0.2645667315515379;-0.9666994860577658;1.01;0.008472522237193811
58:59.2;-0.03322027187542231;-0.265024343793897;-0.9662653719146718;1.016;0.008507174991091658
58:59.2;-0.03293762408086426;-0.26569930388384577;-0.965544203393305;1.013;0.008449963755286831
58:59.2;-0.0323439494723373;-0.26654273329843625;-0.9645916102485802;1.003;0.008315787387291279
58:59.2;-0.03151213248772418;-0.2675073987996585;-0.9634883896185035;0.996;0.008121945626433058
58:59.2;-0.03051458551448841;-0.2685525572351315;-0.9623254852543772;0.992;0.007886035990705484
58:59.2;-0.029416739305872634;-0.26964604770543676;-0.9611871632337585;0.99;0.007624239896979938
58:59.3;-0.02827305507295248;-0.2707637385720418;-0.9601375866654379;0.99;0.007350158638398811
58:59.3;-0.027125372759921027;-0.27188691876495147;-0.9592140801756773;0.996;0.007074236473802441
58:59.3;-0.026002985078248015;-0.2729985615295322;-0.9584278284455463;0.996;0.00680366592487095
58:59.3;-0.02492375554082852;-0.27407968546415495;-0.9577705032080698;0.997;0.006542621371482657
58:59.3;-0.02389574325161228;-0.2751070129683137;-0.9572241115338388;1.001;0.006292682710816307
58:59.3;-0.022918940488491475;-0.27605257659279037;-0.9567713248667248;1.003;0.006053331984633814
58:59.3;-0.02198719154484258;-0.2768851165314892;-0.9564038291605371;1.003;0.005822515827081365
58:59.3;-0.021091180494551647;-0.2775725339783722;-0.9561264433933224;1.0;0.005597482029887453
58:59.3;-0.020223596477537;-0.2780845485972191;-0.9559556120819185;0.992;0.0053761697989121535
58:59.3;-0.019386397303821815;-0.2783949566502082;-0.9559129141988447;0.988;0.005159133917952224
58:59.4;-0.018598204262340514;-0.27848324617589887;-0.9560166030347562;0.9940000000000001;0.004951485602897779
58:59.4;-0.01789894960793697;-0.27833562495095504;-0.9562749815355034;0.9940000000000001;0.004764080985512635
58:59.4;-0.01734960403189234;-0.2779457279283939;-0.9566837768551011;0.9940000000000001;0.004613366737541585
58:59.4;-0.01702612327205122;-0.2773153356183906;-0.9572273563103044;0.997;0.004519649557333665
58:59.4;-0.017007883835384735;-0.2764553442378934;-0.9578825430721706;1.001;0.004503887451366886
58:59.4;-0.017362239337079987;-0.2753870530429298;-0.9586234917667468;1.003;0.004583500939986833
58:59.4;-0.01812843242784736;-0.2741434877415912;-0.9594256780811392;1.001;0.004768145765034029
58:59.4;-0.019304885819384915;-0.27277004958260265;-0.960267182827529;0.998;0.005056569805561519
58:59.4;-0.02084316244111616;-0.27132376745769343;-0.9611267693896898;0.9940000000000001;0.005435407702248073
58:59.4;-0.022650045307727074;-0.26987097277080696;-0.9619801163579398;0.993;0.00588018980905333
58:59.5;-0.02459715289169782;-0.26848382029761;-0.9627967120957158;1.001;0.006358249385835547
58:59.5;-0.02653586555577675;-0.2672363272200214;-0.9635393973012409;1.001;0.006832792456022245
58:59.5;-0.028314447723043236;-0.26620039503937004;-0.9641666683445245;1.001;0.0072672299832794015
58:59.5;-0.029794629797356573;-0.26544174691827443;-0.9646363917427263;1.002;0.0076290570491637216
58:59.5;-0.030866260528713607;-0.2650153315340073;-0.9649096445157698;1.001;0.007892992027102431
58:59.5;-0.03145941996725335;-0.26495995348910384;-0.9649541463543074;1.001;0.008043362213079101
58:59.5;-0.031552881484481606;-0.2652925883933446;-0.9647472399536104;0.9990000000000001;0.008075653714230288
58:59.5;-0.031177065277102827;-0.2660035903337453;-0.9642786559059849;1.001;0.00799696664529512
58:59.5;-0.03040982545071448;-0.2670544210918586;-0.9635532956910781;1.003;0.007825091790636543
58:59.5;-0.02936474534470862;-0.26837938184318366;-0.9625936428166426;1.002;0.007586096734904178
58:59.6;-0.028173496754016935;-0.2698919578771786;-0.9614406698304943;1.0;0.007310602756764525
58:59.6;-0.02696561191768265;-0.27149478457197024;-0.9601523203386656;1.0;0.007029297219207402
58:59.6;-0.025850107277828622;-0.2730905945823283;-0.9587997164845207;1.0;0.006768571013003425
58:59.6;-0.024902917550679936;-0.274591229912273;-0.9574618329874754;0.997;0.0065472415506857414
58:59.6;-0.024162015171678132;-0.27592325106025284;-0.9562190781109918;0.9940000000000001;0.006374980423574415
58:59.6;-0.023629807731981752;-0.27703034794753906;-0.9551460838229975;0.993;0.006252552324420929
58:59.6;-0.023281033199364365;-0.2778734294751275;-0.954304512597801;0.991;0.006173568179108333
58:59.6;-0.023073765908679385;-0.27842920545712496;-0.9537371115592828;0.99;0.0061271985314412395
58:59.6;-0.022960989480069322;-0.2786878759799267;-0.9534641697921874;0.99;0.006101168966341781
58:59.6;-0.022900586639915635;-0.2786504777349454;-0.95348320206099;0.992;0.006084423653162194
58:59.7;-0.02286250826226917;-0.2783265672026386;-0.9537720587350231;0.997;0.0060690837981749015
58:59.7;-0.022832835056397632;-0.27773292860794163;-0.954294600770173;0.997;0.006051592552003949
58:59.7;-0.022814980387200316;-0.2768934968682788;-0.9550071120497274;0.997;0.006033085242967257
58:59.7;-0.022828380096408116;-0.27583997575954705;-0.9558635835962845;0.998;0.006019053689336052
58:59.7;-0.02290491005127856;-0.2746123329893367;-0.956818897337068;0.996;0.006018362911831408
58:59.7;-0.0230832326531535;-0.27325853763038405;-0.9578299635776859;0.995;0.006041694864733743
58:59.7;-0.023401456226645637;-0.27183324770795614;-0.9588555645962654;0.995;0.006099562003404993
58:59.7;-0.02388879661063391;-0.2703954908426346;-0.9598560420791448;0.996;0.006200116084676858
58:59.7;-0.02455723772988021;-0.2690056687176854;-0.9607938817592317;0.9990000000000001;0.00634703912269635
58:59.7;-0.025394638260519336;-0.26772236809927624;-0.9616355226957976;1.003;0.00653788363335568
58:59.8;-0.026361205309635094;-0.2665994021875862;-0.9623536532085056;0.9990000000000001;0.0067633075094547315
58:59.8;-0.027390916193674706;-0.2656833321659888;-0.9629286743318185;0.9990000000000001;0.007007530360664348
58:59.8;-0.02839802566706129;-0.2650116176882023;-0.963348550495702;0.9990000000000001;0.007249974996158604
58:59.8;-0.029287518341158378;-0.2646114648623645;-0.963607379227306;0.998;0.0074677771201220365
58:59.8;-0.029968084118827943;-0.26449920054094367;-0.9637036145283121;0.9990000000000001;0.007638829747086746
58:59.8;-0.030365912506830052;-0.2646797199846987;-0.963638805349024;0.9990000000000001;0.007744997526952637
58:59.8;-0.03043682277266107;-0.265145536950695;-0.9634173460457433;1.001;0.007774958832528687
58:59.8;-0.03017403298659524;-0.26587534209648456;-0.9630471793134037;0.9990000000000001;0.007726076180580689
58:59.8;-0.02960968043048891;-0.2668325776518576;-0.9625409002008801;0.998;0.007604869472414148
58:59.8;-0.028809418206126258;-0.2679650350910381;-0.9619167753222753;0.997;0.007425917436071388
58:59.9;-0.027860856194687336;-0.26920659581470685;-0.9611996760979215;1.001;0.007209311164680593
58:59.9;-0.02685843365787442;-0.27048161650001123;-0.9604220599902331;1.001;0.006977190194851505
58:59.9;-0.025888698595510743;-0.27171117542389095;-0.959624624991702;1.001;0.0067502382953840805
58:59.9;-0.025019634958852836;-0.27281961539422067;-0.9588557007835028;0.9990000000000001;0.0065450024877191475
58:59.9;-0.024295740612788552;-0.27374038703692904;-0.9581684795643904;0.998;0.006372515481593236
58:59.9;-0.023738589906628242;-0.2744211471376989;-0.9576158694993836;0.995;0.006238265119895067
58:59.9;-0.023351547262642797;-0.2748281879227695;-0.9572437171722449;0.993;0.0061432679871324634
58:59.9;-0.023126781035441937;-0.27494973110867793;-0.9570839694071147;0.9940000000000001;0.006085811967794588
58:59.9;-0.02305248733919663;-0.27479723410294205;-0.9571495228226387;0.996;0.006063312281484192
58:59.9;-0.023118491678616227;-0.274404005877398;-0.9574318133407912;0.993;0.006073762377593879
59:00.0;-0.02331912516345143;-0.2738209953640523;-0.95790123036402;0.995;0.0061164542182129255
59:00.0;-0.023653166789925732;-0.27311042784775014;-0.9585099892084961;0.995;0.00619190408167255
59:00.0;-0.024121435118353778;-0.2723387291122037;-0.9591971094380779;0.995;0.0063011585956453285
59:00.0;-0.024722988416093487;-0.27157026213153257;-0.9598951803529246;0.9990000000000001;0.0064447635449479766
59:00.0;-0.02545074424823546;-0.2708626756804352;-0.9605383944935029;1.003;0.006621621924529459
59:00.0;-0.02628705322214683;-0.2702638750434085;-0.9610706626002388;1.004;0.006827869691730345
59:00.0;-0.027199796873457232;-0.2698102761883215;-0.9614518306588704;1.002;0.007055887991062017
59:00.0;-0.028139872929055735;-0.26952590127536186;-0.961660192251676;0.998;0.007293639231434675
59:00.0;-0.02904109330120789;-0.26942186423050635;-0.961691030497249;0.996;0.007524564415857741
59:00.0;-0.0298233639695634;-0.26949602721462534;-0.9615527892949289;0.995;0.0077282671830606366
59:00.1;-0.030399589179485167;-0.2697330699828515;-0.9612632428187283;1.0;0.007882141841248032
59:00.1;-0.030685856619592812;-0.27010544951122734;-0.9608472313668559;1.0;0.007963902618982508
59:00.1;-0.03061316718885822;-0.2705753923242247;-0.9603359474419181;1.0;0.007954625643195117
59:00.1;-0.030138325477143846;-0.27109763335719794;-0.9597666457492585;0.9990000000000001;0.007841704957524629
59:00.1;-0.0292523355992603;-0.27162272852518876;-0.9591815752826617;0.998;0.007621272367968858
59:00.1;-0.027985818929231406;-0.27210111375400114;-0.9586254870972083;0.998;0.007299906722007605
59:00.1;-0.02641144178987343;-0.27248786467445596;-0.958141679293775;0.9990000000000001;0.006895551523661573
59:00.1;-0.024643207793832164;-0.27274727742919114;-0.957766984231244;0.993;0.006437504199215512
59:00.1;-0.022832211059322968;-0.27285579480836836;-0.9575265729807374;0.9890000000000001;0.005965295846293282
59:00.1;-0.021158118777725388;-0.27280217382776095;-0.957430246301459;0.9890000000000001;0.005526268995802527
59:00.2;-0.01981557776566967;-0.2725849022269226;-0.957472393547878;0.9990000000000001;0.005171717552147569
59:00.2;-0.018995727446333006;-0.272207943270922;-0.9576366311552647;0.9990000000000001;0.004951735904113789
59:00.2;-0.018864839586916673;-0.2716763787237789;-0.9579034571599752;0.9990000000000001;0.004909380994671407
59:00.2;-0.019543115705819052;-0.2709932797190885;-0.9582575435191792;0.9990000000000001;0.0050749827582982545
59:00.2;-0.021086219370182832;-0.2701584382608711;-0.958692056155002;0.997;0.0054613044309306585
59:00.2;-0.023471629886260212;-0.26916897691004676;-0.959209314326722;0.997;0.0060601257974734505
59:00.2;-0.02659216825174899;-0.26802152533371126;-0.9598183946021467;0.9990000000000001;0.006840888205554886
59:00.2;-0.03025910436755056;-0.2667154342135403;-0.96053060910857;0.996;0.007752029671930329
59:00.2;-0.03421627510521126;-0.2652562932569638;-0.9613537024114547;0.9940000000000001;0.00872532532583088
59:00.2;-0.03816481580576557;-0.2636589414842102;-0.9622858318814336;0.9940000000000001;0.009682996311530901
59:00.3;-0.041795974417810064;-0.2619494443359518;-0.9633108609514168;1.0;0.010546743720151967
59:00.3;-0.04482726143057594;-0.2601661062876309;-0.96439623658726;1.0;0.01124730395839664
59:00.3;-0.047035436679049275;-0.25835981942872693;-0.965493606566443;1.0;0.01173274292473132
59:00.3;-0.04828021155301404;-0.2565935338647096;-0.9665415932070988;1.0;0.011973894302711483
59:00.3;-0.04851548678397635;-0.254940049618015;-0.9674703948188865;1.002;0.01196619686530593
59:00.3;-0.047788074097272405;-0.25347747320109065;-0.9682082676142567;1.001;0.011728100649962284
59:00.3;-0.046225408339674284;-0.2522824714290907;-0.968689742821099;1.003;0.011296724414866002
59:00.3;-0.044014557371132954;-0.2514222987821457;-0.9688649175200701;1.0070000000000001;0.010721692861806882
59:00.3;-0.04137581818599589;-0.25094700297856004;-0.9687084961969161;1.0090000000000001;0.010058233580815593
59:00.3;-0.03853510872445483;-0.2508830346417389;-0.9682263970344884;1.0090000000000001;0.009360624018881146
59:00.4;-0.03569958737042187;-0.2512289599948438;-0.9674573825449037;0.997;0.008676902949416794
59:00.4;-0.033040015318651805;-0.251953636500308;-0.9664684562535044;0.997;0.00804541692968166
59:00.4;-0.03068147086002275;-0.2529972431876181;-0.9653453349290154;0.997;0.007493326683300133
59:00.4;-0.02870195165142134;-0.25427568120041893;-0.964180930805567;0.9940000000000001;0.007036793279568923
59:00.4;-0.027136982831841037;-0.255688653355092;-0.9630642699215486;0.9940000000000001;0.006682335652799965
59:00.4;-0.02598776598185815;-0.2571308520503541;-0.9620711481138029;0.9940000000000001;0.006428806096167482
59:00.4;-0.0252304869823917;-0.25850437916174995;-0.9612574187947491;0.996;0.006269504844414286
59:00.4;-0.024825062239171535;-0.259729754092746;-0.9606554822635119;0.995;0.00619412144161917
59:00.4;-0.02472250888626658;-0.2607532799021188;-0.960273819935226;0.9940000000000001;0.006190381441766627
59:00.4;-0.024870650055813594;-0.2615497442210879;-0.9600989494687701;0.995;0.00624535933188452
59:00.5;-0.02521789900297137;-0.26212067405831746;-0.9600992941555333;0.995;0.006346383725136611
59:00.5;-0.025714995440128077;-0.262489269657793;-0.9602306188413928;0.995;0.006481470613948962
59:00.5;-0.026315136504201305;-0.2626936431868763;-0.960442580226506;0.995;0.006639365793112546
59:00.5;-0.026973494703432455;-0.2627799814926011;-0.9606858544496029;0.9990000000000001;0.00680943206251057
59:00.5;-0.02764706310834866;-0.26279674329844854;-0.9609192116680143;1.001;0.006981614406598109
59:00.5;-0.028295147546685585;-0.2627903206605671;-0.9611154528403667;1.002;0.007146557423585373
59:00.5;-0.02888019128274759;-0.26280209837454416;-0.9612645931638578;1.001;0.007295781853158249
59:00.5;-0.02936858748535364;-0.2628666313504183;-0.9613728503587367;0.998;0.00742181922790827
59:00.5;-0.029731727084398207;-0.2630106171809575;-0.961457154719398;0.993;0.00751836409473917
59:00.5;-0.02994784783453843;-0.2632522913464228;-0.9615366297653616;0.99;0.007580600523341155
59:00.6;-0.030004619961558395;-0.2636008567798897;-0.9616239266948814;0.995;0.007605717819756325
59:00.6;-0.02990154058571322;-0.2640557912485127;-0.9617193522097344;0.995;0.007593423406741565
59:00.6;-0.029651193981305324;-0.26460626777655816;-0.9618092203213587;0.995;0.007546251050369096
59:00.6;-0.029279071802355002;-0.26523115027422983;-0.9618681373843677;0.998;0.007469600452761473
59:00.6;-0.028822000709336576;-0.2658999684408284;-0.9618641859993724;1.0;0.007371505006873086
59:00.6;-0.02832508556060515;-0.2665749860407397;-0.9617658647718441;0.9990000000000001;0.007262062536231447
59:00.6;-0.027836898461409725;-0.26721410294125225;-0.9615496366050629;0.9990000000000001;0.007152402212278925
59:00.6;-0.02740284823212203;-0.2677742124792327;-0.9612071119133845;1.003;0.007053122577796782
59:00.6;-0.02705749513406253;-0.2682148755620425;-0.9607508826952055;1.0070000000000001;0.006972383105720502
59:00.6;-0.026817781675910018;-0.2685022622248066;-0.9602173156212374;1.008;0.006914174456398216
59:00.7;-0.0266797337088774;-0.26861291788773106;-0.9596639948520951;0.993;0.0068774522872199545
59:00.7;-0.026620189467235815;-0.2685366222020884;-0.9591606861170509;0.993;0.0068565560996994976
59:00.7;-0.02660296438151199;-0.2682779821540105;-0.9587756928528445;0.993;0.006842772152062721
59:00.7;-0.026587322513183995;-0.2678569427136423;-0.958561642118738;0.988;0.006826491558451587
59:00.7;-0.02653660062497036;-0.26730836254273854;-0.9585443452984239;0.9890000000000001;0.006799391428590599
59:00.7;-0.026425312255143874;-0.26668028219167234;-0.9587169397774098;0.991;0.006756183473858861
59:00.7;-0.026243268784647226;-0.2660302013298603;-0.9590405029828224;0.991;0.006695543264780427
59:00.7;-0.025995763683722476;-0.2654190832569349;-0.9594513214490503;0.996;0.006619995138103463
59:00.7;-0.025699983969387236;-0.2649037416847906;-0.9598736351156473;1.003;0.006534840743238696
59:00.7;-0.025378999558349432;-0.2645290815479777;-0.9602351227034296;1.004;0.00644652259840237
59:00.8;-0.02505544450635472;-0.2643219070157398;-0.9604811475079941;1.0;0.006360981255108405
59:00.8;-0.024746975537549027;-0.2642875927541822;-0.9605840653027754;1.0;0.006282525822213979
59:00.8;-0.024464604841041994;-0.26441004890739356;-0.9605459939991802;1.0;0.00621347173250168
59:00.8;-0.024213735378988025;-0.26465466404500754;-0.9603955731474692;0.998;0.006154481824619866
59:00.8;-0.023997027283366022;-0.26497362725054974;-0.960180049585882;0.9940000000000001;0.006105381047584762
59:00.8;-0.023818009587568603;-0.26531285960318984;-0.9599543601160376;0.99;0.0060661668557238976
59:00.8;-0.023684255137420968;-0.2656194412246815;-0.9597696977123429;0.9890000000000001;0.006037909839434788
59:00.8;-0.023609034761484262;-0.2658482379417273;-0.9596646507543385;0.993;0.006023258686401766
59:00.8;-0.023610723363374712;-0.26596675275990694;-0.9596612344054106;0.998;0.0060263533910700036
59:00.8;-0.023709738025631658;-0.2659578471613595;-0.959765987570343;1.0;0.0060520836133293255
59:00.9;-0.023923403275801506;-0.2658204129859065;-0.95997412025398;0.998;0.0061047912034320724
59:00.9;-0.024259833191347994;-0.26556819649312036;-0.9602739667835981;0.998;0.0061866996113354045
59:00.9;-0.024712520984970066;-0.265227080272461;-0.9606499062219293;0.998;0.006296512360234691
59:00.9;-0.02525743570132987;-0.26483129393088806;-0.9610833047258339;0.995;0.006428647184338292
59:00.9;-0.025853781339511453;-0.26441905959023215;-0.9615520395035526;0.9940000000000001;0.006573393349670276
59:00.9;-0.02644846303938478;-0.2640281893448144;-0.9620297908729819;0.996;0.006717988528397826
59:00.9;-0.026983281102965433;-0.26369225747489355;-0.9624863916472695;1.0;0.006848362394294642
59:00.9;-0.027403316899657887;-0.26343789024641834;-0.9628897349047322;0.9990000000000001;0.006951170314516598
59:00.9;-0.02766492202169494;-0.2632832926947933;-0.9632086742172595;0.998;0.007015734349672611
59:00.9;-0.027741869207949434;-0.2632376613157799;-0.9634161856833137;0.997;0.007035543975483274
59:01.0;-0.027628415719209796;-0.26330098677127783;-0.9634927500403567;1.002;0.00700901387837195
59:01.0;-0.027338687501382044;-0.26346403420171394;-0.9634301467486313;1.002;0.006939356989816834
59:01.0;-0.02690304150547378;-0.2637087549724234;-0.9632350347382154;1.002;0.00683373604973987
59:01.0;-0.026362943335217468;-0.2640096289317806;-0.9629308445605657;1.002;0.006702066937882832
59:01.0;-0.025765747102162905;-0.2643362779265849;-0.9625566296176371;1.002;0.006555801567949482
59:01.0;-0.025160246469828035;-0.26465724746648783;-0.9621623022194882;0.998;0.0064068863411513985
59:01.0;-0.02459351236401096;-0.2649443383936079;-0.9618005757105138;0.9940000000000001;0.006267007780206254
59:01.0;-0.024109066027909607;-0.2651765168707042;-0.9615170389513134;0.992;0.006147130498057377
59:01.0;-0.023745842562865885;-0.2653424276500064;-0.961340891723121;0.991;0.00605719699483381
59:01.0;-0.023537057849820617;-0.2654408853938081;-0.9612791814403806;0.992;0.006005781514868215
59:01.1;-0.023508202963398055;-0.26547927017087675;-0.9613164858309586;1.0;0.005999519052948354
59:01.1;-0.02367402911607718;-0.265470372423254;-0.9614201056931104;1.0;0.006042288207134146
59:01.1;-0.024035341263114365;-0.26542872326759787;-0.9615487529571802;1.0;0.006134363679671476
59:01.1;-0.02457697098508746;-0.2653674840222163;-0.9616617807745694;1.001;0.006271889813142542
59:01.1;-0.0252680120213769;-0.26529652784611785;-0.9617267259783485;1.001;0.006446950355624278
59:01.1;-0.026064703621502372;-0.2652218073111968;-0.961724159475122;1.001;0.006648329679434369
59:01.1;-0.02691575989207533;-0.2651457323884219;-0.9616495088515614;0.9990000000000001;0.006862906797605293
59:01.1;-0.027769437753661;-0.2650680970822862;-0.9615118886481023;0.997;0.00707748903941132
59:01.1;-0.028581027104564387;-0.2649871023504482;-0.9613305319020791;0.996;0.007280736333595757
59:01.1;-0.029318917352956445;-0.2649002248357727;-0.9611300324642518;0.996;0.007464700783139053
59:01.2;-0.029967481118726776;-0.2648049149205185;-0.9609358197828564;0.997;0.00762554106835153
59:01.2;-0.03052605617877116;-0.26469918256891267;-0.9607708057492585;0.997;0.007763241514534006
59:01.2;-0.03100480649072518;-0.26458206029422826;-0.960653240678075;0.997;0.007880541696558496
59:01.2;-0.031419142383949314;-0.2644538771086744;-0.9605952044997422;0.996;0.00798150296112228
59:01.2;-0.0317842654463859;-0.26431631488243523;-0.9606012642635265;0.9940000000000001;0.008070107198625111
59:01.2;-0.03211083760876111;-0.2641722869036355;-0.9606674248663779;0.9940000000000001;0.008149143296532955
59:01.2;-0.03240225109840072;-0.26402568403367177;-0.9607810438064651;0.996;0.00821950730053676
59:01.2;-0.032653544204653946;-0.26388100949811233;-0.9609223760673418;0.997;0.008279931992011604
59:01.2;-0.03285175842945105;-0.2637429491132162;-0.961067822475799;0.996;0.008327094927712726
59:01.2;-0.032977569949450856;-0.26361598474385556;-0.9611943820977491;0.998;0.008356061252355215
59:01.3;-0.033008202972414906;-0.26350420824249354;-0.9612846608936757;1.002;0.008361062098185277
59:01.3;-0.03292159014932367;-0.26341143653933;-0.9613316041342214;1.002;0.008336593989207068
59:01.3;-0.03270132237400362;-0.2633415027304801;-0.9613416000274678;1.002;0.008278704103658194
59:01.3;-0.03234153488619827;-0.2632983921717743;-0.9613344308027645;0.9990000000000001;0.008186218481454312
59:01.3;-0.03185090449004435;-0.263285911769715;-0.9613393026198856;0.998;0.008061689902556693
59:01.3;-0.03125508964070099;-0.263306745839028;-0.9613874680175367;0.992;0.007911907318599358
59:01.3;-0.030596925419689332;-0.26336095239500956;-0.9615031751041997;0.99;0.0077478266403633545
59:01.3;-0.0299337708904996;-0.263444220534065;-0.9616955909157452;0.991;0.007583815006990383
59:01.3;-0.029331833481210788;-0.2635464779743871;-0.9619545270591012;0.992;0.007436198433518159
59:01.3;-0.028857889721106547;-0.2636515472334351;-0.9622517798208031;0.997;0.007321222686872702
59:01.4;-0.028569391136889118;-0.2637384320363492;-0.9625479559497964;1.005;0.007252651022542716
59:01.4;-0.0285045112521698;-0.2637843726131001;-0.9628025945473674;1.005;0.007239355666050645
59:01.4;-0.028674253890225977;-0.263769066107887;-0.962984084514562;1.005;0.00728341569179376
59:01.4;-0.029058852977505146;-0.26367893945939636;-0.9630760802946097;1.003;0.007379288799226146
59:01.4;-0.029609858298985797;-0.26351046469235584;-0.9630787560778641;0.9990000000000001;0.007514429236496223
59:01.4;-0.030257811536694598;-0.26327181268553856;-0.9630053064806451;0.996;0.007671328093768086
59:01.4;-0.030923971540451813;-0.262982357339874;-0.9628756962621824;0.995;0.007830547058417335
59:01.4;-0.031533579921491396;-0.2626699765340959;-0.9627102753462338;0.996;0.007974056716697354
59:01.4;-0.03202785460751672;-0.26236672802481587;-0.9625253142298756;0.998;0.008088142007387875
59:01.4;-0.032372267469357556;-0.26210382791487963;-0.9623312274411115;0.996;0.00816527963369932
59:01.5;-0.032559674081785506;-0.261906854973175;-0.9621331088994344;0.998;0.008204688067574416
59:01.5;-0.03260839055427844;-0.26179198642982854;-0.9619327057013898;0.998;0.00821164948911817
59:01.5;-0.03255664888202806;-0.2617638391914549;-0.9617309280877308;0.998;0.008196018501157594
59:01.5;-0.03245518005078136;-0.2618151555503238;-0.9615301131317687;0.997;0.008170369458943068
59:01.5;-0.03235916987063542;-0.26192831548971285;-0.9613355250675807;0.998;0.008148071161136602
59:01.5;-0.032320393070690207;-0.2620784524982329;-0.9611559535972724;0.998;0.008141450936305462
59:01.5;-0.03238023699609453;-0.26223762788295185;-0.961003495545277;0.998;0.008160184876859454
59:01.5;-0.03256426620240442;-0.26237919689030914;-0.9608925666764923;0.998;0.008210044828682154
59:01.5;-0.032878824264856985;-0.2624814560793571;-0.9608380817359868;0.997;0.00829211111435365
59:01.5;-0.033310036146605555;-0.2625299081632665;-0.9608527855473769;0.996;0.008402543009164596
59:01.6;-0.03382549639154589;-0.262517876674493;-0.9609439969776711;0.9940000000000001;0.00853298809255563
59:01.6;-0.03437863502711203;-0.2624457049772245;-0.9611104617203173;0.9940000000000001;0.00867164327036196
59:01.6;-0.03491506806894226;-0.26231919903670986;-0.9613403598150023;0.9940000000000001;0.008804813194262658
59:01.6;-0.03537973018532629;-0.2621479963546616;-0.9616115059111403;0.995;0.008918682639239266
59:01.6;-0.03572377723755415;-0.26194421847584526;-0.9618943119855777;0.9990000000000001;0.009001057716870802
59:01.6;-0.03591062363323963;-0.26172147573729965;-0.9621571918009867;1.002;0.009042912698223434
59:01.6;-0.035920506185922574;-0.2614941234314516;-0.9623729705144713;1.004;0.009039570542245587
59:01.6;-0.035752979614194054;-0.26127644738224637;-0.9625241155574115;1.001;0.008991333839137014
59:01.6;-0.0354271232946181;-0.2610813751783928;-0.9626049194084587;0.996;0.0089034814284062
59:01.6;-0.03497972153654005;-0.2609186991670999;-0.9626202237270476;0.9940000000000001;0.008785703327060192
59:01.7;-0.03446183054364386;-0.2607933742750569;-0.9625820485363314;0.997;0.008651126335419236
59:01.7;-0.03393406151795601;-0.26070460049000493;-0.962506231777835;0.997;0.008515067358957865
59:01.7;-0.033461065500699966;-0.26064603439116085;-0.962410366080332;0.997;0.008393656261467864
59:01.7;-0.03310597292978264;-0.2606070341159652;-0.962312974211087;1.001;0.008302498970687173
59:01.7;-0.03292539188902242;-0.26057460670638943;-0.9622330546800312;1.0;0.0082554987400659
59:01.7;-0.03296511815302922;-0.2605355963100321;-0.9621888569046683;0.997;0.008263842434146339
59:01.7;-0.03325639821356774;-0.2604785908114149;-0.962195059743267;0.9940000000000001;0.008335091432512843
59:01.7;-0.033812549476056594;-0.2603951887964419;-0.9622586806043554;0.992;0.008472327032504556
59:01.7;-0.03462606394476834;-0.2602805474565859;-0.9623753857528263;0.993;0.008673399387051993
59:01.7;-0.03566695703171901;-0.26013321072170664;-0.9625283280699399;0.995;0.008930491879850976
59:01.8;-0.03688348569076467;-0.25995417701510365;-0.9626908359496734;1.001;0.009230295300054855
59:01.8;-0.03820578262609421;-0.2597453578937239;-0.9628325853945889;1.001;0.009554933633774602
59:01.8;-0.03955179370295788;-0.25950791063413153;-0.9629272596335929;1.001;0.00988348861453222
59:01.8;-0.040834422599891736;-0.2592409911867327;-0.9629592499581374;1.001;0.01019384443217063
59:01.8;-0.041969326614427954;-0.2589413012586028;-0.9629277384596873;1.001;0.010464705831826487
59:01.8;-0.04288325402763564;-0.2586036782772814;-0.9628475053075595;1.0;0.010677754709965253
59:01.8;-0.043522404285376654;-0.25822275611293033;-0.9627464292755541;1.0;0.010819801857008721
59:01.8;-0.0438595515306042;-0.2577952165268099;-0.9626601182109463;0.997;0.010884588658514702
59:01.8;-0.043898321189967705;-0.25732170250160324;-0.9626246346052083;0.9940000000000001;0.010873798963953029
59:01.8;-0.04367324067786113;-0.2568074854959469;-0.9626688815314686;0.993;0.010796923665126195
59:01.9;-0.04324499199484853;-0.25626143949568597;-0.9628086240702745;0.995;0.010669868182667845
59:01.9;-0.04269157789481721;-0.25569362078949837;-0.9630437571370725;0.995;0.01051255110770312
59:01.9;-0.04209728653687763;-0.2551125819885684;-0.9633592547161954;0.995;0.010346042440075377
59:01.9;-0.04154155742473433;-0.2545238647977102;-0.9637291840420191;0.998;0.010189814883448584
59:01.9;-0.04108919298613496;-0.2539305248228069;-0.9641227961135426;1.0;0.010059464757423486
59:01.9;-0.04078288919481942;-0.25333556347842856;-0.9645114457383561;1.004;0.009965097123413383
59:01.9;-0.0406391816641487;-0.252745422393153;-0.9648745932809584;1.005;0.00991058118722521
59:01.9;-0.04064891303786987;-0.25217331232721657;-0.9652029288425269;1.002;0.009893881193263553
59:01.9;-0.04078265100183802;-0.25164108640903204;-0.9654972916366942;0.9990000000000001;0.009908503434055471
59:01.9;-0.04100024278550973;-0.25117869294782436;-0.9657635231908095;0.995;0.009945806892241334
59:02.0;-0.04126239590726628;-0.2508208830550066;-0.9660050854638478;0.993;0.009997641210617811
59:02.0;-0.041541440001967536;-0.2506017308939568;-0.9662163017015658;0.993;0.010058656416080518
59:02.0;-0.041828572931085634;-0.2505484190470013;-0.9663789688108373;0.993;0.010127731627557271
59:02.0;-0.042135815787562425;-0.2506760201497716;-0.9664640642843869;0.9990000000000001;0.01020821734525252
59:02.0;-0.04249228939468917;-0.2509844306133045;-0.9664386686716296;1.004;0.010306974714027669
59:02.0;-0.042935868545863023;-0.2514578080707897;-0.9662762423948326;1.006;0.01043245884024734
59:02.0;-0.04350231295818827;-0.2520663729146464;-0.9659667363838765;1.008;0.010592279501389515
59:02.0;-0.0442144244662636;-0.25277017925637335;-0.9655227513100324;1.004;0.010790767232764932
59:02.0;-0.04507372431263217;-0.25352420667910824;-0.9649793174181032;1.0;0.01102708904582919
59:02.0;-0.04605658037069002;-0.25428379547866437;-0.9643871180519322;0.996;0.011294363859780741
59:02.1;-0.04711556732996469;-0.2550092563792909;-0.9638012278080376;0.991;0.011579980951149567
59:02.1;-0.0481853159459148;-0.25566878914877894;-0.9632689096371005;0.991;0.011866973398753455
59:02.1;-0.04919092062844792;-0.25623959556112347;-0.9628202216748751;0.991;0.012136023082697154
59:02.1;-0.050056943730017726;-0.2567077063374724;-0.962464112099057;0.995;0.012367666931134533
59:02.1;-0.05071591111718961;-0.2570671079556;-0.9621907649283575;1.0;0.012544458756761455
59:02.1;-0.051115728185285605;-0.25731845112396834;-0.9619788350583316;1.003;0.012652926861631266
59:02.1;-0.05122532606885843;-0.2574675091231089;-0.9618045703576926;1.002;0.012685103043276393
59:02.1;-0.05103782357522092;-0.25752371775575567;-0.9616494202965362;1.0;0.01263939114364045
59:02.1;-0.050570859671213164;-0.25749907072894074;-0.9615038639911558;0.998;0.012520654637203166
59:02.1;-0.04986417052897591;-0.2574071964925235;-0.9613671577652293;0.993;0.01233952849941504
59:02.2;-0.04897483448036009;-0.2572621297140182;-0.9612444010622925;0.995;0.012111074081663597
59:02.2;-0.04797098942515921;-0.2570765573596786;-0.9611429984071573;0.995;0.011853023846150937
59:02.2;-0.04692508726615191;-0.2568598988792921;-0.9610700874187826;0.995;0.011583944192248025
59:02.2;-0.04590755791713165;-0.2566168567111506;-0.961031413855313;0.996;0.011321577812447714
59:02.2;-0.04498121685341415;-0.25634690372208185;-0.9610313038551174;0.997;0.011081455593406215
59:02.2;-0.0441964852825819;-0.25604493417082225;-0.9610730010314309;0.995;0.010875777104896737
59:02.2;-0.04358772028582564;-0.25570316388008696;-0.9611586538762414;0.993;0.01071261106168382
59:02.2;-0.04317117730601215;-0.25531412965854533;-0.9612888137405112;0.995;0.0105955286755201
59:02.2;-0.042944974412758886;-0.25487425654550816;-0.9614620237875856;0.997;0.010523748370192272
59:02.2;-0.04289107127153193;-0.25438718479480193;-0.9616749962423808;1.0;0.01049277710026841
59:02.3;-0.04297899878463321;-0.25386608259484683;-0.9619229242747902;0.995;0.01049545450689677
59:02.3;-0.04317086110639556;-0.2533344401603674;-0.9621989013206749;0.995;0.010523247941600951
59:02.3;-0.04342690197823201;-0.2528251473770453;-0.9624921225237182;0.995;0.010567598419231295
59:02.3;-0.04371089145389542;-0.2523778513038638;-0.9627857288803296;0.992;0.01062112564542817
59:02.3;-0.043994818940556076;-0.25203468070365465;-0.9630556851503109;0.993;0.010678573448164533
59:02.3;-0.04426249322233115;-0.2518346258136201;-0.9632719851220569;0.9940000000000001;0.010737427538237265
59:02.3;-0.04451147916859296;-0.25180727313016926;-0.9634029838362322;0.998;0.010798123336764642
59:02.3;-0.04475271468959042;-0.25196704498266037;-0.9634225077140264;1.001;0.010863753817506316
59:02.3;-0.0450074923649016;-0.2523093575251397;-0.9633178389061826;1.004;0.010939255776257317
59:02.3;-0.04530223866821148;-0.2528099268338263;-0.9630956253405374;1.003;0.011030195167544674
59:02.4;-0.04566234420103639;-0.2534276335090287;-0.9627830282090745;0.995;0.011141421318358491
59:02.4;-0.046106615681227626;-0.25411015293929406;-0.9624232644407767;0.995;0.011275904147659615
59:02.4;-0.046643470769231;-0.2548006641439596;-0.9620672653244293;0.995;0.011433964845515728
59:02.4;-0.04726928465898568;-0.25544399702550324;-0.9617644817584787;0.9940000000000001;0.011612974317939265
59:02.4;-0.0479688697673812;-0.2559914449359214;-0.9615551300354458;0.993;0.011807531878674194
59:02.4;-0.048717775802279255;-0.2564042994243803;-0.9614648489690011;0.9940000000000001;0.01201008737064785
59:02.4;-0.04948568957269326;-0.256656389391525;-0.9615020917964833;0.995;0.012211863470931904
59:02.4;-0.050239950113809155;-0.2567357384563587;-0.9616582654994532;0.996;0.012403844021064047
59:02.4;-0.050948366399913896;-0.2566452487595371;-0.9619102170335303;0.997;0.012577607262991867
59:02.4;-0.05158096844285504;-0.2564021360010375;-0.9622244192412232;0.997;0.012725870657342868
59:02.5;-0.05211067201969816;-0.2560357085956651;-0.9625622870970003;1.0;0.012842691651070598
59:02.5;-0.052513060800829264;-0.25558333321483706;-0.9628860335494555;1.0;0.012923339384955603
59:02.5;-0.05276580973100365;-0.25508521499864295;-0.963164059797866;1.0;0.012963974345222408
59:02.5;-0.05284856616732239;-0.2545792281880945;-0.9633746151125046;0.9990000000000001;0.012961383866714207
59:02.5;-0.05274402567899764;-0.2540967903887347;-0.9635069565655869;0.998;0.01291300467095763
59:02.5;-0.05244050579505905;-0.2536602049432272;-0.9635601628039344;0.996;0.01281734420227076
59:02.5;-0.0519357887454693;-0.25328170967638725;-0.9635404692549601;0.996;0.012674782649129577
59:02.5;-0.05124155114231968;-0.2529644401262012;-0.9634582675980463;0.997;0.012488625752605235
59:02.5;-0.050387410078413374;-0.2527051755632379;-0.9633256956631437;0.997;0.012266179550336148
59:02.5;-0.04942343808773021;-0.2524981883498385;-0.9631551367908644;0.998;0.012019529424730826
59:02.6;-0.04841997910239087;-0.25233917978209824;-0.962958380866698;0.996;0.011765673759427808
59:02.6;-0.04746408242900528;-0.25222831070572127;-0.9627460697311178;0.996;0.011525789274377385
59:02.6;-0.04665280163529072;-0.2521715310025471;-0.9625273266194614;0.996;0.011323660832651617
59:02.6;-0.046084161502827646;-0.25217965301190487;-0.9623097419236205;0.997;0.01118347098056101
59:02.6;-0.045846493530654314;-0.25226502963303593;-0.9620997918367169;0.996;0.011127133440415528
59:02.6;-0.04600689229244438;-0.25243638718782857;-0.9619034431368885;0.9940000000000001;0.011171367362937215
59:02.6;-0.046600129884689694;-0.25269312411259603;-0.9617266503685987;0.992;0.011324843335797264
59:02.6;-0.04761985773792359;-0.253020824837055;-0.9615758536458863;0.9940000000000001;0.01158585022625715
59:02.6;-0.049013987454501466;-0.253389565657829;-0.9614589147618231;0.997;0.011940966858473056
59:02.6;-0.050685980968961236;-0.25375581327296204;-0.9613865074792841;1.001;0.012365220897731384
59:02.7;-0.05250315156861883;-0.25406765643852874;-0.9613729476199706;0.996;0.01282409280019546
59:02.7;-0.05431137100040451;-0.25427221159603647;-0.9614350112100171;0.996;0.013277294844052559
59:02.7;-0.05595332241440911;-0.254323640204902;-0.9615882834920717;0.996;0.01368364420782435
59:02.7;-0.057286591241226696;-0.25419041250884367;-0.9618420474511795;0.9940000000000001;0.014006057515010325
59:02.7;-0.05819912173199479;-0.2538609491462407;-0.9621943166770343;0.993;0.014215924808322695
59:02.7;-0.058620988333853666;-0.2533470067143449;-0.9626285469240142;0.995;0.014296431586292277
59:02.7;-0.058531694031893594;-0.2526840015239353;-0.9631133383113862;0.998;0.014244468101581332
59:02.7;-0.05796216108186995;-0.2519274266987474;-0.9636057240597411;0.997;0.01407081947707539
59:02.7;-0.05699102009821719;-0.25114524840020863;-0.9640574983402324;0.9990000000000001;0.013798578013896617
59:02.8;-0.05573542994993343;-0.25040760944308266;-0.9644231788850297;1.002;0.013460045175318909
59:02.8;-0.05433725273321215;-0.24977634588163744;-0.9646678093610661;1.0;0.013092626273149607
59:02.8;-0.05294629355760406;-0.24929675053291867;-0.9647727675117038;1.0;0.012734362755258707
59:02.8;-0.0517033401399085;-0.24899288834377165;-0.9647382813542806;1.0;0.012419812954431328
59:02.8;-0.05072580434395107;-0.2488666327835613;-0.9645823186471407;0.997;0.012176848725293428
59:02.8;-0.0500975374210945;-0.24890000412613802;-0.9643363345031829;0.995;0.012024577137246193
59:02.8;-0.04986310254603825;-0.24906007825181298;-0.9640390075211787;0.993;0.011972311956828147
59:02.8;-0.05002627406983193;-0.24930542589341567;-0.9637297080864754;0.993;0.012019464954062581
59:02.8;-0.05055238322737465;-0.2495928767645824;-0.9634435621870943;0.997;0.012156263363457421
59:02.8;-0.05137400837981609;-0.2498835088501079;-0.9632091337267427;1.0;0.012365214088842712
59:02.9;-0.05239939171111389;-0.2501469899035066;-0.9630482495824036;1.0;0.012623203189084536
59:02.9;-0.05352269101385964;-0.25036366465092064;-0.9629763580762083;0.995;0.012904015187813802
59:02.9;-0.05463477686087077;-0.2505242798734802;-0.9630020482152138;0.995;0.01318093465295476
59:02.9;-0.055633149238837436;-0.2506279617105719;-0.9631257682046206;0.995;0.013429077167868732
59:02.9;-0.05642995971692817;-0.25067949337855044;-0.9633389082019294;0.996;0.013627232004891273
59:02.9;-0.05695782894462878;-0.2506867490006526;-0.9636242837602433;0.998;0.013759179649662018
59:02.9;-0.05717361337871367;-0.25065869137979363;-0.963958170098579;0.998;0.013814545372010784
59:02.9;-0.057060418131209975;-0.2506041018698668;-0.9643132690135837;1.0;0.013789269757623861
59:02.9;-0.05662816751203555;-0.2505311035860794;-0.9646616795767771;1.0;0.013685768403788432
59:02.9;-0.05591281229432811;-0.2504472983070874;-0.9649771163570074;0.997;0.01351277988804847
59:03.0;-0.05497376676738939;-0.250360073437919;-0.9652362396217956;0.997;0.013284774436800808
59:03.0;-0.05388899196889093;-0.2502766480136884;-0.9654197140148987;1.0;0.013020766553701891
59:03.0;-0.05274778840201584;-0.25020369974806933;-0.9655137547237151;1.0;0.012742552974813127
59:03.0;-0.051642427857657845;-0.25014669562308695;-0.9655121559956408;1.0;0.012472662413371275
59:03.0;-0.050660104477196946;-0.25010916239362696;-0.965417998557204;1.0;0.012232383101401925
59:03.0;-0.049875920105722955;-0.25009206410482165;-0.965244242532871;0.9990000000000001;0.012040043371846993
59:03.0;-0.049346783297437004;-0.2500933420884767;-0.9650129225405699;0.9990000000000001;0.011909515868681041
59:03.0;-0.0491062482256327;-0.25010770645192865;-0.9647530173657098;0.9990000000000001;0.01184895292316343
59:03.0;-0.04916110620859871;-0.2501269443394671;-0.9644971033244589;0.997;0.011859955293975143
59:03.0;-0.04949084602496893;-0.2501410106755905;-0.9642769104455436;0.9940000000000001;0.011937449460637357
59:03.1;-0.05005055014756696;-0.25013976780895286;-0.9641183320419966;0.993;0.012070407678625397
59:03.1;-0.05077699895853139;-0.2501148494753353;-0.9640371519179094;0.996;0.012243350351458253
59:03.1;-0.051597036088782654;-0.2500611981582115;-0.9640368957630098;0.996;0.012438405710313178
59:03.1;-0.052436488169852295;-0.24997807910664627;-0.9641094789627176;0.996;0.012637520621879571
59:03.1;-0.05322771445565251;-0.2498694316901439;-0.964238429522288;1.0;0.012824350633378454
59:03.1;-0.05391483933241794;-0.24974345603580875;-0.9644038120810272;1.004;0.012985579967989372
59:03.1;-0.054457118274744004;-0.24961149595435778;-0.9645872098739108;1.003;0.013111752354537778
59:03.1;-0.05483130544758349;-0.24948635118293594;-0.9647745759524259;0.998;0.013197790420428493
59:03.1;-0.055033102654250855;-0.24938012095314746;-0.9649555918496473;0.993;0.0132432066688315
59:03.1;-0.05507683097001495;-0.2493018810835757;-0.9651203870291571;0.99;0.013251834055285048
59:03.2;-0.05499234216673362;-0.2492558662056437;-0.9652565152321119;0.992;0.013230929241920354
59:03.2;-0.054818894699222125;-0.24924081407353624;-0.9653493303908107;1.005;0.013189670171633201
59:03.2;-0.05459688078377965;-0.24925063279026524;-0.9653867559228488;1.005;0.013137279429165719
59:03.2;-0.054359446973862434;-0.24927609104802118;-0.965366112073517;1.005;0.013081203592794655
59:03.2;-0.05412638783114764;-0.24930711722037924;-0.9652988880513016;1.004;0.013025833659059665
59:03.2;-0.05390188041731045;-0.24933534758079742;-0.9652104173021819;1.001;0.012972084479641391
59:03.2;-0.053676465745125114;-0.24935651598790706;-0.9651337964693948;0.996;0.012917907120720972
59:03.2;-0.05343284004082508;-0.24937214219041237;-0.9650994820823912;0.99;0.012859624186949215
59:03.2;-0.05315425995359125;-0.24938999183814622;-0.9651237033292923;0.988;0.012793815368737187
59:03.2;-0.05283349123255885;-0.2494230150978632;-0.9651999282733239;0.9890000000000001;0.012719297210053472
59:03.3;-0.05247959685229444;-0.24948680113101893;-0.9652972587558338;0.9940000000000001;0.012638604906312368
59:03.3;-0.05212000569846441;-0.24959600202988783;-0.9653674781303058;1.004;0.01255841247423131
59:03.3;-0.051796550451196625;-0.24976062317480227;-0.9653591649804348;1.0090000000000001;0.012488599287339995
59:03.3;-0.051556305341137136;-0.2499831704658219;-0.9652341540291799;1.0090000000000001;0.012440139189335814
59:03.3;-0.05144012663978336;-0.2502571822438516;-0.9649803805213182;1.005;0.012422444440316559
59:03.3;-0.05147250181835503;-0.25056712440681156;-0.964616700373035;1.0;0.012440967143111357
59:03.3;-0.0516553825882861;-0.25088950556398526;-0.9641886833080412;0.995;0.012495686131680754
59:03.3;-0.05196719631322655;-0.25119519335593404;-0.9637576145352423;0.993;0.01258080509070399
59:03.3;-0.05236697507554658;-0.2514528488486036;-0.9633866165091206;0.991;0.012685706439362425
59:03.3;-0.052802429761926215;-0.25163312026064316;-0.9631277802481675;0.991;0.012796924868211271
59:03.4;-0.05321990252079621;-0.251712982093661;-0.9630131365009196;0.993;0.01290065915495484
59:03.4;-0.05357372221799881;-0.25167947980832567;-0.9630508977637147;0.996;0.012985206772510579
59:03.4;-0.05383266448835384;-0.25153216140525086;-0.9632269857819005;0.9990000000000001;0.0130427160684224
59:03.4;-0.05398215249805989;-0.2512836989327317;-0.963510567028705;0.9990000000000001;0.013069861820167342
59:03.4;-0.054022374784702454;-0.2509585869165194;-0.9638614777492176;1.001;0.01306743520104984
59:03.4;-0.053963738579611176;-0.2505901886728096;-0.9642373581376061;1.0;0.013039172971288067
59:03.4;-0.053821466493449203;-0.2502167025814461;-0.9645989060710517;0.9990000000000001;0.012990282284572083
59:03.4;-0.053611073205421446;-0.24987680205265478;-0.9649125792917096;0.996;0.012926126701626208
59:03.4;-0.05334604700547476;-0.24960566278931284;-0.965151159675091;0.996;0.012851446543229837
59:03.4;-0.05303804578316598;-0.24943186523068248;-0.9652934825247028;0.997;0.012770233025267004
59:03.5;-0.05269875791434409;-0.24937543892962868;-0.9653247163884416;1.0;0.01268608107993144
59:03.5;-0.05234208021008957;-0.24944711193741037;-0.9652377183972788;1.0;0.012602704204708756
59:03.5;-0.05198558484292599;-0.24964852570701088;-0.9650348717646693;1.0;0.01252434282266873
59:03.5;-0.0516508959077008;-0.2499729088714612;-0.9647292953209534;1.0;0.012455933175501883
59:03.5;-0.05136297594249125;-0.2504057469456007;-0.9643445499034483;0.9990000000000001;0.012402998777052346
59:03.5;-0.051148294210227103;-0.2509253307137631;-0.9639124886823508;0.996;0.01237124098961455
59:03.5;-0.05103179395941216;-0.25150345278295505;-0.963469465299687;0.9940000000000001;0.012365814937664425
59:03.5;-0.05103286084383789;-0.25210668907773237;-0.9630517342841248;0.996;0.012390359334091655
59:03.5;-0.05116108827999992;-0.25269850072689454;-0.9626911967434658;0.996;0.012445989772168124
59:03.5;-0.05141314091191401;-0.2532419893330586;-0.9624122701653421;0.996;0.012530575114832533
59:03.6;-0.05177195527233264;-0.25370292495793584;-0.9622299732382649;0.995;0.012638598645697602
59:03.6;-0.05220875181308759;-0.2540527017518163;-0.9621490532216149;0.996;0.012761728032296178
59:03.6;-0.05268721637546806;-0.2542709082737881;-0.9621642009997368;0.996;0.012889946732725944
59:03.6;-0.05316834560113119;-0.2543472150505038;-0.9622615521511868;0.996;0.013012875275903188
59:03.6;-0.053614413483491836;-0.25428241248984884;-0.9624214832570128;1.0;0.013120886879980876
59:03.6;-0.05399140861696569;-0.25408852782450103;-0.9626222509719187;1.002;0.01320582723513778
59:03.6;-0.05427046326229955;-0.25378786200588305;-0.9628433898441496;0.9990000000000001;0.013261419981651165
59:03.6;-0.05442936242813415;-0.2534107637170072;-0.9630675149305585;0.996;0.013283577040898496
59:03.6;-0.054454823782122075;-0.25299222946215716;-0.9632799907093027;0.995;0.013270768657726417
59:03.6;-0.054345245617729784;-0.25256779027396054;-0.9634674026491024;0.995;0.013224417332125425
59:03.7;-0.054112779391428105;-0.2521693558977892;-0.9636165146264036;0.996;0.013149110792720268
59:03.7;-0.05378348882486712;-0.2518216932056076;-0.963714863679608;0.9990000000000001;0.013052408807045916
59:03.7;-0.053395115227528774;-0.2515400491380313;-0.9637529663081006;0.9990000000000001;0.012944175639409623
59:03.7;-0.05299303860355331;-0.2513291969693325;-0.9637270781789293;0.9990000000000001;0.01283558975178882
59:03.7;-0.05262548731157482;-0.2511839922467068;-0.9636411002385536;1.0;0.012738063335865678
59:03.7;-0.05233858455375584;-0.25109131543704216;-0.9635066884954233;0.996;0.012662177554748457
59:03.7;-0.052171161012422036;-0.2510330426441759;-0.9633415285082789;0.995;0.012616580822989637
59:03.7;-0.05214928040873906;-0.2509895568003883;-0.9631665644694362;0.997;0.012606814710301405
59:03.7;-0.05228113211331425;-0.25094326639845044;-0.9630032281499636;0.997;0.012634215287203623
59:03.7;-0.05255365592869756;-0.25088150616897137;-0.962871226572702;0.997;0.012695207116773239
59:03.8;-0.05293241377999231;-0.2507982104652177;-0.9627867906084037;0.997;0.012781336099227825
59:03.8;-0.053365652496896336;-0.2506940980842695;-0.9627610604231047;0.996;0.01288025467672934
59:03.8;-0.05379227096350331;-0.2505756015060866;-0.9627984390459197;0.9940000000000001;0.012977589672616575
59:03.8;-0.05415196858579132;-0.2504530408316572;-0.9628951052469303;0.9940000000000001;0.013059289129224749
59:03.8;-0.05439507950946481;-0.25033846271075566;-0.9630383573836695;0.9940000000000001;0.013113867221262017
59:03.8;-0.05448998553820514;-0.25024339503587917;-0.9632076438516168;0.996;0.013134067275918171
59:03.8;-0.05442707730795729;-0.25017681272426806;-0.9633776367418481;0.998;0.013117728246095486
59:03.8;-0.054219154617099245;-0.2501436807672361;-0.9635228627787539;0.998;0.01306785485225357
59:03.8;-0.05389865453379354;-0.25014422181744955;-0.9636228602808335;1.0;0.012991984501028144
59:03.8;-0.0535124264280638;-0.2501738130949915;-0.963666689513563;1.001;0.01290099892444975
59:03.9;-0.053115098783849825;-0.2502234950736459;-0.9636556182420949;1.0;0.012807605359241596
59:03.9;-0.05276227950120895;-0.25028119959201883;-0.9636030180471963;0.996;0.012724769660825846
59:03.9;-0.05250469192329682;-0.25033361022546585;-0.9635313271909861;0.996;0.012664356186265796
59:03.9;-0.052383880723630205;-0.2503682385173209;-0.9634671360897439;0.996;0.012636121936814066
59:03.9;-0.05242961083074634;-0.2503752121501875;-0.9634360316758223;0.997;0.012647096982598409
59:03.9;-0.05265874591649542;-0.2503484084395401;-0.9634583313663907;0.996;0.012701303198717701
59:03.9;-0.05307519100378183;-0.2502857082878288;-0.9635460234514767;0.995;0.012799708541952802
59:03.9;-0.05367037406836697;-0.25018830990797936;-0.963700960436933;0.996;0.012940287560208288
59:03.9;-0.05442377501386105;-0.25005934186811857;-0.9639144629049919;0.996;0.0131180790317598
59:03.9;-0.05530319019791609;-0.24990232842303034;-0.9641684238187656;0.995;0.013325189427563543
59:04.0;-0.0562647342449484;-0.24972013698053264;-0.9644378266447338;0.996;0.01355077306143148
59:04.0;-0.057252984411306315;-0.24951483239651703;-0.9646945798162165;1.001;0.013781114330742679
59:04.0;-0.05820199648225297;-0.24928851840427374;-0.9649123375827179;1.001;0.013999999437882878
59:04.0;-0.05903802715256312;-0.24904485753835648;-0.965071264575722;1.001;0.014189555775800437
59:04.0;-0.05968469088425794;-0.2487906693513211;-0.9651612479354348;1.002;0.01433167376794923
59:04.0;-0.060070855270566346;-0.2485370024776658;-0.9651824523156414;1.0;0.014410010226645002
59:04.0;-0.06014061084036618;-0.2482992818748386;-0.9651429761181209;0.997;0.014412355060119945
59:04.0;-0.059863390816026325;-0.2480963617598804;-0.9650543467906652;0.9940000000000001;0.014332880485351345
59:04.0;-0.05924160690721188;-0.24794858676388876;-0.9649265868218698;0.993;0.01417368380857693
59:04.0;-0.05831357666572731;-0.2478752822888562;-0.9647650442254708;0.996;0.013945190810686516
59:04.1;-0.057150817459889675;-0.24789227330975072;-0.9645704678131239;1.001;0.013665307161302284
59:04.1;-0.05585033872165165;-0.24800992794879778;-0.9643420759521243;1.0;0.01335752494091807
59:04.1;-0.05452384176970015;-0.2482319159628863;-0.964081751819336;1.0;0.01304842010537307
59:04.1;-0.05328629162097198;-0.24855458064092822;-0.963797163900563;1.0;0.012765061527281858
59:04.1;-0.05224578662971575;-0.24896676148813351;-0.9635024779579827;0.996;0.012532724083651437
59:04.1;-0.0514953337438965;-0.24945011552328133;-0.9632164665442277;0.993;0.012373013448789157
59:04.1;-0.05110611714685472;-0.2499801916444141;-0.9629588597436013;0.992;0.012302297243062133
59:04.1;-0.0511217991842485;-0.2505283766501295;-0.9627466262395257;0.9940000000000001;0.012330340216057153
59:04.1;-0.051553953337649554;-0.25106442535782225;-0.9625918832837962;0.998;0.012459176810786765
59:04.1;-0.05237924698274986;-0.25155898412177463;-0.9625019612941051;0.998;0.012682378371975684
59:04.2;-0.053539297834619005;-0.25198553411201263;-0.9624806601034673;0.998;0.012984950322776669
59:04.2;-0.05494420708483812;-0.2523215163187251;-0.9625291886863779;0.995;0.013344125093342006
59:04.2;-0.05648010167291287;-0.2525488496987884;-0.962646021755033;0.995;0.013731168133881958
59:04.2;-0.05801951779541505;-0.2526542879962139;-0.962826126184111;0.995;0.014113952604625295
59:04.2;-0.05943256668378493;-0.2526299884142261;-0.9630606153184236;0.997;0.014459824138925301
59:04.2;-0.060597529964845236;-0.25247443295864996;-0.9633375136325945;1.0;0.014738415648393656
59:04.2;-0.06141062278910258;-0.25219356641608465;-0.9636434124592048;1.002;0.014924296272810098
59:04.2;-0.061794857000274865;-0.25180180975450733;-0.9639650293857953;1.0;0.014999350635703079
59:04.2;-0.06170754152689944;-0.2513225438993298;-0.9642895835868202;0.998;0.014954681452987485
59:04.2;-0.06114552700144789;-0.2507876017006552;-0.964603670486834;0.997;0.014791753638115093
59:04.3;-0.06014692545882202;-0.25023518468733486;-0.9648914717451579;0.995;0.014522462860129245
59:04.3;-0.05878809400501168;-0.24970579147825847;-0.9651337703756374;0.997;0.014167900791681698
59:04.3;-0.05717576917699036;-0.24923659274157128;-0.965308881263343;0.997;0.013755935259436755
59:04.3;-0.055435941052643996;-0.24885576064225087;-0.9653955998163214;0.997;0.013318166431202249
59:04.3;-0.0537017249487156;-0.24857851824505195;-0.9653774347121873;1.001;0.012886915294342051
59:04.3;-0.05210156801957341;-0.24840589198620952;-0.9652470550570486;1.002;0.012492552170736781
59:04.3;-0.05074815224883725;-0.24832612526137665;-0.9650096702903147;0.9990000000000001;0.012161140657592015
59:04.3;-0.049728483881380035;-0.24831806362460518;-0.9646840724457555;0.998;0.01191238277021178
59:04.3;-0.0490963040153916;-0.24835558696336962;-0.9643008816740941;0.996;0.011758049863995212
59:04.3;-0.04886824849289687;-0.2484121877648555;-0.963898747852315;0.997;0.011701218506364816
59:04.4;-0.04902486647053714;-0.24846492644470733;-0.9635197646515632;0.997;0.01173659555977351
59:04.4;-0.049516676865221404;-0.2484972140035375;-0.9632049055241856;0.995;0.011852001579084177
59:04.4;-0.05027403991836428;-0.24850022554591847;-0.9629896904502201;0.995;0.012030736380899645
59:04.4;-0.05121834595465353;-0.2484731119335649;-0.9629001885773488;0.995;0.012254235442293895
59:04.4;-0.052271873448857344;-0.24842231970120765;-0.9629496488967544;0.995;0.01250438272091918
59:04.4;-0.05336481379621906;-0.24836017936911728;-0.9631361289416814;0.993;0.012765112232987133
59:04.4;-0.05443925423681869;-0.2483027235897129;-0.9634415300497937;0.995;0.013023239083559632
59:04.4;-0.05545053131684804;-0.24826681903242975;-0.9638324821647102;0.995;0.013268625912032612
59:04.4;-0.05636658925545087;-0.24826712913901744;-0.9642633319677557;0.995;0.013493873387229367
59:04.4;-0.057166047488269624;-0.2483137143687427;-0.9646811708750703;0.998;0.01369375879638303
59:04.5;-0.05783556400664127;-0.24841095470080868;-0.9650325538623155;1.001;0.013864610803018769
59:04.5;-0.05836700865097484;-0.24855810206724516;-0.9652710426890675;1.003;0.014003759319341563
59:04.5;-0.05875506977720831;-0.24875122905169905;-0.9653640306723849;1.003;0.014109177418763004
59:04.5;-0.05899593254020326;-0.2489856615740594;-0.965297196831016;1.003;0.014179386914664385
59:04.5;-0.059087435160780626;-0.2492576367268737;-0.9650756225113132;1.0;0.014213628410660359
59:04.5;-0.05903072929768452;-0.24956436733033727;-0.9647215748711958;0.996;0.014212246029166174
59:04.5;-0.05883292880588553;-0.2499025262112335;-0.9642699192418704;0.996;0.014177176108796279
59:04.5;-0.058509640940025275;-0.2502656751722583;-0.9637628310851546;0.997;0.014112335567661316
59:04.5;-0.0580861130319846;-0.25064129284158254;-0.9632453380500601;0.997;0.014023675485539417
59:04.5;-0.05759628589315535;-0.25100816384378066;-0.9627621667449531;0.997;0.013918785473329486
59:04.6;-0.05707996721651983;-0.25133505451757426;-0.9623553049181317;0.996;0.013806138472914925
59:04.6;-0.056578969382191126;-0.25158154351375955;-0.9620614423393755;0.9940000000000001;0.013694198502630244
59:04.6;-0.05613311962645565;-0.2517014017822227;-0.9619090229890186;0.9940000000000001;0.013590605675706666
59:04.6;-0.05577680425509968;-0.2516482223440982;-0.9619154403429238;0.9940000000000001;0.01350157366990783
59:04.6;-0.0555364385033547;-0.2513825203796353;-0.9620852680685394;0.995;0.013431566486409904
59:04.6;-0.05542900547409823;-0.25087930164946864;-0.9624101585148549;0.997;0.013383266217738266
59:04.6;-0.055461576480269316;-0.2501348014854279;-0.9628705136444707;0.997;0.013357777869879683
59:04.6;-0.05563155114879852;-0.24917089269284098;-0.9634385256715646;1.0;0.013354956759996506
59:04.6;-0.055927340497375105;-0.24803597311788372;-0.9640817331865238;1.001;0.01337373440262793
59:04.6;-0.05632935040045871;-0.2468017710835204;-0.964765958843078;0.9990000000000001;0.01341235333922211
59:04.7;-0.05681114442488375;-0.2455561254396632;-0.965456710313517;0.995;0.01346843440610986
59:04.7;-0.057340517729398306;-0.24439255672113863;-0.966119021488848;0.995;0.01353880139575507
59:04.7;-0.057880284265673806;-0.24339839909871747;-0.96671679370795;0.995;0.013619075766835652
59:04.7;-0.05838906614637351;-0.24264388673362122;-0.9672131133845611;0.995;0.013703233541213979
59:04.7;-0.058822844574079734;-0.2421742561182518;-0.9675726141211431;0.998;0.013783438237743351
59:04.7;-0.05913794447521602;-0.24200585342445866;-0.9677661597905575;1.002;0.013850406745731177
59:04.7;-0.05929552364004778;-0.242126338986135;-0.9677770454241135;1.006;0.013894382838756813
59:04.7;-0.059267025201137684;-0.2424986057924581;-0.9676066429034313;1.006;0.013906608113910238
59:04.7;-0.059039731000443095;-0.24306745971045313;-0.9672768496538564;1.001;0.013881039369876258
59:04.7;-0.058621402060586816;-0.24376748296057746;-0.9668277110596729;0.998;0.013815959896692731
59:04.8;-0.058042895137182735;-0.24453044332830853;-0.966310770967236;0.9940000000000001;0.01371509506558266
59:04.8;-0.05735777434214516;-0.24529121282429664;-0.9657805929878261;0.996;0.01358791294434606
59:04.8;-0.05663848692427094;-0.2459918737097958;-0.9652872882640547;0.996;0.01344896893392748
59:04.8;-0.055969458411883895;-0.2465841184862119;-0.9648717932275902;0.996;0.013316368875195076
59:04.8;-0.05543792085501294;-0.24703027438346717;-0.964564124944502;0.998;0.013209555990823322
59:04.8;-0.05512326203216704;-0.2473035449012325;-0.9643838148245608;0.9990000000000001;0.013146651927268296
59:04.8;-0.05508586240200233;-0.24738829084497715;-0.9643412081273753;0.9990000000000001;0.013141653691748434
59:04.8;-0.05535708775886886;-0.2472809550183952;-0.9644382442071471;0.997;0.01320195741797713
59:04.8;-0.05593249992216412;-0.2469914845441069;-0.9646679750018695;0.995;0.013326744522446568
59:04.8;-0.05676980143148396;-0.24654443418533892;-0.9650132536893382;0.9940000000000001;0.013506594325021477
59:04.9;-0.05779206867592551;-0.24597889222552904;-0.9654459647298346;0.995;0.01372442168535528
59:04.9;-0.05889603405581436;-0.24534679717468427;-0.9659282298094579;1.001;0.01395761783303785
59:04.9;-0.059964296256247746;-0.24470969652630395;-0.9664160121706302;1.001;0.014181038516145737
59:04.9;-0.06087938453839645;-0.2441343463198698;-0.9668640129997115;1.001;0.014370256899314001
59:04.9;-0.061537485701502165;-0.24368761637595643;-0.9672300256541416;0.9990000000000001;0.014504507189537864
59:04.9;-0.061860427070721494;-0.24343094381993566;-0.9674776757719359;0.9990000000000001;0.014568996852360759
59:04.9;-0.06180488507860658;-0.24341443467637702;-0.9675778737098688;0.997;0.014556436171650398
59:04.9;-0.061367421979562735;-0.24367093379963706;-0.9675101111333169;1.0;0.014467620861928203
59:04.9;-0.06058414539555728;-0.24421081941586065;-0.96726444583637;1.002;0.014310971322052215
59:04.9;-0.0595250108398705;-0.2450186345437355;-0.9668438819882055;1.001;0.01410116362011517
59:05.0;-0.058283882795925626;-0.24605268991756063;-0.9662658547110651;0.998;0.013857127929449374
59:05.0;-0.05696580841518889;-0.24724829837677842;-0.9655617366682425;0.998;0.013599646616441797
59:05.0;-0.05567331244823135;-0.24852432085714812;-0.9647744758228315;0.998;0.013348785748909336
59:05.0;-0.05449416732893113;-0.2497916056284424;-0.9639552876133488;0.998;0.013121538241213803
59:05.0;-0.05349299717259373;-0.2509615799465418;-0.9631600639142346;0.998;0.012930122472271585
59:05.0;-0.05270784271684788;-0.251953975730233;-0.962445467690862;0.998;0.012781228193631018
59:05.0;-0.052151459809924076;-0.25270337270585264;-0.9618643693311731;0.996;0.012676266037441703
59:05.0;-0.05181625850383845;-0.25316421336178374;-0.9614605263166367;0.993;0.012612460647361757
59:05.0;-0.05168112133695896;-0.2533138387492339;-0.961263070433428;0.992;0.012584417048451072
59:05.0;-0.051717971368299705;-0.2531534474287185;-0.9612820787547283;0.993;0.012585665158251682
59:05.1;-0.051896347343731386;-0.2527072525239739;-0.9615066570472828;0.993;0.012609759198564994
59:05.1;-0.05218529231676448;-0.25202008352052035;-0.9619063221341896;0.997;0.012650743515444842
59:05.1;-0.05255309118019499;-0.2511535885950775;-0.9624353786982033;0.997;0.012703085857672691
59:05.1;-0.05296632408715752;-0.25018142502727636;-0.9630389796633356;0.997;0.012761412919296193
59:05.1;-0.05338987689230584;-0.24918398899402838;-0.9636592513887121;0.998;0.01282042871977138
59:05.1;-0.0537888389836945;-0.248242921804474;-0.9642404623046413;0.997;0.012875212222657
59:05.1;-0.05413207987603061;-0.24743530692856647;-0.9647330915647412;0.996;0.012921816204142112
59:05.1;-0.05439643858500255;-0.24682766853282465;-0.9650971777091041;0.998;0.012957921759482667
59:05.1;-0.05457029586096775;-0.24647033035540797;-0.9653053555844764;1.0;0.012983317308794847
59:05.1;-0.0546555962854695;-0.24639289958191915;-0.9653454970102241;1.002;0.01300006728966028
59:05.2;-0.054667663289173475;-0.24660151463511992;-0.9652221030373398;1.001;0.01301228326837124
59:05.2;-0.05463246323255441;-0.2470781807905485;-0.9649552915751053;0.9940000000000001;0.013025438994430151
59:05.2;-0.05458168419170198;-0.2477821514858625;-0.9645770295012963;0.9940000000000001;0.01304529388250167
59:05.2;-0.0545468127886104;-0.2486531107015437;-0.9641257778131312;0.9940000000000001;0.013076664184304861
59:05.2;-0.054553601377654665;-0.24961603942006955;-0.9636415293369631;0.995;0.01312234411342701
59:05.2;-0.054617907422440985;-0.2505878643129122;-0.9631625741722455;0.997;0.013182406222773875
59:05.2;-0.05474348843866027;-0.2514857974143401;-0.9627240402404155;0.9990000000000001;0.013254023883120844
59:05.2;-0.05492208668699316;-0.2522366049323054;-0.9623573064090833;0.9990000000000001;0.013331882870378299
59:05.2;-0.055135697799540945;-0.25278537391360434;-0.9620890730519019;0.998;0.013409114516324493
59:05.2;-0.05536040243134305;-0.2531021043202017;-0.9619392759236621;0.995;0.013478533790334675
59:05.3;-0.05557088656311228;-0.25318466619912844;-0.9619180294026157;0.992;0.013533894601590065
59:05.3;-0.05574471238602106;-0.253057328155773;-0.9620228423278007;0.995;0.013570879099923735
59:05.3;-0.05586549073518505;-0.2527652383845238;-0.9622376355779286;0.995;0.013587617245308747
59:05.3;-0.05592450408778764;-0.2523663955737353;-0.962534279810943;0.995;0.013584694370780262
59:05.3;-0.055920833130889386;-0.251922908084725;-0.9628763053489774;0.997;0.013564749987427148
59:05.3;-0.05586030756550444;-0.25149280408139535;-0.9632239860674869;0.998;0.013531818827713621
59:05.3;-0.05575367138787403;-0.2511232664956197;-0.9635398863477134;1.0;0.013490564419710057
59:05.3;-0.05561440502695431;-0.25084611878597846;-0.9637937826127584;0.998;0.01344555710604639
59:05.3;-0.05545670343867953;-0.25067607745043163;-0.96396597301641;0.998;0.013400735774572738
59:05.3;-0.055294064773832016;-0.25061162694485095;-0.9640486091454481;0.997;0.013359145047401374
59:05.4;-0.05513867513092623;-0.25063791680120806;-0.9640453862950996;0.998;0.0133229555653318
59:05.4;-0.05500137703012762;-0.25073106653048893;-0.9639701707257665;0.9990000000000001;0.013293682619951883
59:05.4;-0.05489179814989117;-0.2508632660207249;-0.9638448867259481;0.9990000000000001;0.013272467712348546
59:05.4;-0.0548183337086605;-0.2510077810399703;-0.963696622972973;0.9990000000000001;0.01326030006975335
59:05.4;-0.05478791421308365;-0.2511428327861042;-0.9635537877595874;0.997;0.013258106968347288
59:05.4;-0.054805612043272486;-0.2512536919938182;-0.9634413641701589;0.9940000000000001;0.013266695844460746
59:05.4;-0.05487415990625592;-0.2513329280638252;-0.9633759095705734;0.992;0.01328657542850431
59:05.4;-0.054993433108130256;-0.25137923848766386;-0.963361688575449;0.993;0.013317711722950201
59:05.4;-0.05515985235268856;-0.25139559617419965;-0.963389605793869;0.995;0.013359269682015661
59:05.4;-0.055365634037440964;-0.2513874722076063;-0.963439901365664;1.0;0.013409375043665071
59:05.5;-0.05559805305680771;-0.2513614984686851;-0.9634880833755841;1.002;0.013464948228589822
59:05.5;-0.05583927487163001;-0.25132440110217674;-0.9635121066343121;1.001;0.013521709527340811
59:05.5;-0.05606749181373518;-0.251281869931928;-0.9634982898389757;0.9990000000000001;0.013574480928562038
59:05.5;-0.05625967986411134;-0.25123735825083254;-0.9634442677096714;0.9990000000000001;0.013617835128084807
59:05.5;-0.05639533536547969;-0.25119120582081217;-0.9633587557702787;0.997;0.01364695197693035
59:05.5;-0.056459874227803866;-0.2511404865810524;-0.963258980226923;0.997;0.013658396129242743
59:05.5;-0.05644667314368674;-0.25107963103989334;-0.9631668768854693;0.997;0.013650588382284976
59:05.5;-0.05635762662398858;-0.25100155361301973;-0.9631049322275114;0.995;0.013623939678206439
59:05.5;-0.056202643231987696;-0.2508989297174452;-0.9630922920589424;0.995;0.013580740689147585
59:05.5;-0.055998305814165164;-0.25076533500115034;-0.9631417240055112;0.995;0.013524854012039352
59:05.6;-0.05576551829773774;-0.25059614670393693;-0.9632580324439064;0.996;0.013461168822584128
59:05.6;-0.055526105095343704;-0.250389319777554;-0.9634382539855174;0.9990000000000001;0.013394820476516493
59:05.6;-0.055298976969193184;-0.2501461204439209;-0.9636733556193103;0.9990000000000001;0.013330324455030974
59:05.6;-0.05509695424190868;-0.2498716448452963;-0.9639505565590158;0.9990000000000001;0.013270867889337208
59:05.6;-0.054925218959389274;-0.24957480437680626;-0.9642552654955896;0.998;0.013217963716014332
59:05.6;-0.05478183898039142;-0.24926756742201756;-0.964572072148966;0.997;0.01317155549211366
59:05.6;-0.054660258627929434;-0.24896351830391278;-0.9648848728777201;0.996;0.013130549241815151
59:05.6;-0.05455317095616687;-0.24867610536838336;-0.9651766949170842;0.997;0.013093654691394065
59:05.6;-0.05445673850212848;-0.24841713021537912;-0.9654299691058686;0.998;0.013060323781447941
59:05.6;-0.05437391411768979;-0.24819589117903768;-0.9656277753329194;0.998;0.013031515766808544
59:05.7;-0.05431577265537321;-0.24801899939692124;-0.9657560898800295;1.0;0.013010032106520712
59:05.7;-0.05430017447418927;-0.24789064440243766;-0.9658066151286002;1.002;0.013000245005283025
59:05.7;-0.05434781151541713;-0.24781318549471373;-0.9657794026344617;1.002;0.013007217721900985
59:05.7;-0.05447675818150179;-0.24778803553124132;-0.9656841778703704;1.002;0.013035470284906996
59:05.7;-0.05469730976419343;-0.24781666205888836;-0.9655393602872475;0.998;0.01308779404114418
59:05.7;-0.0550084795366116;-0.2479013288438965;-0.9653684900163566;0.997;0.013164416522348229
59:05.7;-0.055396623438662876;-0.2480451274120185;-0.9651948465342948;0.9940000000000001;0.013262609690312444
59:05.7;-0.055836145808703955;-0.24825109244691312;-0.9650358978677717;0.993;0.013376733342346596
59:05.7;-0.05629205360344706;-0.24852067819923368;-0.9648994449455307;0.997;0.01349869172289859
59:05.7;-0.05672386409752673;-0.2488520589280215;-0.9647827978706369;0.996;0.01361872961527865
59:05.8;-0.057090226662479635;-0.24923854117820107;-0.9646751765779588;0.9990000000000001;0.013726444900558
59:05.8;-0.05735382119131001;-0.24966735857969552;-0.9645623439679837;1.0;0.013811931883104672
59:05.8;-0.05748614971520894;-0.2501191944571416;-0.9644318940295123;1.0;0.013866977379240551
59:05.8;-0.057471474728269065;-0.25056860773687606;-0.9642777030190883;1.0;0.013886126776078046
59:05.8;-0.05730901307093991;-0.2509854177542845;-0.9641025213195653;0.998;0.013867387068204498
59:05.8;-0.05701297082170835;-0.2513372328662103;-0.963918301663406;1.0;0.01381245026528289
59:05.8;-0.05661065636536884;-0.25159327037806634;-0.9637443942380924;0.9990000000000001;0.013726476649850095
59:05.8;-0.05613924407809376;-0.2517291073338701;-0.9636040087069568;0.998;0.013617537951296037
59:05.8;-0.05564180943197136;-0.2517313375652361;-0.963519449829036;0.996;0.013495811812855413
59:05.8;-0.055163219435328766;-0.25160086056640085;-0.9635068832678134;0.993;0.013372621373120754
59:05.9;-0.0547462390943044;-0.25135380906818044;-0.9635719106491931;0.993;0.013259400603545074
59:05.9;-0.054427779243192864;-0.2510196606170505;-0.9637076005608033;0.998;0.013166599846934576
59:05.9;-0.054235102273477706;-0.25063683943335147;-0.9638959927811549;0.998;0.01310254149099441
59:05.9;-0.05418233368414734;-0.25024698543498947;-0.9641124734432552;0.998;0.01307236792778779
59:05.9;-0.054268145892323434;-0.2498893962887218;-0.9643312195077344;1.001;0.013077328662087282
59:05.9;-0.05447537708370223;-0.24959665962718658;-0.964530022473336;0.9990000000000001;0.013114591402358268
59:05.9;-0.05477294115641316;-0.24939183667435336;-0.9646934916243181;1.0;0.013177640159988995
59:05.9;-0.05511999230970286;-0.24928723902964683;-0.9648141627848408;1.0;0.013257232288372984
59:05.9;-0.05547170999166727;-0.2492846621710502;-0.964891433616038;0.997;0.013342756575619485
59:05.9;-0.05578545949784116;-0.24937673603511812;-0.964928689978068;0.9940000000000001;0.013423697918316064
59:06.0;-0.056026051638107956;-0.2495489570989355;-0.9649296756687814;0.993;0.013490916038631347
59:06.0;-0.056169288894133994;-0.24978198371557023;-0.9648958588396471;0.9990000000000001;0.013537562621297758
59:06.0;-0.05620347339627092;-0.250053803581833;-0.9648262874129068;0.9990000000000001;0.013559564728854544
59:06.0;-0.0561289912422452;-0.25034152264717213;-0.964719904008207;0.9990000000000001;0.013555681786987529
59:06.0;-0.055956440444851804;-0.25062282090599486;-0.9645788493711969;1.002;0.013527216118848606
59:06.0;-0.05570390529298348;-0.2508772852691871;-0.9644110736302776;1.001;0.013477494825476086
59:06.0;-0.0553940513477459;-0.2510877198948252;-0.9642310607576068;1.001;0.013411264240911836
59:06.0;-0.05505176392995271;-0.25124138723442546;-0.9640579457892368;0.997;0.013334156868567702
59:06.0;-0.05470277049669172;-0.25133107679208405;-0.9639110553508302;0.9940000000000001;0.013252337132734127
59:06.0;-0.05437304716709363;-0.251355794309613;-0.9638041082576426;0.991;0.013172291914553975
59:06.1;-0.05408825672588846;-0.25132076349438154;-0.9637403459312032;0.993;0.013100606297181534
59:06.1;-0.05387236413430613;-0.2512366091435591;-0.9637109005836807;0.997;0.013043547651563207
59:06.1;-0.053744957739972954;-0.2511179714500355;-0.9636974318832162;1.0;0.013006373514282873
59:06.1;-0.05371760598783084;-0.2509819659038487;-0.9636780616369919;1.0;0.012992452520298119
59:06.1;-0.05379052958042317;-0.25084671450829926;-0.9636341802295303;1.002;0.01300248715156313
59:06.1;-0.053951236573032545;-0.2507298727115535;-0.9635556016751932;0.9990000000000001;0.013034196499058901
59:06.1;-0.05417607143231595;-0.250646933378334;-0.9634425348858184;0.996;0.013082649929312457
59:06.1;-0.05443437947661265;-0.25060927892876317;-0.9633042721149019;0.995;0.013141166255100097
59:06.1;-0.05469404272906645;-0.2506223485573314;-0.9631558095794825;0.995;0.0132025058790562
59:06.1;-0.05492685566116626;-0.2506844764682402;-0.9630141236437992;0.996;0.0132600400562444
59:06.2;-0.055112494565756745;-0.2507868247896365;-0.9628952206542722;0.998;0.013308644273782927
59:06.2;-0.055240422461233944;-0.25091458095995556;-0.9628120279576586;0.995;0.013345178827666063
59:06.2;-0.055309697123035836;-0.25104922330412166;-0.9627727263143997;0.995;0.013368538814403268
59:06.2;-0.05532720907756511;-0.2511712370238029;-0.9627795077741538;0.995;0.013379365120871043
59:06.2;-0.05530518814588457;-0.2512625594800502;-0.96282826502056;0.996;0.013379580119977095
59:06.2;-0.0552586689441051;-0.2513083870999921;-0.9629096634569831;0.997;0.013371894687318298
59:06.2;-0.05520321018830891;-0.2512983906913132;-0.963011521043736;0.998;0.013359356025132028
59:06.2;-0.05515293544781905;-0.25122748358837044;-0.9631218912844468;1.0;0.013344952574713059
59:06.2;-0.05511903341553927;-0.2510961970358006;-0.9632318652677799;1.0;0.013331302083925125
59:06.2;-0.05510903516808409;-0.2509107120721257;-0.9633369558164697;0.998;0.01332049094595313
59:06.3;-0.055127125903839364;-0.25068255561437836;-0.9634363636609656;0.9940000000000001;0.013314120967274436
59:06.3;-0.05517535216800497;-0.2504277853684192;-0.9635305489353696;0.996;0.013313526752837824
59:06.3;-0.05525516534060497;-0.2501655163172708;-0.9636185391598362;0.996;0.013320038326681157
59:06.3;-0.055368547976642764;-0.24991598060867776;-0.9636963842502514;0.996;0.013335134225441176
59:06.3;-0.055518046863380924;-0.24969849322537213;-0.9637573578469867;0.996;0.013360349140249958
59:06.3;-0.0557054160680875;-0.24952956278309552;-0.9637937856839485;0.9990000000000001;0.013396876374403188
59:06.3;-0.05592914406611346;-0.24942127270791942;-0.9637999276557352;0.9990000000000001;0.013444930242979485
59:06.3;-0.05618164830704375;-0.2493800567756848;-0.9637749280173843;0.998;0.013503048279744478
59:06.3;-0.056447208882304166;-0.24940595984451555;-0.9637247458986653;1.0;0.013567577478965845
59:06.3;-0.05670172944523738;-0.24949245275708468;-0.9636623300967768;0.9990000000000001;0.01363259712774909
59:06.4;-0.056915089488306606;-0.249626901847215;-0.9636057017110978;0.997;0.013690464101150407
59:06.4;-0.05705613324448406;-0.24979171436288553;-0.9635740138728223;0.9940000000000001;0.013733000743986373
59:06.4;-0.05709937807908662;-0.24996600104027802;-0.9635824066677657;0.993;0.013753118415896734
59:06.4;-0.0570317096624796;-0.2501275629233695;-0.9636372869316133;0.993;0.013746481080141893
59:06.4;-0.056857057224613164;-0.25025508512314215;-0.9637338426981886;0.996;0.013712744968137482
59:06.4;-0.056597504895374996;-0.25033033411112615;-0.9638568944227905;0.998;0.013655994176978057
59:06.4;-0.05629037929247615;-0.25033998509277755;-0.9639848981472495;1.0;0.013584217524006813
59:06.4;-0.05598205290563463;-0.250276800170657;-0.9640957034980724;1.001;0.013507953644330578
59:06.4;-0.05571988572212513;-0.2501401918771593;-0.9641721549522942;1.0;0.013438422179644414
59:06.4;-0.05554379648049125;-0.24993631852693143;-0.9642059450467442;1.0;0.013385504190996949
59:06.5;-0.05547898597685737;-0.2496777102698967;-0.964198887815665;0.9990000000000001;0.013355953971481524
59:06.5;-0.05553154971376782;-0.2493823397805187;-0.9641615099940076;0.996;0.013352275323816812
59:06.5;-0.055688319952504325;-0.24907213035948408;-0.9641094688238733;0.996;0.013372592158492907
59:06.5;-0.055920844705287374;-0.2487710323776011;-0.9640588227452331;0.996;0.013411491074899022
59:06.5;-0.0561920794186197;-0.24850289105249632;-0.9640213595113132;0.993;0.01346149226090237
59:06.5;-0.056464082441390756;-0.2482892992666363;-0.9640010454782766;0.992;0.01351474273144152
59:06.5;-0.0567050598010047;-0.24814757511278826;-0.963992626631915;0.9940000000000001;0.013564555302832926
59:06.5;-0.05689396946753711;-0.24808906703967937;-0.9639833249958919;0.998;0.013606404656513573
59:06.5;-0.05702138963531291;-0.24811812033812608;-0.9639577167423862;1.002;0.0136381123496073
59:06.5;-0.05708689449415905;-0.24823199641501734;-0.9639043066097129;1.004;0.013659289161698725
59:06.6;-0.057094778281965346;-0.2484216100884127;-0.9638210793201509;1.002;0.01367043025030816
59:06.6;-0.05705048109834931;-0.24867246508092997;-0.9637174055037547;0.997;0.013672146817831531
59:06.6;-0.056959316514309036;-0.24896531196121105;-0.9636112840326126;0.992;0.013664869480967743
59:06.6;-0.05682763911510147;-0.24927675660448806;-0.9635232166700596;0.992;0.013649086397939858
59:06.6;-0.05666522749238349;-0.24958045280584143;-0.9634695906038574;0.9940000000000001;0.013625900610542325
59:06.6;-0.056487169851313794;-0.2498492679208745;-0.9634582858991757;0.995;0.013597554663319003
59:06.6;-0.05631402191723489;-0.2500583219823008;-0.9634877565338086;0.997;0.013567632086179148
59:06.6;-0.0561698003615919;-0.2501883820367274;-0.9635492840510402;1.001;0.013540788413392556
59:06.6;-0.05607804170549237;-0.2502288231834966;-0.9636310498237337;1.002;0.013522000821438568
59:06.6;-0.05605677954372043;-0.2501793905479538;-0.9637220765749579;1.0;0.013515480240549596
59:06.7;-0.05611382675182547;-0.2500503175662458;-0.9638142461053602;0.997;0.013523547747038038
59:06.7;-0.056243845590615967;-0.24986074655155927;-0.9639018048746649;0.993;0.013545836646478782
59:06.7;-0.05642813677293235;-0.24963574056732643;-0.9639793903403577;0.995;0.013579076124955694
59:06.7;-0.05663715368534963;-0.24940251209924466;-0.9640404502997375;0.995;0.013617503643237211
59:06.7;-0.05683503854272518;-0.2491867213876591;-0.9640774496031406;0.998;0.013653782468347905
59:06.7;-0.056985287454467126;-0.24900959997743558;-0.9640840008447078;1.001;0.01368023978503667
59:06.7;-0.05705670336678129;-0.2488862510562286;-0.9640578387973614;1.001;0.013690227701939468
59:06.7;-0.05702872101765993;-0.2488250348326113;-0.9640029036247497;0.9990000000000001;0.013679368450845037
59:06.7;-0.056895112243049016;-0.24882768189518478;-0.9639290858223102;0.996;0.013646420112934465
59:06.7;-0.05666533958841331;-0.24888977949094915;-0.9638494041699018;0.9940000000000001;0.013593576698616432
59:06.8;-0.056363336055147505;-0.24900149134621394;-0.9637757837029525;0.993;0.013526163988626907
59:06.8;-0.056023882873130454;-0.24914857364249485;-0.9637153256954849;0.992;0.013451799208526453
59:06.8;-0.05568698627081781;-0.24931378998441645;-0.9636687655521176;0.998;0.013379127685801545
59:06.8;-0.0553909995239014;-0.2494787645545427;-0.9636318228486567;0.998;0.013316310720848101
59:06.8;-0.055165723398511016;-0.2496262199103015;-0.9635987202248969;1.0;0.013269535856625122
59:06.8;-0.055026972013030445;-0.2497423897590218;-0.9635660850124469;1.002;0.013241871956032375
59:06.8;-0.05497392104925605;-0.24981912930018532;-0.9635353456308507;0.9990000000000001;0.013232748407462469
59:06.8;-0.05499007987706758;-0.24985507276354976;-0.9635124190154012;0.996;0.013238227450719297
59:06.8;-0.05504798376325359;-0.2498554128240979;-0.9635046729139347;0.993;0.013252078639878734
59:06.8;-0.05511675164096565;-0.24983037834914223;-0.9635165724624197;0.993;0.01326746799554802
59:06.9;-0.0551707225275163;-0.2497928766702486;-0.9635462974423796;0.9940000000000001;0.013278875772597131
59:06.9;-0.05519672887027326;-0.24975586055030846;-0.9635852352859674;0.998;0.013283703259267188
59:06.9;-0.05519767449201018;-0.2497298300660935;-0.9636208181801982;1.0;0.013283036825558439
59:06.9;-0.05519138889176609;-0.24972069344072134;-0.963641528550413;1.0;0.013281323749047872
59:06.9;-0.055205638622762246;-0.2497281464150908;-0.9636419251705706;1.001;0.013285154776471764
59:06.9;-0.05527129834903577;-0.24974472167884565;-0.9636256816353074;0.998;0.013301614298145982
59:06.9;-0.05541552619410472;-0.24975567236920151;-0.9636056126709306;0.997;0.013336631236630377
59:06.9;-0.05565619543039159;-0.24973992828255442;-0.9636008651246285;0.995;0.013393641777238167
59:06.9;-0.05599842611646394;-0.2496723673474503;-0.9636323872301912;0.993;0.013472794580471664
59:06.9;-0.0564335962947245;-0.24952744524622014;-0.9637182323735906;0.996;0.013570821013587454
59:07.0;-0.05694063757852042;-0.24928386477561995;-0.9638700809587609;0.9990000000000001;0.013681540318694264
59:07.0;-0.057489165287834335;-0.24892948783020785;-0.9640915304056413;0.998;0.01379687139454741
59:07.0;-0.058044062321939476;-0.24846531805551772;-0.9643776802300914;0.998;0.013908193575697208
