Time;AccX;AccY;AccZ;Acc-old;Acc-trns
55:22.2;0.03267243635554421;-0.245269232402043;-1.0003232492399317;1.031;0.008016133757437496
55:22.2;0.025945715388505743;-0.2390871647542715;-1.0007981060643538;1.031;0.006208238411155541
55:22.3;0.019480397296457248;-0.23319533957451002;-1.0007128587837102;1.061;0.004545976193181158
55:22.3;0.013557304730498666;-0.22787724018650724;-0.9995854981688933;1.075;0.0030881206239047484
55:22.3;0.008398431680350765;-0.22337208638096637;-0.9971089164256627;1.072;0.0018705516056618048
55:22.3;0.004143966682738833;-0.21985354136820393;-0.9931994077376597;1.052;0.0009048699638185659
55:22.3;0.0008397566275598788;-0.21741328689752848;-0.9880037989237928;1.024;0.0001803840511943325
55:22.3;-0.0015599990876643379;-0.21605402578384006;-0.9818633879347886;0.998;0.00033093124532477505
55:22.3;-0.0031737829886269732;-0.21569447128164243;-0.9752447525142864;0.975;0.0006676208072052447
55:22.3;-0.004161334003101958;-0.21618583413967302;-0.968654920830514;0.96;0.0008714227566267917
55:22.3;-0.004687653500018839;-0.21733649699011695;-0.9625597907424379;0.955;0.0009806541733428694
55:22.4;-0.004891922876185816;-0.2189398582636639;-0.9573212330598226;0.958;0.001025326366860434
55:22.4;-0.00486915878292873;-0.22080005062894417;-0.9531618747969726;0.9670000000000001;0.0010247543453137014
55:22.4;-0.004667954989796517;-0.22275114588827274;-0.950158996750827;0.976;0.000987968030386333
55:22.4;-0.004301842008559117;-0.2246671065117741;-0.9482622466362608;0.9840000000000001;0.0009164787688611679
55:22.4;-0.0037668135047072967;-0.22646177669434595;-0.9473256600200676;0.988;0.000808105997767037
55:22.4;-0.0030553106139216924;-0.22808036244179924;-0.947143661352311;0.977;0.0006600230768550953
55:22.4;-0.002158763790409317;-0.229485848170382;-0.9474834997482086;0.961;0.0004693887638014677
55:22.4;-0.0010574360011434607;-0.23064507097907877;-0.9481122501010035;0.973;0.00023123737360621605
55:22.4;0.0002944775053175365;-0.23151918290782794;-0.9488209448729937;1.021;6.468794717797528e-05
55:22.5;0.0019754297260891627;-0.23206199383145742;-0.9494458974816504;0.982;0.0004352470399908443
55:22.5;0.004086333277771107;-0.23222681548274637;-0.9498809416583641;0.982;0.0009013953747458764
55:22.5;0.006726636217167989;-0.23197780962772746;-0.9500752769812578;0.966;0.0014825262835152576
55:22.5;0.009967904368778015;-0.23129899913892418;-0.9500207862685223;0.9620000000000001;0.0021903359129306125
55:22.5;0.013834580160741324;-0.23019704173345207;-0.949738853151037;0.9690000000000001;0.00302461378629839
55:22.5;0.018294225676708683;-0.2286999027439105;-0.9492745396883816;0.982;0.003971658006960464
55:22.5;0.023254258366441214;-0.22685622376114936;-0.9486995522064507;0.99;0.005004744229918823
55:22.5;0.028562099039867096;-0.224737546872401;-0.9481193566119928;0.992;0.0060859554632518706
55:22.5;0.03400876332464946;-0.2224410351382322;-0.9476770206158506;0.985;0.007169124081663999
55:22.5;0.039338503884037465;-0.2200879766260422;-0.9475479152220782;0.978;0.00820380515457976
55:22.5;0.04426691533356365;-0.21781447350860167;-0.9479236758694508;0.9690000000000001;0.009139856249306298
55:22.6;0.048507415472075925;-0.21575398050461433;-0.9489881687230145;0.961;0.009931795083298214
55:22.6;0.05180295770649712;-0.2140150824283505;-0.9508909502011492;0.961;0.010542161171617126
55:22.6;0.0539577658500484;-0.21266074069698848;-0.9537243536185757;0.965;0.01094369936412653
55:22.6;0.05486354135658727;-0.21169559315095018;-0.9575089709193241;0.977;0.01112086339940168
55:22.6;0.054515372857839986;-0.21106532608244222;-0.9621894402140181;0.986;0.011071245117565619
55:22.6;0.05301379449921135;-0.21066830060272623;-0.9676392963512326;0.992;0.010806911107852922
55:22.6;0.050551726354513264;-0.2103762407627225;-0.9736717685539015;0.9990000000000001;0.01035488451576194
55:22.6;0.047388513105447214;-0.2100586481510451;-0.9800535984765242;1.003;0.009755813199707966
55:22.6;0.043816283864629116;-0.20960514505226038;-0.9865204262058441;1.01;0.009060320531568493
55:22.7;0.040125049862494086;-0.2089412677708518;-0.9927934453132408;1.024;0.008323360627323351
55:22.7;0.03657257287660792;-0.2080359194026957;-0.9985966946788939;1.024;0.007597731902720323
55:22.7;0.033363565655018475;-0.20690159484984014;-1.0036731511622203;1.024;0.006928330614338641
55:22.7;0.03064027472885153;-0.2055898568825247;-1.0077979563981048;1.028;0.0063484515946552154
55:22.7;0.02848344088633534;-0.2041839039878414;-1.0107891286428696;1.033;0.005878608222605172
55:22.7;0.02692034526693356;-0.20278898442016946;-1.0125173734865425;1.0390000000000001;0.0055274836898432655
55:22.7;0.02593617889434663;-0.20152104996412532;-1.0129154255062418;1.043;0.005294190876560395
55:22.7;0.02548590055370395;-0.2004942009029019;-1.0119851423852675;1.04;0.005171016649923098
55:22.7;0.02550474221855502;-0.19980804523622145;-1.0097994067747953;1.036;0.005145990980168353
55:22.7;0.02591631977188884;-0.19953693245548887;-1.006496477216158;1.03;0.005204857939737497
55:22.7;0.02663862008319936;-0.19972314462793914;-1.0022662339034996;1.02;0.0053324061267833595
55:22.8;0.027589358009017014;-0.20037500101850106;-0.9973300492234588;1.003;0.00551345757017802
55:22.8;0.02869165789613172;-0.20146936564873935;-0.9919184267572264;1.003;0.005733774661494785
55:22.8;0.02987894421362307;-0.20295733193474588;-0.9862520069342819;1.004;0.0059807808954951
55:22.8;0.03109664519532774;-0.20477176902936073;-0.9805301372527101;1.003;0.006243736509536454
55:22.8;0.03229901043880151;-0.20683525830196456;-0.9749272613803001;1.0;0.0065130738770884655
55:22.8;0.03344115815411008;-0.2090669534473963;-0.969594031028804;0.996;0.006778859515249089
55:22.8;0.03446860385079014;-0.21138770893545838;-0.9646593863999179;0.9890000000000001;0.007028739034120295
55:22.8;0.03530854337844839;-0.21372400160635388;-0.9602312320744179;0.98;0.007246176797178435
55:22.8;0.035867884770905176;-0.2160117516657512;-0.9563954063592841;0.975;0.007410041257569493
55:22.9;0.0360412372865214;-0.21820083310919675;-0.9532144335324498;0.978;0.007496295640292074
55:22.9;0.03572796387770705;-0.22025996575809428;-0.9507280907429173;0.978;0.007481697761783653
55:22.9;0.03485311827585;-0.22218036399628954;-0.9489567290932576;0.978;0.007348415825192014
55:22.9;0.03338553405045871;-0.2239762264308997;-0.9479064864467549;0.983;0.007088033251673832
55:22.9;0.03134808615404365;-0.22568126719287365;-0.94757425943487;0.98;0.0067037806888592
55:22.9;0.02881797227812536;-0.22734178686419115;-0.9479500349355617;0.977;0.006210522439728915
55:22.9;0.025917269380233348;-0.2290074428605418;-0.9490150917925172;0.972;0.005632639533298726
55:22.9;0.022796199567262143;-0.23072130160371096;-0.9507366290117394;0.97;0.0050004647449815144
55:22.9;0.019613252910169406;-0.23251101218541173;-0.9530615686281387;0.973;0.004346244085179366
55:22.9;0.01651689247549318;-0.2343825469728822;-0.9559132038043514;0.978;0.0037005993764945965
55:22.9;0.013632798258760044;-0.23631702914313857;-0.9591934325222162;0.987;0.003090197399978345
55:23.0;0.011058548559289361;-0.23827042282302233;-0.962790957965556;1.003;0.002536882004421476
55:23.0;0.00886489898976111;-0.24017559438079059;-0.9665929281061753;1.003;0.0020580043053680685
55:23.0;0.007100756278927377;-0.2419462826111076;-0.9704954795786787;1.005;0.0016673127725532512
55:23.0;0.00579857441823717;-0.2434828016759413;-0.9744092069124846;1.003;0.0013757227033731573
55:23.0;0.004978121221134574;-0.24467967979620028;-0.9782585374214312;1.005;0.0011915630242746405
55:23.0;0.004648484234427409;-0.2454353541565046;-0.9819770397348553;1.008;0.0011203399362079826
55:23.0;0.004809557334927486;-0.2456633440989553;-0.9855019936516908;1.013;0.00116440208098835
55:23.0;0.005454175334169963;-0.24530347961197427;-0.9887710487061251;1.021;0.0013229046574292237
55:23.0;0.006570863814852697;-0.2443311699355903;-0.9917221701579161;1.026;0.0015921770620238678
55:23.0;0.008145941254812439;-0.24276270448608347;-0.9942960610450964;1.0290000000000001;0.0019662510150399264
55:23.1;0.010163280036023235;-0.24065557343556435;-0.99643888605854;1.025;0.002437140034574894
55:23.1;0.012600712988343839;-0.23810440084924428;-0.9981033722215912;1.025;0.0029945947920783974
55:23.1;0.015423574651075732;-0.23523401106346484;-0.9992480520756849;1.025;0.0036254211507514436
55:23.1;0.01857736583066456;-0.2321906007814512;-0.9998361311208019;1.02;0.004312782886430802
55:23.1;0.021982292128591235;-0.22913090023488464;-0.9998361189266795;1.021;0.0050359969447918065
55:23.1;0.025532138821548055;-0.22620923157304332;-0.9992259841086342;1.0270000000000001;0.005771135092796887
55:23.1;0.02909858712320485;-0.22356357883051506;-0.9980012148091657;1.0290000000000001;0.006492381410423313
55:23.1;0.03254010150626667;-0.22130271253550632;-0.9961848909292137;1.0290000000000001;0.007173739317512484
55:23.1;0.035712896011460514;-0.21949636564782074;-0.9938359613183873;1.028;0.007790531901222568
55:23.1;0.03848113153582551;-0.218169972864711;-0.9910516975917936;1.023;0.008320302599547502
55:23.2;0.04072463092627098;-0.21730488240902035;-0.987961824239543;1.005;0.008743127358425461
55:23.2;0.042344263919221865;-0.21684406582940746;-0.9847146923317548;1.005;0.00904175109329372
55:23.2;0.04326644579698529;-0.21670236732964215;-0.9814590624518313;0.9990000000000001;0.009202102489342915
55:23.2;0.04344824756560649;-0.21677965115891784;-0.9783264561478601;0.997;0.009214559431020173
55:23.2;0.042883657322966874;-0.21697481974800437;-0.9754178821869115;0.9940000000000001;0.009075945229784752
55:23.2;0.04160990409809168;-0.2171985760583045;-0.9727968602870083;0.992;0.008791760500295797
55:23.2;0.039711151366241454;-0.21738324489691985;-0.9704894255272135;0.995;0.008377787759231895
55:23.2;0.03731666656157095;-0.21748856902836433;-0.9684907645615293;0.998;0.007860221082083875
55:23.2;0.03459233782606334;-0.21750255092234272;-0.9667767405688065;0.997;0.00727395251630808
55:23.2;0.03172679431828897;-0.21743686491390882;-0.9653171848933302;0.996;0.006659312699852652
55:23.3;0.028914806643907606;-0.21731805705903603;-0.9640873416677247;0.995;0.006058044884164376
55:23.3;0.026341116754178943;-0.21717755339896758;-0.9630744658792408;0.995;0.005509459413624317
55:23.3;0.02416789815696563;-0.21704358576291116;-0.9622776880833984;0.99;0.005047615369147985
55:23.3;0.02252816308705076;-0.2169366580706915;-0.9617006197106502;0.981;0.004700008278214862
55:23.3;0.021525274326668356;-0.21686857379163849;-0.9613381678153006;0.977;0.004487676097455798
55:23.3;0.02123632463472175;-0.21684409945686964;-0.9611613483295389;0.976;0.004426120799723513
55:23.3;0.021715832784354572;-0.21686402883443362;-0.9611050806431098;0.975;0.004526211915605654
55:23.3;0.02299654463104933;-0.21692849391353097;-0.9610631352964346;0.978;0.00479436512324518
55:23.3;0.025085810045715272;-0.21703950465888705;-0.9608923580374052;0.981;0.005231685857925463
55:23.3;0.027958028513062862;-0.2172018700019211;-0.9604261442029265;0.9840000000000001;0.0058322224076653665
55:23.4;0.03154514028452918;-0.21742220381079538;-0.959495247052714;0.993;0.006580807457785205
55:23.4;0.03572782103569347;-0.21770658925650208;-0.9579522785046145;0.993;0.007451127226279888
55:23.4;0.04033005501782571;-0.2180580331540588;-0.9556949663901058;0.992;0.008404661050538179
55:23.4;0.04511951436856053;-0.21847466318769887;-0.9526832369986904;0.9890000000000001;0.009391047099729408
55:23.4;0.049815879644972465;-0.21894884677470514;-0.9489468479671561;0.98;0.010350286063868118
55:23.4;0.05410849853096354;-0.21946655894219688;-0.9445828563929795;0.966;0.01121692707027414
55:23.4;0.05768313458851269;-0.22000616712383425;-0.9397450477623697;0.956;0.011925971119167954
55:23.4;0.06025531144598366;-0.22053667486765388;-0.9346301311074616;0.951;0.012419838132491746
55:23.4;0.061605880303139245;-0.2210164833114081;-0.929466666382222;0.9520000000000001;0.012655539139575353
55:23.4;0.061613467838786656;-0.22139387069742048;-0.9245109814705802;0.96;0.012611110196488572
55:23.5;0.06027795551054711;-0.2216101207143611;-0.9200499772765546;0.97;0.012290216204044068
55:23.5;0.05772897394327897;-0.22160650357520212;-0.9164053726400154;0.97;0.01172368029986301
55:23.5;0.05421462253859839;-0.22133658456420946;-0.9139301802380523;0.965;0.01096686914416571
55:23.5;0.050069318955111894;-0.22078370485213866;-0.9129887451188997;0.9490000000000001;0.010092624714130416
55:23.5;0.04566566257130951;-0.2199793367343582;-0.9139173062111317;0.929;0.009180758277235085
55:23.5;0.04136113436214418;-0.2190145487058718;-0.9169703471842361;0.917;0.008306550275985177
55:23.5;0.037452592932464335;-0.21803831735599827;-0.9222648644325584;0.915;0.007531307426345535
55:23.5;0.03414825604268066;-0.21724228939475967;-0.9297369015767933;0.9229999999999999;0.006897202367775111
55:23.5;0.03156034736514747;-0.21683679636179315;-0.9391217875234362;0.9390000000000001;0.006426827939397178
55:23.5;0.029715121113199575;-0.2170243328826113;-0.9499635013599798;0.9620000000000001;0.00612622374307434
55:23.6;0.028572924351710445;-0.21797515279349564;-0.9616521635235066;0.982;0.005989350033558084
55:23.6;0.028050559697317814;-0.2198071533699494;-0.9734836732691684;1.003;0.006002221599099878
55:23.6;0.028040822112740726;-0.22257053598020254;-0.984732688562298;1.024;0.006145776587916752
55:23.6;0.028427365007327014;-0.22623775349679862;-0.994729131699677;1.043;0.006397444434105122
55:23.6;0.029095110357454535;-0.23070018950322466;-1.0029283434243668;1.06;0.006731903238832517
55:23.6;0.029936990855665768;-0.23577326624025535;-1.0089654865750217;1.0659999999999998;0.0071216235869229075
55:23.6;0.030857549709619313;-0.24121068456838468;-1.0126863421083157;1.063;0.007537597299298583
55:23.6;0.03177370812970383;-0.24672670522034024;-1.014150197399845;1.054;0.007950351692795881
55:23.6;0.03261344732057775;-0.25202337914234385;-1.0136060109472713;1.048;0.008331183781608782
55:23.6;0.03331385593501424;-0.25681819002043416;-1.011448352632764;1.042;0.008653551757514715
55:23.7;0.03382001354936481;-0.260867563396594;-1.008162135260439;1.037;0.008894555330446783
55:23.7;0.0340852896804447;-0.26398341201424225;-1.0042643217775713;1.0290000000000001;0.00903632122803613
55:23.7;0.03407250887691227;-0.2660425180882129;-1.0002485199522326;1.021;0.009066988826969161
55:23.7;0.03375492687977633;-0.26699057178689534;-0.9965367873085319;1.016;0.008981035899276782
55:23.7;0.0331166422150898;-0.26684292680901867;-0.9934424453817484;1.012;0.008778993006677659
55:23.7;0.032153562522796234;-0.2656826284978216;-0.9911472942221972;1.012;0.00846701750152309
55:23.7;0.030876866129409136;-0.2636543156437372;-0.9896955669247182;1.014;0.008056932483920837
55:23.7;0.029319795460772156;-0.2609519984285957;-0.9890051548575741;1.018;0.00756693700771766
55:23.7;0.027546077068007338;-0.2578002316100333;-0.9888943413314897;1.021;0.007022519489662478
55:23.8;0.02565622671211739;-0.25443077107939055;-0.9891199782329999;1.035;0.006456711662289082
55:23.8;0.023788021536028315;-0.2510587006409997;-0.9894209576147436;1.035;0.0059090097288647765
55:23.8;0.02210910781629336;-0.24786226172574563;-0.9895593338328756;1.037;0.005422798476873214
55:23.8;0.020801563922266852;-0.2449692818332032;-0.9893517145472045;1.034;0.005041483236474879
55:23.8;0.020039828151543423;-0.24245111068433642;-0.9886860618269915;1.0270000000000001;0.004803707804058216
55:23.8;0.019965196457760157;-0.2403233298748853;-0.987522660263441;1.0170000000000001;0.0047382349394225354
55:23.8;0.020661647829603325;-0.23855159870928702;-0.9858816097208342;1.005;0.004859281423824769
55:23.8;0.022137918576314655;-0.2370611152802749;-0.9838222628427936;1.0;0.005163138261350666
55:23.8;0.024319346500326643;-0.23574911323288172;-0.9814215889936991;1.0;0.005626749429947084
55:23.8;0.02705106192514625;-0.23450019165296068;-0.9787576459740197;1.002;0.006208728774815519
55:23.8;0.030112445633760736;-0.23320324453792224;-0.9759015172361326;1.002;0.006853092764733835
55:23.9;0.03324137534312238;-0.2317674276571798;-0.9729176673503964;1.006;0.007495618504773365
55:23.9;0.03616544333957847;-0.2301343043275557;-0.9698700781986729;1.008;0.008072140541993752
55:23.9;0.038635894345333724;-0.22828417755921085;-0.9668301147321908;1.003;0.008527406192009424
55:23.9;0.040458451869938905;-0.22623620410579326;-0.9638818137615615;0.996;0.008822570800022736
55:23.9;0.04151453806585171;-0.22404348285744238;-0.9611215875823462;0.99;0.008939451184894177
55:23.9;0.041768388579629875;-0.22178494015067657;-0.958651955237049;0.981;0.008880567831995761
55:23.9;0.04126007877431014;-0.21955534406491525;-0.9565714461686784;0.976;0.008665457133622167
55:23.9;0.040088925533551416;-0.21745430544911198;-0.9549639936944946;0.977;0.008324907647176319
55:23.9;0.038393626089905375;-0.21557552653721337;-0.9538905263811829;0.981;0.007895090673479354
55:23.9;0.036334327542338694;-0.21399815928207785;-0.9533833852288137;0.98;0.007413012693687534
55:24.0;0.0340787659328489;-0.21278183511332957;-0.9534420508672875;0.976;0.006913734725146918
55:24.0;0.03179170169107939;-0.2119657370638332;-0.9540283305912863;0.972;0.006428959826129851
55:24.0;0.02962580648658953;-0.2115707654994742;-0.9550610598589622;0.966;0.005986279322267444
55:24.0;0.027712903440245924;-0.21160303035936034;-0.9564130154762374;0.9670000000000001;0.005608534414940299
55:24.0;0.026155605701817717;-0.21205705677509504;-0.9579141542173146;0.975;0.005313052429256595
55:24.0;0.025020010262223627;-0.21291810503311293;-0.9593642872173225;0.985;0.0051107380685139385
55:24.0;0.0243303375398459;-0.21416383899171487;-0.9605549930472189;0.995;0.005005143242171803
55:24.0;0.02406650246122453;-0.21576553823329;-0.9612966607046343;0.997;0.004991746181043342
55:24.0;0.024165539832805585;-0.21768871265592185;-0.9614443500108114;0.998;0.005057740744050884
55:24.1;0.024527545672618358;-0.2198930777615931;-0.9609167770767114;0.992;0.005182644587446401
55:24.1;0.025026263374155013;-0.2223322671918763;-0.9597054212852362;0.992;0.0053399409613635145
55:24.1;0.02552374118462067;-0.22495388469842378;-0.9578737010595434;0.987;0.005499789646621783
55:24.1;0.02588778678505214;-0.2277003194815053;-0.9555479835919697;0.982;0.005632627917644853
55:24.1;0.02601003265179253;-0.2305102554822054;-0.9529029608142243;0.977;0.005713205239766161
55:24.1;0.025821355633671324;-0.23332025953358496;-0.9501444487955696;0.9740000000000001;0.0057242833808307985
55:24.1;0.02530113484378478;-0.2360656566488621;-0.9474928520274213;0.9740000000000001;0.005659118044886147
55:24.1;0.024478242232835516;-0.23868029465589943;-0.9451696826376464;0.975;0.005522129361418495
55:24.1;0.023424364885085126;-0.24109552547711355;-0.9433877481957047;0.977;0.005327791327606301
55:24.1;0.022242769132378055;-0.24323940577088948;-0.9423437264559624;0.98;0.005098379174977481
55:24.2;0.02105627375879814;-0.24503741192309253;-0.9422106082124362;0.973;0.004861406135488384
55:24.2;0.019996569205420922;-0.24641565019622455;-0.943127676715305;0.973;0.004647231071986337
55:24.2;0.01919458512344754;-0.24730674625871213;-0.9451875400486389;0.972;0.004486758364376606
55:24.2;0.018770426618003502;-0.24765774469227378;-0.9484220478512952;0.9740000000000001;0.004408874113090267
55:24.2;0.01882198477124719;-0.24743869349797887;-0.9527901228655561;0.978;0.004437417358639777
55:24.2;0.019412541929795465;-0.24665020222250394;-0.9581703838091374;0.98;0.004587822698122256
55:24.2;0.020558672613773598;-0.2453282390506754;-0.9643607846303162;0.985;0.004863872185013701
55:24.2;0.022220684742623734;-0.2435446997993444;-0.9710870970409091;0.9890000000000001;0.005255261170792565
55:24.2;0.024298687040110994;-0.24140285325029293;-0.9780218424355676;1.001;0.005736853512076198
55:24.2;0.026637272553946892;-0.23902783316802584;-0.9848143085963622;1.018;0.006270361490608783
55:24.3;0.029040185865318712;-0.2365536403393054;-0.9911295220011475;1.046;0.006808625386804175
55:24.3;0.031293343393641204;-0.2341091294975122;-0.9966895526827466;1.046;0.00730180485394925
55:24.3;0.03319152654331058;-0.2318058268216615;-1.001306955779249;1.045;0.0077040449575660275
55:24.3;0.0345631882228015;-0.2297296884960813;-1.0049014026095826;1.04;0.00797910853411574
55:24.3;0.035289610046163704;-0.22793731821272334;-1.007496660427452;1.034;0.008104120854838187
55:24.3;0.035317123302732394;-0.22645605429772592;-1.0092013563089004;1.035;0.008071366782547357
55:24.3;0.03466253947443541;-0.2252872767773553;-1.010179728495277;1.032;0.007888522920681065
55:24.3;0.03341215307222198;-0.22441243932671862;-1.0106181897201225;1.0270000000000001;0.007577719051891368
55:24.3;0.03171421506169648;-0.22380121576488488;-1.0106922108311565;1.025;0.007173569777609504
55:24.3;0.029764547865833355;-0.22342093082513034;-1.010537347630187;1.023;0.006720096593765615
55:24.4;0.027785821611096398;-0.22324594390385233;-1.0102280755198652;1.024;0.006266517461305345
55:24.4;0.026002772473483614;-0.22326494028479998;-1.009767446994466;1.024;0.005862212429762232
55:24.4;0.02461705100846634;-0.22348407001112883;-1.009089064408515;1.0290000000000001;0.00555152240931651
55:24.4;0.02378534469872893;-0.22392507081884566;-1.0080708372350389;1.034;0.005369121364759008
55:24.4;0.02360336844280107;-0.22461933002388898;-1.006557895349737;1.033;0.005336541277158343
55:24.4;0.02409740648457841;-0.22560030061964714;-1.0043905064994356;1.035;0.005460250618224871
55:24.4;0.02522435712671102;-0.22689683907239894;-1.00143266830474;1.035;0.005731526528730913
55:24.4;0.026880147870298333;-0.22852856920279413;-0.9975979151798744;1.036;0.006128126009796725
55:24.4;0.028915189410054838;-0.2305023898790176;-0.992869610214057;1.032;0.006617496070416971
55:24.4;0.031154616005471578;-0.23280846703597485;-0.987313256051301;1.023;0.007161040698647167
55:24.4;0.03342036070325913;-0.2354152161250079;-0.981078929221076;1.016;0.007718796859001717
55:24.5;0.0355518310074595;-0.23826475563259317;-0.974393404770921;0.9990000000000001;0.008253841303579436
55:24.5;0.03742248591201799;-0.24127102626099042;-0.9675436524876232;0.9990000000000001;0.008735914466473736
55:24.5;0.03895069616486172;-0.24432171287891577;-0.9608549991657526;0.993;0.00914397737288123
55:24.5;0.0401041690177872;-0.24728389445824556;-0.9546670137770172;0.986;0.009467542656587663
55:24.5;0.04089776155172192;-0.2500130285690343;-0.9493085511859501;0.982;0.009706654520266528
55:24.5;0.0413852860766238;-0.25236474903388867;-0.9450723636893924;0.977;0.009870512810957818
55:24.5;0.041647272014084316;-0.2542084787779843;-0.9421898873542964;0.97;0.009975048817889989
55:24.5;0.04177775038464196;-0.2554413407798643;-0.9408076524668407;0.9620000000000001;0.01004007777562121
55:24.5;0.04187288521175139;-0.25600032135851974;-0.9409682182023895;0.96;0.010086682534170343
55:24.6;0.04202279595867394;-0.25587006852228417;-0.9425999147685178;0.975;0.010135188400888073
55:24.6;0.04230611111576707;-0.2550840201307333;-0.9455188890160142;0.975;0.010203673839433092
55:24.6;0.04278550616199528;-0.2537184206629808;-0.9494436407536059;0.975;0.010306657956460278
55:24.6;0.04350233650902366;-0.25188076097957157;-0.9540196309501149;0.9840000000000001;0.01045357625376997
55:24.6;0.04446954574002582;-0.24969480718593004;-0.9588516348776723;0.9940000000000001;0.010646910829765642
55:24.6;0.04566366342314111;-0.2472845957314569;-0.9635417335771903;1.005;0.010880236701400512
55:24.6;0.04701818787401678;-0.24476025426135878;-0.9677290814897169;1.014;0.011136803963184087
55:24.6;0.048421474757803125;-0.24220806167995515;-0.9711256033869784;1.02;0.011389430555482721
55:24.6;0.04972191318336342;-0.23968555116126325;-0.9735414998212172;1.021;0.011602301705016277
55:24.6;0.050741468962118993;-0.23722123815939944;-0.974895832586385;1.015;0.011734776382514397
55:24.6;0.05129616945328056;-0.2348185064268123;-0.9752101599712051;1.005;0.011746689086802905
55:24.7;0.05121989800028738;-0.23246335170016755;-0.9745871423086296;0.99;0.01160416464084421
55:24.7;0.05038708893001402;-0.23013483916354224;-0.9731804079805922;0.99;0.011284829321744141
55:24.7;0.04873081537928601;-0.22781555435934825;-0.9711645625938556;0.991;0.01078151714043391
55:24.7;0.04625398579736807;-0.22549902273302988;-0.9687128736477387;0.992;0.010103896714885032
55:24.7;0.043031780368353444;-0.22319302794383417;-0.9659855051098718;0.993;0.009277704769420657
55:24.7;0.03920431966817198;-0.2209197176317241;-0.9631266626690572;0.99;0.008341646989780661
55:24.7;0.034961065316713946;-0.21871322465769902;-0.9602670779310782;0.9890000000000001;0.007342631636905235
55:24.7;0.030520777935002442;-0.21661484250791282;-0.9575283333020995;0.988;0.0063304625502639605
55:24.7;0.026110787921445767;-0.2146666876557218;-0.9550260812112003;0.982;0.005353032307418252
55:24.7;0.021947689422425625;-0.21290613301743214;-0.9528698980311424;0.977;0.0044525682522885066
55:24.8;0.018220538891055783;-0.21136288568467174;-0.951158987640341;0.9670000000000001;0.003663051825048988
55:24.8;0.015077662577308514;-0.21005871014770855;-0.9499752353399538;0.9670000000000001;0.0030087562008887583
55:24.8;0.012618075037439303;-0.2090087195453664;-0.949376795961507;0.971;0.0025037797530179278
55:24.8;0.010887737234143604;-0.20822352917075707;-0.9493949370272791;0.9740000000000001;0.0021523571899756825
55:24.8;0.00988026846745742;-0.2077118978441729;-0.9500345473045954;0.9740000000000001;0.001949707748538419
55:24.8;0.00954185641424687;-0.20748312059060603;-0.9512766880241736;0.975;0.0018833129917442204
55:24.8;0.009780223373150166;-0.20754819697685856;-0.953081330702082;0.977;0.0019346290345206001
55:24.8;0.010476796987332894;-0.20791913916707588;-0.9553893826719518;0.977;0.0020811501159830287
55:24.8;0.011500239362291447;-0.20860643355604624;-0.9581239782256833;0.978;0.0022985623405640983
55:24.8;0.012719341177870328;-0.20961528287251302;-0.9611915354141055;0.98;0.002562698400941406
55:24.9;0.01401411941143726;-0.2109416580001751;-0.9644834000052409;0.9890000000000001;0.0028511687755600453
55:24.9;0.01528474509496249;-0.2125694254116777;-0.9678786850365448;0.9890000000000001;0.0031447050982178104
55:24.9;0.01645792808169574;-0.21446992897221306;-0.9712481345580829;0.9940000000000001;0.003428244325535591
55:24.9;0.017490129746086384;-0.21660511708550767;-0.9744584104714656;0.997;0.0036916885257377405
55:24.9;0.018367238015463177;-0.21893424421560814;-0.9773765679644862;1.004;0.003930243635300013
55:24.9;0.019100925583948148;-0.22142258213807492;-0.9798748031814649;1.0070000000000001;0.0041442592342918715
55:24.9;0.0197223439138825;-0.2240494225222211;-0.9818352700106493;1.0090000000000001;0.004338513823382016
55:24.9;0.020274141559331334;-0.2268127265223174;-0.9831545190026189;1.008;0.004520970503777838
55:24.9;0.0208021384776842;-0.2297290529440043;-0.983747578684764;1.006;0.0047011875975326795
55:25.0;0.021348120008801114;-0.23282912837299646;-0.9835525720421355;1.01;0.004888712822631434
55:25.0;0.021944862322284535;-0.236150394683342;-0.9825371217388575;1.01;0.0050917902359902695
55:25.0;0.022613748279993736;-0.23972757630376465;-0.9807071291633422;1.01;0.005316549730512518
55:25.0;0.023364760400081303;-0.24358193167164818;-0.9781171864563392;1.0190000000000001;0.0055666932704112005
55:25.0;0.024198522847322615;-0.24771048491622963;-0.9748803233342493;1.02;0.005843654763847282
55:25.0;0.02510978171290686;-0.2520774767628957;-0.9711731045129404;1.0170000000000001;0.006147147398313428
55:25.0;0.026090857607236416;-0.2566104252390364;-0.9672312744211153;1.0090000000000001;0.006475793350565974
55:25.0;0.027133068066882336;-0.26120228741907886;-0.9633327329475805;0.997;0.006827350475763517
55:25.0;0.02822506160075079;-0.26571943859548836;-0.9597685975907437;0.983;0.007198214116033504
55:25.0;0.02934909504721247;-0.27001329140645;-0.9568077622290272;0.975;0.007582362569862737
55:25.0;0.03047773446727379;-0.2739326124161219;-0.9546635725216934;0.977;0.007970338598091174
55:25.1;0.03157298438321621;-0.2773342489138726;-0.9534710384203979;0.993;0.00834884976367086
55:25.1;0.0325879812968579;-0.2800910136969819;-0.9532787746539418;0.993;0.00870114802586464
55:25.1;0.033469711204017906;-0.282096239404242;-0.9540539825026528;0.995;0.009007872085525443
55:25.1;0.034160965339079946;-0.2832654547491019;-0.9556953907776826;0.996;0.009247902452545646
55:25.1;0.03460106748280613;-0.28353675075907087;-0.9580496770377863;0.9990000000000001;0.009399113293736916
55:25.1;0.03472683612490933;-0.2828716569392973;-0.9609291107946798;1.004;0.009439435044078511
55:25.1;0.03447632844212142;-0.28125729881856115;-0.9641294068388678;1.011;0.00934889194817793
55:25.1;0.03379702648117518;-0.27870930870168864;-0.9674466185615928;1.016;0.009112907816513338
55:25.1;0.03265755268748608;-0.27527449273489196;-0.97069110872538;1.02;0.008726310435682642
55:25.1;0.031059498410162284;-0.27103237756395876;-0.9736962486282862;1.015;0.008196701309405318
55:25.2;0.029045074027638805;-0.2660948503281794;-0.9763204928239199;1.0070000000000001;0.007545731762318301
55:25.2;0.02669744302687922;-0.2606034339446885;-0.9784439766564119;1.0070000000000001;0.006807470476394697
55:25.2;0.024133167853818974;-0.25472441620611824;-0.9799633542019717;1.0070000000000001;0.006024135677938792
55:25.2;0.021488614192197383;-0.24864217577499562;-0.9807892515879298;1.008;0.005240333223518928
55:25.2;0.018903284402282138;-0.24255050697310124;-0.9808490495504625;1.011;0.004497194084146306
55:25.2;0.016503162120790477;-0.23664177743440457;-0.980095010758579;1.014;0.003827601914290507
55:25.2;0.014386771353912704;-0.23109470649709274;-0.9785152966400865;1.013;0.0032532763661904
55:25.2;0.012615945756116456;-0.22606239380544485;-0.9761439692361846;1.0090000000000001;0.002783953715152547
55:25.2;0.011212397520085614;-0.22166230740808524;-0.9730662887069197;1.001;0.0024184257781122635
55:25.3;0.0101600934210368;-0.21796952924538818;-0.9694175004783515;0.988;0.0021468630586003404
55:25.3;0.009412407763913775;-0.2150140708561229;-0.9653759536492053;0.988;0.001953727961067757
55:25.3;0.00890249710599034;-0.21278259028315125;-0.9611532254603331;0.988;0.0018207090892640566
55:25.3;0.008555373987038328;-0.21122421218469442;-0.9569834764374272;0.985;0.0017293668789870955
55:25.3;0.00830024444272469;-0.2102595241776684;-0.953111994672638;0.982;0.0016633762447853377
55:25.3;0.008081513527314567;-0.2097915630869756;-0.949781206126772;0.975;0.0016102907368231265
55:25.3;0.007866856815724793;-0.20971753740887386;-0.9472128681844365;0.966;0.0015627286868272329
55:25.3;0.007651254418673035;-0.20993981385380156;-0.9455872302222113;0.9590000000000001;0.0015188995369676429
55:25.3;0.007456505996340069;-0.21037460903956753;-0.9450223535673329;0.955;0.0014824183245597759
55:25.3;0.007326321728580464;-0.21095716573781037;-0.9455583272306826;0.9540000000000001;0.0014613982805573114
55:25.3;0.007318081482758128;-0.21164283378089768;-0.9471510432835706;0.961;0.001466966007982739
55:25.4;0.00749348071972846;-0.2124043039726023;-0.9496782265696735;0.98;0.0015115530288815767
55:25.4;0.007910246552133968;-0.21322610174033396;-0.9529566651309869;0.98;0.0016073244057505523
55:25.4;0.008615623836856953;-0.21409800608182036;-0.956765672929271;0.988;0.0017648383687076212
55:25.4;0.009640903839199532;-0.21500909734904888;-0.9608705054778115;0.991;0.0019917712059752566
55:25.4;0.010996298897495947;-0.21594369729939633;-0.9650412530793381;0.995;0.0022915690489124026
55:25.4;0.012666756412462154;-0.21687974176542985;-0.9690653762768314;0.9940000000000001;0.002662180410368062
55:25.4;0.014610496933431383;-0.2177894207826757;-0.9727540701757917;0.995;0.003095314797968871
55:25.4;0.016761839273238408;-0.21864162462958645;-0.9759441910167476;0.998;0.003576675181231174
55:25.4;0.019038248523915908;-0.21940579482705708;-0.9784983103501111;1.001;0.004087287297600449
55:25.4;0.02134982834435968;-0.22005651347752658;-0.9803051739348585;1.003;0.004605639171683305
55:25.5;0.023608729147562103;-0.2205774911446072;-0.9812818847323271;1.008;0.00511007864387094
55:25.5;0.025736332947537754;-0.2209635283127318;-0.9813780807253232;1.008;0.005580891972215745
55:25.5;0.0276673751981975;-0.2212199592759443;-0.980581329458415;1.01;0.006001722173232406
55:25.5;0.029351553706914404;-0.22136017970011684;-0.9789221473533476;1.0090000000000001;0.0063603168044843
55:25.5;0.030753556858545316;-0.2214023934148116;-0.9764768855153196;1.004;0.006648744299308483
55:25.5;0.03185189274623353;-0.2213667784432212;-0.97336725870322;1.0;0.006863164733748129
55:25.5;0.03263661516505177;-0.22127392179540414;-0.9697562249670162;1.0;0.007003222423209447
55:25.5;0.033106399052345956;-0.22114459645411735;-0.9658405837129682;0.9940000000000001;0.007071209881028831
55:25.5;0.033265609157988346;-0.22100030760541983;-0.961840603457029;0.987;0.0070711730449103385
55:25.5;0.03312183748419174;-0.2208640565518479;-0.957986856322201;0.983;0.007008079453378872
55:25.6;0.03268448168919918;-0.22076108179659323;-0.9545049983002327;0.975;0.006887194100838707
55:25.6;0.03196509910148286;-0.2207193543711455;-0.9516001194742606;0.975;0.006713839582870941
55:25.6;0.03097971400331219;-0.22076956688926244;-0.9494426059855563;0.972;0.006493596912337618
55:25.6;0.02975218770158415;-0.22094462820008953;-0.9481569477100945;0.968;0.006232791284550401
55:25.6;0.02831710067811092;-0.22127886565254692;-0.9478142672599899;0.968;0.00593898137208121
55:25.6;0.02672079101248162;-0.22180678947843374;-0.9484292460448263;0.972;0.005621200595880335
55:25.6;0.025020077233381347;-0.22256073790467704;-0.9499621434902514;0.972;0.005289851705441917
55:25.6;0.023279129138440588;-0.22356683499256524;-0.9523260009335012;0.976;0.004956324696863881
55:25.6;0.021565157912013314;-0.2248397393862218;-0.9553981862183537;0.9840000000000001;0.004632443470248303
55:25.6;0.01994313364848919;-0.226377785395903;-0.9590345909535757;0.993;0.004329736616772636
55:25.7;0.01846955778206537;-0.22816017454444407;-0.9630838846982606;0.998;0.004058452370392828
55:25.7;0.01718588003831371;-0.2301468388051824;-0.9673986825951278;0.998;0.003826328755812526
55:25.7;0.0161128042438229;-0.23228057195275176;-0.9718413469025659;0.997;0.003637302237142355
55:25.7;0.01524685028826802;-0.23449081612482292;-0.9762844879379303;0.9990000000000001;0.0034904575690773276
55:25.7;0.014560337227146856;-0.23669868440467634;-0.9806086515169676;1.005;0.003379582077128363
55:25.7;0.014005547731467264;-0.238822686357429;-0.9847005583523559;1.013;0.003293668309979932
55:25.7;0.01352276289684538;-0.24078434727587697;-0.9884540834968238;1.022;0.003218475329320452
55:25.7;0.01305025519707741;-0.2425129548576213;-0.991773838818149;1.024;0.0031388213343314327
55:25.7;0.012533346682871567;-0.243948994867899;-0.9945794299029633;1.026;0.0030409239470424233
55:25.7;0.011930231525379708;-0.2450461367629735;-0.9968083777554193;1.0270000000000001;0.002914126575123939
55:25.8;0.011214171479200992;-0.24577175029934686;-0.9984169892289327;1.0270000000000001;0.002751763574581053
55:25.8;0.010373436691667234;-0.24610605872206687;-0.9993798166322169;1.0270000000000001;0.002551382312773308
55:25.8;0.00941057233304462;-0.24604041223667306;-0.9996889465107545;1.028;0.0023146608888364208
55:25.8;0.008341458328952035;-0.24557547849063813;-0.9993542656051765;1.0270000000000001;0.002047134860900257
55:25.8;0.0071936776147245;-0.24471982300518713;-0.998405386656531;1.0290000000000001;0.0017576282986729972
55:25.8;0.006003721204877199;-0.24348857667470714;-0.996895206937251;1.032;0.0014572988279024175
55:25.8;0.0048130121940231484;-0.24190155318680018;-0.994903995165836;1.032;0.0011583419735746825
55:25.8;0.00366295779361899;-0.23998076808420737;-0.9925416366392689;1.0270000000000001;0.0008724832293343558
55:25.8;0.0025894520325329255;-0.23774819806393435;-0.9899452460024649;1.021;0.0006094474705434655
55:25.8;0.0016179454726988694;-0.23522479810779623;-0.987270629138069;1.015;0.00037573634178203464
55:25.9;0.0007608983224202675;-0.23243117288466672;-0.9846784038288943;1.003;0.00017414676581335953
55:25.9;1.8919111813514146e-05;-0.22938976239019718;-0.9823176545696163;1.003;4.2631118267549006e-06
55:25.9;-0.0006149725061468184;-0.226128423705024;-0.9803109471626018;1.0;0.00013632474933988434
55:25.9;-0.0011500863667532847;-0.22268522461446327;-0.9787439088937104;1.001;0.00025066340206079843
55:25.9;-0.001593822660044274;-0.2191135925912476;-0.977660679348921;1.004;0.0003414266880544839
55:25.9;-0.0019491944599722378;-0.2154861799390433;-0.9770644997991029;1.004;0.00041039099686440857
55:25.9;-0.0022136789401410385;-0.2118956019788347;-0.9769214336858489;1.001;0.0004582433954728632
55:25.9;-0.0023786163244386388;-0.20845083133499592;-0.977165053480948;0.996;0.00048450242316829266
55:25.9;-0.0024288663480641244;-0.20526925223380982;-0.9777010247378404;0.993;0.0004874539437354919
55:25.9;-0.00234307753589804;-0.20246550098712246;-0.97841234050623;0.991;0.0004641513462686345
55:26.0;-0.0020950560309540484;-0.20013878235721366;-0.979167181400388;1.003;0.00041056672127153004
55:26.0;-0.0016564424721266667;-0.1983606308238749;-0.9798306607591022;1.003;0.00032194587392266933
55:26.0;-0.0010006382643930132;-0.19716529803185126;-0.9802791973216083;1.006;0.00019340040194701803
55:26.0;-0.00010780463142650803;-0.19654466722734265;-0.9804141214745978;1.006;2.077343148307846e-05
55:26.0;0.0010293226777577597;-0.1964486226270505;-0.9801712108917441;1.002;0.00019819946222563727
55:26.0;0.002399400604188815;-0.19679063871662172;-0.9795246414113385;1.0;0.00046251153126913326
55:26.0;0.003967639495264027;-0.19745740457250965;-0.978485820426406;1.0;0.0007665847325361531
55:26.0;0.00567437015276477;-0.19832064907578856;-0.977098684582933;0.9990000000000001;0.0010995728962208211
55:26.0;0.007439006260312735;-0.19924928200063638;-0.9754328527329377;0.998;0.0014458028212918398
55:26.1;0.009169773970306001;-0.200120740591823;-0.9735751952250763;0.99;0.0017865708040072914
55:26.1;0.010777290282253103;-0.20083133785263044;-0.9716202215141144;0.99;0.00210299193303958
55:26.1;0.012188370313945452;-0.20130541795541865;-0.969660398099086;0.99;0.0023791441887135354
55:26.1;0.01335650592191563;-0.20150255954951712;-0.9677778417184452;0.986;0.0026046483755842575
55:26.1;0.014267208037124161;-0.20142197344835097;-0.9660382437447312;0.983;0.0027761323078547995
55:26.1;0.014938278084643425;-0.2011034230442762;-0.9644874431700091;0.983;0.002897454205317265
55:26.1;0.0154160041086235;-0.20062388745075446;-0.9631511790528821;0.985;0.0029788519517171363
55:26.1;0.015768514418533358;-0.200089426074867;-0.9620381307693328;0.985;0.0030353390129414398
55:26.1;0.016077395231223385;-0.19962294253735707;-0.9611451097767434;0.983;0.0030847154013378393
55:26.1;0.016428389158676455;-0.19935001467685876;-0.9604624447198242;0.982;0.0031455141413849756
55:26.1;0.016901969624200663;-0.19938538786997384;-0.9599780392809151;0.981;0.0032351315307662405
55:26.2;0.01756486106290272;-0.19982194726741084;-0.9596796517761892;0.98;0.0033683265788992615
55:26.2;0.018463566137683764;-0.20072289366727492;-0.9595556768029831;0.98;0.003556171317054781
55:26.2;0.019620427775779062;-0.20211722766509874;-0.9595949091565876;0.98;0.003805394969967577
55:26.2;0.02103221986796749;-0.20399850923314292;-0.9597857532404485;0.98;0.004118000604359029
55:26.2;0.022671133593662452;-0.20632676703345684;-0.9601153123829509;0.982;0.004491094623706603
55:26.2;0.02448799986853777;-0.2090330988894173;-0.9605686886800631;0.985;0.004916961403235292
55:26.2;0.026417227889013125;-0.21202613524134276;-0.9611285184101476;0.9840000000000001;0.0053834180164655425
55:26.2;0.028382332463868253;-0.21519952541658716;-0.9617744647249867;0.985;0.0058743880874410756
55:26.2;0.03030074298169017;-0.21843987697396453;-0.9624825125403144;0.986;0.006370566425215374
55:26.2;0.032087418166155894;-0.22163463577257478;-0.963224473615947;0.985;0.006850147343579079
55:26.3;0.03365803773032591;-0.22467919241173695;-0.9639686045194638;0.992;0.007289781928128786
55:26.3;0.03493288757152159;-0.22748255304392945;-0.9646820789498247;0.992;0.007665964265662824
55:26.3;0.03584183863507849;-0.22997139319698104;-0.9653351248503209;0.997;0.007956868950128062
55:26.3;0.03633006824979272;-0.23209280295358994;-0.9659055965277085;0.998;0.008144465155845512
55:26.3;0.036363786599298564;-0.2338161012312111;-0.9663823603318312;0.997;0.008216606884481841
55:26.3;0.03593487291554972;-0.23513374707046347;-0.966766306328648;0.995;0.008168693180618329
55:26.3;0.03506321658618391;-0.2360610055017708;-0.9670688910576948;0.9940000000000001;0.008004485459358212
55:26.3;0.033796096932601515;-0.23663395636275805;-0.9673093564866918;0.995;0.00773586710850467
55:26.3;0.03220467264641289;-0.2369055940871018;-0.9675122999235535;0.997;0.007381603266606667
55:26.3;0.030377919363902134;-0.2369399715725522;-0.9677066251015529;1.0;0.006965303926075228
55:26.4;0.02841431922185493;-0.2368046271701186;-0.9679255517308827;0.997;0.0065128247812256375
55:26.4;0.02641198625899476;-0.23656205835650734;-0.9682064265416651;0.997;0.006049425240274586
55:26.4;0.02445870678851023;-0.23626166822438585;-0.9685893417371003;0.9940000000000001;0.005597143515171957
55:26.4;0.02262367733007929;-0.23593392509742056;-0.969114604859148;0.996;0.005172836235405416
55:26.4;0.020952265607477816;-0.23558807358792888;-0.9698198473332308;0.9990000000000001;0.004787131522735713
55:26.4;0.019464556282679103;-0.235213795071916;-0.9707374253519448;1.0;0.004444358366259643
55:26.4;0.01815785062958728;-0.23478622540533206;-0.9718920719263073;0.9990000000000001;0.004143383120502798
55:26.4;0.017012362776519203;-0.23427310534043805;-0.9732984000851829;0.9990000000000001;0.0038791187874927914
55:26.4;0.015998576906099606;-0.23364265768559309;-0.974958334295301;1.0;0.003644345532518227
55:26.5;0.015084710604762706;-0.2328709153806538;-0.9768592210270645;1.0070000000000001;0.0034315016613273566
55:26.5;0.014243279742967086;-0.23194754893286892;-0.978973235313398;1.0070000000000001;0.0032342278324884654
55:26.5;0.01345631767324176;-0.2308795865571226;-0.9812578563143135;1.0070000000000001;0.003048561173997365
55:26.5;0.012718984418481502;-0.22969257169963703;-0.9836568171655129;1.01;0.0028737103470073697
55:26.5;0.012041065886058504;-0.2284287673242126;-0.9861014859718392;1.011;0.0027122976156829645
55:26.5;0.01144569092620181;-0.22714229416660797;-0.9885131599268627;1.014;0.0025699370027878394
55:26.5;0.010965112554450651;-0.2258915818506496;-0.990806624068584;1.015;0.002454155302522207
55:26.5;0.010634447994859589;-0.2247300741075844;-0.9928949229515783;1.018;0.0023729000024096695
55:26.5;0.010484977791697533;-0.2236967723986393;-0.9946949397483756;1.02;0.0023330129069176093
55:26.5;0.010538469724550711;-0.22280872393933385;-0.9961330199010707;1.024;0.0023389830787408955
55:26.5;0.010803352692716444;-0.22205738709292766;-0.997149545786443;1.025;0.0023921261329741175
55:26.6;0.011273015770048229;-0.22140965782055688;-0.9977013371517236;1.021;0.002490217206224288
55:26.6;0.011926134675749865;-0.22081287469988503;-0.9977613595961785;1.021;0.002627548747487564
55:26.6;0.012728514800422686;-0.2202023720394803;-0.9973163249018014;1.021;0.002795327215120571
55:26.6;0.013635804446326094;-0.21951014623869153;-0.9963635248672511;1.02;0.0029823127400805645
55:26.6;0.014596844498957276;-0.21867317998434424;-0.9949081010225699;1.018;0.0031756853764269726
55:26.6;0.015557627119190101;-0.21764003135204288;-0.9929613557107934;1.015;0.0033621298686937243
55:26.6;0.016465289754538426;-0.21637506822574595;-0.9905402978770916;1.014;0.0035289763195199544
55:26.6;0.017271259835445016;-0.21486067979792647;-0.9876684928665406;1.0090000000000001;0.0036651534589885737
55:26.6;0.01793350264631358;-0.21309789445532837;-0.9843782988709554;1.006;0.003761891891480281
55:26.7;0.01841880038653076;-0.2111054230642894;-0.9807145880623699;1.004;0.0038133210139191923
55:26.7;0.01870567164492848;-0.20891736629835816;-0.9767397598563169;1.004;0.0038170400400603308
55:26.7;0.01878734441593059;-0.20658053401604964;-0.9725389513885144;1.004;0.0037745205762462894
55:26.7;0.018673568112222663;-0.20415230944930368;-0.968223196915131;0.995;0.003691110872883068
55:26.7;0.01839038142902364;-0.2016991558509061;-0.9639279745710215;0.987;0.003575521565568028
55:26.7;0.01797772069710107;-0.1992952790528353;-0.9598058848463512;0.9790000000000001;0.0034388643782356358
55:26.7;0.017485688659652505;-0.19702085817493442;-0.9560145375186508;0.97;0.0032935134709538042
55:26.7;0.016970979402377143;-0.19495920574921494;-0.9527026509511283;0.965;0.0031521583542816582
55:26.7;0.016494500574565155;-0.19319247785684956;-0.9499980038501061;0.965;0.0030272764042028233
55:26.7;0.016119769869950156;-0.19179624028987988;-0.9480000391554124;0.968;0.0029309423911712397
55:26.7;0.015910601264531324;-0.19083353691321228;-0.9467778159876927;0.97;0.002874679057044987
55:26.8;0.015926873772372587;-0.19034889412115377;-0.946371615007187;0.9670000000000001;0.0028690796290685968
55:26.8;0.01621833582648962;-0.19036283908953572;-0.9467952840383577;0.9670000000000001;0.002923105891614628
55:26.8;0.01681741477327588;-0.19086826511504928;-0.9480370150372017;0.966;0.003043114235824599
55:26.8;0.017732394523208864;-0.1918302057001297;-0.9500579158504148;0.965;0.003231725451567441
55:26.8;0.0189424788722464;-0.19318949963523357;-0.9527893481150964;0.9670000000000001;0.0034867212004186135
55:26.8;0.020396503505512913;-0.19486923750048565;-0.9561310136237599;0.972;0.0038002871714622223
55:26.8;0.022016757632234735;-0.19678213945425269;-0.9599518890567026;0.977;0.004158996043001673
55:26.8;0.023707852664870094;-0.1988375917970715;-0.9640951931938243;0.9840000000000001;0.004544756628551775
55:26.8;0.025368608351706887;-0.20094819073395093;-0.9683871914404096;0.991;0.004936620934535713
55:26.8;0.026904008422350217;-0.2030361272921725;-0.9726486081650849;0.996;0.005313079092518971
55:26.9;0.028234787020575275;-0.205039183390306;-0.9767069572226891;1.006;0.00565438871311184
55:26.9;0.02930336474511034;-0.20691519321282817;-0.9804080104443372;1.006;0.005944519044829575
55:26.9;0.030075905902523858;-0.20864360744886662;-0.9836248189700337;1.01;0.006172388861164837
55:26.9;0.030541008934944738;-0.2102236108783007;-0.9862632998236623;1.012;0.006332245502706186
55:26.9;0.03070605217580464;-0.21166944142475858;-0.9882641799960913;1.012;0.0064232555640425125
55:26.9;0.03059250285715666;-0.21300437127999444;-0.9896015724520973;1.013;0.006448577180493124
55:26.9;0.0302314217221008;-0.21425501921356552;-0.9902787050201108;1.012;0.006414266741091064
55:26.9;0.02965989792756649;-0.21544732930901747;-0.9903217140242712;1.0090000000000001;0.006328300137631274
55:26.9;0.028918448667152784;-0.21660477914634108;-0.9897729814233895;1.008;0.006199813429133441
55:26.9;0.028048967383777986;-0.21774842695959182;-0.9886859494604582;1.01;0.0060385166209830105
55:27.0;0.027092878681952037;-0.2188976364515633;-0.9871230976167856;1.015;0.00585419977441952
55:27.0;0.026089476828310393;-0.220070202090485;-0.9851572779699165;1.015;0.005656296705520291
55:27.0;0.02507446870430525;-0.22128141904852835;-0.9828744742581554;1.011;0.005453492797153287
55:27.0;0.024078495134045055;-0.22254283014884968;-0.980375024827862;1.0070000000000001;0.005253336093008409
55:27.0;0.02312541713153424;-0.22386184584824473;-0.9777713729421215;1.005;0.0050618232175563375
55:27.0;0.022230658951931544;-0.22524271190984307;-0.9751822921948982;1.004;0.004883024352726325
55:27.0;0.021400213876757432;-0.22668802120272866;-0.9727245873051034;0.997;0.00471885441494564
55:27.0;0.020630387425279076;-0.22819924843836387;-0.9705034853321421;0.99;0.004568974066112706
55:27.0;0.019907773145496212;-0.22977514764601314;-0.968603434713224;0.987;0.004430693843724349
55:27.1;0.01920959791385263;-0.2314078948001215;-0.9670818165866498;0.992;0.004298922972361403
55:27.1;0.018505701100552704;-0.2330780429539434;-0.9659677284094934;0.992;0.004166482131576246
55:27.1;0.017763073996465838;-0.23475031718650033;-0.9652660156737933;0.996;0.004025050456324663
55:27.1;0.01695205847232725;-0.2363724359613385;-0.964964563611011;0.997;0.0038666123846269863
55:27.1;0.01605179651248621;-0.23787805103113197;-0.9650419918451058;0.9990000000000001;0.003684887457895225
55:27.1;0.015052548677603585;-0.2391930094871549;-0.9654733619587914;0.998;0.003476152486884989
55:27.1;0.0139539362351353;-0.24024270743646484;-0.9662326626794356;0.997;0.0032391321146375118
55:27.1;0.012760036689571867;-0.24095835502559543;-0.9672920693408177;0.998;0.0029740724222430646
55:27.1;0.011473463414600864;-0.24128132641915492;-0.9686187882543194;0.998;0.002681458843832343
55:27.1;0.010090652319160977;-0.2411661303795335;-0.9701705629632059;0.996;0.0023609329346244096
55:27.1;0.008599897232212722;-0.24058293320674626;-0.9718909817446524;0.998;0.002010831265846293
55:27.2;0.006982757009447281;-0.23952013157491947;-0.9737058465116919;1.002;0.0016285336199304862
55:27.2;0.005218533711995898;-0.237986742042662;-0.9755217643950131;1.0;0.0012115412914796492
55:27.2;0.0032906340953314495;-0.2360138518142499;-0.977227680732106;1.0;0.0007589494423894475
55:27.2;0.0011931503030722917;-0.23365447452693028;-0.9786997905387989;1.004;0.00027284673018023755
55:27.2;-0.001063660412659045;-0.2309816903543571;-0.9798101907136636;1.0070000000000001;0.00024072572497789668
55:27.2;-0.003449622137700095;-0.22808532707068022;-0.9804390415446406;1.01;0.0007714174711612646
55:27.2;-0.005913081788777502;-0.22506750518848087;-0.9804887728851346;1.014;0.00130487619461281
55:27.2;-0.00838219240008618;-0.22203733448365076;-0.9798977694603708;1.012;0.0018237461971352283
55:27.2;-0.01076924717703758;-0.21910495877718983;-0.9786506894548245;1.008;0.002309219722575575
55:27.2;-0.012977389683576946;-0.21637513880812956;-0.9767833696651615;1.002;0.0027427925561644847
55:27.3;-0.0149087197304058;-0.21394089855135284;-0.974381867279637;0.9990000000000001;0.0031078736862007613
55:27.3;-0.01647307225940037;-0.21187810765373838;-0.9715766627482795;0.996;0.0033910778760204378
55:27.3;-0.01759670717344842;-0.21024161078904868;-0.9685335637458904;0.992;0.0035831480899098244
55:27.3;-0.018229763729736646;-0.20906290083615545;-0.9654424698582863;0.988;0.0036794627585044373
55:27.3;-0.01835130607267552;-0.2083491556951938;-0.9625046024649134;0.985;0.003680116256344077
55:27.3;-0.017971211315247707;-0.20808376131167336;-0.9599185819045656;0.981;0.003589632091599504
55:27.3;-0.01712852971593412;-0.208228635268264;-0.9578658359582971;0.978;0.0034163725352624663
55:27.3;-0.015886320631546335;-0.2087284227835419;-0.9564961184720995;0.975;0.003171670969151853
55:27.3;-0.01432371388294015;-0.20951612684349807;-0.9559143383472993;0.972;0.0028687458215364008
55:27.3;-0.012526759382449836;-0.21051929920341422;-0.9561703194376345;0.971;0.0025215402773778243
55:27.4;-0.010579962338745398;-0.21166573212466516;-0.9572533738892341;0.973;0.0021436880182961362
55:27.4;-0.00856025667191168;-0.21288768793931992;-0.9590934110966896;0.98;0.0017478261776413062
55:27.4;-0.00653456870887538;-0.21412412635673814;-0.9615692908155802;0.986;0.0013454362288136585
55:27.4;-0.004560877523688715;-0.21532097919224932;-0.9645233004110494;0.992;0.0009472126287957941
55:27.4;-0.0026912716507670764;-0.2164300610102055;-0.967778916614119;0.997;0.0005637042058669958
55:27.4;-0.0009750000764596564;-0.2174076974212664;-0.9711583329945412;1.001;0.0002058588807261084
55:27.4;0.0005399155667295636;-0.21821438555161896;-0.9744966715556962;1.005;0.00011481260923226655
55:27.4;0.0018072222750228299;-0.21881632147922278;-0.9776509050821025;1.004;0.00038661178675772296
55:27.4;0.0027853757821485344;-0.21918864768063917;-0.9805029610109369;1.004;0.0005986193650921377
55:27.4;0.0034424180626503823;-0.21931960029909145;-0.9829580301878028;1.005;0.0007421232409741182
55:27.5;0.003761453105113313;-0.21921456770001146;-0.9849403408474677;1.004;0.0008121476437478799
55:27.5;0.0037451286414140928;-0.21889896020880584;-0.9863891435412131;1.0070000000000001;0.000808646520466942
55:27.5;0.003418039206260286;-0.2184188124128856;-0.9872572661115078;1.01;0.0007370507970110884
55:27.5;0.0028265386412724947;-0.21783854190225713;-0.9875133427261193;1.016;0.0006080406585462836
55:27.5;0.002035664210638543;-0.21723587998064514;-0.9871468563919036;1.02;0.00043653539789503836
55:27.5;0.0011229395482318584;-0.2166942948378985;-0.9861732183614913;1.016;0.00023997005925958405
55:27.5;0.00016915417565844883;-0.21629368865366475;-0.9846354579256222;1.01;3.602483840146609e-05
55:27.5;-0.0007529648864447745;-0.21610093660403812;-0.9826004593913936;1.002;0.000159885226282073
55:27.5;-0.001590163588800148;-0.21616221044547898;-0.9801504362273263;0.996;0.00033691032073575344
55:27.5;-0.0023173227267975;-0.2164984676523081;-0.9773727789898623;0.9940000000000001;0.0004903448145947097
55:27.6;-0.0029407595748577146;-0.21710438751511732;-0.9743522328481096;0.9890000000000001;0.0006220769430622785
55:27.6;-0.003494976063916313;-0.21795007404041689;-0.9711685509183827;0.992;0.0007397685037752037
55:27.6;-0.004033497623187923;-0.21898434618172158;-0.9679010484358738;0.995;0.0008549207077354242
55:27.6;-0.004615783023498818;-0.22013846904959897;-0.964639230050719;0.998;0.0009801809265079023
55:27.6;-0.005292934399200464;-0.22132976903203194;-0.9614960832211815;1.004;0.0011263772276322672
55:27.6;-0.0060953512689988;-0.22246549492505271;-0.9586184230582382;1.002;0.0012998916976216428
55:27.6;-0.007025242259800367;-0.2234479660555031;-0.9561879549952708;0.991;0.0015010009931219017
55:27.6;-0.008055647475829162;-0.22418207854636987;-0.9544086808591231;0.977;0.0017235969823480293
55:27.6;-0.009135647086978378;-0.22458551841155666;-0.9534810808963601;0.9690000000000001;0.0019562895873621636
55:27.6;-0.010199408412180132;-0.22460052016810142;-0.9535689589976959;0.966;0.0021844285573154095
55:27.7;-0.01117551341608867;-0.22420437951520353;-0.9547676865277207;0.9670000000000001;0.002392265009497455
55:27.7;-0.01199359991942617;-0.22341564448017798;-0.9570815818924893;0.971;0.0025645554712445573
55:27.7;-0.012587586125371659;-0.22229448445277802;-0.9604147817838148;0.976;0.0026873855515646486
55:27.7;-0.012896932891181845;-0.22093781396874054;-0.9645764063045658;0.986;0.002748483457868123
55:27.7;-0.012868157004359728;-0.2194707080535445;-0.969298242796602;0.995;0.00273747613208302
55:27.7;-0.01245822346936804;-0.2180353372204049;-0.9742614970751533;1.004;0.0026464186115956983
55:27.7;-0.011640199966726559;-0.21677808584271216;-0.9791281096547912;1.01;0.002470673386244109
55:27.7;-0.010410260409719815;-0.21583552915963203;-0.9835718895547101;1.014;0.002209991676094443
55:27.7;-0.008794278296676613;-0.21532057909480204;-0.9873055000716889;1.016;0.0018695509289234048
55:27.7;-0.006852013547018126;-0.21531075521682427;-0.9901008990444823;1.0170000000000001;0.0014607079470411997
55:27.8;-0.004677149628906745;-0.21584044292764193;-0.9918025998668599;1.0170000000000001;0.001001242624164759
55:27.8;-0.002392161907003642;-0.2168981598020284;-0.9923344504408653;1.0190000000000001;0.0005148782029089105
55:27.8;-0.0001381455578861421;-0.2184289561948832;-0.9917010749526014;1.021;2.9924570031613996e-05
55:27.8;0.0019390461798818362;-0.22034138776939918;-0.9899846773460705;1.02;0.0004229730583254039
55:27.8;0.0037041375371329277;-0.2225177992470522;-0.9873371310684745;1.018;0.000813799333686892
55:27.8;0.005046736443893279;-0.22482622558288043;-0.9839669653981254;1.0090000000000001;0.0011164470045550903
55:27.8;0.005892411134665349;-0.22713245650013109;-0.9801215054249875;1.004;0.0013117532771459452
55:27.8;0.006209081626168069;-0.22931127143479138;-0.9760658445965181;0.998;0.001389734654840802
55:27.8;0.0060081645515714065;-0.23125582559663616;-0.9720615218199157;0.996;0.0013506046880255504
55:27.8;0.005340654426864107;-0.23288385636984382;-0.968347734548844;0.9940000000000001;0.0012043846237254617
55:27.9;0.004288737566700856;-0.23413962695247853;-0.965126647012124;0.992;0.0009691448687717271
55:27.9;0.002953640959702125;-0.23499161554137468;-0.9625527308891675;0.9890000000000001;0.0006680894280686663
55:27.9;0.0014406013781818946;-0.23542718914743183;-0.9607251264253633;0.986;0.00032583639533093365
55:27.9;-0.00015747681076774684;-0.23544605840817326;-0.9596822058337172;0.982;3.558241966266013e-05
55:27.9;-0.0017751586441272775;-0.23505418426267957;-0.9593985278327444;0.978;0.00040031715899642266
55:27.9;-0.003385419753088027;-0.23425947500946145;-0.9597855857590918;0.976;0.0007611739430986427
55:27.9;-0.005003807003390825;-0.23307016476281167;-0.9606986073493703;0.982;0.0011204033403363952
55:27.9;-0.006684402303230211;-0.23149595666267522;-0.9619514059736191;0.988;0.0014885352508954008
55:27.9;-0.008507806712596397;-0.229551023873324;-0.9633394569838107;0.995;0.001881378590601271
55:28.0;-0.01056311859908329;-0.22725740633162664;-0.9646686382092972;1.006;0.0023157323433237505
55:28.0;-0.012927382164871345;-0.22464752410403802;-0.9657846572681634;1.006;0.0028047394692302776
55:28.0;-0.01564681172645401;-0.22176510663343754;-0.9665971016892123;1.005;0.003354011590601816
55:28.0;-0.018723817469995675;-0.2186643449000872;-0.967093027850664;1.002;0.0039595025263651365
55:28.0;-0.02211234864042601;-0.21540747260934243;-0.9673376931319191;0.9990000000000001;0.004607589172817779
55:28.0;-0.025721808376712615;-0.21206134625295273;-0.9674628162119029;0.993;0.0052771239470329485
55:28.0;-0.02942767369186796;-0.20869375806898202;-0.9676446344990678;0.986;0.005942665484265076
55:28.0;-0.0330858471548806;-0.20537018794584;-0.968075321954435;0.983;0.006577923356921375
55:28.0;-0.03654794925503706;-0.2021516740777736;-0.9689322525953191;0.98;0.007158693489760311
55:28.0;-0.03967561670754078;-0.19909426951917217;-0.970349837565747;0.9790000000000001;0.007664975721002628
55:28.1;-0.042352530728038185;-0.19624985123360977;-0.9723980676947791;0.986;0.008082259485254923
55:28.1;-0.0444931345988706;-0.1936673615355643;-0.9750705089658166;0.986;0.008402053851054893
55:28.1;-0.046047262133734335;-0.191393642581532;-0.9782826182142852;0.993;0.008621754617235333
55:28.1;-0.04700061817841614;-0.1894734426748599;-0.9818796174832347;1.0;0.008744000242572096
55:28.1;-0.047372099317351764;-0.18794813609304534;-0.9856521916845582;1.003;0.008775752090176983
55:28.1;-0.047209624127724704;-0.18685258204366662;-0.9893577416033011;1.0090000000000001;0.008727362248354941
55:28.1;-0.04658567072026436;-0.18621002890660623;-0.9927448150700259;1.015;0.00861178240022999
55:28.1;-0.04559215881731791;-0.18602596346611452;-0.9955784761090957;1.021;0.008443824888181663
55:28.1;-0.044333129607001066;-0.18628281412413808;-0.997664139760126;1.026;0.008239209439999324
55:28.1;-0.04291440865981678;-0.18693781410928229;-0.9988668697199303;1.026;0.008013235408436216
55:28.2;-0.041431629822669014;-0.18792565621306606;-0.9991231906363404;1.026;0.007779239326632036
55:28.2;-0.039959546218683625;-0.18916592985781971;-0.998443617734108;1.021;0.007547220047391885
55:28.2;-0.03854525937062377;-0.1905733652202805;-0.9969059189002577;1.021;0.007322971600658913
55:28.2;-0.0372066231849068;-0.1920677821566222;-0.9946406377968909;1.014;0.007107894556804157
55:28.2;-0.03593579167136977;-0.19358136656577418;-0.9918110891408483;1.0070000000000001;0.006899533504756264
55:28.2;-0.034706874580104095;-0.19506285292469397;-0.9885904405812593;0.998;0.006692779003742415
55:28.2;-0.0334856178277496;-0.1964794723701424;-0.9851393318533342;0.9940000000000001;0.006481464672160952
55:28.2;-0.0322382125514617;-0.19781735196059025;-0.9815882454139128;0.9890000000000001;0.006259860964376198
55:28.2;-0.030936798704970386;-0.19908052688126482;-0.978028470605387;0.9890000000000001;0.00602359342212403
55:28.2;-0.02956127300194056;-0.2002888021649544;-0.9745137969859805;0.995;0.005769893454132785
55:28.3;-0.028099135345542023;-0.20147480794998357;-0.971072433757413;1.0;0.005497501195187391
55:28.3;-0.02654561134541418;-0.20268013395844303;-0.9677256175568136;0.998;0.0052066232343691374
55:28.3;-0.02490519334633336;-0.20395016194590132;-0.9645071882402337;0.998;0.004899135381679166
55:28.3;-0.023194224450779816;-0.20532784615745156;-0.9614783865343633;0.9940000000000001;0.004578964041600677
55:28.3;-0.021443070366384476;-0.20684745597761306;-0.9587339996734131;0.987;0.004252411497236689
55:28.3;-0.019696045078866374;-0.20852926376701458;-0.9563984979283868;0.981;0.003928121612524111
55:28.3;-0.018007684648749297;-0.2103757265087415;-0.9546131985628312;0.9740000000000001;0.0036164373016602507
55:28.3;-0.01643517982967677;-0.21236963773264234;-0.9535173331702773;0.972;0.003328093191866515
55:28.3;-0.015028273313280438;-0.21447478221444086;-0.9532267610850381;0.971;0.0030724268136407933
55:28.3;-0.013818998534428056;-0.2166392095671757;-0.9538139150298662;0.97;0.0028554679317658095
55:28.4;-0.012814174580630463;-0.21880058858808965;-0.9552918234686774;0.97;0.0026783984379305415
55:28.4;-0.011993615656304229;-0.22089279463166786;-0.9576043043312963;0.978;0.0025369842244636794
55:28.4;-0.011315837574971411;-0.22285274510587608;-0.9606237838055636;0.978;0.002422467884544006
55:28.4;-0.010730437086706414;-0.22462617655422415;-0.9641574484237417;0.985;0.0023239444253130605
55:28.4;-0.010193886392344751;-0.22617106793534789;-0.9679616349208751;0.9940000000000001;0.0022316957291964924
55:28.4;-0.009684613012979366;-0.2274582187223144;-0.9717634027731166;1.002;0.002140643982871873
55:28.4;-0.009213601957379608;-0.2284694947131528;-0.9752868064992972;1.01;0.002053005044518487
55:28.4;-0.008827943103930482;-0.22919483792104375;-0.9782800108352963;1.011;0.001979372522366296
55:28.4;-0.00860662882404507;-0.22962927932061802;-0.9805392294662474;1.013;0.001937872992274676
55:28.4;-0.00864962898923101;-0.22977088905062476;-0.9819267830663024;1.015;0.001951513636097018
55:28.5;-0.00906221631503301;-0.22961991916242888;-0.9823822821058958;1.015;0.0020442052784905673
55:28.5;-0.009937201196106731;-0.22917881847225766;-0.9819269046783592;1.013;0.0022362364335267925
55:28.5;-0.011338337366372825;-0.22845271026059735;-0.9806609896613506;1.013;0.002540180567441695
55:28.5;-0.013287892446271148;-0.22745007173136914;-0.9787552789304664;1.0090000000000001;0.0029581234878302
55:28.5;-0.015760071097544945;-0.22618333144942493;-0.9764363069532628;1.003;0.0034806687037825792
55:28.5;-0.018680490682497476;-0.2246690365590293;-0.9739668376133018;0.997;0.00408766853999627
55:28.5;-0.02193089685742305;-0.22292745448969284;-0.9716230953942608;0.992;0.004750264352545749
55:28.5;-0.025357867331298987;-0.22098185728099148;-0.9696713313474282;0.991;0.005433678023900864
55:28.5;-0.028784325102755543;-0.2188580418283548;-0.9683461696471356;0.99;0.006100271992823262
55:28.5;-0.0320230055529016;-0.21658480669781954;-0.9678321479400371;0.9890000000000001;0.006712590009657169
55:28.6;-0.03489105631427061;-0.2141959652756009;-0.9682487850152336;0.987;0.007236230035799978
55:28.6;-0.03722446722239161;-0.21173385550716844;-0.9696392842202088;0.985;0.0076423865189369266
55:28.6;-0.03889052552402919;-0.20925354393330392;-0.971963657266976;0.985;0.007909821086729349
55:28.6;-0.039796525621437685;-0.2068264642215697;-0.9750979205657957;0.99;0.008026006297218407
55:28.6;-0.0398936136673617;-0.2045420080409627;-0.9788411805100591;0.998;0.007987265576426228
55:28.6;-0.03917575476053402;-0.20250554817924937;-0.9829312848474088;1.006;0.007797896323886092
55:28.6;-0.037675032397035055;-0.20083197725195143;-0.9870676057534989;1.011;0.007468500211964063
55:28.6;-0.03545521980866792;-0.19963521625799682;-0.9909377856348063;1.014;0.007013967119562519
55:28.6;-0.032605320535862466;-0.19901550928959394;-0.9942450304002495;1.018;0.006451620678724932
55:28.6;-0.0292337876325209;-0.1990468598346542;-0.9967334253140743;1.024;0.005799885778696783
55:28.7;-0.025463218408071798;-0.19976669354838494;-0.9982094698257803;1.028;0.005077595053364326
55:28.7;-0.021425141864350676;-0.2011692435178433;-0.9985579628749807;1.0270000000000001;0.004303864286346146
55:28.7;-0.017255073172067956;-0.20320349033132062;-0.9977502047548342;1.0270000000000001;0.003498402657453998
55:28.7;-0.013088544588139944;-0.20577584272367996;-0.9958430637514438;1.02;0.0026821103900945722
55:28.7;-0.009058381500855955;-0.20875731168485293;-0.9929688114955886;1.016;0.0018777073691751932
55:28.7;-0.005292301497484308;-0.21199451161836916;-0.9893173042604576;1.0090000000000001;0.0011099535396959252
55:28.7;-0.0019094423449283588;-0.2153229820750724;-0.9851135424204133;1.002;0.00040502630011830375
55:28.7;0.0009845574895050182;-0.21858051911866633;-0.9805943635138011;0.9990000000000001;0.0002110288954668054
55:28.7;0.0033027634204570097;-0.22161837642973178;-0.9759877707008161;0.997;0.0007143772420927889
55:28.7;0.004980595237127378;-0.22430923695570262;-0.9714972184642251;0.9940000000000001;0.0010853503944705937
55:28.8;0.005976567251764484;-0.22655188309270793;-0.96729149534451;0.992;0.0013097151661062227
55:28.8;0.0062699329965381885;-0.22827312372631361;-0.9634995536661757;0.982;0.001379015664396345
55:28.8;0.005856503086706851;-0.22942783658940338;-0.9602095544701401;0.982;0.0012901806066168931
55:28.8;0.004744952048664882;-0.22999797866395572;-0.9574722699184065;0.982;0.001044917618745426
55:28.8;0.0029555484152770962;-0.22999118000509455;-0.9553092786896565;0.988;0.0006493715467603358
55:28.8;0.0005215281759673456;-0.22943903178687425;-0.9537249910105402;0.991;0.0001141217021567218
55:28.8;-0.0025082010524383543;-0.22839443450745436;-0.9527193933133418;0.988;0.000545774032324444
55:28.8;-0.006066807320058612;-0.2269271704571891;-0.9522974385849937;0.985;0.0013110501854107003
55:28.8;-0.010069286523679406;-0.2251177975137503;-0.9524720785417301;0.981;0.0021590404718397245
55:28.8;-0.014414909205658787;-0.22305107069010235;-0.9532603048470729;0.975;0.003064980616413595
55:28.9;-0.0189915994903918;-0.2208102630004653;-0.954673992215189;0.972;0.004003463648039201
55:28.9;-0.023680531384200783;-0.21847328862744625;-0.956708982973473;0.978;0.004949594739443775
55:28.9;-0.028359534222369868;-0.21611103378504934;-0.9593361052842976;0.978;0.00587958704470414
55:28.9;-0.03290490069192854;-0.21378767913326258;-0.9624965587872708;0.9840000000000001;0.00677083830510434
55:28.9;-0.03719218545852358;-0.21156214296947354;-0.9661022799167563;0.99;0.007601735655050363
55:28.9;-0.04109718670647636;-0.20948966507985445;-0.9700404236617939;0.996;0.008351500827422262
55:28.9;-0.0444981515737654;-0.2076230442792568;-0.9741800531307364;1.001;0.009000295292858286
55:28.9;-0.04727952832878662;-0.20601342279826793;-0.9783787388983936;1.001;0.00952962167442703
55:28.9;-0.049337030403178224;-0.20471037922505553;-0.9824875184745172;1.003;0.009922929604169859
55:28.9;-0.05058366775981863;-0.20376087207466625;-0.9863542973384035;1.005;0.010166326376736276
55:29.0;-0.05095635211682165;-0.20320670801833268;-0.9898271218862709;1.015;0.01024933574435796
55:29.0;-0.05042240643138271;-0.20308070572071193;-0.9927586456195238;1.015;0.01016566773214506
55:29.0;-0.04898504463836215;-0.2034023949966091;-0.9950117922626813;1.015;0.009913974515743943
55:29.0;-0.04668689575884527;-0.2041744835258542;-0.9964658147495535;1.018;0.009498584010952186
55:29.0;-0.043610878158350366;-0.20538105142444277;-0.9970223887368617;1.02;0.008930177998189348
55:29.0;-0.039878061902925706;-0.20698768988848087;-0.9966118113468467;1.021;0.008226300893641932
55:29.0;-0.03564246984763994;-0.208943025881739;-0.9951990590651567;1.018;0.007411491714092406
55:29.0;-0.031083083991959918;-0.2111807107385992;-0.9927891735466327;1.016;0.0065168148389904874
55:29.0;-0.02639382111331541;-0.21362145249405673;-0.9894315981384131;1.015;0.005578698726576113
55:29.0;-0.021772683645324288;-0.2161757073112446;-0.9852231001064821;1.016;0.004637174478698298
55:29.1;-0.017411117867302806;-0.2187479209587365;-0.9803083657301659;1.013;0.0037336473741930646
55:29.1;-0.013483962438787604;-0.22124219341950851;-0.974876780670992;0.998;0.0029082732997526566
55:29.1;-0.010140165917586716;-0.22356815035079466;-0.9691543941677636;0.998;0.002197090590532025
55:29.1;-0.007494954295191808;-0.22564593354003082;-0.9633915635558818;0.99;0.0016292935529225656
55:29.1;-0.005624359700137694;-0.227410173889421;-0.9578477327290645;0.983;0.0012251223240779545
55:29.1;-0.0045624332931511104;-0.22881334278349555;-0.9527747116697882;0.976;0.0009946449804560924
55:29.1;-0.004300831718871302;-0.22982863781872478;-0.9483998688461454;0.972;0.0009374499241516799
55:29.1;-0.004790428416216232;-0.23045209766023844;-0.9449110373830487;0.9690000000000001;0.0010431480304106697
55:29.1;-0.005944944350014272;-0.23070337048144252;-0.9424447303646727;0.9670000000000001;0.0012925805703493777
55:29.1;-0.007646928777483527;-0.2306244855563806;-0.9410784527647956;0.966;0.0016596568003503745
55:29.2;-0.009756425739576538;-0.230276041222783;-0.9408273179927943;0.963;0.002113729541467564
55:29.2;-0.012122063519295418;-0.22973054168631313;-0.9416451401160761;0.966;0.002622301125241083
55:29.2;-0.014593230628512163;-0.22906347907660765;-0.9434302432394522;0.966;0.0031536761433983524
55:29.2;-0.01703123697082004;-0.22834397733470085;-0.9460358898528708;0.9740000000000001;0.0036791150227830937
55:29.2;-0.019317760074935277;-0.22762734377479044;-0.9492843902060041;0.981;0.004174241177396824
55:29.2;-0.021360191194551216;-0.22695109964010743;-0.9529828463637832;0.986;0.004619792936754249
55:29.2;-0.023094503526780465;-0.22633468791385747;-0.956937696047755;0.988;0.00500199682838989
55:29.2;-0.02448633599143192;-0.22578197329096705;-0.9609656065275399;0.99;0.005312768754885373
55:29.2;-0.02553047656602389;-0.22528518747602286;-0.9648998272793369;0.993;0.005549754705298672
55:29.2;-0.02624835589217146;-0.2248291797560867;-0.9685927179012219;0.992;0.005716049506021048
55:29.3;-0.026683011212930426;-0.22439539355840107;-0.9719160743214212;0.993;0.00581939103921962
55:29.3;-0.02689164366789108;-0.22396538786335243;-0.9747612219736679;1.001;0.005870789357576021
55:29.3;-0.02693701481725108;-0.22352372930255474;-0.9770405839023559;1.001;0.005882821940233465
55:29.3;-0.026879520879676405;-0.22305985060953795;-0.9786913946742689;1.006;0.005867981013841453
55:29.3;-0.026771448649039093;-0.22256841384786075;-0.979681038047126;1.008;0.00583740875692751
55:29.3;-0.026654150847199236;-0.22204808734486572;-0.9800127917478442;1.0090000000000001;0.0058002088591144274
55:29.3;-0.026558011405629925;-0.22149917899421986;-0.9797304505345974;1.0090000000000001;0.00576334052194466
55:29.3;-0.026504065129880346;-0.2209209382257497;-0.9789202418027745;1.0090000000000001;0.005731874565242135
55:29.3;-0.02650539270942309;-0.22030954772797345;-0.9777086975360311;1.0070000000000001;0.005709223447391958
55:29.3;-0.026566615721773042;-0.21965779646033964;-0.9762555992537504;1.003;0.005697002292273134
55:29.4;-0.026681004925651137;-0.21895695183352296;-0.9747418244442757;0.9990000000000001;0.005694433463211661
55:29.4;-0.026826216465564576;-0.21820053975755319;-0.9733530414260185;0.992;0.005697517075994375
55:29.4;-0.026960748376446776;-0.21738894194328132;-0.9722614862192757;0.992;0.005698394006286247
55:29.4;-0.027023441233079638;-0.2165332616632263;-0.9716088178659655;0.991;0.005685343611123155
55:29.4;-0.0269377009623351;-0.21565704752922232;-0.9714926597796496;0.991;0.005643697221065353
55:29.4;-0.026620786777863482;-0.21479519033862293;-0.9719581496847425;0.992;0.005557673187140915
55:29.4;-0.025996703166916352;-0.21399026693853193;-0.9729946214955435;0.993;0.005412809410211301
55:29.4;-0.02500956542775847;-0.21328733438129902;-0.9745370354109716;0.992;0.005198398398907374
55:29.4;-0.02363385888679758;-0.21272845026194723;-0.976471876751897;0.995;0.004909304319314259
55:29.4;-0.02187932644194124;-0.21234809661385232;-0.9786475122233789;1.001;0.0045468289553545396
55:29.5;-0.01979044744681051;-0.21217026473162168;-0.9808887571777298;1.0070000000000001;0.004118697426508201
55:29.5;-0.017442124714383285;-0.2122071827916752;-0.9830143392892707;1.014;0.003638474371676566
55:29.5;-0.014933612815233066;-0.21245894105467217;-0.9848546229721256;1.014;0.0031247266221089876
55:29.5;-0.01238221632998916;-0.21291327586741152;-0.9862664996461109;1.011;0.0026001320891468525
55:29.5;-0.009917190538184984;-0.21354547085920172;-0.9871434243561161;1.011;0.002090543838436859
55:29.5;-0.007672897561986497;-0.21431892032020303;-0.9874205992088306;1.011;0.0016237609617948477
55:29.5;-0.005779510397924141;-0.2151869056709418;-0.9870767450499537;1.012;0.0012276026302544803
55:29.5;-0.004350358323653345;-0.21609580168638617;-0.9861338826930717;1.012;0.0009270587135380553
55:29.5;-0.0034671838769002876;-0.21698960665465378;-0.9846555770080901;1.013;0.0007407985984825032
55:29.5;-0.003166785764678882;-0.21781533916188173;-0.9827431707404247;1.011;0.0006778711943469177
55:29.6;-0.003433362076853823;-0.21852828400973598;-0.9805292292051351;1.0070000000000001;0.000735678062224247
55:29.6;-0.004199713463955708;-0.21909566212623935;-0.9781678670928542;1.001;0.0009000504051383979
55:29.6;-0.005357559341939996;-0.21949771011102354;-0.9758225707357507;1.001;0.0011475400273155572
55:29.6;-0.006773982856758168;-0.21972626520708763;-0.9736528349275982;0.997;0.0014492062547809923
55:29.6;-0.008309458869558351;-0.2197818872834908;-0.9718008228985112;0.993;0.001774769282304848
55:29.6;-0.009833501615265543;-0.21967081712077555;-0.9703787818793015;0.99;0.0020961475542984995
55:29.6;-0.011235518958255976;-0.21940282265311514;-0.9694580005696761;0.986;0.0023898153509370515
55:29.6;-0.012430291318919767;-0.21899048306167823;-0.9690607091799209;0.985;0.002637895177410956
55:29.6;-0.013359390212522712;-0.21844986891345458;-0.9691568213664411;0.987;0.002828345633166791
55:29.6;-0.013990977848886033;-0.21780196258523493;-0.9696672403204218;0.99;0.002954830554883589
55:29.7;-0.014320097773139565;-0.21707365707626525;-0.9704743947026325;0.995;0.0030167351770262075
55:29.7;-0.014369960725975526;-0.21629720321946955;-0.9714389543310756;1.004;0.003019409378344581
55:29.7;-0.014192634444791177;-0.21550784983995916;-0.9724197613219981;1.004;0.0029742665491536307
55:29.7;-0.013866204080512713;-0.21474060680626594;-0.973292638738465;1.004;0.0028981122491916174
55:29.7;-0.013486061425039938;-0.21402756690224675;-0.9739640067383821;1.002;0.0028112389115829512
55:29.7;-0.013150517037465625;-0.21339671996257306;-0.9743773167390912;1.0;0.00273437284972801
55:29.7;-0.012943900664416733;-0.21287210808063303;-0.974512815858468;0.996;0.002685168150737311
55:29.7;-0.01292182566818671;-0.21247410177420878;-0.9743828241026943;0.995;0.002675219980254771
55:29.7;-0.0131026018787479;-0.21221827819499847;-0.9740252623975433;0.997;0.0027083859536232084
55:29.7;-0.01346660192832775;-0.21211235500292627;-0.9734975024066375;0.9990000000000001;0.0027807300495013517
55:29.8;-0.013962956851778648;-0.21215230450178635;-0.9728709553216446;0.998;0.002881909824344601
55:29.8;-0.014521208388051944;-0.21231987314084663;-0.9722253388594106;0.9940000000000001;0.0029975079228685177
55:29.8;-0.015064792191117508;-0.2125834007109374;-0.971641495040695;0.9940000000000001;0.003111705940844615
55:29.8;-0.015523329597147802;-0.21290231322059489;-0.971192816232584;0.993;0.003209746398038987
55:29.8;-0.015841521023213092;-0.21323410955805225;-0.9709364390900556;0.9890000000000001;0.0032797772974336625
55:29.8;-0.01598374935097981;-0.21354190024947645;-0.97090575426733;0.9890000000000001;0.003313895723889001
55:29.8;-0.01593481553714321;-0.21380053229327625;-0.9711058411166308;0.992;0.0033084333417064695
55:29.8;-0.0156980324737123;-0.21399991936040766;-0.9715130767040355;0.995;0.003263679349099696
55:29.8;-0.015291913962203795;-0.21414528580594824;-0.9720790182063647;0.995;0.0031832586901811453
55:29.8;-0.014746105845438937;-0.21425505178894266;-0.9727373702644115;0.997;0.0030732933648125534
55:29.9;-0.014096791130973367;-0.21435748011348246;-0.9734123769059796;0.998;0.0029414114046573936
55:29.9;-0.013382048636940275;-0.214487018512759;-0.974027298389177;0.998;0.0027957268990765473
55:29.9;-0.012638029453428885;-0.21468078472586918;-0.9745122404784495;0.998;0.002643990167556433
55:29.9;-0.01189658623762345;-0.2149750549221333;-0.9748112195058807;1.0;0.002493049747509182
55:29.9;-0.01118427583130584;-0.21540132971438317;-0.9748886066341733;1.001;0.0023486118301707668
55:29.9;-0.010522181095320108;-0.21598191611684972;-0.9747346896846751;1.002;0.0022151828693842755
55:29.9;-0.009926075532266676;-0.21672562994368566;-0.9743694446761966;1.001;0.0020960976256193986
55:29.9;-0.009406905851069083;-0.21762455479101325;-0.9738434204255527;1.002;0.001993626636070669
55:29.9;-0.008972072202763668;-0.2186526554733823;-0.973234932980677;1.001;0.0019092605759684492
55:29.9;-0.008627954262980572;-0.2197666595339266;-0.9726431597093045;0.9990000000000001;0.0018442643784715171
55:30.0;-0.008383227861413852;-0.22090922722544717;-0.9721771805719609;0.996;0.0018004064080810493
55:30.0;-0.008251527969709335;-0.22201420094166033;-0.9719417509372683;0.992;0.0017805549001153715
55:30.0;-0.00825202819600662;-0.223013470089331;-0.9720215928230207;0.992;0.0017888244044174612
55:30.0;-0.008407431605997766;-0.22384444156606864;-0.9724668727272493;0.9890000000000001;0.0018301406758488177
55:30.0;-0.008739790694822003;-0.22445673514770226;-0.9732827837611865;0.99;0.001909293591618481
55:30.0;-0.009265152180660924;-0.22481704655866439;-0.9744256062395948;0.996;0.0020296936038330065
55:30.0;-0.009988509591677163;-0.22491167025639305;-0.9758063786089013;1.001;0.0021921806218971277
55:30.0;-0.010900831412985031;-0.22474642332485872;-0.9773014709130351;1.006;0.002394313225779819
55:30.0;-0.011979567051017144;-0.224343976809929;-0.9787675507244953;1.006;0.002630480577131065
55:30.0;-0.013192912676979699;-0.22373915180414056;-0.9800577308288729;1.0090000000000001;0.002892906078521855
55:30.1;-0.014506516536726447;-0.22297313466028548;-0.981036372841212;1.008;0.0031732244096197657
55:30.1;-0.015889949406918073;-0.22208749292956345;-0.9815912831535909;1.0090000000000001;0.0034639954190775154
55:30.1;-0.017320384115899617;-0.2211187844416161;-0.9816429571855467;1.0090000000000001;0.0037595573358896947
55:30.1;-0.018782784070607822;-0.22009472100173505;-0.9811507986685447;1.01;0.004056069179314812
55:30.1;-0.02026780759754847;-0.21903269224629077;-0.9801161051531477;1.006;0.0043510416417939565
55:30.1;-0.02176897201811158;-0.21794068620353158;-0.9785815575960508;1.006;0.0046427282258804355
55:30.1;-0.023279868531015005;-0.21681994835844381;-0.9766272386223188;1.002;0.004929564947229958
55:30.1;-0.024791754630793528;-0.2156686285092235;-0.9743636338024175;0.996;0.005209731101419183
55:30.1;-0.02629188301268638;-0.21448583471669563;-0.9719225402185137;0.993;0.00548090103894571
55:30.1;-0.027762681536310476;-0.21327543499180707;-0.9694473365245289;0.992;0.005740192667170866
55:30.2;-0.029181281278963033;-0.21204866456510474;-0.967084119552234;0.993;0.005984173137877649
55:30.2;-0.030518763735699225;-0.21082467866820673;-0.9649742843888561;0.9890000000000001;0.006208749301368437
55:30.2;-0.03173919069622875;-0.20962905209557497;-0.9632478613865338;0.9890000000000001;0.006408927705857074
55:30.2;-0.03279921228352176;-0.20849135250528622;-0.9620164176198687;0.9840000000000001;0.006578607018621471
55:30.2;-0.03364908776527788;-0.20744317450143393;-0.9613648775529906;0.98;0.006710589860432385
55:30.2;-0.03423527761404864;-0.20651716926980693;-0.9613428275309377;0.978;0.006796859739583872
55:30.2;-0.0345038409397786;-0.2057466702476414;-0.9619570904737106;0.9790000000000001;0.00682898185262829
55:30.2;-0.03440356265816842;-0.205165338299757;-0.9631677744297853;0.981;0.006798441306486267
55:30.2;-0.033888573039292345;-0.20480664219657682;-0.9648892610504699;0.9840000000000001;0.0066969150878649995
55:30.2;-0.03292133990214612;-0.20470333695483653;-0.9669962983191381;0.987;0.00651669262051132
55:30.3;-0.03147687670472665;-0.20488702520832647;-0.969334352131762;0.992;0.006251434623305564
55:30.3;-0.029547855374481895;-0.2053875270906402;-0.9717328636368563;0.9990000000000001;0.005897214452975255
55:30.3;-0.027149470829021524;-0.20623148870814942;-0.9740197167511299;0.9990000000000001;0.005453610211837031
55:30.3;-0.024323066766504944;-0.20743950572573577;-0.9760351260287943;0.998;0.004924648619690827
55:30.3;-0.021137975183786146;-0.2090211665504522;-0.9776439094544588;0.998;0.004319508669095715
55:30.3;-0.01769113565472127;-0.21096812471232843;-0.9787464435141541;1.004;0.0036529417929542307
55:30.3;-0.014104090766835943;-0.21324642688763393;-0.9792890050725498;1.0090000000000001;0.002945355599583606
55:30.3;-0.010517212026952999;-0.21579034980825232;-0.97927281026062;1.014;0.002222472238590813
55:30.3;-0.007081506172371639;-0.21850052290285152;-0.9787588944943293;1.015;0.00151444616713385
55:30.3;-0.00394882386170349;-0.22124863570176456;-0.9778648529501621;1.014;0.0008543330362251105
55:30.4;-0.0012613164298398668;-0.22388920513972066;-0.9767505660774246;0.993;0.00027582960592395105
55:30.4;0.0008592392499966981;-0.2262762310805929;-0.9755937086633801;0.993;0.0001896802156643165
55:30.4;0.0023215026258629743;-0.2282806371250228;-0.9745605544429199;0.993;0.0005164723600823771
55:30.4;0.003073106795514624;-0.22980466373737057;-0.9737796673389523;0.9890000000000001;0.0006876971005839776
55:30.4;0.003106920404451153;-0.2307914100486853;-0.9733240144498324;0.9890000000000001;0.0006979225111804619
55:30.4;0.002463947165824611;-0.23122944073163082;-0.9732038661257107;0.992;0.0005544703728673491
55:30.4;0.0012308549010334282;-0.2311528504237521;-0.9733709794639457;1.001;0.00027693924657521877
55:30.4;-0.00046958499235378036;-0.23063701623738944;-0.9737328714812095;1.0090000000000001;0.00010545885478514823
55:30.4;-0.0024944547025098824;-0.22978995341831632;-0.9741735379361612;1.0090000000000001;0.0005583968855709241
55:30.4;-0.0046996689301259725;-0.22873936275544968;-0.974575163690208;1.0070000000000001;0.0010476675956070896
55:30.5;-0.006957826859639117;-0.22761688548318457;-0.9748358180168119;1.005;0.0015438658894277927
55:30.5;-0.00917166765904592;-0.22654279759648618;-0.9748805578922465;1.001;0.0020255826949975306
55:30.5;-0.011280969617841264;-0.22561437816096389;-0.9746660646843069;1.001;0.0024806703066308717
55:30.5;-0.013261897378169359;-0.2248993849422088;-0.9741805371660373;1.0;0.0029055836256743997
55:30.5;-0.015119472715379374;-0.22443422453289788;-0.9734407791472769;0.9990000000000001;0.0033032030094391246
55:30.5;-0.0168756909103594;-0.22422558266713982;-0.9724878341575139;0.998;0.0036798566474543987
55:30.5;-0.018557069510714824;-0.22425428350477714;-0.9713819356668574;0.995;0.00404240818575498
55:30.5;-0.020185399123798534;-0.2244805348461555;-0.9701972869275343;0.995;0.004396186267936734
55:30.5;-0.021773741519207968;-0.2248500350033066;-0.9690171099294611;0.996;0.004744139687168509
55:30.5;-0.023327021582729934;-0.2253003730204085;-0.9679291801351257;0.997;0.005087035690857378
55:30.6;-0.024844779609904086;-0.2257671531517572;-0.9670214384989296;0.997;0.005424153954263104
55:30.6;-0.026323904211574514;-0.22618972876377752;-0.966376633018404;0.991;0.005753996611092118
55:30.6;-0.027760452649616015;-0.2265167477176774;-0.9660652088560389;0.991;0.006074818442897614
55:30.6;-0.029150369308793934;-0.22671120975661244;-0.9661369804704444;0.9890000000000001;0.0063849244291168126
55:30.6;-0.030488904712359256;-0.22675392517909584;-0.9666133856207899;0.988;0.0066826611666255305
55:30.6;-0.0317687309368079;-0.2266441623227835;-0.9674824581963443;0.988;0.006966064690916454
55:30.6;-0.03297745914034701;-0.22639720810624026;-0.9686982178844398;0.991;0.007232305428050943
55:30.6;-0.0340958897540645;-0.22603989409559053;-0.9701852171869929;0.9990000000000001;0.007477247844489699
55:30.6;-0.03509805765059016;-0.22560567707603404;-0.9718475743626469;1.0;0.007695401115491864
55:30.6;-0.035952937120629434;-0.22513025957286062;-0.9735805078788824;1.002;0.007880252211959886
55:30.7;-0.03662658090498455;-0.22464804529440385;-0.975282015534737;1.004;0.008024708010115601
55:30.7;-0.03708344103206845;-0.22418972756384856;-0.9768629538852007;1.0090000000000001;0.00812137146771885
55:30.7;-0.03728655729135924;-0.22378147163395742;-0.9782544308017529;1.0090000000000001;0.008162594749197803
55:30.7;-0.03719742490620829;-0.22344582667507504;-0.9794115751377204;1.0090000000000001;0.008140486413592692
55:30.7;-0.036776953706771205;-0.22320384545324665;-0.980312971825266;1.008;0.008047151451394471
55:30.7;-0.03598870534867418;-0.22307733790118806;-0.9809558554476758;1.006;0.00787537315245634
55:30.7;-0.03480455788551092;-0.22309002024176486;-0.9813481668842444;1.004;0.007619726441258854
55:30.7;-0.03321143073515156;-0.22326674783266207;-0.9814993273143046;1.001;0.007277825492711624
55:30.7;-0.031216611834818223;-0.22363095853915502;-0.9814120409400084;0.9990000000000001;0.006851238269395735
55:30.7;-0.028849408233972244;-0.22420130497946766;-0.9810775806031635;1.002;0.006345683346594864
55:30.8;-0.02615819519426664;-0.22498855535334777;-0.9804764151002311;1.0090000000000001;0.0057703924996524505
55:30.8;-0.023203932579050093;-0.22599323909071548;-0.9795842729498857;1.0090000000000001;0.005136873201185672
55:30.8;-0.02005306495434163;-0.22720397402961726;-0.9783814756167355;1.0090000000000001;0.004457639110829515
55:30.8;-0.016772909050366984;-0.22859651284281982;-0.9768622798722296;1.006;0.003745513212761803
55:30.8;-0.013430650380890048;-0.23013402558953744;-0.9750417203738694;1.005;0.003013707348881374
55:30.8;-0.010094695009452174;-0.23176923921536016;-0.9729589236248488;1.006;0.0022763734044042015
55:30.8;-0.006836029207102463;-0.23344837685883404;-0.9706767122904345;1.004;0.0015490640629043295
55:30.8;-0.0037275725874129934;-0.23511595260868107;-0.9682773002923081;0.9990000000000001;0.0008486096320964914
55:30.8;-0.0008409548065549732;-0.2367193818630054;-0.9658537892354325;0.996;0.00019227280549395884
55:30.8;0.0017580543061479633;-0.23821301037108875;-0.9634976837460756;0.995;0.0004035045522199055
55:30.9;0.004013370407843053;-0.239561471172572;-0.9612836374296083;0.9740000000000001;0.0009242251143122362
55:30.9;0.00588023373180959;-0.24074187166413777;-0.9592542410689054;0.9740000000000001;0.0013579380253213808
55:30.9;0.007324672092517329;-0.24174398865368155;-0.9574098196106353;0.9740000000000001;0.0016952812087134884
55:30.9;0.00832197470840887;-0.24256796947452028;-0.9557087982570608;0.982;0.0019292363159285986
55:30.9;0.008855705439751485;-0.24321955537746234;-0.9540812288143905;0.99;0.002054977182766882
55:30.9;0.008918206507991942;-0.24370328635074437;-0.9524529366476775;0.998;0.0020700576259077876
55:30.9;0.008512198739804844;-0.24401512280257004;-0.9507733275143275;0.9990000000000001;0.0019748562423901016
55:30.9;0.0076518493478313606;-0.24413721247631798;-0.9490380077411026;0.992;0.0017728990127004233
55:30.9;0.006361951886387476;-0.2440374815762484;-0.9472989975732025;0.985;0.0014707335263937362
55:30.9;0.004675702797399605;-0.24367476200084948;-0.9456599237378785;0.976;0.0010774383588106667
55:31.0;0.002633081009187794;-0.24300784977518336;-0.9442587388063263;0.9670000000000001;0.0006041927869298615
55:31.0;0.0002814884800245421;-0.24200575969345137;-0.9432439262313485;0.966;6.425550564856325e-05
55:31.0;-0.0023213955663084723;-0.2406566019095485;-0.9427509702825843;0.966;0.0005266764733262676
55:31.0;-0.005104163524098428;-0.23897329562021727;-0.9428843030454149;0.968;0.0011500914059741918
55:31.0;-0.007979789275744846;-0.2369952573387201;-0.9437070228507521;0.973;0.0017847124987470536
55:31.0;-0.010846769300161152;-0.23478627362733082;-0.9452378527697568;0.973;0.002407211288030222
55:31.0;-0.013593293971145812;-0.23242983911262086;-0.9474531373794215;0.973;0.0029934659945143414
55:31.0;-0.016103331654714722;-0.23002348176778192;-0.9502916452407744;0.978;0.0035200174906047333
55:31.0;-0.018263334168750034;-0.22767279476245184;-0.9536609756734323;0.982;0.003965383687653484
55:31.0;-0.019968620978273205;-0.22548512433079893;-0.957445015977726;0.985;0.004311017764638131
55:31.1;-0.021129162213843946;-0.22356291343459075;-0.9615117121775929;0.988;0.004541890050813994
55:31.1;-0.02167517545578586;-0.2219971847380456;-0.9657202559400994;0.995;0.004646879699990816
55:31.1;-0.02156278703606378;-0.2208618863540429;-0.9699270076936721;0.995;0.004619178266839961
55:31.1;-0.02077900000242741;-0.22020960994121008;-0.9739898178144264;0.995;0.004456719771892018
55:31.1;-0.019344577943446493;-0.2200687804715973;-0.977771148495158;0.998;0.004162506395499841
55:31.1;-0.01731380621456553;-0.2204421571466281;-0.9811415346206195;1.003;0.003744715821506832
55:31.1;-0.014770891108496687;-0.2213064497218435;-0.983985285266848;1.0090000000000001;0.0032165430740270376
55:31.1;-0.011823403618244915;-0.22261292576108538;-0.9862091182024555;1.016;0.002595744285295452
55:31.1;-0.008593604372429788;-0.2242890370060693;-0.9877523422204674;1.022;0.0019038444858176724
55:31.1;-0.005208822870407595;-0.22624131736547098;-0.9885954402063364;1.026;0.0011650112338226239
55:31.2;-0.0017922504414237836;-0.22835994981762378;-0.9887631934164506;1.024;0.0004046792406574396
55:31.2;0.00154456973319659;-0.23052529963470644;-0.9883194086051087;1.005;0.0003519033811399123
55:31.2;0.004706684174472703;-0.23261629952665433;-0.987353438770157;1.005;0.001081005349734331
55:31.2;0.00761806065335178;-0.23451995975299014;-0.9859629909016293;1.003;0.001761508935946106
55:31.2;0.010222241548101682;-0.23614067533750444;-0.9842399091039122;1.005;0.002375843943742264
55:31.2;0.012482593501284292;-0.23740764933083497;-0.9822638062968889;1.01;0.0029109026236874653
55:31.2;0.014382684131413321;-0.23827915870326102;-0.9801043392355183;1.018;0.0033589095775882895
55:31.2;0.015926074050780392;-0.2387435741284048;-0.9778289943843226;1.0190000000000001;0.00371794818248822
55:31.2;0.017134227676010323;-0.23881779819826668;-0.9755107957453112;1.013;0.0039917497192330665
55:31.2;0.01804184431089433;-0.23854359881208637;-0.973230521906947;1.004;0.004188556888861619
55:31.3;0.018690063378544248;-0.2379822401319048;-0.971071047148403;0.9940000000000001;0.004319229970488526
55:31.3;0.01911885258445837;-0.23720817975476122;-0.9691055974785621;0.988;0.0043950375259386495
55:31.3;0.019360267690055895;-0.23630265798512007;-0.967384671717121;0.988;0.004425671412875748
55:31.3;0.019434199213442152;-0.23534767758411243;-0.9659267605759768;0.987;0.004417949684457944
55:31.3;0.01934755213613383;-0.23442064690110734;-0.9647160924266769;0.9890000000000001;0.004375436735578418
55:31.3;0.01909672278152517;-0.23358996925478376;-0.9637079538760805;0.992;0.004298911223264229
55:31.3;0.018672285071052553;-0.2329118870911387;-0.9628400380949943;0.9940000000000001;0.004187388583701722
55:31.3;0.018064376001062015;-0.2324286743030322;-0.9620471136526961;0.995;0.004039326980431485
55:31.3;0.017267415753329816;-0.23216786910739337;-0.9612759617928817;0.995;0.003853696808772011
55:31.3;0.01628328502089914;-0.23214197321474347;-0.9604978748148048;0.996;0.0036307145422482885
55:31.4;0.01512261010425059;-0.2323481183254071;-0.959716739870348;0.991;0.003372166307865062
55:31.4;0.013804267864712859;-0.23276761951377448;-0.9589715773262886;0.991;0.003081354593276266
55:31.4;0.012353623903601046;-0.23336586066998657;-0.9583332561593311;0.991;0.0027627924323937775
55:31.4;0.010800081775448464;-0.23409322704268704;-0.9578957153862221;0.987;0.002421776848272332
55:31.4;0.009174161311805444;-0.23488767209893582;-0.9577623956946728;0.983;0.0020638796905441655
55:31.4;0.007504177648268893;-0.2356790597796745;-0.9580293887727667;0.9790000000000001;0.0016943492525192125
55:31.4;0.005813026092997383;-0.2363948500042709;-0.9587681420978258;0.9790000000000001;0.0013175098725991242
55:31.4;0.004116039934804707;-0.23696634672842878;-0.960011348032661;0.98;0.0009363594969360033
55:31.4;0.00242087143980993;-0.23733477041480344;-0.9617451010579686;0.985;0.0005525773486478251
55:31.4;0.000729893320652922;-0.23745654849971076;-0.9639088979142539;0.99;0.00016706271291558368
55:31.5;-0.0009552141659658348;-0.23730718952626162;-0.9664033053886637;0.998;0.0002190635176293799
55:31.5;-0.0026281163464346308;-0.2368831179214584;-0.9691034037209719;1.006;0.0006033215208249659
55:31.5;-0.0042737709365208544;-0.23620108486512725;-0.9718746095336485;1.006;0.0009810776125542152
55:31.5;-0.005867254963827979;-0.23529506467375283;-0.9745869922499553;1.005;0.0013454525606435635
55:31.5;-0.007375871669068034;-0.23421080444869258;-0.9771254716434027;1.0070000000000001;0.0016879928872417082
55:31.5;-0.008763576800073903;-0.2329987360369354;-0.9793954899073721;1.0070000000000001;0.001999829920669097
55:31.5;-0.009995616293293085;-0.2317067993488482;-0.981325154943565;1.0090000000000001;0.0022728003417617298
55:31.5;-0.011041415892631004;-0.23037511783858391;-0.982864974905458;1.01;0.002500081681141431
55:31.5;-0.011875583463791948;-0.2290339258420884;-0.9839858916543934;1.012;0.0026763545448881187
55:31.5;-0.012478498370861943;-0.22770497220902425;-0.9846759777829895;1.011;0.002797874200924071
55:31.6;-0.01283763588998588;-0.2264052831934347;-0.9849361463061957;1.008;0.0028627253690588625
55:31.6;-0.01294931820776289;-0.2251513468721152;-0.9847756010027146;1.0070000000000001;0.0028711688410794508
55:31.6;-0.012819755487304907;-0.22396210595289237;-0.9842082296127787;1.0070000000000001;0.002825799062003293
55:31.6;-0.012464505922717046;-0.2228601377361306;-0.9832511877925845;1.008;0.0027313159610110244
55:31.6;-0.011906314357507454;-0.2218710476161252;-0.9819262638360761;1.0090000000000001;0.00259392165748201
55:31.6;-0.011172204486468247;-0.22102131236544192;-0.9802634799780056;1.0090000000000001;0.002420560001532709
55:31.6;-0.01029118733343085;-0.22033505748365417;-0.9783053333046979;1.0070000000000001;0.002218316493051525
55:31.6;-0.009293510223194093;-0.21983044632585255;-0.9761096666190514;1.003;0.0019941886328103853
55:31.6;-0.008211278919889887;-0.21951622929698208;-0.9737496325548274;0.9990000000000001;0.0017551924629890477
55:31.6;-0.007079522708647483;-0.21938881477934186;-0.971310347671989;0.993;0.0015086082435651325
55:31.7;-0.005937003124729005;-0.2194302262964043;-0.9688830881835314;0.991;0.0012622201352700223
55:31.7;-0.00482693095512208;-0.2196073515149772;-0.9665587002535495;0.986;0.0010245807579812886
55:31.7;-0.0037981193572492683;-0.21987282996863147;-0.9644220116920095;0.986;0.0008053919579143289
55:31.7;-0.002906304201055019;-0.22016775428259835;-0.9625485071489371;0.9890000000000001;0.00061591021509923
55:31.7;-0.0022141842505239576;-0.22042607589732935;-0.9610034763089298;0.9890000000000001;0.00046903114843710784
55:31.7;-0.0017884736036974786;-0.22058032404061254;-0.9598425279093717;0.9890000000000001;0.00037865988049160134
55:31.7;-0.0016931596767321858;-0.22056816078115848;-0.9591115157961317;0.988;0.000358187020425198
55:31.7;-0.0019795007165346644;-0.22033938338744832;-0.958844105572044;0.985;0.00041821133141672564
55:31.7;-0.0026745894164672403;-0.21986296297331948;-0.9590562536306477;0.98;0.0005639664640964458
55:31.7;-0.003771406632745608;-0.21913345476596474;-0.9597384157547635;0.977;0.0007931675261297532
55:31.8;-0.0052236883390912444;-0.21817578459992246;-0.9608480041220436;0.975;0.0010950614651010502
55:31.8;-0.006948022508340594;-0.21704718511886736;-0.9623056766759494;0.983;0.001451203851252115
55:31.8;-0.00883341272886739;-0.21583520081142682;-0.9639984830489234;0.983;0.0018379223072582523
55:31.8;-0.010756067793075969;-0.2146513424743835;-0.9657907391233301;0.992;0.0022298218997862116
55:31.8;-0.012595789663989053;-0.21362075254174884;-0.9675410515931274;0.998;0.0026033840581328664
55:31.8;-0.014250390834663397;-0.2128689178357419;-0.9691221463088254;1.0;0.0029397983787505045
55:31.8;-0.01564543298484888;-0.2125073253727204;-0.9704392721158335;1.001;0.0032264865227362035
55:31.8;-0.01673796015566334;-0.21262069586427418;-0.9714433146073657;1.002;0.0034572081546220524
55:31.8;-0.017514484805503123;-0.2132580852102296;-0.9721362644573991;1.003;0.0036310315013827706
55:31.8;-0.01798458747825589;-0.21442868778574362;-0.9725682984408561;0.9990000000000001;0.0037506235641560364
55:31.9;-0.018172106496865115;-0.21610192413172621;-0.9728268728396576;0.997;0.003820317570588542
55:31.9;-0.01810628645238539;-0.2182112168815319;-0.9730193703998711;0.987;0.0038443944727302986
55:31.9;-0.01781501861369068;-0.22066095759148205;-0.9732524839986126;0.987;0.0038259324665649215
55:31.9;-0.017321330774247395;-0.22333576425839413;-0.9736131748406169;0.986;0.0037663959350835424
55:31.9;-0.01664334887379717;-0.2261108852755617;-0.9741561496706499;1.001;0.003665985675814574
55:31.9;-0.01579732727028416;-0.2288627926989979;-0.9749003345622405;1.001;0.0035246745928903737
55:31.9;-0.014802458080562722;-0.2314788491494501;-0.9758330771302429;1.0070000000000001;0.0033436490641438
55:31.9;-0.013685288130269804;-0.2338648137687067;-0.9769183785698987;1.0090000000000001;0.003126634460689868
55:31.9;-0.012481657011678469;-0.23594977371527348;-0.9781054160389594;1.0090000000000001;0.002880563631140843
55:31.9;-0.011235076871150497;-0.23768895842332527;-0.9793350516773159;1.0070000000000001;0.0026152689312020985
55:32.0;-0.009991793910100142;-0.23906466287012376;-0.980543887791665;1.0070000000000001;0.0023422103222581468
55:32.0;-0.008794204904921844;-0.2400848109896345;-0.9816669918851495;1.013;0.0020726475336432463
55:32.0;-0.00767528653213679;-0.24077869259930693;-0.9826407389245841;1.013;0.001815964752973773
55:32.0;-0.0066563328049919655;-0.2411901481165638;-0.9834061541831594;1.013;0.0015788014398731534
55:32.0;-0.005748788519155931;-0.2413691737194521;-0.9839120914968812;1.012;0.0013652570692902495
55:32.0;-0.004959412016810352;-0.24136313743266338;-0.9841177500932744;1.011;0.0011780078854190773
55:32.0;-0.004296942338784753;-0.24120880002268727;-0.9839948545876903;1.011;0.001019871607404457
55:32.0;-0.0037779394602316845;-0.24092636628473812;-0.9835301840283336;1.011;0.0008952143136254254
55:32.0;-0.003429697542151047;-0.2405166766099111;-0.982728810475906;1.015;0.0008106524597963668
55:32.0;-0.0032890698244959983;-0.2399621712109293;-0.9816175820351153;1.018;0.000774743970023855
55:32.1;-0.0033973484983720694;-0.23923146876640367;-0.9802472013951914;1.016;0.0007966985313476089
55:32.1;-0.0037925953875781655;-0.2382866753202481;-0.9786905481185035;1.003;0.000884467062495535
55:32.1;-0.0045014265675786275;-0.2370922093557451;-0.9770360653570493;1.003;0.001042744838112832
55:32.1;-0.0055319188803406106;-0.23562380944487296;-0.9753777377664915;1.003;0.0012713578680944332
55:32.1;-0.00686857744784673;-0.23387625529022488;-0.9738047626243667;0.9990000000000001;0.0015643172174155601
55:32.1;-0.008469817134260633;-0.2318684205735137;-0.9723931637150829;0.997;0.001909666521650432
55:32.1;-0.010268197554686833;-0.22964480250258462;-0.9712001380552905;0.996;0.0022901270248975253
55:32.1;-0.012173641367525407;-0.2272733872556536;-0.9702613234892494;0.996;0.0026844653829492296
55:32.1;-0.014079987583433144;-0.22484012930205347;-0.9695908824959732;0.995;0.003069478679769982
55:32.1;-0.015875035406630607;-0.22244031116053503;-0.9691839342686146;0.993;0.0034224286507380723
55:32.2;-0.01745338358577952;-0.22016724537064972;-0.9690207292622728;0.995;0.0037236204770747243
55:32.2;-0.01873010420769062;-0.21809990851302682;-0.969071838578982;0.995;0.003958691422737212
55:32.2;-0.019652282907363983;-0.2162925026175772;-0.9693032226709766;0.995;0.004120160458019233
55:32.2;-0.020205600939650913;-0.21476889899850107;-0.9696798249419392;0.995;0.004207959216625453
55:32.2;-0.02041457384725132;-0.21352312047948288;-0.9701668169484111;0.993;0.0042289411581177255
55:32.2;-0.02033667302250174;-0.21252508023126096;-0.9707285447832771;0.991;0.004195540282985874
55:32.2;-0.02005153811230166;-0.21172986079188497;-0.9713261462100075;0.991;0.004123774258150178
55:32.2;-0.019647316760666025;-0.21108857477236231;-0.9719154712912774;0.993;0.0040308484505528095
55:32.2;-0.019207078577679153;-0.21055875659530818;-0.972446933457814;0.997;0.003932787959411978
55:32.2;-0.018798378823923056;-0.21011218385077585;-0.972867940239438;1.0;0.003842603074532021
55:32.3;-0.018467802900629653;-0.2097383919783422;-0.9731271043290001;0.995;0.003769317613923495
55:32.3;-0.018240349599004668;-0.2094434841298848;-0.9731786964356146;0.995;0.003717856345715825
55:32.3;-0.018121980890057843;-0.20924570280931884;-0.9729863695599478;0.995;0.003689512382789805
55:32.3;-0.01810331876428705;-0.2091700888902348;-0.9725262089364359;0.995;0.0036826385379345795
55:32.3;-0.018163143705594884;-0.2092438530187909;-0.97178952746228;0.993;0.0036933115326916086
55:32.3;-0.018271253037787854;-0.20949294070287583;-0.9707856209401173;0.9940000000000001;0.0037158746934531604
55:32.3;-0.018390834187592634;-0.20993957679722697;-0.9695444699654243;0.998;0.0037433762428624867
55:32.3;-0.01848078552953155;-0.21060028322371055;-0.9681189358796662;0.995;0.0037679756948023227
55:32.3;-0.018498398097039646;-0.21148403817041628;-0.9665852228537086;0.992;0.00378139344729968
55:32.3;-0.018402346262110538;-0.21259092968421353;-0.9650401396945136;0.9890000000000001;0.0037754029171097
55:32.4;-0.018155209790798484;-0.21391210402522673;-0.9635946465939965;0.986;0.0037422345986157235
55:32.4;-0.017724709128253864;-0.2154312229081726;-0.9623645773561134;0.986;0.0036747465666966874
55:32.4;-0.017084002339279317;-0.2171265208662082;-0.9614601051521582;0.986;0.0035664304902183093
55:32.4;-0.016212490325355468;-0.21897225974750043;-0.9609751503369681;0.9840000000000001;0.0034115440841811944
55:32.4;-0.015098111743486272;-0.22093918878475116;-0.9609772581709264;0.982;0.0032055938815292026
55:32.4;-0.013740575633939048;-0.2229944249320181;-0.9614984437257457;0.982;0.0029461002303627242
55:32.4;-0.012154027049847908;-0.22510138053162526;-0.9625280473765576;0.982;0.0026333691923802207
55:32.4;-0.010368083231949043;-0.22722043771318126;-0.9640089677561622;0.983;0.002271051282044947
55:32.4;-0.00842726888732098;-0.22931104497557528;-0.9658385161207819;0.987;0.001866449934377642
55:32.4;-0.006389259055843499;-0.23133525124355706;-0.9678748576844328;0.992;0.0014305779338203426
55:32.5;-0.004321974013959527;-0.23326159943687183;-0.9699493387125271;1.005;0.000977854979878268
55:32.5;-0.002299629165252134;-0.2350677697213185;-0.9718833959101498;1.005;0.0005253697429670272
55:32.5;-0.0003983994741183953;-0.23674083694449058;-0.9735068503160862;1.005;9.181865928426971e-05
55:32.5;0.0013076826679856988;-0.2382750351934615;-0.9746740561141233;1.006;0.00030369687014566467
55:32.5;0.0027506564933590964;-0.2396679284706387;-0.9752760384907975;1.0070000000000001;0.000642945016863737
55:32.5;0.0038726125548329;-0.24091648330180615;-0.975248510914969;1.008;0.0009098836477218307
55:32.5;0.004629312226917275;-0.24201446443739474;-0.9745761122970892;1.008;0.0010918765992811333
55:32.5;0.004992572669769012;-0.24295183196011894;-0.9732928875808452;1.008;0.0011805601594147349
55:32.5;0.004950860160993498;-0.24371580198643228;-0.9714787829702892;1.005;0.0011721890727728038
55:32.5;0.004508298330136763;-0.24429263643475901;-0.9692519436015196;1.003;0.001067479894866785
55:32.6;0.0036829545436145718;-0.24466947356539295;-0.9667570128607761;0.9890000000000001;0.0008711510759202886
55:32.6;0.0025054543555358723;-0.24483614019773045;-0.9641507661574056;0.9890000000000001;0.0005914349298391365
55:32.6;0.0010185953653302968;-0.24478710854827404;-0.9615879246863892;0.9890000000000001;0.00023976138526550438
55:32.6;-0.0007220925064580179;-0.24452354484845243;-0.9592102540320848;0.9890000000000001;0.0001693664302568921
55:32.6;-0.0026476501486409347;-0.24405521967052546;-0.9571402499247402;0.987;0.0006184780322678484
55:32.6;-0.004676221082064818;-0.24340193172837307;-0.9554785540629922;0.9890000000000001;0.00108752687938825
55:32.6;-0.006716202758432832;-0.2425937918820516;-0.9543034215630601;0.987;0.0015548552433950126
55:32.6;-0.008672591080873399;-0.24166954615454456;-0.9536707299771288;0.985;0.001998799580155928
55:32.6;-0.01045575263027263;-0.24067271067030707;-0.9536134312738458;0.982;0.0023996865014740084
55:32.6;-0.011990810806385812;-0.2396464355842501;-0.9541400121361923;0.981;0.0027417738689015053
55:32.7;-0.01322553081302281;-0.23862867467019266;-0.9552324372876057;0.9790000000000001;0.0030147048696460795
55:32.7;-0.01413507153913818;-0.23764884795186272;-0.9568448342647651;0.983;0.0032142173477401927
55:32.7;-0.014723001193962328;-0.23672621996609974;-0.9589044322810926;0.983;0.0033420891978936246
55:32.7;-0.015018889927422958;-0.23586949253614556;-0.96131584009206;0.99;0.003405459388634892
55:32.7;-0.01507317960805686;-0.2350770155027869;-0.9639688168068097;0.995;0.0034156866924296542
55:32.7;-0.014950182989711751;-0.2343374792090533;-0.9667484831497724;1.0;0.003386895223906794
55:32.7;-0.014720147988851025;-0.23363164281668491;-0.9695457656249348;1.001;0.0033343574324581488
55:32.7;-0.01445104167467367;-0.23293591554592813;-0.9722655225331436;1.003;0.003272807750724909
55:32.7;-0.014200249746949032;-0.23222794537276412;-0.9748307378551723;1.005;0.003214694277052589
55:32.7;-0.014006593115554166;-0.23149321687289837;-0.9771826963271905;1.005;0.0031684477581904553
55:32.8;-0.013884199739825853;-0.23073085035457988;-0.9792781243002031;1.0070000000000001;0.0031371304098715435
55:32.8;-0.01382075342761315;-0.2299565826171763;-0.9810846906525497;1.005;0.0031180570976523285
55:32.8;-0.013781923392260108;-0.2292012870952261;-0.9825763894690747;1.005;0.003103796276697602
55:32.8;-0.01372132146697562;-0.2285044958017218;-0.9837303436582558;1.006;0.0030843720291646097
55:32.8;-0.01359308877565795;-0.22790397840526574;-0.9845263292550513;1.008;0.003049982832020953
55:32.8;-0.013363630009825144;-0.22742391110286905;-0.9849495786926742;1.012;0.002993467627424429
55:32.8;-0.013019654731196604;-0.2270649674148258;-0.984996135544106;1.015;0.002911951440612213
55:32.8;-0.012570967223777036;-0.22679927676916098;-0.9846786974325764;1.014;0.0028074039191818487
55:32.8;-0.012048126611042459;-0.22657169134172447;-0.9840304207912908;1.011;0.002686171234576727
55:32.8;-0.011496294264209872;-0.2263069776226614;-0.9831050872848007;1.01;0.0025577362561516313
55:32.9;-0.010966747320329455;-0.22592107678613566;-0.9819736994176362;1.006;0.0024329570520760582
55:32.9;-0.010507472832720504;-0.2253337968856112;-0.9807188006160439;1.006;0.002322036870219365
55:32.9;-0.010154626904118703;-0.2244804454054756;-0.9794280687184242;1.006;0.0022326211409229753
55:32.9;-0.009926742271047352;-0.2233207223856701;-0.9781881849353571;1.004;0.0021684937925560764
55:32.9;-0.009822714753136917;-0.22184404400259142;-0.9770791648967038;1.002;0.002129163725428186
55:32.9;-0.009823288884743472;-0.22007114687250612;-0.9761689226598936;1.0;0.002110303892901855
55:32.9;-0.009894801608738145;-0.21805245122975603;-0.9755080269972604;0.997;0.0021047422133945236
55:32.9;-0.009993754781426894;-0.2158640428358139;-0.9751250480891243;0.996;0.002103629767753918
55:32.9;-0.010071403108951042;-0.21360198252986243;-0.9750232068392815;0.997;0.0020975398033720467
55:32.9;-0.010078413461368231;-0.2113752021168362;-0.9751789430150316;0.998;0.0020774497224329623
55:33.0;-0.00997000678546921;-0.2092971676235166;-0.975542459465248;0.995;0.0020356587738610695
55:33.0;-0.009711561513217032;-0.2074771364462699;-0.9760398060468235;0.995;0.001966648932105096
55:33.0;-0.009283816001970889;-0.20601260008955438;-0.976576197033498;0.995;0.0018677831042525424
55:33.0;-0.008686319681969106;-0.20498431999833752;-0.9770408107251575;0.9940000000000001;0.0017396791345483682
55:33.0;-0.00793814746911626;-0.20445408495422687;-0.9773137396213967;0.998;0.0015861671786837727
55:33.0;-0.00707588709221546;-0.20446403951468656;-0.9772756767224542;1.0;0.001413887714773597
55:33.0;-0.006149983094619773;-0.20503616505757688;-0.9768200711041681;1.004;0.0012317397783146507
55:33.0;-0.005221139742487084;-0.20617117276144883;-0.9758660460498279;1.005;0.0010504695452380826
55:33.0;-0.004358127734850554;-0.20784696131638863;-0.97436927931084;1.001;0.0008826066948599433
55:33.0;-0.003637004655060465;-0.2100174070822586;-0.9723282421635456;0.996;0.0007426976497792715
55:33.1;-0.0031403101686421526;-0.21261256908772463;-0.9697848167683029;0.9890000000000001;0.0006474956590447671
55:33.1;-0.00295425333265661;-0.2155413198125228;-0.9668205253919641;0.987;0.0006156361786140477
55:33.1;-0.003162688721561785;-0.21869666353705972;-0.963551060521676;0.987;0.0006664588525166462
55:33.1;-0.0038383593378829265;-0.22196288632409364;-0.960121532259453;0.99;0.0008179979269323655
55:33.1;-0.00503326929203591;-0.22522313880414796;-0.9567029662853137;0.992;0.001084526813932052
55:33.1;-0.006770155062720028;-0.22836630691782783;-0.9534883265850244;0.986;0.001474164759090293
55:33.1;-0.009036138862518452;-0.23129254724235737;-0.9506853425061894;0.9790000000000001;0.0019869243560739253
55:33.1;-0.011778840203081101;-0.2339175719767217;-0.94850453605889;0.973;0.0026133933975066004
55:33.1;-0.014905174497263973;-0.2361764795603279;-0.9471433033512018;0.971;0.0033341827669334727
55:33.1;-0.01828360424632664;-0.23802770364688527;-0.9467689473201683;0.971;0.004120342561221256
55:33.2;-0.021750917734334484;-0.2394563216416286;-0.9475039405814775;0.9790000000000001;0.0049349745525651394
55:33.2;-0.025123753917220572;-0.24047498021851565;-0.9494153243606223;0.9790000000000001;0.0057360201185914245
55:33.2;-0.028213239991669456;-0.24112131340506884;-0.9525080981556028;0.9790000000000001;0.00647973493204119
55:33.2;-0.03084018871167496;-0.2414522322275671;-0.956721513685985;0.983;0.007124162083749424
55:33.2;-0.03284919753772967;-0.24153641089808497;-0.9619279498878802;0.986;0.007632203072160717
55:33.2;-0.03412067552634446;-0.24144653250152792;-0.9679351584006897;0.991;0.007974158405321225
55:33.2;-0.034579153174841594;-0.24125289463700547;-0.9744929934267375;1.001;0.00812953316610815
55:33.2;-0.034196027205934454;-0.24101961897049612;-0.9813053531584783;1.0090000000000001;0.008087833786280032
55:33.2;-0.032986326452606775;-0.24080361587815352;-0.988047152771604;1.02;0.007848282509266643
55:33.2;-0.031000997454909966;-0.2406551150348461;-0.9943849822850818;1.026;0.007418657496105434
55:33.3;-0.028317410952613073;-0.2406180066379036;-0.9999992018608597;1.0390000000000001;0.006813673538300215
55:33.3;-0.025031008339600376;-0.2407288659768026;-1.0046047551322006;1.0390000000000001;0.006053433061541114
55:33.3;-0.02125008588301511;-0.24101462331898696;-1.0079680567898899;1.0390000000000001;0.005162390496395557
55:33.3;-0.017093870925047598;-0.24148945298879107;-1.0099184520386182;1.04;0.004168932805410729
55:33.3;-0.0126923563495864;-0.24215159755583443;-1.0103545901848463;1.042;0.0031052989343121327
55:33.3;-0.008185837012584213;-0.24298097850265152;-1.0092470089901042;1.041;0.0020073950129106373
55:33.3;-0.003722604803995828;-0.24393845019302088;-1.0066377505457473;1.037;0.0009141140978741278
55:33.3;0.0005459552529523551;-0.24496717711779933;-1.002637142759195;1.034;0.00013409381156706697
55:33.3;0.004472826158766802;-0.2459962010038084;-0.9974177795114685;1.031;0.0010974570301410188
55:33.3;0.00792434286958362;-0.24694604928175312;-0.9912057820638503;1.025;0.0019396758901824563
55:33.4;0.010788729479566434;-0.2477359034265417;-0.9842692807900835;1.018;0.0026307112758854703
55:33.4;0.012982058594358874;-0.24829131887742256;-0.9769041279112668;1.002;0.003148886776169508
55:33.4;0.014450458443274847;-0.24855113896862635;-0.969417616832584;1.002;0.003481835834799449
55:33.4;0.01516896742049593;-0.2484723409137041;-0.9621118983186238;0.993;0.0036262659806006355
55:33.4;0.01513861111501615;-0.2480321140220192;-0.9552686118595989;0.985;0.003586901541283698
55:33.4;0.014383323788524204;-0.2472272741531382;-0.9491352086939612;0.977;0.003375077282236687
55:33.4;0.012947408851405315;-0.24607169093324308;-0.9439130894408273;0.972;0.0030072984088292468
55:33.4;0.010893099090403749;-0.24459249560990023;-0.9397482156590998;0.965;0.0025038372272431736
55:33.4;0.00829713936948653;-0.24282571853000504;-0.9367252059248511;0.963;0.0018872753791142913
55:33.4;0.005245571664894979;-0.24081199231467468;-0.9348657328922731;0.9620000000000001;0.0011809191810792697
55:33.5;0.0018271036015052495;-0.23859303126548714;-0.934131481663671;0.963;0.00040721984774787814
55:33.5;-0.0018730781556022648;-0.2362096105600764;-0.9344310948950343;0.963;0.0004134288168331484
55:33.5;-0.005776762473275646;-0.23370155197220713;-0.9356298454849628;0.963;0.0012631361778423303
55:33.5;-0.009812469126249581;-0.23110955736129654;-0.9375608645337223;0.9640000000000001;0.0021261587099894183
55:33.5;-0.013912531951529548;-0.2284777121826121;-0.9400375274363121;0.968;0.002988100551287846
55:33.5;-0.018009630990046915;-0.2258547720429376;-0.9428671853193895;0.972;0.003835169887201302
55:33.5;-0.022034904704989578;-0.22329267330234961;-0.945866143820583;0.9740000000000001;0.00465388160399106
55:33.5;-0.02591920749433134;-0.22084206067304823;-0.948874933172978;0.98;0.005431408694242813
55:33.5;-0.02959784281249198;-0.218546072166858;-0.9517721877796181;0.985;0.006156531059709247
55:33.5;-0.03301738831095101;-0.21643431335816665;-0.9544850111501739;0.988;0.006820841298762121
55:33.6;-0.03614206463521908;-0.2145189178369631;-0.9569935507754698;0.986;0.007419720858553627
55:33.6;-0.038957136976080026;-0.21279402670250788;-0.9593282039909121;0.986;0.007952683118613964
55:33.6;-0.041467883995730655;-0.21123889900742773;-0.9615595753457564;0.986;0.008422906256283426
55:33.6;-0.043694232945751144;-0.20982364552140476;-0.9637830148818057;0.9840000000000001;0.008836042910494652
55:33.6;-0.045662597836094276;-0.20851598634395774;-0.9661003834510985;0.987;0.009198610440655692
55:33.6;-0.0473971393704608;-0.2072875976742706;-0.9686016997973202;0.986;0.00951635590744919
55:33.6;-0.048912461765969154;-0.20611916292065194;-0.9713489105777827;0.988;0.009792941246152103
55:33.6;-0.05020902590082521;-0.20500378102156586;-0.9743634951627472;0.99;0.010029162577455729
55:33.6;-0.05127166802819188;-0.20394870824863265;-0.977619214042336;0.995;0.010222759274921231
55:33.6;-0.05207090809199219;-0.20297558993166487;-0.9810408811748609;0.9990000000000001;0.010368742023950146
55:33.7;-0.05256649935199213;-0.20211948151990744;-0.9845092022554168;1.01;0.010460128304957138
55:33.7;-0.05271266105965116;-0.20142698264040423;-0.9878704446505278;1.01;0.010488963650416367
55:33.7;-0.05246417775082395;-0.2009536006678306;-0.9909487190676807;1.01;0.010447438988310897
55:33.7;-0.05178230105307473;-0.20076014512195373;-0.9935590534361929;1.013;0.010328863338409254
55:33.7;-0.05063965292617388;-0.20090788927883366;-0.9955210037926335;1.0170000000000001;0.010128336897793204
55:33.7;-0.04902394557201242;-0.2014526026229434;-0.9966734066972772;1.021;0.009843147986124923
55:33.7;-0.046940898313360534;-0.20243810909017282;-0.9968900297104617;1.025;0.009473073806861272
55:33.7;-0.04441690894787416;-0.203890382300972;-0.9960943521217269;1.026;0.009020810293674747
55:33.7;-0.04150144644672692;-0.20581312329720602;-0.9942708375892911;1.023;0.008492606431394586
55:33.7;-0.03826796493129496;-0.2081853775056857;-0.9914703358849251;1.018;0.00789887633544499
55:33.8;-0.03481141062680009;-0.21096157129338894;-0.9878084833732932;1.014;0.007254336972964591
55:33.8;-0.031241073191167194;-0.21407456878596418;-0.9834574766255185;1.005;0.006577284210929303
55:33.8;-0.027669642230523026;-0.21744204373475357;-0.9786327539122532;1.005;0.005887986589255365
55:33.8;-0.02420145096706885;-0.2209751329049045;-0.9735766012369313;1.001;0.005206608651773624
55:33.8;-0.02092320272087291;-0.2245872932476221;-0.9685402249186993;0.995;0.004551253293330633
55:33.8;-0.017899111273866813;-0.22820150573755346;-0.9637649953072015;0.985;0.003936598493732171
55:33.8;-0.015170978263359242;-0.23175467426186983;-0.9594637967981625;0.977;0.0033734220595985167
55:33.8;-0.012762722573999175;-0.2351986912569341;-0.9558048842111913;0.9740000000000001;0.0028691118240205676
55:33.8;-0.010687743926119606;-0.23849847467096694;-0.9529016934287241;0.9740000000000001;0.0024289565402283103
55:33.8;-0.008956573309942333;-0.24162817712199078;-0.9508112690955945;0.977;0.002057708174550867
55:33.9;-0.007582357170270095;-0.24456714095610568;-0.9495415975694415;0.988;0.0017608255847335562
55:33.9;-0.006582956203313338;-0.24729662369217204;-0.9490653670099483;0.988;0.0015450241717562068
55:33.9;-0.005979940730452578;-0.24979715603949354;-0.949335714872313;0.988;0.0014180912877157204
55:33.9;-0.005795380820471423;-0.25204585623791254;-0.9502994103196802;0.987;0.0013881039842337493
55:33.9;-0.006046952665668263;-0.25401375944779775;-0.9519046999441882;0.9890000000000001;0.001462134357417869
55:33.9;-0.006741620228872954;-0.2556641867829301;-0.9541032301965978;0.9890000000000001;0.001644483600779756
55:33.9;-0.007868791364980723;-0.2569532828202485;-0.9568467918839241;0.9890000000000001;0.0019346597935242435
55:33.9;-0.009394832562087957;-0.25783316663022926;-0.9600804082005485;0.99;0.0023256022250044816
55:33.9;-0.011261071636859344;-0.2582571842200556;-0.9637341075509811;0.991;0.0028027822743350757
55:33.9;-0.013386653913175723;-0.258186019480549;-0.9677163308505143;0.995;0.0033446665569752117
55:34.0;-0.015676297422115824;-0.25759330832285077;-0.9719115861621833;1.011;0.003924685229647669
55:34.0;-0.018031299837970298;-0.2564699401236097;-0.9761831149472542;1.011;0.004514345529021358
55:34.0;-0.02036055456632292;-0.2548270185620444;-0.9803787600339463;1.011;0.005086616193992056
55:34.0;-0.022588291343033785;-0.25269780806932446;-0.9843373990196678;1.014;0.005618609400604626
55:34.0;-0.024657174875814574;-0.250138707894125;-0.9878951561804914;1.016;0.00609305465071156
55:34.0;-0.026527479373765674;-0.24722897691376447;-0.9908926694035919;1.021;0.006498632418545532
55:34.0;-0.02817385150560566;-0.24406886874849196;-0.9931847630454311;1.0270000000000001;0.006829496042031482
55:34.0;-0.029581121438440636;-0.2407756562233758;-0.9946524030003913;1.032;0.007084326126822389
55:34.0;-0.030740605339450115;-0.2374768275565611;-0.9952150398675477;1.032;0.007265250356063457
55:34.0;-0.03164836108293766;-0.2343000485728252;-0.9948403744084545;1.0270000000000001;0.007376952818599719
55:34.1;-0.03230624374596762;-0.23136041557644882;-0.9935490538893484;1.018;0.007426169117621792
55:34.1;-0.03272517727746956;-0.22874700138224796;-0.9914137391249506;1.018;0.007421511258996666
55:34.1;-0.03292875152461719;-0.22651215249570503;-0.9885538682981891;1.018;0.007373388410225015
55:34.1;-0.03295513457118522;-0.2246668843165895;-0.9851276453654193;1.015;0.007293813572266298
55:34.1;-0.03285624218106894;-0.22318351412320242;-0.9813215052618106;1.0090000000000001;0.007196002719578901
55:34.1;-0.032694130419765384;-0.22200413521827073;-0.9773364944751827;1.001;0.0070937351661088995
55:34.1;-0.032535118782887125;-0.22105238551424952;-0.9733718433628328;0.993;0.007000456832889604
55:34.1;-0.0324424107180631;-0.22024607039770827;-0.9696076855117279;0.988;0.006928150860635993
55:34.1;-0.03246818586837788;-0.21950865088397897;-0.9661899600954407;0.983;0.0068860819102697516
55:34.1;-0.0326463284726876;-0.21877800706856143;-0.9632204291896937;0.982;0.00687960800126078
55:34.2;-0.032987220336360965;-0.21801138488749483;-0.9607537198672195;0.983;0.006909346449504435
55:34.2;-0.03347613302062329;-0.21718616124962406;-0.95880174018184;0.985;0.0069710186999566316
55:34.2;-0.03407594353111863;-0.21629699894033094;-0.9573439949924004;0.985;0.007056127199460054
55:34.2;-0.034733181217901477;-0.21535091967081213;-0.9563408310441464;0.986;0.0071532596832788314
55:34.2;-0.03538522075611807;-0.21436221916228637;-0.9557462369494808;0.9840000000000001;0.007249578393861005
55:34.2;-0.03596669381302396;-0.21334866665888622;-0.9555176399606734;0.983;0.007332113173899128
55:34.2;-0.03641419012375295;-0.21232957440916828;-0.955621526711096;0.982;0.007388683590440638
55:34.2;-0.03666922665262593;-0.21132557219497844;-0.9560349348094391;0.981;0.007408453625838256
55:34.2;-0.03668016690873449;-0.2103593616338052;-0.9567435853304515;0.981;0.007382249286414537
55:34.2;-0.036404098463305154;-0.20945649955875031;-0.9577377063761882;0.981;0.007302821873737477
55:34.3;-0.03580926644006442;-0.20864543446512435;-0.9590066168011637;0.981;0.007165160353172372
55:34.3;-0.034877773608062865;-0.2079564548755726;-0.9605330302211669;0.981;0.006966801926537828
55:34.3;-0.03360775522988185;-0.2074198111995022;-0.9622879482294963;0.981;0.00670802676574028
55:34.3;-0.03201439875452686;-0.2070637928769024;-0.964227063468993;0.9840000000000001;0.006391883219726065
55:34.3;-0.030129513263583728;-0.2069134922556328;-0.96628960798638;0.988;0.0060240453887355746
