Time;AccX;AccY;AccZ;Acc-old;Acc-trns
00:32.0;-0.09618743988249837;-0.21252852071960016;-0.8541964908169736;0.885;0.017461975238895276
00:32.0;-0.07747084196757702;-0.22188556659771308;-0.8866962575939626;0.94;0.015242008667464805
00:32.0;-0.059773274875909624;-0.23075923348215774;-0.917216629307046;1.014;0.012651384599317451
00:32.0;-0.04397975260728121;-0.2387365189783623;-0.9441051001213032;1.069;0.009912700458984774
00:32.0;-0.030769494400043198;-0.24552506194456436;-0.9660897267395785;1.089;0.007298500686928111
00:32.0;-0.020550227299045733;-0.2509815545266899;-0.9823952152735135;1.0759999999999998;0.005066927302389891
00:32.1;-0.01342848861166728;-0.25511254174144365;-0.9927871533763432;1.054;0.0034010662656126715
00:32.1;-0.009221970606713387;-0.258050064926488;-0.9975442666000135;1.035;0.0023738861310891105
00:32.1;-0.00751007498367637;-0.26001029856612895;-0.997374390088206;1.024;0.001947569818585133
00:32.1;-0.007711075159282914;-0.26124593455106043;-0.993296610981349;1.015;0.0020009831461024453
00:32.1;-0.009171607927647324;-0.2620026193086731;-0.9865094726134594;1.004;0.002370567761312425
00:32.1;-0.01125511697190438;-0.26248650127528705;-0.9782588714293519;0.986;0.0028900861054174704
00:32.1;-0.01341779623348615;-0.2628451379868954;-0.9697149916247636;0.9640000000000001;0.0034199932591455822
00:32.1;-0.01526277966097525;-0.2631602329930165;-0.9618671486435186;0.951;0.003863393893939031
00:32.1;-0.016566450529390618;-0.26344975514068886;-0.9554465164337491;0.948;0.0041699768939491835
00:32.1;-0.017275207673038848;-0.2636780810224333;-0.9508857169788095;0.955;0.00433137345181546
00:32.2;-0.017476087537869393;-0.26377338942925255;-0.948319539936393;0.971;0.0043714940397696364
00:32.2;-0.01734895383978258;-0.26365030338683687;-0.94762404325525;0.99;0.004334486334692449
00:32.2;-0.017110578546192523;-0.2632337295819152;-0.9484844216345079;1.006;0.004272051047382257
00:32.2;-0.016961456547234365;-0.2624789112316857;-0.9504772398243191;1.0170000000000001;0.004231548098511142
00:32.2;-0.01704464634472374;-0.2613837755695351;-0.9531511554437807;1.018;0.0042464733229627336
00:32.2;-0.01742272830111877;-0.25999193951931865;-0.9560925820114969;1.013;0.004330878465244532
00:32.2;-0.018074759759113605;-0.2583869044250107;-0.9589682516266577;1.004;0.004478651418433547
00:32.2;-0.018910768961232928;-0.256679491040337;-0.9615434899960439;0.997;0.00466733840061862
00:32.2;-0.019797952593663643;-0.25499158964163976;-0.9636806788248694;0.997;0.004864960160252032
00:32.2;-0.020591279327450415;-0.25343967303848264;-0.9653249267125443;0.996;0.005037690129532537
00:32.3;-0.02116203480048112;-0.2521207937096087;-0.9664834057677136;0.993;0.005156564941874427
00:32.3;-0.02142009562099674;-0.2511023500259598;-0.9672030408701581;0.99;0.005202233431726427
00:32.3;-0.0213277832680224;-0.25041595643756975;-0.9675501241648893;0.9890000000000001;0.005167508389272257
00:32.3;-0.02090440388634943;-0.25005568209771484;-0.9675949828619844;0.992;0.005057875361623646
00:32.3;-0.020221533361205867;-0.24998096285299823;-0.9674038481500677;0.9990000000000001;0.004890224885202683
00:32.3;-0.01939023105154518;-0.25012401012483587;-0.967037980340937;1.004;0.00469009779360373
00:32.3;-0.018542632002518565;-0.25040066032668024;-0.9665576039843153;1.0070000000000001;0.004487811333482702
00:32.3;-0.017811365476213092;-0.2507227877292093;-0.9660266393516852;1.003;0.004313999852232188
00:32.3;-0.01731050789228344;-0.25101005906664625;-0.9655145288937279;1.003;0.004195268387686717
00:32.3;-0.017121131015922834;-0.2511991610420246;-0.9650933171296446;0.998;0.004150686605729271
00:32.4;-0.01728318980447425;-0.2512495199389931;-0.9648302573321893;0.9940000000000001;0.00418967229204355
00:32.4;-0.017793998377537902;-0.2511454409591206;-0.9647777698221476;0.991;0.004311477593693422
00:32.4;-0.01861228030167169;-0.25089509636832663;-0.9649635484271802;0.99;0.00450611909582691
00:32.4;-0.019665982359372235;-0.250526890624137;-0.9653838391653959;0.993;0.004756308522994843
00:32.4;-0.020861938562787136;-0.2500837342882019;-0.9660020521394465;0.995;0.005039856335750137
00:32.4;-0.022096090364263656;-0.2496159256279232;-0.9667532069579019;0.997;0.005332162163495446
00:32.4;-0.02326371192420358;-0.24917364090622432;-0.9675531886590496;1.001;0.005608619246512154
00:32.4;-0.024269193194341617;-0.24880026409856326;-0.968311007509117;1.001;0.005846837782415203
00:32.4;-0.025034497984468104;-0.2485277777223119;-0.9689420449180405;1.005;0.00602853275472578
00:32.4;-0.025505243115260444;-0.24837498390403787;-0.96938029623814;1.0090000000000001;0.006140892678507278
00:32.5;-0.0256537463335675;-0.24834836021323856;-0.9695876937549772;1.008;0.006177307029978502
00:32.5;-0.025478986249066676;-0.2484444211218806;-0.9695587785812797;1.003;0.006137415648746443
00:32.5;-0.02500392891507844;-0.2486523468150459;-0.9693197786436569;1.003;0.006026537905754362
00:32.5;-0.02427106440968084;-0.24895639250652724;-0.9689225032129425;1.002;0.005854652832532726
00:32.5;-0.023337082667879754;-0.24933829386090486;-0.9684344484677135;0.998;0.005635153849136715
00:32.5;-0.022267250116591558;-0.24977983554744806;-0.9679268043697175;0.995;0.005383521842391906
00:32.5;-0.0211296094615757;-0.2502654189538712;-0.9674622677952855;0.995;0.005115950692598212
00:32.5;-0.019989165041961732;-0.2507845437846189;-0.967084746280358;0.9940000000000001;0.004847970336575417
00:32.5;-0.01890255460599995;-0.25133432256829835;-0.9668126319950632;0.997;0.004593192192436142
00:32.5;-0.017913716574940657;-0.25192192709678873;-0.9666363925874593;0.996;0.004362292778370004
00:32.6;-0.01705070557819479;-0.2525663371531661;-0.9665203793245769;0.998;0.004162256468482125
00:32.6;-0.0163235856594384;-0.2532983425419055;-0.9664083181440871;1.001;0.003995844415569235
00:32.6;-0.01572346486277082;-0.25415774890867704;-0.9662316797031384;1.001;0.0038612941075888006
00:32.6;-0.015223022268348653;-0.2551873561710116;-0.9659197282576144;1.0;0.0037523303967339
00:32.6;-0.014779001760236074;-0.25642436764189636;-0.9654098232206137;1.0;0.0036586099199148047
00:32.6;-0.014336961587154869;-0.25789088667685184;-0.9646568592533654;1.0;0.0035666950063065533
00:32.6;-0.013838247391595315;-0.2595856251607246;-0.9636411525248221;1.002;0.0034616014811413064
00:32.6;-0.013228842246615649;-0.26147881497061376;-0.9623739884893826;1.003;0.0033289112876731244
00:32.6;-0.012469241240485734;-0.26351158112953427;-0.9608996461333127;1.0;0.003157313943571204
00:32.6;-0.011543749998375662;-0.26559990336587347;-0.9592927867108547;0.997;0.0029412097993868733
00:32.7;-0.01046709513822608;-0.2676423354902802;-0.9576510332499639;0.993;0.002682799792832333
00:32.7;-0.0092864477439921;-0.2695301747959136;-0.9560839111774614;0.992;0.0023930568846111497
00:32.7;-0.008077888990834125;-0.2711585329230531;-0.9547002135645726;0.99;0.002091164395346748
00:32.7;-0.00693754391799325;-0.2724366290054496;-0.9535958911054161;0.99;0.0018023354065689653
00:32.7;-0.005968551288326496;-0.27329578819664396;-0.9528440420059766;0.988;0.0015542600765351495
00:32.7;-0.005265639341179186;-0.2736941818731114;-0.9524880267738502;0.9840000000000001;0.0013727017905631501
00:32.7;-0.0048996561879216145;-0.27361820782860624;-0.9525384616987278;0.9890000000000001;0.0012770065388275243
00:32.7;-0.00490491763970507;-0.2730812839119358;-0.9529746108191842;0.9890000000000001;0.0012764534625109283
00:32.7;-0.0052721550106216005;-0.2721212363983668;-0.9537499670693614;0.9940000000000001;0.001368312020755942
00:32.7;-0.005948880531358743;-0.2707971631900829;-0.9548006854928719;0.998;0.0015381265895999291
00:32.8;-0.006847405530422913;-0.26918596783157417;-0.9560546865714881;0.997;0.0017622243631913554
00:32.8;-0.007859060300875917;-0.2673783015297228;-0.9574391511838493;0.996;0.002011907287401105
00:32.8;-0.008871809975032058;-0.2654736590496269;-0.9588849686797238;0.996;0.0022583964249196795
00:32.8;-0.009787675024050474;-0.2635745365449253;-0.960328198281017;0.993;0.002477437311971495
00:32.8;-0.01053628727416945;-0.26177958841397814;-0.9617099062663027;0.9940000000000001;0.0026525737859246354
00:32.8;-0.011081728460079132;-0.26017579803021834;-0.9629762016508253;0.997;0.0027764506211240946
00:32.8;-0.011421567104487381;-0.25883009011939206;-0.9640797733411748;0.9990000000000001;0.0028500562437729863
00:32.8;-0.01157937519015203;-0.2577815876705281;-0.9649829581428794;0.9990000000000001;0.0028804256114372067
00:32.8;-0.011594066623555829;-0.25703654156271327;-0.9656611684119041;0.9990000000000001;0.0028777656771843407
00:32.8;-0.011509937038008865;-0.25656805919987336;-0.9661053195429778;1.0;0.0028529884295730693
00:32.9;-0.011369944141244853;-0.2563215981622966;-0.9663226677177035;1.0;0.0028162143073045573
00:32.9;-0.01121271776053601;-0.2562253422932337;-0.9663362785970342;1.002;0.0027762671655652362
00:32.9;-0.01107237832185468;-0.2562030689600172;-0.9661835179482091;1.005;0.0027408474778670465
00:32.9;-0.01097983601212126;-0.2561865859672713;-0.9659134852636638;1.003;0.002717005198391962
00:32.9;-0.010964427548294936;-0.2561253438081828;-0.9655827847102456;1.001;0.002711615018847426
00:32.9;-0.011054904247027465;-0.25599188799046596;-0.965249215533513;0.997;0.0027316222778482183
00:32.9;-0.011278800491433165;-0.25578281335859204;-0.964963940109989;0.9940000000000001;0.002783846974756083
00:32.9;-0.011659557239614225;-0.2555157062238388;-0.9647637164217299;0.993;0.002874224066218561
00:32.9;-0.01221170174141126;-0.25522321500362594;-0.9646651842577637;0.993;0.0030065814133415397
00:32.9;-0.012935463138674398;-0.25494564476125603;-0.9646627906956131;0.995;0.0031813035281896204
00:33.0;-0.013812686757066478;-0.25472324988905587;-0.964730985677859;0.995;0.003394321521000352
00:33.0;-0.014805519944241872;-0.2545890951218538;-0.9648303001878299;0.998;0.003636757934461488
00:33.0;-0.015858523539010703;-0.25456333863934466;-0.9649161655657299;0.9990000000000001;0.0038953653040498634
00:33.0;-0.016904088217247502;-0.2546498573688788;-0.9649488570601027;1.003;0.004153741674492676
00:33.0;-0.01787036553220005;-0.25483585132915276;-0.9649026251992953;1.005;0.0043941760246746595
00:33.0;-0.018690359845173907;-0.25509440385510584;-0.9647718948462238;1.004;0.004599845424286068
00:33.0;-0.01931054846648823;-0.25538928658420806;-0.9645726680517486;1.001;0.004756989968487539
00:33.0;-0.019697510244554003;-0.2556808989381255;-0.9643384012251957;0.9940000000000001;0.004856675431978287
00:33.0;-0.019841457401586483;-0.25593221936885113;-0.9641115303674396;0.9940000000000001;0.004895824130897113
00:33.0;-0.01975618329485225;-0.25611394815880223;-0.9639334820226981;0.993;0.004877343506512521
00:33.1;-0.019475651771228786;-0.25620839893392183;-0.9638362786614824;0.995;0.004809374897475678
00:33.1;-0.019048077954253784;-0.25621183460488556;-0.9638376860261544;0.997;0.00470385850254962
00:33.1;-0.01852873340490653;-0.25613486586012313;-0.9639402352747524;0.9990000000000001;0.004574720243296726
00:33.1;-0.01797279024881168;-0.2560006575806697;-0.9641331667429003;0.998;0.0044360211681800845
00:33.1;-0.017429328297061404;-0.2558412227165078;-0.9643957203961134;0.9990000000000001;0.004300376171701652
00:33.1;-0.016937157741792046;-0.2556926898932764;-0.9647003851333781;0.997;0.004177835118043781
00:33.1;-0.01652238994522342;-0.25559069542490787;-0.965015450073615;0.998;0.004075230461598847
00:33.1;-0.0161971730505565;-0.2555668701992756;-0.9653069290770113;0.998;0.003995850214705148
00:33.1;-0.015959193639605358;-0.2556468502304049;-0.9655402689388697;0.998;0.003939324723410805
00:33.1;-0.015792150164848345;-0.2558495419844753;-0.9656821972907502;0.998;0.003901756242842642
00:33.2;-0.015667704594188567;-0.25618695888135606;-0.9657028999337286;0.9990000000000001;0.003876197779941798
00:33.2;-0.01554919658488169;-0.25666409261865125;-0.9655785649038636;1.001;0.0038535472237697242
00:33.2;-0.015396946435065346;-0.25727867009569094;-0.9652940514680489;1.002;0.0038238250235819913
00:33.2;-0.01517452071682283;-0.25802085642078293;-0.9648450559745794;1.001;0.003777699173060849
00:33.2;-0.014854975301824386;-0.25887303698421016;-0.9642389906362094;0.998;0.00370803172921865
00:33.2;-0.014425869419269646;-0.25980986579584525;-0.9634941899813829;0.996;0.0036111600352366565
00:33.2;-0.013891875161396942;-0.2607987325047227;-0.962637896630045;0.995;0.0034876211526297172
00:33.2;-0.013274303358761098;-0.2618007164326516;-0.9617041325078963;0.997;0.003342135483292276
00:33.2;-0.01260776297917249;-0.26277204977321555;-0.9607324281732913;0.997;0.00318287552314447
00:33.2;-0.01193491397451513;-0.2636660810658377;-0.959767502054921;0.997;0.0030202270837251066
00:33.3;-0.011300451356173682;-0.2644357870882265;-0.9588590550183871;0.998;0.0028653045771600697
00:33.3;-0.010745351615058794;-0.2650370061257948;-0.9580605113598865;0.996;0.002728475688566763
00:33.3;-0.010302392033842925;-0.26543245575854757;-0.9574258319037164;0.995;0.0026181663567002938
00:33.3;-0.009993768636249374;-0.2655961592865222;-0.9570041842804381;0.993;0.0025401824905857866
00:33.3;-0.009830970926518348;-0.26551739267822416;-0.9568330611012412;0.99;0.0024976153763176293
00:33.3;-0.009816230098546559;-0.26520293821729846;-0.9569312140423742;0.988;0.0024911723925780966
00:33.3;-0.009944432780392769;-0.26467657120644683;-0.9572933255036044;0.988;0.002519651910805497
00:33.3;-0.010204643288710478;-0.2639755315406375;-0.957888278803764;0.992;0.0025803365867021685
00:33.3;-0.010581026477496612;-0.26314494270363853;-0.9586618952543989;0.992;0.0026692441185270713
00:33.3;-0.011053466246069567;-0.26223191520903844;-0.9595435810800582;0.995;0.0027813057955393436
00:33.4;-0.01159827279933498;-0.26128082201261904;-0.9604554564069974;0.998;0.002910570218842164
00:33.4;-0.012189296462428136;-0.26033029915936295;-0.9613223913548347;1.0;0.0030505097361891733
00:33.4;-0.012799812910361438;-0.25941174529109234;-0.9620813518110679;1.0;0.0031945159001576834
00:33.4;-0.013405568710513049;-0.25854878275067406;-0.9626884741362913;1.0;0.0033366719671028455
00:33.4;-0.013989012109246583;-0.2577570909339385;-0.9631227565422114;1.0;0.003472796316362315
00:33.4;-0.014544029612413243;-0.2570441279494388;-0.9633860910755476;0.998;0.0036015778695173872
00:33.4;-0.015079862032988625;-0.25640851199435394;-0.9635001231873845;0.995;0.003725474379324727
00:33.4;-0.015622638639115194;-0.25583919950826317;-0.9635009941619029;0.995;0.0038510010944144734
00:33.4;-0.0162133767314688;-0.25531501727135053;-0.9634333529092592;0.995;0.003988150245904666
00:33.4;-0.016902186545625954;-0.2548052870097851;-0.9633448994152262;0.9940000000000001;0.004148901534823902
00:33.5;-0.01773930720317012;-0.25427202486330724;-0.9632822196988472;0.996;0.0043449899912923595
00:33.5;-0.018764332995252948;-0.25367385788969393;-0.9632881160891212;0.998;0.004585271412752496
00:33.5;-0.01999567221690917;-0.25297161973520016;-0.9634000467348481;0.9990000000000001;0.004873202669070645
00:33.5;-0.02142267517256751;-0.25213524584805475;-0.9636487117631647;0.998;0.005205063206077233
00:33.5;-0.023002600252845347;-0.25115092507361336;-0.9640557782603388;0.997;0.005569470094572052
00:33.5;-0.024663574561484408;-0.2500268611058224;-0.9646304853343217;0.997;0.005948448033736122
00:33.5;-0.026313159360711828;-0.24879592116037252;-0.9653658224986897;0.995;0.0063198703825543025
00:33.5;-0.02785048023388061;-0.24751407359734692;-0.9662354566703187;0.995;0.00666063379031402
00:33.5;-0.02917885958339133;-0.24625456111627603;-0.9671926139828166;0.9940000000000001;0.0069496921747451874
00:33.5;-0.030216281723137173;-0.24509869097703668;-0.9681719549081962;0.995;0.00717025351452519
00:33.6;-0.030902662456699027;-0.24412479510148719;-0.9690950809914772;0.997;0.007310956151073409
00:33.6;-0.031204399364563207;-0.24339743061774566;-0.9698796130182749;1.002;0.007366304162796508
00:33.6;-0.031116953687609722;-0.24295893076723557;-0.9704508148751746;1.0070000000000001;0.007336745767155359
00:33.6;-0.03066559556665524;-0.24282462698774945;-0.9707536045608371;1.0090000000000001;0.007228582562903099
00:33.6;-0.0299039353795327;-0.2429818909326474;-0.9707620281910295;1.006;0.007053668306191223
00:33.6;-0.02890990332901475;-0.24339245432933868;-0.9704836716013717;1.004;0.006828762088066968
00:33.6;-0.027779218928099553;-0.24399748298413473;-0.9699581126568143;0.9990000000000001;0.006574433797885564
00:33.6;-0.026616933152341656;-0.24472485697168467;-0.9692504701330252;0.9990000000000001;0.0063135280974650305
00:33.6;-0.025528098971766413;-0.24549749733333603;-0.9684423067372813;0.9990000000000001;0.0060693096818078
00:33.6;-0.024608557962546525;-0.24624116633169787;-0.9676220234380609;0.9990000000000001;0.005863441132077363
00:33.7;-0.02393640413545638;-0.246890761650785;-0.9668757792774312;0.998;0.005713923601240686
00:33.7;-0.023564737690284797;-0.2473950565686147;-0.9662790063129051;0.996;0.0056332129779348
00:33.7;-0.02351676339749836;-0.2477201470000262;-0.9658885755043152;0.992;0.00562685738699873
00:33.7;-0.023784156669360755;-0.247851671027017;-0.9657363676142809;0.9940000000000001;0.005692960815457436
00:33.7;-0.024328844253127948;-0.24779571684023904;-0.9658255192797901;0.996;0.005822559694370269
00:33.7;-0.02508768730163659;-0.24757832638328245;-0.9661302361471281;0.996;0.006000796853919405
00:33.7;-0.025979156609102143;-0.24724349530591166;-0.9665990847772359;0.996;0.006208637478492358
00:33.7;-0.026910751460304434;-0.24684964783486715;-0.9671610609403513;1.0;0.006424763420010622
00:33.7;-0.027786068754953513;-0.2464648100418133;-0.9677336308673636;1.0;0.006627318763881877
00:33.7;-0.028511296643862566;-0.24616089696200624;-0.9682317460962577;1.001;0.006795405111035121
00:33.8;-0.02900152848267724;-0.24600750807200478;-0.9685766339348121;1.001;0.006910400801097687
00:33.8;-0.029186953825211116;-0.24606559023210214;-0.9687034268976045;1.003;0.006957136004602362
00:33.8;-0.02901850675014239;-0.24638147032529176;-0.968567097378023;1.003;0.0069248889763267275
00:33.8;-0.02847268881449606;-0.2469819369894897;-0.9681462244444281;1.002;0.006808236445355625
00:33.8;-0.027555386194786754;-0.24787101681977877;-0.9674441033616835;0.9990000000000001;0.0066078189089369245
00:33.8;-0.026304083301181936;-0.24902886280287423;-0.9664871072246856;0.997;0.006330950553373324
00:33.8;-0.024787594776190643;-0.2504129382603363;-0.9653209195708605;0.997;0.005991876725822384
00:33.8;-0.023102717396026675;-0.2519614167792746;-0.9640057001559368;0.996;0.0056114708244882515
00:33.8;-0.021367631059000608;-0.2535982629916673;-0.9626111135049743;0.996;0.005216191442486502
00:33.8;-0.01971215165841141;-0.2552390103038251;-0.9612116810740237;0.995;0.004836154020243545
00:33.9;-0.018265257706942557;-0.25679629663911946;-0.9598825219687616;0.992;0.004502281489955278
00:33.9;-0.017141027897950387;-0.25818480726624216;-0.9586955180925971;0.9890000000000001;0.004242757811012385
00:33.9;-0.016425185036697224;-0.25932598580639044;-0.9577162193886244;0.9940000000000001;0.004079370497949922
00:33.9;-0.016165004424903068;-0.2601532179290131;-0.9570017314488349;0.997;0.004024553949856031
00:33.9;-0.01636460802945018;-0.26061758491975145;-0.9565989722348028;0.9940000000000001;0.004079803378843893
00:33.9;-0.01698604538980665;-0.2606929385298867;-0.9565419567803192;0.991;0.004235703696485306
00:33.9;-0.0179552860569082;-0.2603785551719948;-0.956847344115287;0.9890000000000001;0.004473425376793583
00:33.9;-0.0191718294755217;-0.2596987300546759;-0.9575090010413249;0.987;0.004767341342776593
00:33.9;-0.02052050102177703;-0.2586999550718359;-0.9584935258293908;0.987;0.005088309236528057
00:33.9;-0.021883797922967303;-0.25744656466835913;-0.9597389134616711;0.99;0.00540708131558503
00:34.0;-0.023153308696513313;-0.2560153496448661;-0.9611579209534207;0.993;0.0056973620195656955
00:34.0;-0.02423931910231288;-0.2544893930906484;-0.9626464180731203;1.0;0.005938228448794485
00:34.0;-0.025078133583370858;-0.252951434621251;-0.964095375579943;1.002;0.006115787092053213
00:34.0;-0.02563662329536516;-0.25147722562828323;-0.965403806699204;1.001;0.006223984311920482
00:34.0;-0.025913392979666945;-0.2501294790625203;-0.9664898390094339;1.001;0.006264500559412477
00:34.0;-0.025936189511282227;-0.24895315782641356;-0.9672982752562935;1.0;0.006245744635944043
00:34.0;-0.02575586224900331;-0.24797286906098517;-0.9678044520854331;1.001;0.006181129978567821
00:34.0;-0.025437900869016827;-0.24719282009773633;-0.9680149476840325;1.002;0.006086942318707719
00:34.0;-0.025052968268502108;-0.24659917657107833;-0.9679656524069831;1.002;0.005980131821762624
00:34.0;-0.02466801489380968;-0.24616408849570157;-0.9677173079655708;1.002;0.005876346647203603
00:34.1;-0.024339488967915775;-0.24585049176604679;-0.9673483279670674;0.9990000000000001;0.005788491797266798
00:34.1;-0.024109629208594954;-0.2456170651102415;-0.9669449420266516;0.9940000000000001;0.005725993028193499
00:34.1;-0.02400591941129689;-0.2454230178484166;-0.9665895751381006;0.992;0.005694764155691826
00:34.1;-0.024042883931203164;-0.24523242436160297;-0.9663494732461386;0.992;0.005697688022140023
00:34.1;-0.024224939524479575;-0.24501776041435583;-0.9662680693155886;0.993;0.005735323190153821
00:34.1;-0.02454918420067208;-0.2447622766501611;-0.9663609744840441;0.995;0.0058065869240688794
00:34.1;-0.025007532853269083;-0.24446083842758956;-0.9666171416135338;0.997;0.005909280935438389
00:34.1;-0.02558800293710273;-0.24411898679743238;-0.9670043575147501;1.0;0.006040409497877954
00:34.1;-0.02627506145750825;-0.2437504004480822;-0.9674772402286487;1.0;0.006196262891376189
00:34.1;-0.02704909268028581;-0.24337348389917599;-0.9679856093298814;1.0;0.0063722801661708775
00:34.2;-0.02788540329253968;-0.24300802497522417;-0.968481535437869;1.001;0.006562795788365241
00:34.2;-0.02875347568862771;-0.24267260437887653;-0.9689242313181146;1.001;0.006760844034885444
00:34.2;-0.029617185194018982;-0.2423830067262589;-0.9692826313467208;1.0;0.006958191550080302
00:34.2;-0.03043644000451927;-0.24215156174426936;-0.9695358773861861;0.998;0.0071457038454998045
00:34.2;-0.031170241351801523;-0.24198718329944602;-0.9696723243285451;0.998;0.007314043348565117
00:34.2;-0.03178063331139478;-0.2418958388066502;-0.9696880744405302;1.0;0.007454576904234425
00:34.2;-0.03223671365506915;-0.24188122202583662;-0.969585934511037;1.001;0.0075603033648913645
00:34.2;-0.032517950994464244;-0.24194545203382023;-0.9693749462922258;1.001;0.00762662558797214
00:34.2;-0.032616312865062065;-0.24208961429643447;-0.9690699398760164;1.001;0.0076518446628340625
00:34.2;-0.03253695578657672;-0.2423138939862063;-0.9686905242009085;0.9990000000000001;0.007637307649375153
00:34.3;-0.03229742397205738;-0.24261708313217412;-0.9682594072863938;0.997;0.007587190470605227
00:34.3;-0.03192545981888255;-0.2429955441543787;-0.9678004156061727;0.998;0.007507948332944217
00:34.3;-0.031455690397838514;-0.24344213942159326;-0.9673366985613223;0.998;0.007407516745269962
00:34.3;-0.030925631355842385;-0.24394579327953048;-0.9668892842938973;0.998;0.007294384551578724
00:34.3;-0.03037157351716214;-0.24449209500012145;-0.9664757613860968;0.997;0.007176671728314526
00:34.3;-0.02982499446921235;-0.24506489620368124;-0.9661088546324421;0.997;0.007061346786911083
00:34.3;-0.029310186182630663;-0.2456484380241277;-0.9657949610716073;0.996;0.006953725123942421
00:34.3;-0.028843588401928775;-0.24622933257763124;-0.9655329640218686;0.996;0.006857347891880792
00:34.3;-0.028434720095707265;-0.24679784505391447;-0.9653137641513174;0.996;0.006774212556762262
00:34.3;-0.02808801203906892;-0.24734828256493663;-0.9651209672579094;0.995;0.0067051987073082995
00:34.4;-0.02780471358582298;-0.247878611537137;-0.9649330098145222;0.997;0.0066505053055762485
00:34.4;-0.02758421167671817;-0.2483895105582163;-0.9647267255908917;0.997;0.00660994945337926
00:34.4;-0.02742427091456876;-0.24888298684826393;-0.9644820008233059;0.998;0.00658300868191697
00:34.4;-0.027320050140382378;-0.2493606346085865;-0.964186790411552;1.0;0.0065685659371764035
00:34.4;-0.027262428596495927;-0.24982172110077633;-0.9638414673335057;1.0;0.006564480221506233
00:34.4;-0.02723681793922721;-0.2502614735829605;-0.9634612867543491;1.0;0.006567266405020326
00:34.4;-0.027223736867218087;-0.2506699382993602;-0.9630758306438432;0.996;0.006572195541864464
00:34.4;-0.02720183694865582;-0.25103154202506106;-0.9627249691759213;0.992;0.006573985816126873
00:34.4;-0.027153039642778046;-0.25132533502991167;-0.9624520972858738;0.992;0.00656801063090997
00:34.4;-0.027068477400988687;-0.2515259848764149;-0.962296480182372;0.992;0.006551723833983234
00:34.5;-0.026953420289611077;-0.25160564969428045;-0.962286689570058;0.992;0.006525874999557919
00:34.5;-0.026829349188556333;-0.2515366774044322;-0.962436414679195;0.9940000000000001;0.006495065041426912
00:34.5;-0.026731942112387327;-0.25129485522432116;-0.962743064257287;0.995;0.006467322349223716
00:34.5;-0.026705125885777604;-0.250862938090883;-0.963188891370979;0.995;0.006452716712084057
00:34.5;-0.026792782869292788;-0.2502342423470107;-0.963743985434868;0.997;0.006461394297273229
00:34.5;-0.027030129836025665;-0.24941584276284884;-0.9643704496485012;0.998;0.006501537355153356
00:34.5;-0.027436289014770972;-0.24843049003751702;-0.965027182072547;0.998;0.006577635622682231
00:34.5;-0.02800906496236796;-0.24731633516271762;-0.9656746725287898;0.9990000000000001;0.0066893243460038115
00:34.5;-0.028722780445158122;-0.2461241719339397;-0.9662791866855986;0.9990000000000001;0.006830985628046811
00:34.5;-0.029529847977634804;-0.24491273017124598;-0.9668157403613655;1.0;0.00699223930284811
00:34.6;-0.030366241891193194;-0.24374287330813163;-0.967269388179307;1.0;0.007159297624913913
00:34.6;-0.031160246728655278;-0.24267140206714602;-0.9676345346069811;0.998;0.007316962798063123
00:34.6;-0.031843087777711734;-0.2417451953645364;-0.9679122928563798;0.9940000000000001;0.007450905082603547
00:34.6;-0.03235950540641908;-0.24099674274033708;-0.9681066451776806;0.992;0.007549813943040339
00:34.6;-0.03267604167303136;-0.24044207268015413;-0.9682211627795514;0.995;0.007607018549413268
00:34.6;-0.03278505247816008;-0.24008130190120225;-0.96825830489816;1.0;0.007621236721258864
00:34.6;-0.032703584790567106;-0.23990106167033776;-0.9682220011110021;1.004;0.007596306458311604
00:34.6;-0.032467843192023865;-0.23987762563612652;-0.9681220405262804;1.002;0.007540033731472639
00:34.6;-0.0321252305370257;-0.23997982840479223;-0.9679775149972787;1.002;0.00746253293171976
00:34.6;-0.031726511093459635;-0.2401714964010582;-0.9678170934492266;0.9990000000000001;0.007374576216261883
00:34.7;-0.03132027616287226;-0.24041370726712294;-0.9676754409629152;0.997;0.007286425474056845
00:34.7;-0.030950555851641807;-0.24066742766636903;-0.9675864943193833;0.9940000000000001;0.007207349243233513
00:34.7;-0.03065673693274897;-0.24089678886375168;-0.9675753670702032;0.9890000000000001;0.007145650019970406
00:34.7;-0.03047386265304635;-0.24107275803383554;-0.9676514962399068;0.992;0.007108772483610086
00:34.7;-0.030431534291023882;-0.24117675633975671;-0.9678057211393827;0.997;0.00710309272522973
00:34.7;-0.030550812444165885;-0.24120366066727789;-0.968012615699625;1.004;0.0071332537930439725
00:34.7;-0.03083977601691836;-0.24116324824589017;-0.9682369923374227;1.001;0.0072011857131972
00:34.7;-0.031289053101473;-0.24107915950764042;-0.96844171572816;1.001;0.007305090110510951
00:34.7;-0.03186882294955968;-0.24098541357802578;-0.9685941056440268;1.001;0.007438726676120899
00:34.7;-0.03252870993122509;-0.24092149472214378;-0.9686697236393639;0.998;0.007591334258666308
00:34.8;-0.033201505944154164;-0.24092708625376746;-0.968653742161099;0.9990000000000001;0.007748398916033089
00:34.8;-0.03381074861406852;-0.24103708071447702;-0.9685407263888952;0.9990000000000001;0.007893262257787597
00:34.8;-0.03428116228824617;-0.24127722552743902;-0.9683336358858865;0.9990000000000001;0.008009342875971676
00:34.8;-0.03455021765131107;-0.24166067218525908;-0.9680424360514527;0.998;0.008082601416257506
00:34.8;-0.03457873432584716;-0.24218566946305076;-0.9676823492499342;0.998;0.008103830598467084
00:34.8;-0.034358383180336065;-0.24283473174176531;-0.9672717646151218;0.997;0.008070343716780518
00:34.8;-0.03391405867523489;-0.24357571572279574;-0.9668300444120181;0.9940000000000001;0.007986636015976229
00:34.8;-0.03329978656963682;-0.24436508611168567;-0.9663757449188921;0.997;0.0078636943864491
00:34.8;-0.032588609690922775;-0.2451531340485526;-0.9659258616664552;0.997;0.00771697470085472
00:34.8;-0.03185915178864538;-0.24589025471267953;-0.9654962981246197;0.9990000000000001;0.007563557952570888
00:34.9;-0.0311825539761732;-0.24653300870581443;-0.9651030486674785;0.9990000000000001;0.007419257530701011
00:34.9;-0.030612547980660026;-0.24704881681134566;-0.9647631641851387;0.9990000000000001;0.007296304836243165
00:34.9;-0.03017984402696691;-0.24741865899513896;-0.9644946366273683;0.997;0.0072019359821348045
00:34.9;-0.02989089980848652;-0.24763777140991697;-0.9643147707078413;0.995;0.007137969613940629
00:34.9;-0.02973050190344551;-0.24771473775317995;-0.9642372810082763;0.995;0.007101302376442566
00:34.9;-0.029667191110376537;-0.247669455362766;-0.9642689607895536;0.9940000000000001;0.007085117641775272
00:34.9;-0.029660329452108346;-0.24753037719411286;-0.9644069503107314;0.9940000000000001;0.007080514326682943
00:34.9;-0.029667550822315307;-0.24733131143132442;-0.9646373992457968;0.995;0.007078233592302513
00:34.9;-0.029651460028606885;-0.24710802230392628;-0.964935900084614;0.995;0.0070701950011149775
00:35.0;-0.029584721575363435;-0.24689500594604732;-0.9652696005106711;0.996;0.007050638057341959
00:35.0;-0.029453107664933902;-0.24672288233388925;-0.9656005622492017;0.998;0.007016783309293073
00:35.0;-0.02925650059701152;-0.24661658222427688;-0.9658898386074624;0.9990000000000001;0.006969028657115043
00:35.0;-0.029007992556387915;-0.24659408937773913;-0.9661017432016124;0.998;0.006910718515228506
00:35.0;-0.028731170565300928;-0.24666531444981513;-0.966207794656119;0.998;0.006847498429694721
00:35.0;-0.02845585517355429;-0.24683086448928743;-0.9661899560047877;0.998;0.006786308908793468
00:35.0;-0.02821303763193955;-0.24708085045844183;-0.9660430146184958;0.998;0.006734190537485089
00:35.0;-0.028030004627816536;-0.24739418384263603;-0.965776054512464;1.0;0.006697135532939921
00:35.0;-0.02792638952476593;-0.24773890085480404;-0.9654128099029683;0.9990000000000001;0.006679163195039314
00:35.0;-0.027911571950206666;-0.2480739245340771;-0.9649903796324173;0.9990000000000001;0.0066817219191204116
00:35.1;-0.02798383928752303;-0.24835246270291983;-0.964555718973254;0.996;0.0067035227749420445
00:35.1;-0.028131717499548604;-0.2485269964912504;-0.9641598376298589;0.993;0.0067409150744678365
00:35.1;-0.028337392121761003;-0.24855540565426626;-0.9638506061081477;0.993;0.006788796919494311
00:35.1;-0.028581337211018836;-0.24840726170219316;-0.9636658839650728;0.9940000000000001;0.0068418463297925764
00:35.1;-0.028846805115610403;-0.2480690768271033;-0.9636286571668606;0.9940000000000001;0.006895726973690253
00:35.1;-0.029123013293283644;-0.24754744179431062;-0.9637450365155544;0.996;0.006947953535078555
00:35.1;-0.02940641009146892;-0.24686923047160558;-0.9640050106978802;0.996;0.006998230843676525
00:35.1;-0.02969993246855327;-0.24607839227469944;-0.9643852423048992;0.996;0.007048220761624398
00:35.1;-0.03001061081668449;-0.24522970929892515;-0.9648529754476628;0.996;0.007100829072415029
00:35.1;-0.03034626678562166;-0.2443810593456181;-0.9653702587846004;0.996;0.007159236834111284
00:35.2;-0.03071223681719023;-0.24358610956410198;-0.9658980863530648;0.996;0.007225955333149078
00:35.2;-0.031108914173903088;-0.24288859902930066;-0.9664003956319397;0.9990000000000001;0.007302121950894899
00:35.2;-0.03153062581197145;-0.24231851325543946;-0.9668477536343479;1.001;0.007387156143191503
00:35.2;-0.03196611921515747;-0.24189027972746982;-0.9672200379177389;0.9990000000000001;0.007478829230402351
00:35.2;-0.03240061373875654;-0.24160317036578716;-0.9675071616545489;0.997;0.007573734105629258
00:35.2;-0.03281891878362785;-0.24144386690965602;-0.967707537672111;0.996;0.007668043555791149
00:35.2;-0.03320872212765162;-0.24139066177962107;-0.9678252021789536;0.9940000000000001;0.007758353370614596
00:35.2;-0.03356296101809558;-0.2414182373033675;-0.9678673546500487;0.998;0.007842349352343575
00:35.2;-0.03388036371531931;-0.24150175755432188;-0.96784379760366;1.002;0.00791905995339414
00:35.2;-0.0341639817585607;-0.24161941132132836;-0.9677683057804966;1.002;0.00798861880183854
00:35.3;-0.03441851162720561;-0.24175324208218588;-0.9676602542871318;1.0;0.00805169464513372
00:35.3;-0.03464769125076288;-0.24188863293448656;-0.9675444088503171;0.998;0.00810887616954031
00:35.3;-0.03485280293883798;-0.24201318310279282;-0.9674479956618248;0.995;0.008160266903299542
00:35.3;-0.03503263715642348;-0.24211588926414154;-0.9673958281071996;0.9940000000000001;0.00820541087856786
00:35.3;-0.03518451820133455;-0.24218729566534622;-0.967405208475145;0.996;0.008243495163166864
00:35.3;-0.03530554060545468;-0.2422207305592048;-0.9674822615744866;0.997;0.008273650794204373
00:35.3;-0.03539334369453695;-0.24221425220485182;-0.9676205597909998;0.998;0.008295190708665407
00:35.3;-0.035446338905824486;-0.242172566784974;-0.9678019745101347;0.997;0.00830773881120131
00:35.3;-0.03546363668081536;-0.24210801951693112;-0.9679992271636555;1.0;0.008311271219130383
00:35.3;-0.0354448235708507;-0.24204002471205413;-0.9681795875596093;1.0;0.00830607655538882
00:35.4;-0.03538967395444614;-0.2419928861274237;-0.9683091408553725;0.9990000000000001;0.008292647258024114
00:35.4;-0.035297971338451965;-0.24199241449885947;-0.9683569933663622;0.998;0.008271551769832798
00:35.4;-0.035169546321697595;-0.24206192278774466;-0.968299037795136;0.998;0.008243331120955993
00:35.4;-0.03500445955876668;-0.242218249129005;-0.968121307143998;1.001;0.008208428430213773
00:35.4;-0.03480334748508487;-0.2424684869426571;-0.9678229164532395;1.002;0.00816718176749689
00:35.4;-0.034568195822469755;-0.24280805709712164;-0.967417971262267;1.001;0.008119961276895533
00:35.4;-0.03430356413862501;-0.24322060080196822;-0.9669352999506926;0.9990000000000001;0.008067463660536026
00:35.4;-0.034017586417554764;-0.24367984784383395;-0.9664151823887788;0.997;0.00801100228565864
00:35.4;-0.03372196118286016;-0.2441531913188976;-0.9659033026630292;0.9940000000000001;0.00795259526880837
00:35.4;-0.033430906766392855;-0.24460630875099695;-0.9654432830285637;0.9940000000000001;0.007894826235126608
00:35.5;-0.033159590775760646;-0.24500789633958348;-0.965069769473885;0.993;0.007840575756602852
00:35.5;-0.03292229808143778;-0.24533358025882254;-0.9648038251396968;0.995;0.007792667681006144
00:35.5;-0.032730322777588326;-0.24556839792559262;-0.9646514866830784;0.995;0.00775341808833647
00:35.5;-0.032589762441729765;-0.24570771602221317;-0.9646052797668188;0.996;0.0077241308875205545
00:35.5;-0.03249970926270146;-0.24575684001177522;-0.9646477510311448;0.998;0.007704666523343551
00:35.5;-0.03245145346111566;-0.24572969088105354;-0.9647558315283908;0.997;0.00769323856153954
00:35.5;-0.03242926653771287;-0.24564678835548445;-0.9649049937837295;0.998;0.007686573259321972
00:35.5;-0.03241304578764184;-0.24553271088850942;-0.9650724709537625;0.997;0.007680493552783446
00:35.5;-0.032382491541219895;-0.24541335157685404;-0.965239155713125;0.996;0.007670848022544911
00:35.5;-0.03232183309225427;-0.24531336215184185;-0.9653902179618449;0.996;0.007654557362092368
00:35.6;-0.0322238253166845;-0.24525400465453334;-0.9655148961394783;0.996;0.007630485662680992
00:35.6;-0.03209194780544085;-0.24525141898003203;-0.9656060455068081;0.998;0.0075998948255007635
00:35.6;-0.0319403297079912;-0.2453152368383279;-0.9656597456408452;0.996;0.007566378216547489
00:35.6;-0.03179157225717299;-0.24544749412856423;-0.9656749139706661;0.996;0.007535317546734753
00:35.6;-0.03167297748402674;-0.24564184620669666;-0.9656528881099902;0.995;0.007512980966528075
00:35.6;-0.031611740950088514;-0.24588316770383783;-0.9655972513507616;0.997;0.007505389488704265
00:35.6;-0.0316298146577616;-0.24614776035309915;-0.9655142491367332;0.997;0.007517115499260624
00:35.6;-0.03173939763940414;-0.2464045747712662;-0.9654137454851354;0.9990000000000001;0.0075502429244520275
00:35.6;-0.03193995531746055;-0.246617861719403;-0.9653101313225853;0.998;0.007603712654975396
00:35.6;-0.03221728395219762;-0.24675130770588727;-0.9652223507771778;0.998;0.007673186565229101
00:35.7;-0.0325447618820938;-0.2467731619205534;-0.965172418058685;0.997;0.007751467430214389
00:35.7;-0.03288664814640003;-0.24666150154472383;-0.9651823501029139;0.996;0.007829433762455915
00:35.7;-0.03320302610786765;-0.24640868951364392;-0.9652700580612189;0.996;0.007897370639687018
00:35.7;-0.033455749607898336;-0.24602409964866426;-0.9654451102731991;0.996;0.007946502119067425
00:35.7;-0.03361446082851817;-0.2455342806888783;-0.9657052893490204;0.995;0.007970450981542417
00:35.7;-0.03366145625092651;-0.24498005835173742;-0.9660347016002552;0.9940000000000001;0.007966294571767259
00:35.7;-0.033594276335498906;-0.24441080631095682;-0.9664040556588545;0.9940000000000001;0.007934954446815499
00:35.7;-0.03342551910861337;-0.2438770312731433;-0.9667735821685942;0.995;0.007880864034853767
00:35.7;-0.03318008110159959;-0.24342291094643348;-0.9670987162844649;1.001;0.007811055104482292
00:35.7;-0.03289057189581016;-0.24308026728192436;-0.9673378609765213;1.001;0.007733913605306756
00:35.8;-0.03259212318355068;-0.24286496773836652;-0.9674604883833932;1.003;0.007657918931162799
00:35.8;-0.03231796252078561;-0.24277615586829973;-0.9674533361183363;1.002;0.007590668582089214
00:35.8;-0.032096653245536795;-0.2427980716394031;-0.967322992247955;0.9990000000000001;0.007538353412499114
00:35.8;-0.03195110255896031;-0.24290370692783977;-0.9670943833959469;0.998;0.0075056594041163945
00:35.8;-0.03189882965131095;-0.24305934274164986;-0.9668059685556578;0.997;0.007495945000829274
00:35.8;-0.03195279830960314;-0.2432291498199182;-0.9665031824666618;0.996;0.0075115196599702715
00:35.8;-0.03212214364983769;-0.24337931898705423;-0.9662315988396706;0.995;0.007553868629307135
00:35.8;-0.03241203973588579;-0.24348136276113092;-0.9660308180779467;0.996;0.007623652074075968
00:35.8;-0.03282205912192905;-0.2435143243383432;-0.9659296909936992;0.9940000000000001;0.0077203297830686045
00:35.8;-0.03334323059518329;-0.24346586664216718;-0.9659432489013847;0.9940000000000001;0.007841467921436456
00:35.9;-0.03395514481342622;-0.2433324867247566;-0.9660716321044546;0.996;0.007982060422886473
00:35.9;-0.03462474608066058;-0.24311917945559733;-0.9663012099454978;0.998;0.008134265468090224
00:35.9;-0.03530769999309578;-0.2428388145484104;-0.9666076380681088;0.998;0.008287771227802195
00:35.9;-0.03595226737310287;-0.24251133263117688;-0.9669600256686074;0.9990000000000001;0.008430762277304773
00:35.9;-0.03650504945201665;-0.24216255444888313;-0.9673252430520556;1.0;0.008551306076065319
00:35.9;-0.03691775648773705;-0.24182214538681954;-0.9676716619532532;1.0;0.008638918834161294
00:35.9;-0.037154001651959846;-0.24152042363059523;-0.9679719025088991;0.998;0.008686047680121815
00:35.9;-0.03719492266033089;-0.24128426555227983;-0.9682044430469815;0.998;0.008689198793552661
00:35.9;-0.037042427185403626;-0.241132970572865;-0.968354327529578;0.998;0.008649486595125232
00:35.9;-0.03671932409141299;-0.24107514208594766;-0.9684134630388991;0.998;0.008572508574807725
00:36.0;-0.03626635173213593;-0.24110733863313547;-0.9683809204083196;1.0;0.008467603674405815
00:36.0;-0.03573667634801728;-0.24121477496911217;-0.9682633044235108;0.9990000000000001;0.008346637225009427
00:36.0;-0.0351887163540205;-0.24137393318395595;-0.9680748738333441;1.0;0.0082224783775237
00:36.0;-0.03467837349915625;-0.24155655318041883;-0.9678369097286124;0.9990000000000001;0.00810736497175486
00:36.0;-0.03425188347361346;-0.24173420995131006;-0.9675759399883854;0.9990000000000001;0.008011385573000056
00:36.0;-0.03394030462640347;-0.2418827180895647;-0.9673207399249414;0.997;0.007941290360211548
00:36.0;-0.03375618928449381;-0.24198576958718077;-0.9670984723341592;0.996;0.007899760739720768
00:36.0;-0.03369258220535066;-0.24203728796380936;-0.9669307820457396;0.995;0.007885186338360882
00:36.0;-0.03372438798800681;-0.24204208433288554;-0.9668308541026709;0.997;0.007891970672344146
00:36.0;-0.03381215321007533;-0.2420146782454919;-0.9668021740324616;0.997;0.007911378329099088
00:36.1;-0.03390813336824769;-0.24197649664815693;-0.9668390831259075;0.998;0.007932886948419367
00:36.1;-0.033964127060365334;-0.2419519556490821;-0.9669285727054595;0.998;0.007945916327204483
00:36.1;-0.033940073700568896;-0.2419641390700572;-0.9670524635683826;0.997;0.007941706294956432
00:36.1;-0.03381197713921006;-0.24203087378132426;-0.9671893038508137;0.996;0.007915034649109205
00:36.1;-0.03357749376448152;-0.2421619041592385;-0.9673158728744787;0.997;0.007865428984917598
00:36.1;-0.03325764395564132;-0.2423576013942325;-0.9674086843306142;0.996;0.007797548899088208
00:36.1;-0.03289372669889142;-0.24260929799856473;-0.9674459886165;0.996;0.007720532386491078
00:36.1;-0.032539642036317276;-0.24290103294213197;-0.9674105584333073;1.002;0.007646328562336044
00:36.1;-0.03225120661130057;-0.2432122516567027;-0.9672930513077672;1.002;0.007587338917292743
00:36.1;-0.03207519600689624;-0.24352081958546903;-0.9670949481970104;1.002;0.007553957383585009
00:36.2;-0.032040985199201504;-0.2438057291989354;-0.9668295735130557;0.9990000000000001;0.007552655827139379
00:36.2;-0.03215651865310076;-0.24404911983685132;-0.9665202424847962;0.996;0.007585028635183677
00:36.2;-0.03240880102734596;-0.24423740143149383;-0.9661958979766526;0.9940000000000001;0.007647866959594786
00:36.2;-0.032768059147105344;-0.24436136198424688;-0.965885753561245;0.9940000000000001;0.007734086346114667
00:36.2;-0.03319418320781841;-0.2444154312767058;-0.9656147666090863;0.995;0.007834197339836868
00:36.2;-0.03364375482209374;-0.24439666279502675;-0.9654011504705472;0.996;0.007937935081543931
00:36.2;-0.034076054094139795;-0.24430405985798404;-0.9652560886472671;0.997;0.00803567813364998
00:36.2;-0.034457071071086164;-0.24413855079775815;-0.9651849804692327;0.997;0.008119425028258874
00:36.2;-0.03476142474029283;-0.24390354611214712;-0.9651892376340835;0.998;0.008183293984330672
00:36.2;-0.03497277457881606;-0.24360584276072741;-0.9652677475216136;0.998;0.008223668291428501
00:36.3;-0.03508361140216097;-0.24325661642415666;-0.9654173644789941;0.997;0.008239181302844071
00:36.3;-0.03509514881910664;-0.24287215912889157;-0.9656321326870304;0.995;0.008230695426766728
00:36.3;-0.03501741260991535;-0.24247384905865954;-0.9659015068335824;0.9940000000000001;0.008201283101285867
00:36.3;-0.03486889898707138;-0.24208682262311457;-0.966208506224007;0.9940000000000001;0.008156056795155209
00:36.3;-0.034674952677682655;-0.24173718152643875;-0.966529068660356;0.995;0.008101664441376288
00:36.3;-0.034464594774076374;-0.24144817182102787;-0.966833557855581;0.995;0.008045421724637415
00:36.3;-0.0342664424407368;-0.2412362416726372;-0.9670906061005267;1.0;0.007994268610743155
00:36.3;-0.03410485601374557;-0.24110799907973515;-0.9672725997872098;1.0;0.007953837699227754
00:36.3;-0.03399730589394934;-0.24105884712595657;-0.9673613561930796;1.001;0.007927866210135758
00:36.3;-0.03395345580872854;-0.24107359255902203;-0.9673522265128869;1.001;0.00791805035292621
00:36.4;-0.033975906969848785;-0.24112884740210364;-0.9672553120930396;0.998;0.007924308097129754
00:36.4;-0.034062091484926574;-0.2411967524351339;-0.9670934855902737;0.997;0.007945316920722624
00:36.4;-0.034206499517793816;-0.24124937318633038;-0.9668979570688763;0.995;0.007979128692306327
00:36.4;-0.03440239310719145;-0.2412629830913571;-0.9667028191032658;0.995;0.008023656586396076
00:36.4;-0.03464250577269558;-0.24122144539361592;-0.9665400875717484;0.996;0.008076907043916249
00:36.4;-0.03491871097049141;-0.24111803501204981;-0.9664362494645923;0.997;0.008136939937110085
00:36.4;-0.03522100961018828;-0.24095530758554565;-0.9664104914590604;0.998;0.00820162548459108
00:36.4;-0.035536514893328326;-0.24074314225651328;-0.9664739594207264;0.997;0.008268351207904916
00:36.4;-0.03584924249822339;-0.24049567617171058;-0.9666291058556548;0.9940000000000001;0.008333877720528193
00:36.4;-0.03614114380413148;-0.24022815717440898;-0.9668687603116795;0.9940000000000001;0.008394470963119956
00:36.5;-0.03639427855663195;-0.23995469442453413;-0.9671755568433226;0.995;0.008446322850241385
00:36.5;-0.03659370349417863;-0.2396874573708955;-0.9675228011422458;0.997;0.008486192554547758
00:36.5;-0.03673036426410072;-0.2394370791196281;-0.9678773537677532;0.998;0.008512104952175857
00:36.5;-0.036803035838358554;-0.2392133499691581;-0.9682042040928883;1.0;0.008523854379583744
00:36.5;-0.03681859081137404;-0.2390253078491634;-0.968471782856614;1.001;0.00852310856357159
00:36.5;-0.03679055912461836;-0.2388804643489727;-0.9686567989503291;1.002;0.008513084687919515
00:36.5;-0.036736578524644826;-0.2387835310928918;-0.9687473763824963;1.0;0.008497939115140216
00:36.5;-0.036675597916409675;-0.23873518810150396;-0.9687436554502453;0.997;0.008482082848252673
00:36.5;-0.036625528511944866;-0.23873131944543285;-0.9686558940823786;0.997;0.008469598518479858
00:36.5;-0.03660158630425468;-0.23876304485944103;-0.9685010604356211;0.997;0.008463833614879249
00:36.6;-0.03661521436879502;-0.2388177321571687;-0.9682992935252978;0.998;0.008467159990414608
00:36.6;-0.03667340365453922;-0.23888086949621112;-0.9680711657367175;0.9990000000000001;0.008480859619447726
00:36.6;-0.03677822296750663;-0.23893836252489467;-0.9678358423216962;0.997;0.008505078491426515
00:36.6;-0.0369263245421492;-0.23897868543373002;-0.9676097440469956;0.996;0.008538773298640815
00:36.6;-0.03710828024211044;-0.23899446583772121;-0.9674055125664329;0.997;0.00857960374393552
00:36.6;-0.03730786741598515;-0.23898342685202867;-0.9672314950278609;0.997;0.008623799258366467
00:36.6;-0.03750177827318821;-0.2389487532650962;-0.9670919709813861;0.997;0.008666114211458678
00:36.6;-0.037660555721291636;-0.23889873823309835;-0.9669880163344112;0.997;0.008700048470206478
00:36.6;-0.03775155549698962;-0.23884543332097022;-0.9669187056545103;0.998;0.008718499658621304
00:36.6;-0.037744045598780925;-0.23880232024580442;-0.9668823392483282;0.998;0.008714864078146228
00:36.7;-0.0376154272643613;-0.23878148343184802;-0.9668773527241721;0.997;0.008684364292294008
00:36.7;-0.03735694239705899;-0.23879094958789904;-0.9669026168872125;0.996;0.008625254550954104
00:36.7;-0.03697756511597087;-0.23883274349697511;-0.9669571058830932;0.995;0.008539636547385992
00:36.7;-0.03650538906150897;-0.2389020551254585;-0.9670392275742209;0.997;0.008433754570450074
00:36.7;-0.0359861458605401;-0.2389877657874868;-0.9671462196421978;0.996;0.00831769792003505
00:36.7;-0.03547877661765102;-0.23907426154048933;-0.9672739177289864;0.997;0.008204477650905352
00:36.7;-0.03504846565769023;-0.23914404323514277;-0.967417039594934;0.998;0.008108533409936497
00:36.7;-0.03475804445637477;-0.23918043494704913;-0.9675699324253512;0.998;0.008043838634092885
00:36.7;-0.034659037414225144;-0.23916981819163288;-0.9677274979961294;0.9990000000000001;0.008021876138458523
00:36.7;-0.03478385499601764;-0.2391031029118482;-0.9678858678812556;0.9990000000000001;0.008049836747063166
00:36.8;-0.03514063066458021;-0.23897636724739324;-0.9680424427025489;0.998;0.008129407715205213
00:36.8;-0.035711714418942594;-0.23879072752407554;-0.9681951359633589;0.997;0.00825640627324674
00:36.8;-0.03645587598932573;-0.23855162064441104;-0.9683410592904499;0.997;0.008421282892744702
00:36.8;-0.037313349642637404;-0.2382677977766168;-0.9684752632501108;0.996;0.008610296779341262
00:36.8;-0.03821259393945814;-0.23795041402322556;-0.9685902065312179;0.997;0.00880710263966473
00:36.8;-0.03907791143289507;-0.23761261040622803;-0.9686763180835568;0.9990000000000001;0.00899455148636697
00:36.8;-0.039837115876415294;-0.23726976759277835;-0.9687235453980051;1.0;0.009156513697077743
00:36.8;-0.04042817362878225;-0.236940136492089;-0.9687233666454331;1.0;0.009279456324754588
00:36.9;-0.040803966715051966;-0.23664516890564652;-0.9686705729075463;0.9990000000000001;0.009353542717553537
00:36.9;-0.04093512495337263;-0.23640891579880963;-0.9685643095724112;0.9990000000000001;0.009373211861593088
00:36.9;-0.040811378637718325;-0.23625617629963191;-0.9684082782461694;0.997;0.009337334772398632
00:36.9;-0.04044175787883825;-0.23620936986680316;-0.9682103293871145;0.998;0.00924904425442449
00:36.9;-0.039853747585701954;-0.23628444786889968;-0.9679817199017199;0.996;0.009115310339583987
00:36.9;-0.03909153232737973;-0.23648668522604438;-0.9677361522360604;0.997;0.008946359665556352
00:36.9;-0.038213514867798164;-0.23680756323629942;-0.9674885769673446;0.997;0.008755045365164216
00:36.9;-0.037289099823842195;-0.2372237700281243;-0.9672537590903817;0.9940000000000001;0.008556192151009102
00:36.9;-0.03639437909157546;-0.23769876890210903;-0.9670448287568728;0.993;0.008365807243611058
00:36.9;-0.03560621524311241;-0.23818686251372362;-0.9668724139260975;0.997;0.008199979866913117
00:37.0;-0.03499461900173715;-0.23863927823671843;-0.9667449957188565;1.0;0.008073375066398464
00:37.0;-0.0346142469870325;-0.2390113003649603;-0.9666703150800535;1.0;0.007997453161446769
00:37.0;-0.03449680068378094;-0.23926899653139172;-0.9666565582025302;0.998;0.007978797618299876
00:37.0;-0.03464629030198641;-0.2393941158191442;-0.9667119035870001;0.996;0.008018022632505553
00:37.0;-0.035038302056379284;-0.23938635724044227;-0.9668420772490274;0.9940000000000001;0.008109573066577514
00:37.0;-0.03562321625158987;-0.23926286088191046;-0.9670468708760189;0.9940000000000001;0.008242442812372484
00:37.0;-0.036332467416952785;-0.23905511094862822;-0.9673171980207826;0.995;0.008401596793792272
00:37.0;-0.03708667486106862;-0.2388037130737506;-0.9676339873245675;0.996;0.008569788153474298
00:37.0;-0.03780468448174547;-0.23855193853017925;-0.9679693651649455;0.997;0.00872951630743831
00:37.0;-0.038412774983518305;-0.2383393073396172;-0.9682897235930993;0.997;0.008864957907654252
00:37.0;-0.03885312054018195;-0.23819648756196765;-0.9685598680363028;0.9990000000000001;0.008963708582252285
00:37.0;-0.039090318277731385;-0.23814232726994375;-0.9687474854539818;0.9990000000000001;0.009018127855061673
00:37.1;-0.03911487901327574;-0.23818312699899813;-0.9688272993968953;1.0;0.009026083599613445
00:37.1;-0.03894312122361941;-0.2383137225813234;-0.9687843245287395;1.0;0.008990977486843545
00:37.1;-0.03861359017579146;-0.2385197603147716;-0.9686157759605646;0.9990000000000001;0.008921052297672665
00:37.1;-0.038180670175107075;-0.23878046024681637;-0.9683315293928707;0.9990000000000001;0.008828082947546606
00:37.1;-0.037706381014424965;-0.23907112091512736;-0.9679533707780895;0.998;0.008725622218541952
00:37.1;-0.037251517690830474;-0.2393649585572044;-0.9675133461461563;0.997;0.008627033982328242
00:37.1;-0.03686749360147687;-0.2396345731712983;-0.9670513352657625;0.998;0.008543633665025587
00:37.1;-0.036590441634490385;-0.2398537886641017;-0.9666117434822797;0.9990000000000001;0.008483328827672516
00:37.2;-0.03643877742992654;-0.24000036455266413;-0.9662390704055869;0.995;0.008450069738724142
00:37.2;-0.036414258397769905;-0.24005926398943458;-0.9659723161332081;0.995;0.00844412434658208
00:37.2;-0.036505341339792205;-0.24002538887486508;-0.9658388870093894;0.993;0.008462881947899896
00:37.2;-0.03669131399944;-0.23990464057618874;-0.9658493735091455;0.99;0.008501808459287379
00:37.2;-0.036946157476478524;-0.2397129674389907;-0.9659947659471696;0.991;0.008555306605405847
00:37.2;-0.03724158511269547;-0.23947396903952547;-0.9662473699014986;0.997;0.008617371074756996
00:37.2;-0.03754893722473287;-0.23921578349043005;-0.9665657725929636;0.9990000000000001;0.008681982228851961
00:37.2;-0.03783996286146794;-0.2389675550308467;-0.9669027083748342;0.9990000000000001;0.008743240373218844
00:37.2;-0.038087097009300526;-0.2387556873184583;-0.9672135701967297;0.9990000000000001;0.008795367263552923
00:37.2;-0.03826424858940213;-0.2386005269818099;-0.9674634707906397;1.001;0.008832815600031303
00:37.3;-0.03834890927613988;-0.23851428791963028;-0.9676316460408558;0.9990000000000001;0.008850697132974738
00:37.3;-0.03832548193853637;-0.23850050669294282;-0.9677127786222758;0.9990000000000001;0.008845520772836325
00:37.3;-0.03818868099302805;-0.2385547077492219;-0.9677154473324916;0.998;0.008815974465037743
00:37.3;-0.03794554775128509;-0.23866583106855221;-0.967658451801948;0.996;0.008763410742461482
00:37.3;-0.037615201007157345;-0.23881813681928302;-0.9675660475383796;0.996;0.008691831791175202
00:37.3;-0.03722630044184804;-0.23899336539601526;-0.9674631334577241;0.997;0.008607363566380997
00:37.3;-0.036812859459590196;-0.23917292207969396;-0.9673711884621946;0.996;0.008517354255018933
00:37.3;-0.036409404886855;-0.23933989526261543;-0.9673053238222917;0.995;0.008429314448092763
00:37.3;-0.03604655203351333;-0.2394807400552467;-0.9672725841120464;0.995;0.00834993701390003
00:37.3;-0.03574781827924691;-0.2395864646765378;-0.9672717148724203;0.998;0.008284385673751974
00:37.3;-0.03552796897256781;-0.23965324149102885;-0.967294509401959;0.998;0.008235925530018142
00:37.3;-0.03539267284014487;-0.23968248357616181;-0.9673283062425144;0.998;0.008205849626821339
00:37.4;-0.03533908149263648;-0.23968045917764244;-0.9673587940593832;0.998;0.008193613415860074
00:37.4;-0.035357099526233574;-0.23965743358519098;-0.9673724432832329;0.998;0.008197119136659936
00:37.4;-0.035431238181556406;-0.23962624626905912;-0.9673583041215295;0.998;0.008213118297327855
00:37.4;-0.035542833252954306;-0.23960036031365464;-0.9673091602580529;0.997;0.00823767798954157
00:37.4;-0.03567225526334517;-0.23959176490338266;-0.9672221386702265;0.997;0.008266633472972275
00:37.4;-0.03580087314404998;-0.23960929325079885;-0.9670989769354893;0.998;0.008295989634834458
00:37.4;-0.035912806519544295;-0.2396576543070546;-0.9669461172579664;0.998;0.008322291507194216
00:37.4;-0.03599645727914675;-0.23973704978949242;-0.966774587988718;0.995;0.008342959648900597
00:37.5;-0.036045496620588244;-0.23984311357694896;-0.9665995688514112;0.998;0.008356508590242872
00:37.5;-0.03605897003531336;-0.2399670803973904;-0.9664396989321449;0.998;0.008362569625424976
00:37.5;-0.03604059997439515;-0.24009630810589402;-0.9663161233676383;0.997;0.008361741169382712
00:37.5;-0.03599766639896796;-0.24021539624638882;-0.9662509579847482;0.997;0.008355359194546481
00:37.5;-0.035939718231703444;-0.24030806413561392;-0.9662648366659167;0.997;0.008345246863407874
00:37.5;-0.03587716556725172;-0.24035963934959848;-0.9663735433868776;0.995;0.008333447431500773
00:37.5;-0.035819889883601005;-0.24035963361110307;-0.966584088530798;0.9940000000000001;0.00832195611882137
00:37.5;-0.035776200205273036;-0.2403037155413609;-0.9668910124629736;0.993;0.008312510778026349
00:37.5;-0.035752347677698935;-0.24019457228769064;-0.9672741516386542;0.993;0.008306485986029002
00:37.5;-0.03575238902619976;-0.2400415463978214;-0.9676991646619172;0.9940000000000001;0.008304851082743713
00:37.6;-0.03577788587889039;-0.2398592302081504;-0.9681215552279357;1.002;0.008308086313264611
00:37.6;-0.035827150503579056;-0.23966532473386723;-0.9684937802529907;1.002;0.008315996695430641
00:37.6;-0.03589440212709832;-0.23947818741532095;-0.9687736617066177;1.002;0.00832750705529946
00:37.6;-0.03596960011734527;-0.23931454471066232;-0.9689317002810767;1.004;0.008340611045474995
00:37.6;-0.036039457193827805;-0.23918767648087938;-0.9689554894477128;1.001;0.008352584323364248
00:37.6;-0.03608963005110835;-0.23910617958225017;-0.9688504808282975;0.998;0.0083604564647262
00:37.6;-0.03610774327100585;-0.23907340774384075;-0.9686372828686901;0.997;0.008361665671806824
00:37.6;-0.036086549061133594;-0.23908768696879135;-0.9683465939411937;0.996;0.008354748720627523
00:37.6;-0.03602615968687092;-0.23914322670295843;-0.9680134622971003;0.997;0.008339834870127827
00:37.6;-0.035934402860140664;-0.23923145576942173;-0.9676723214251718;0.997;0.008318730109583925
00:37.7;-0.03582513674708413;-0.23934247763369523;-0.9673534009920518;0.997;0.008294549478597634
00:37.7;-0.03571527429808387;-0.23946636338032826;-0.9670803600682383;0.997;0.008271058115204726
00:37.7;-0.03562158653712121;-0.23959404855982508;-0.9668687415020603;0.995;0.008251954115567582
00:37.7;-0.035558007516714125;-0.23971779664334664;-0.9667250533670178;0.995;0.00824025532275177
00:37.7;-0.03553373679801578;-0.23983145797405342;-0.9666466710297855;0.995;0.00823786723510815
00:37.7;-0.03555230758153549;-0.2399307579101025;-0.9666229508294538;0.997;0.008245382799923389
00:37.7;-0.03561170512450075;-0.24001351357101885;-0.9666376925726277;0.997;0.008262133138815707
00:37.7;-0.035705355759620784;-0.24007944880649393;-0.9666725641131049;0.998;0.008286435279500338
00:37.7;-0.03582359349320564;-0.24012950080123657;-0.9667107262516412;1.0;0.008315937248854877
00:37.8;-0.035955201685862435;-0.2401649068081932;-0.9667398071820538;0.997;0.008347969988094447
00:37.8;-0.036088706955912375;-0.24018648546329127;-0.9667535549192199;0.997;0.00837983884811723
00:37.8;-0.03621328392832428;-0.24019433770189566;-0.9667520077672679;0.997;0.008409027207027447
00:37.8;-0.03631939527395455;-0.24018794046684805;-0.9667405705903157;0.998;0.008433342757646059
00:37.8;-0.036399404345934465;-0.24016649724024275;-0.9667284368611637;0.997;0.00845106018522196
00:37.8;-0.03644824759314575;-0.24012939513874773;-0.9667264850122628;0.996;0.008461076007974948
00:37.8;-0.03646396835788047;-0.24007660372862735;-0.9667447230332619;0.995;0.008463024142571707
00:37.8;-0.03644773135286602;-0.24000891457514992;-0.9667896872603972;0.995;0.008457263916514074
00:37.8;-0.036403065744598374;-0.23992806299523592;-0.9668624950762043;0.995;0.008444690204400905
00:37.8;-0.03633444818340962;-0.23983682137685527;-0.9669581901978557;0.996;0.008426401041579951
00:37.8;-0.03624566958574615;-0.2397390601550375;-0.9670666477143683;0.998;0.008403328305556004
00:37.9;-0.036138575078873136;-0.2396396495112104;-0.9671747931210659;0.998;0.008375961444952664
00:37.9;-0.03601267872456623;-0.2395440651671147;-0.9672694512513837;0.998;0.008344269339571253
00:37.9;-0.035865880378692115;-0.2394577609817595;-0.9673400412800756;0.9990000000000001;0.008307867816642306
00:37.9;-0.03569617625379875;-0.2393855908171073;-0.9673805703464764;0.998;0.008266412315215564
00:37.9;-0.03550390320739715;-0.23933147127861037;-0.9673906822800592;0.997;0.008220113450878128
00:37.9;-0.035293735894094985;-0.23929815439018615;-0.9673757968321817;0.998;0.00817019078460291
00:37.9;-0.035075602931497966;-0.23928686656296355;-0.9673466011271251;0.997;0.008119066860087154
00:37.9;-0.03486412631434918;-0.23929684012810318;-0.9673181127818891;0.9990000000000001;0.008070214352500918
00:37.9;-0.034676900106190296;-0.2393250519131771;-0.9673082286444222;0.998;0.00802774024301916
00:37.9;-0.03453229859900687;-0.2393663620491436;-0.967335472389606;0.998;0.007995869927499484
00:38.0;-0.03444727622397266;-0.2394138555973269;-0.9674158148205066;0.995;0.007978428382858047
00:38.0;-0.034435299287028924;-0.23945906436966222;-0.9675589176224335;0.995;0.00797834042628876
00:38.0;-0.03450462318971184;-0.23949204233577556;-0.9677646919484427;0.9940000000000001;0.007997203544504297
00:38.0;-0.034657281130525096;-0.23950162035290368;-0.9680212857908279;0.995;0.008035036470352057
00:38.0;-0.03488890454101239;-0.23947622570586335;-0.9683053546567176;0.996;0.008090252414230725
00:38.0;-0.035189083716734744;-0.23940538618562932;-0.9685849565948151;0.9990000000000001;0.00815980152026648
00:38.0;-0.035541898685824386;-0.239281698890198;-0.9688247927263769;1.002;0.00823939554165193
00:38.0;-0.03592653081598388;-0.23910289901502493;-0.9689927310176808;1.003;0.008323780960336249
00:38.0;-0.03631819913253131;-0.2388736203308405;-0.9690658969769033;1.002;0.008407092146221117
00:38.0;-0.03668976220809957;-0.23860629476993594;-0.9690346718176285;1.001;0.008483325092999386
00:38.1;-0.03701400845409763;-0.23832058792456717;-0.9689037882180994;0.9990000000000001;0.008546894344887306
00:38.1;-0.037266142144869445;-0.23804111655163865;-0.9686907641666717;0.9990000000000001;0.008593133796938705
00:38.1;-0.03742582588567305;-0.237793823920895;-0.9684225622440793;0.996;0.008618602730457987
00:38.1;-0.03747853619473714;-0.23760186314729928;-0.9681314755800131;0.997;0.008621181773109558
00:38.1;-0.03741650335579449;-0.23748192479188665;-0.967850992092966;0.998;0.008600075406364819
00:38.1;-0.037239749133043676;-0.2374417702737123;-0.9676119264643938;0.996;0.008555887804278666
00:38.1;-0.03695760142581182;-0.2374794523567192;-0.9674387240470053;0.9940000000000001;0.008490891342365156
00:38.1;-0.03659049720203242;-0.23758434406345502;-0.9673459759174692;0.995;0.008409457093141807
00:38.1;-0.036171050077383755;-0.23773969737048697;-0.9673357422928796;0.9940000000000001;0.008318404927356166
00:38.1;-0.035742913403730085;-0.23792609916187774;-0.967396593341528;0.995;0.008226906982162975
00:38.2;-0.035356492587435194;-0.2381249554117597;-0.9675050328066367;0.997;0.008145679538743808
00:38.2;-0.035061841297168383;-0.23832113617656933;-0.9676293962170376;0.997;0.008085489806040265
00:38.2;-0.03490030336030839;-0.2385042931081826;-0.9677356997896586;0.9990000000000001;0.0080553082712121
00:38.2;-0.03489696159393989;-0.23866891289185074;-0.9677944216524703;1.003;0.00806058542544575
00:38.2;-0.035055693786808846;-0.23881340748885585;-0.9677867852924532;1.001;0.008102088070765033
00:38.2;-0.03535793781818649;-0.23893845345494882;-0.9677088633781236;1.001;0.008175563478098079
00:38.2;-0.03576535467810331;-0.23904488721366254;-0.9675721586350143;0.997;0.008272282529057031
00:38.2;-0.0362257310952253;-0.23913183912138883;-0.9674003986112882;0.995;0.008380324295547989
00:38.2;-0.036680962646060515;-0.23919591175522695;-0.9672236103335852;0.995;0.008486358348969632
00:38.2;-0.03707577020464575;-0.23923179329630306;-0.9670713742473814;0.995;0.008577635863476062
00:38.3;-0.0373658202005418;-0.23923407567307217;-0.9669670155322664;0.996;0.008643889747336802
00:38.3;-0.03752407384646214;-0.23919956498679373;-0.9669236647509369;0.996;0.008678857484454239
00:38.3;-0.03754434262997089;-0.23912916962953817;-0.9669423982518534;0.995;0.008681158065168414
00:38.3;-0.03744126561361945;-0.2390286717384443;-0.9670124098455593;0.995;0.0086543123625908
00:38.3;-0.037246484865234644;-0.23890825323547799;-0.9671131550179665;0.996;0.00860584929034485
00:38.3;-0.03700157081442924;-0.23878113585363064;-0.9672183525345576;0.998;0.008545642168042437
00:38.3;-0.036749021016125684;-0.23866177780767325;-0.9673014415562664;0.9990000000000001;0.00848380114698362
00:38.3;-0.036523375413585864;-0.23856386242437333;-0.9673415510586384;1.002;0.008428599297865652
00:38.3;-0.03634486749866961;-0.23849818188568944;-0.9673284428477722;1.002;0.00838498172357886
00:38.4;-0.036217512339543796;-0.2384706527617497;-0.9672646975968014;0.995;0.008354085097179416
00:38.4;-0.03613195520581901;-0.23848092473138457;-0.9671642141149693;0.995;0.008333843278116837
00:38.4;-0.036071514822311634;-0.23852207287361554;-0.9670477364493786;0.995;0.00832033607240323
00:38.4;-0.036018950256445595;-0.23858166112009557;-0.9669372958223085;0.993;0.008309337925608857
00:38.4;-0.03596194349106594;-0.2386441506279643;-0.9668513591253128;0.9940000000000001;0.008297622261238105
00:38.4;-0.035896182692869864;-0.2386941805156056;-0.9668018291868496;0.996;0.008283761015307698
00:38.4;-0.03582562123299603;-0.23871975968502498;-0.9667933985388395;0.998;0.008268291415187508
00:38.4;-0.035760214732329966;-0.23871434835836086;-0.966824910386805;0.998;0.008253277988859366
00:38.4;-0.03571216151727182;-0.2386773975924586;-0.9668916228697516;0.998;0.008241480370220381
00:38.4;-0.03569193965422497;-0.23861363612963224;-0.9669872310266953;0.996;0.00823542749783999
00:38.4;-0.03570521959111285;-0.23853168266158647;-0.9671050752154206;0.998;0.008236665754614984
00:38.5;-0.035751337383773;-0.23844243887153332;-0.9672385356908194;0.997;0.008245356518064583
00:38.5;-0.035823485734000106;-0.23835748921537733;-0.967380847043958;0.997;0.008260267817979849
00:38.5;-0.035910193771386406;-0.23828762203602816;-0.9675246201617279;0.995;0.008279064327124101
00:38.5;-0.03599744269539024;-0.23824164292507496;-0.9676614381241457;0.998;0.008298751475327514
00:38.5;-0.03607096093002727;-0.23822568660936227;-0.9677818851536787;0.997;0.008316178225025861
00:38.5;-0.03611834997509369;-0.23824304224760617;-0.9678761632884084;0.997;0.008328521712337177
00:38.5;-0.03613064510161815;-0.23829424507593228;-0.9679352543420233;0.998;0.008333656162744355
00:38.5;-0.036103155060731966;-0.23837718399557833;-0.9679524732691892;1.0;0.008330362023706938
00:38.5;-0.03603584305948481;-0.23848714834543627;-0.9679250122717206;0.9990000000000001;0.008318430264152351
00:38.5;-0.035933589456615914;-0.23861675349570982;-0.9678548201876821;0.9990000000000001;0.008298732227481367
00:38.6;-0.03580638735802648;-0.23875562025188216;-0.9677483432220646;0.995;0.008273257575709295
00:38.6;-0.03566920161729775;-0.23888988193981744;-0.9676152743519975;0.995;0.008245060748001642
00:38.6;-0.035541079750050816;-0.23900200524363563;-0.9674670660278214;0.996;0.00821804192161874
00:38.6;-0.03544319219491565;-0.23907157550564015;-0.9673161001970807;0.997;0.008196514087933513
00:38.6;-0.03539578788508734;-0.23907739000848224;-0.9671758948926351;1.0;0.008184564090641597
00:38.6;-0.035414519459453536;-0.23900072065281955;-0.9670618281949447;1.0;0.00818530383495133
00:38.6;-0.03550703261643911;-0.2388292483484664;-0.9669912113108016;0.998;0.008200199490689283
00:38.6;-0.03567087219001761;-0.23856090380259973;-0.9669816809594334;0.997;0.008228700328187202
00:38.6;-0.03589347122854484;-0.23820661302801097;-0.9670477454888382;0.996;0.008268318385101284
00:38.7;-0.03615421996433972;-0.2377908892443874;-0.9671962943357372;0.992;0.00831512593014737
00:38.7;-0.03642768181624428;-0.23734967693465864;-0.9674224921155381;0.992;0.008364430168166381
00:38.7;-0.036686619252171135;-0.23692586601844232;-0.9677076598084142;0.992;0.00841132372481868
00:38.7;-0.03690393763410084;-0.23656364536206867;-0.9680204414631429;0.997;0.00845094431109027
00:38.7;-0.037053613624226545;-0.23630271784505888;-0.9683215973103475;1.001;0.008478497642127946
00:38.7;-0.03711155979484574;-0.23617297572405258;-0.968571236200985;1.002;0.008489282331244009
00:38.7;-0.03705760420351858;-0.23619027816308094;-0.9687360124055249;0.998;0.008479003233773048
00:38.7;-0.036879128723345554;-0.23635417841760858;-0.9687939574266482;0.998;0.008444527571345284
00:38.7;-0.036575825981740834;-0.23664823892221412;-0.9687362432949965;0.998;0.008384998082924132
00:38.7;-0.036163980458022695;-0.23704291991148396;-0.9685667378994158;0.9990000000000001;0.008302956539409661
00:38.8;-0.03567807334553077;-0.23750024807721193;-0.9683005091665616;0.998;0.008204944009655253
00:38.8;-0.03516810711916017;-0.23797897801051945;-0.9679619170269823;0.998;0.008101134817986327
00:38.8;-0.03469290657150503;-0.23843910189904144;-0.9675825276269638;0.998;0.008003983437445551
00:38.8;-0.034311199461856526;-0.2388452077358067;-0.9671989303850934;0.998;0.00792625864709681
00:38.8;-0.034072388170039596;-0.23916872958867905;-0.9668503603193708;0.9990000000000001;0.007878911728313835
00:38.8;-0.034008548294409;-0.23938926003082311;-0.9665757853989487;0.997;0.00786916528059975
00:38.8;-0.034129167253922545;-0.23949509262576119;-0.9664100216084852;0.995;0.007899211379778415
00:38.8;-0.03441985727016647;-0.23948329018263045;-0.9663788049289609;0.992;0.007965841805714882
00:38.8;-0.03484534826165649;-0.23935961902277514;-0.9664936417449644;0.992;0.008061107182124393
00:38.8;-0.035355924998219705;-0.23913843815873836;-0.9667480725870525;0.993;0.008173816944796982
00:38.8;-0.03589560340637275;-0.23884229901437012;-0.9671169201033971;0.996;0.008291469024960394
00:38.9;-0.03641011919350849;-0.23850085738795637;-0.9675590742643676;0.9990000000000001;0.008402132686013156
00:38.9;-0.03685332515539858;-0.23814874899829194;-0.9680230745537899;0.9990000000000001;0.008495925452667811
00:38.9;-0.03719139746695558;-0.237822325135379;-0.9684539847061334;0.998;0.008565921862349767
00:38.9;-0.03740486302366311;-0.23755552895635001;-0.9688002009461624;0.9990000000000001;0.008608498967620722
00:38.9;-0.0374888230117175;-0.23737554641369876;-0.9690195013536564;1.0;0.008623236562739793
00:38.9;-0.03745184163435222;-0.23729904774880406;-0.9690840549433941;1.001;0.008612527499578006
00:38.9;-0.0373137906735599;-0.23732974864160086;-0.9689840146076808;1.001;0.008581005150617077
00:38.9;-0.03710278815448504;-0.2374577054402205;-0.968729121546829;1.0;0.0085348357773724
00:38.9;-0.03685149238146616;-0.23766044351390586;-0.9683478425139933;0.9990000000000001;0.008480927932915031
00:38.9;-0.03659324814133584;-0.23790580034891712;-0.9678839460188274;0.998;0.008426151778384431
00:39.0;-0.03635862208153993;-0.23815615415614688;-0.9673908807681991;0.995;0.008376666276523552
00:39.0;-0.03617268207796117;-0.23837346150706307;-0.9669247556320655;0.995;0.008337412590787121
00:39.0;-0.036053192772990766;-0.23852431400827254;-0.9665371018265502;0.9940000000000001;0.008311796770504693
00:39.0;-0.036009745683426825;-0.2385842445440439;-0.9662686494425379;0.995;0.008301559862649325
00:39.0;-0.036043586168864265;-0.23854079932557612;-0.9661449165855102;0.993;0.008306784389564024
00:39.0;-0.03614775540438203;-0.23839508396781164;-0.9661738967376788;0.9940000000000001;0.008325952526542372
00:39.0;-0.03630744128689311;-0.23816150348579646;-0.9663459393157453;0.995;0.008356026970555578
00:39.0;-0.03650086719936652;-0.2378656215325194;-0.9666358465252715;0.996;0.008392623824332772
00:39.0;-0.036701160122337845;-0.23754049154496992;-0.9670069405075407;0.996;0.008430377739837023
00:39.0;-0.036879406425843475;-0.23722211073116828;-0.9674164985299396;0.9990000000000001;0.00846355026736954
00:39.1;-0.037008739467644436;-0.23694471668611594;-0.9678216699539454;1.0;0.00848685269816953
00:39.1;-0.03706889826542711;-0.2367366190753538;-0.9681847505236201;1.0;0.008496368837811453
00:39.1;-0.03705037593591135;-0.23661716969356364;-0.968476712373744;0.997;0.008490398147785655
00:39.1;-0.03695720053039068;-0.23659525875774917;-0.9686785187483498;0.997;0.00847002657194471
00:39.1;-0.036807502547358324;-0.2366693941489799;-0.9687807421629873;0.997;0.008439251837936671
00:39.1;-0.036631253686759416;-0.23682909180772585;-0.9687825400218195;0.9990000000000001;0.008404524258928998
00:39.1;-0.036465159163617714;-0.23705706490123074;-0.9686907051920782;0.998;0.008373675926398204
00:39.1;-0.03634571069822853;-0.23733156874826403;-0.9685187992784708;0.998;0.008354428186642185
00:39.1;-0.03630220611950277;-0.2376283398071922;-0.9682860438835204;0.997;0.008352854654815528
00:39.1;-0.03635148846371691;-0.23792196407251764;-0.968015808205059;0.998;0.00837219209349616
00:39.2;-0.03649544170811483;-0.23818702881029516;-0.9677337387909275;0.998;0.008412258579474415
00:39.2;-0.036721416696497325;-0.23839957522441635;-0.9674655504408181;0.998;0.008469551528273719
00:39.2;-0.03700503867474165;-0.23853897186548942;-0.9672344452529578;0.995;0.008537917613277813
00:39.2;-0.037314506709841794;-0.2385898589029814;-0.9670583674203899;0.9940000000000001;0.008609588052675664
00:39.2;-0.03761561689150948;-0.23854382600075227;-0.9669477870616535;0.995;0.008676396550751838
00:39.2;-0.037876951831217566;-0.23840073230216113;-0.966904929389136;0.997;0.00873104810570739
00:39.2;-0.03807457700633021;-0.2381695085917974;-0.9669248789881834;0.998;0.008768271374081841
00:39.2;-0.03819534127548504;-0.23786803208455312;-0.9669980705074036;0.9990000000000001;0.008785613261775821
00:39.2;-0.038238001974658445;-0.23752174657787037;-0.9671130615211296;0.9990000000000001;0.008783666098284376
00:39.2;-0.03821193827620418;-0.23716110758140738;-0.967258511738151;0.998;0.008765669612525591
00:39.3;-0.03813374728683117;-0.23681821387089744;-0.9674238027542552;0.995;0.008736577908759594
00:39.3;-0.038022451261357455;-0.23652305578922236;-0.9675984691968761;0.995;0.008701793356041033
00:39.3;-0.03789457996281532;-0.2362999393658003;-0.9677712588736959;0.995;0.0086658951057557
00:39.3;-0.03776064128866911;-0.23616474062136722;-0.967929801705637;0.997;0.008631738620274816
00:39.3;-0.03762396883322161;-0.23612342013574625;-0.9680614341980244;0.997;0.008600161168865732
00:39.3;-0.03748203016104282;-0.23617186836110338;-0.9681550448659972;0.9990000000000001;0.008570303146453748
00:39.3;-0.03732960543904952;-0.23629698114577527;-0.9682033022302585;0.9990000000000001;0.008540398437455275
00:39.3;-0.03716278141783338;-0.23647881030671924;-0.9682044589822839;0.998;0.008508784435123476
00:39.3;-0.03698235125045767;-0.23669349716340576;-0.9681630955102959;0.998;0.00847479827879274
00:39.3;-0.03679532721096853;-0.23691653256916345;-0.9680895977768235;0.998;0.008439244916339678
00:39.4;-0.0366140987125983;-0.23712584665860992;-0.9679985950974124;0.998;0.008404308186273237
00:39.4;-0.036453800445040714;-0.23730426420166986;-0.9679067656218506;0.998;0.008373015201367332
00:39.4;-0.03632894190073543;-0.23744088740397967;-0.9678303879487578;0.996;0.008348481895332958
00:39.4;-0.036250215278570586;-0.23753114707246348;-0.9677829853367202;0.996;0.008333148833065835
00:39.4;-0.03622218266447171;-0.23757569415806384;-0.9677734552136741;0.996;0.008328184330870911
00:39.4;-0.03624243439086161;-0.23757870805547618;-0.9678050271562657;0.996;0.008333218155539508
00:39.4;-0.036302458059984485;-0.23754626554696534;-0.9678751342825056;0.998;0.008346484134189446
00:39.4;-0.036389856734187175;-0.23748522870062144;-0.9679759540566405;0.998;0.008365299932208706
00:39.4;-0.036491157192467205;-0.23740289595742256;-0.968095143398185;0.997;0.008386711227091904
00:39.4;-0.03659439178540278;-0.23730737297681043;-0.9682163911199763;0.996;0.008408106339141356
00:39.5;-0.036690790510708844;-0.23720821251527616;-0.9683199592397117;0.997;0.008427634133602703
00:39.5;-0.03677528224916428;-0.23711664653661582;-0.9683839054232296;0.997;0.008444338258506748
00:39.5;-0.03684595027019506;-0.23704492666799984;-0.9683865837116702;0.998;0.008458029399673711
00:39.5;-0.036902835396373436;-0.23700468120339885;-0.968310401512701;1.0;0.00846898292354035
00:39.5;-0.0369465178118631;-0.23700453662867718;-0.9681461082404151;1.0;0.008477563975041518
00:39.5;-0.03697695912019153;-0.23704758680922453;-0.9678964218147358;1.0;0.00848390146756508
00:39.5;-0.03699312014857393;-0.23712955927233717;-0.9675778046837609;0.9990000000000001;0.008487749518251259
00:39.5;-0.03699361953982082;-0.23723845396680188;-0.9672196732525477;0.998;0.008488618826123215
00:39.5;-0.036978210643110174;-0.23735599462935753;-0.9668609586415804;0.996;0.00848613860190637
00:39.5;-0.03694946081029429;-0.2374606510318241;-0.9665445551830475;0.9940000000000001;0.008480503507234019
00:39.6;-0.036913875988337126;-0.23753146060223282;-0.9663107756182393;0.9940000000000001;0.008472812790993411
00:39.6;-0.03688190467577365;-0.23755164753893201;-0.9661912341259112;0.9940000000000001;0.008465146545110123
00:39.6;-0.036866765554345815;-0.23751124592011497;-0.9662043034572543;0.995;0.008460347128106033
00:39.6;-0.03688243362495152;-0.23740835990305292;-0.9663526276783408;0.9940000000000001;0.00846157501934311
00:39.6;-0.036941077908478746;-0.23724905830917822;-0.9666226779128945;0.993;0.008471709220671756
00:39.6;-0.03705016652916934;-0.23704617704679654;-0.9669862872772612;0.995;0.008492654090278794
00:39.6;-0.03720970570101825;-0.236817482317196;-0.9674041628256437;0.997;0.008524677276725717
00:39.6;-0.03741037160274697;-0.23658361134473974;-0.9678310741440636;0.9990000000000001;0.008565963920597343
00:39.6;-0.03763329224800627;-0.23636602495835943;-0.9682218416166883;0.9990000000000001;0.008612557613105226
00:39.7;-0.03785198073099404;-0.23618510351778516;-0.9685369505672776;0.9990000000000001;0.008658791997508325
00:39.7;-0.03803638764270757;-0.23605849731303005;-0.9687468949432846;0.9990000000000001;0.00869819673948908
00:39.7;-0.03815818931921658;-0.23599976352974336;-0.9688349216265534;0.9990000000000001;0.008724672038538982
00:39.7;-0.038195869319595364;-0.23601723061135138;-0.968798235100098;1.0;0.008733603028352088
00:39.7;-0.03813849603665064;-0.23611308266659828;-0.9686477673988811;0.998;0.008722671079767567
00:39.7;-0.03798781453450109;-0.23628283172856557;-0.968406536973016;0.9990000000000001;0.008692289623296165
00:39.7;-0.03775854071780371;-0.236515402290309;-0.9681066463026033;0.998;0.008645653603731476
00:39.7;-0.03747675388582284;-0.23679384264251221;-0.9677850830567932;0.995;0.0085883808665822
00:39.7;-0.03717654622096233;-0.2370964631713122;-0.9674787202735242;0.993;0.00852777115559391
00:39.7;-0.0368955218012586;-0.23739829244563712;-0.9672193604838134;0.996;0.008471810420623156
00:39.7;-0.036669958892884505;-0.2376729110278173;-0.9670299308839854;0.996;0.008428106694688707
00:39.8;-0.036530291187765955;-0.23789460287866787;-0.9669225063745497;0.9940000000000001;0.008402903816921247
00:39.8;-0.036497282147756;-0.23804055716910782;-0.9668981522213831;0.9940000000000001;0.008400250039618338
00:39.8;-0.036579270994596;-0.23809292107937813;-0.9669483882869307;0.996;0.008421410221038528
00:39.8;-0.03677099590163973;-0.23804070544852704;-0.9670581673821362;1.0;0.008464654147659128
00:39.8;-0.03705425128793442;-0.2378815512779569;-0.967209911040206;1.001;0.008525493791794321
00:39.8;-0.03740015824678969;-0.23762316520598906;-0.9673873957073792;1.0;0.008597311071836821
00:39.8;-0.037772612780621724;-0.23728403816948776;-0.9675779932575257;0.998;0.008672244895721912
00:39.8;-0.038132497979592436;-0.23689297670345666;-0.9677724916636361;0.997;0.008742199529124993
00:39.8;-0.038442193745568565;-0.23648699452418728;-0.9679629654816622;0.9940000000000001;0.008799827654501408
00:39.8;-0.03866975282170753;-0.23610736948625638;-0.9681400968783115;0.9940000000000001;0.008839325896085876
00:39.9;-0.03879205290075445;-0.2357942716449962;-0.9682915737553651;0.996;0.00885690866461962
00:39.9;-0.03879647213644098;-0.23558101906873471;-0.9684026182970222;0.996;0.008850921459483695
00:39.9;-0.03868106396826067;-0.23548926477349458;-0.9684585946625717;0.998;0.008821665431937612
00:39.9;-0.038453566300664495;-0.23552613305151332;-0.9684487331166782;1.0;0.008771065635068616
00:39.9;-0.038129784575019844;-0.23568376863078208;-0.9683696516316215;1.001;0.008702322944050718
00:39.9;-0.037731884932080594;-0.23594122706312132;-0.9682273821819048;0.997;0.008619651270429091
00:39.9;-0.037286837075491165;-0.23626818547309728;-0.9680371160574573;0.997;0.008528110132129983
00:39.9;-0.03682483828946604;-0.23662963900945808;-0.9678208927605273;0.997;0.008433444335610765
00:39.9;-0.03637743145769375;-0.23699068441117402;-0.9676042522250551;0.996;0.008341824996133219
00:39.9;-0.0359753477693516;-0.23732060614569497;-0.9674129055295823;0.997;0.00825947278470389
00:40.0;-0.03564642015311789;-0.2375956258777573;-0.9672700452601655;0.997;0.008192229331239094
00:40.0;-0.03541378554383349;-0.23779994690282352;-0.9671943797729057;0.997;0.008145127192431791
00:40.0;-0.0352943220090717;-0.2379252354039569;-0.967198510012414;0.996;0.008121962316579225
00:40.0;-0.03529722665604314;-0.23796919898276242;-0.967287218478522;0.993;0.00812487674826511
00:40.0;-0.03542266966528829;-0.2379341411246201;-0.9674557925548255;0.9940000000000001;0.008153971360497439
00:40.0;-0.0356605051861707;-0.23782623183761611;-0.9676891947824965;0.995;0.008206975519329038
00:40.0;-0.03598926292257311;-0.23765577728541254;-0.9679629868663714;0.997;0.008279041878257752
00:40.0;-0.03637601285897705;-0.23743812620701676;-0.9682462927995842;0.9990000000000001;0.008362793901289118
00:40.0;-0.036777927005507034;-0.23719435433577654;-0.9685062927901559;1.002;0.008448780770668053
00:40.0;-0.03714619295788568;-0.236950808617694;-0.9687131602238026;1.0;0.008526439312017837
00:40.1;-0.03743224364588647;-0.23673700727321542;-0.9688441253249901;0.9990000000000001;0.008585506520220422
00:40.1;-0.037595300114606295;-0.23658206363863;-0.9688857066068581;0.9990000000000001;0.008617631531867894
00:40.1;-0.037609511808456154;-0.23651034081123076;-0.968833970769264;0.997;0.008617815427047409
00:40.1;-0.03746893316135013;-0.23653720001228404;-0.9686933852142302;0.996;0.008585332380311103
00:40.1;-0.0371891249612721;-0.23666561938844138;-0.9684751386686323;0.997;0.008523924779523191
00:40.1;-0.03680499598686463;-0.23688437953263597;-0.9681957647470723;0.997;0.008441242502185668
00:40.1;-0.03636544886763385;-0.23716839729650718;-0.9678764871575487;0.998;0.008347678432144831
00:40.1;-0.03592613575713059;-0.23748145549255112;-0.9675430784537932;0.9990000000000001;0.00825487533837179
00:40.1;-0.03554166054694906;-0.23778105742499026;-0.967225539899029;0.998;0.00817415228561134
00:40.1;-0.035258118709570935;-0.23802468792219214;-0.9669567625986353;0.9990000000000001;0.008114993852024115
00:40.2;-0.03510672328693216;-0.23817651902388806;-0.9667695713751752;0.996;0.008083737689639551
00:40.2;-0.035099488354272526;-0.23821342708787435;-0.9666921232992068;0.996;0.008082676610122727
00:40.2;-0.035227921872696084;-0.2381290891091184;-0.9667423131465013;0.992;0.00810980109785038
00:40.2;-0.035465120563725666;-0.23793518985943418;-0.9669224377056134;0.991;0.008159278486612048
00:40.2;-0.03577079565387245;-0.23765945684722994;-0.9672157897361968;0.993;0.008222560512861687
00:40.2;-0.036098061120306904;-0.2373409831063948;-0.9675867962307867;0.9940000000000001;0.008289847592793775
00:40.2;-0.03640060042102872;-0.23702378286845063;-0.9679854544263373;0.998;0.008351592657722975
00:40.2;-0.036639002453650586;-0.23674975071146084;-0.9683554202232793;1.0;0.008399780919557061
00:40.2;-0.036785395301547466;-0.2365522815039502;-0.9686438774027307;1.002;0.008428818578852365
00:40.2;-0.03682592827273358;-0.23645172933597827;-0.9688107396203959;1.002;0.00843597224227554
00:40.3;-0.03676114879589552;-0.23645349491947856;-0.9688349790818983;1.0;0.00842140633295848
00:40.3;-0.03660477474054533;-0.23654887273746408;-0.9687168760279686;1.0;0.00838794331843021
00:40.3;-0.036381503176685134;-0.23671813437272396;-0.968476278961868;0.997;0.00834067417918123
00:40.3;-0.03612419476402884;-0.23693495975132237;-0.9681479103184997;0.997;0.008286459901159305
00:40.3;-0.03587035710800466;-0.23717130401345887;-0.9677751121073371;0.996;0.008233268735256141
00:40.3;-0.03565780467088697;-0.23740184167242814;-0.9674033764228597;0.996;0.00818929063199232
00:40.3;-0.03551976803493291;-0.23760711324488953;-0.9670746867335163;0.995;0.00816186814821881
00:40.3;-0.035480170967222495;-0.23777466314812265;-0.9668232423093613;0.995;0.008156397093685618
00:40.3;-0.03554994251034768;-0.23789802416666717;-0.9666727421664276;0.995;0.008175403761789662
00:40.3;-0.035725141888713126;-0.23797420405357791;-0.96663511127991;0.995;0.008218005192239745
00:40.4;-0.03598746403228055;-0.23800091164216794;-0.966710385382535;0.9940000000000001;0.008279922058747861
00:40.4;-0.036307161746768755;-0.23797474935540483;-0.9668875639489672;0.9940000000000001;0.008354090053262129
00:40.4;-0.03664761682683094;-0.23789109424169358;-0.9671465198262826;0.996;0.00843172037383445
00:40.4;-0.03697039848262556;-0.23774578664155394;-0.9674611125199046;0.9990000000000001;0.008503554080735899
00:40.4;-0.037239984458559354;-0.23753817063794566;-0.9678031958910598;1.002;0.008561107500852806
00:40.4;-0.037427813348063874;-0.23727443622741454;-0.9681464841522275;1.001;0.008597782961858766
00:40.4;-0.03751547869314113;-0.23696986941772719;-0.9684689158392378;0.998;0.0086097255479418
00:40.4;-0.037496747892571215;-0.2366488742135428;-0.968752784219968;0.996;0.008596289032165104
00:40.4;-0.03737796645445725;-0.23634236954199586;-0.9689832484351804;0.995;0.008559995265255872
00:40.4;-0.03717655264503366;-0.23608299757750767;-0.9691468792740833;0.9940000000000001;0.008505961799369216
00:40.5;-0.03691775756890941;-0.23589929402160537;-0.9692318093447455;1.0;0.008440916684129546
00:40.5;-0.0366303883617604;-0.23581036551542695;-0.9692299155587346;1.0;0.008372038655656312
00:40.5;-0.036342493302235906;-0.23582244295743346;-0.9691400066947692;1.0;0.008305893821487019
00:40.5;-0.03607798393607376;-0.23592803877311633;-0.9689702492932668;1.0;0.00824768871284181
00:40.5;-0.0358548085251763;-0.23610774914249075;-0.9687385192576573;0.9990000000000001;0.00820095100368793
00:40.5;-0.03568475102623912;-0.23633423446453886;-0.9684703893572318;0.997;0.008167622451700572
00:40.5;-0.03557445984291312;-0.23657752361432266;-0.9681952730985802;0.996;0.008148445291284251
00:40.5;-0.03552703219112252;-0.23681043043422662;-0.9679417408255904;0.995;0.008143460143660604
00:40.5;-0.03554343507928289;-0.23701269517701085;-0.9677332740401462;0.996;0.008152422528056853
00:40.6;-0.03562324364405307;-0.23717282976434267;-0.9675855426713377;0.996;0.008175000110204928
00:40.6;-0.03576449193322437;-0.2372875556571499;-0.9675056294469428;0.996;0.008210706406000877
00:40.6;-0.03596269971689424;-0.23735958240230565;-0.9674929077563155;0.996;0.008258607876748304
00:40.6;-0.036209343721909454;-0.23739473820212495;-0.9675409714765301;0.998;0.008316892860979608
00:40.6;-0.03649025961191989;-0.23739924874028615;-0.9676400149642644;0.9990000000000001;0.008382433427178418
00:40.6;-0.03678472072902875;-0.23737776188534396;-0.9677789829299748;0.998;0.008450524795173555
00:40.6;-0.03706604754858837;-0.2373326317247081;-0.9679467581999845;0.997;0.008515010801555787
00:40.6;-0.03730426865567396;-0.23726467509512597;-0.9681320372626849;0.997;0.008568922316273311
00:40.6;-0.037470605869577726;-0.2371750493145217;-0.9683222465633655;0.997;0.008605569660634804
00:40.6;-0.037542767192345776;-0.23706743296210847;-0.9685023390984567;0.996;0.008619832988447032
00:40.6;-0.037509578318415816;-0.23694955830239897;-0.9686543749185428;0.996;0.008609281922640677
00:40.7;-0.03737354189661799;-0.2368333132797564;-0.9687585871822614;0.9990000000000001;0.008574772646713344
00:40.7;-0.03715052121892696;-0.2367331050115466;-0.9687961496805384;0.9990000000000001;0.00852032792120735
00:40.7;-0.03686673764981134;-0.23666291112213556;-0.9687530745969725;1.0;0.008452360361113418
00:40.7;-0.036554139783295754;-0.23663301687564361;-0.9686240535707543;1.001;0.008378517063377675
00:40.7;-0.0362455008452296;-0.23664743609640704;-0.9684150388050476;0.9990000000000001;0.008306487845869322
00:40.7;-0.0359703701062378;-0.23670263107679512;-0.968143775208674;0.9990000000000001;0.008243048387676805
00:40.7;-0.03575250215487668;-0.2367877882228221;-0.9678380473242431;0.997;0.008193480667785295
00:40.7;-0.035608821408473594;-0.23688662980450068;-0.9675319481469608;0.997;0.008161377440408535
00:40.7;-0.03554953540256729;-0.2369803992798713;-0.9672608790838138;0.995;0.008148730958899035
00:40.7;-0.035578810714367304;-0.2370512893561721;-0.96705621260419;0.996;0.008156154953400928
00:40.8;-0.03569547955951983;-0.23708545190571106;-0.9669405654717671;0.9940000000000001;0.008183100911366903
00:40.8;-0.03589346787326801;-0.23707496116496038;-0.9669244418931161;0.9940000000000001;0.008227987942194353
00:40.8;-0.036161878931705894;-0.2370185233494904;-0.9670047824772644;0.995;0.008288231976900809
00:40.8;-0.036484845800046156;-0.23692110340602376;-0.9671657045083869;0.996;0.008360209291764691
00:40.8;-0.03684140750136024;-0.2367928361240543;-0.9673812414135973;0.997;0.008439222450611529
00:40.8;-0.037205731187582754;-0.23664757858757837;-0.9676193617621108;0.997;0.00851954613186496
00:40.8;-0.03754792762847163;-0.23650134445983348;-0.9678464169243904;0.997;0.008594607195606707
00:40.8;-0.03783562719223331;-0.2363707532944183;-0.968031453979721;0.998;0.008657333458723899
00:40.8;-0.03803648840402527;-0.23627154939201073;-0.9681501361808078;0.9990000000000001;0.008700707231949543
00:40.8;-0.03812167660544428;-0.23621721263479337;-0.968188004072855;1.001;0.008718529286624081
00:40.9;-0.03806997965640007;-0.2362177146757644;-0.9681425202192999;0.9990000000000001;0.00870631553357774
00:40.9;-0.03787187429552143;-0.23627848809683397;-0.9680231701958247;0.9990000000000001;0.008662170639617562
00:40.9;-0.03753272988790919;-0.2363996557166575;-0.9678492141899802;0.996;0.00858745936111328
00:40.9;-0.037074443479449395;-0.23657561924409481;-0.9676453973144501;0.995;0.008487130134667379
00:40.9;-0.036535057803136185;-0.23679521077067758;-0.967436616878157;0.993;0.00836961024674446
00:40.9;-0.035966178187924594;-0.23704258845304269;-0.9672429356661152;0.992;0.008246245099175077
00:40.9;-0.035428148347338206;-0.23729885643696855;-0.967076363436007;0.9940000000000001;0.008130268130500759
00:40.9;-0.03498301501794746;-0.23754412980794096;-0.9669404574100319;0.997;0.008035284735590321
00:40.9;-0.03468563512178233;-0.23775957018740898;-0.966832918191573;0.9990000000000001;0.007973318024965847
00:40.9;-0.03457421105607835;-0.23792891003462746;-0.9667501161791144;1.001;0.00795268401289302
00:41.0;-0.03466265412647482;-0.23803922588370463;-0.966691515920069;0.997;0.007976240676458926
00:41.0;-0.034937218427335756;-0.23808108706910466;-0.9666620566250679;0.997;0.0080405895651159
00:41.0;-0.035358423329425515;-0.23804850963177077;-0.9666717264174475;0.996;0.00813649523197241
00:41.0;-0.03586761770718903;-0.2379391985787516;-0.9667328588697631;0.995;0.00825040004336558
00:41.0;-0.03639663498779384;-0.23775527416496783;-0.9668562657378907;0.995;0.008366682893231156
00:41.0;-0.03687860136839067;-0.23750428981824365;-0.9670473608932318;0.995;0.008470199594406896
00:41.0;-0.037257836231699794;-0.23720013312635305;-0.967303244497468;0.997;0.008548604054159144
00:41.0;-0.03749713613877543;-0.2368633142293955;-0.967611286096414;0.995;0.008594029231163789
00:41.0;-0.03758143618576374;-0.23652016182378272;-0.9679493183040065;0.995;0.008603876314638225
00:41.0;-0.037517430847173516;-0.2362006664420177;-0.968287532204962;0.996;0.008580617627389788
00:41.1;-0.037329226726030326;-0.2359350922709753;-0.9685922587561421;1.0;0.008530657951816975
00:41.1;-0.03705100066673423;-0.23574991693195022;-0.968831292811405;1.0;0.00846251883067065
00:41.1;-0.036718825530238516;-0.2356639983542759;-0.9689794351913411;0.9990000000000001;0.00838487482334336
00:41.1;-0.036364228872605;-0.23568584059434494;-0.9690226113822503;0.9990000000000001;0.00830504109169046
00:41.1;-0.036011108118057425;-0.23581244831098347;-0.9689596534348093;0.9990000000000001;0.008228277059299051
00:41.1;-0.03567611615819321;-0.23602989454088516;-0.9688017107573855;0.9990000000000001;0.008157920686146826
00:41.1;-0.03537151427298933;-0.2363155269616125;-0.9685696165838823;0.997;0.008096116550503057
00:41.1;-0.03510893321575092;-0.2366415041905437;-0.9682897069800523;0.995;0.008044774334611218
00:41.1;-0.03490229324182544;-0.23697904442615067;-0.9679889581356935;0.995;0.00800634518500828
00:41.1;-0.03476840072307693;-0.23730259703592746;-0.9676906630451505;0.995;0.00798405934389569
00:41.2;-0.03472463520292824;-0.23759318772953866;-0.9674117893838518;0.997;0.007981473058274315
00:41.2;-0.03478439866451725;-0.23784032822088674;-0.9671625369801171;0.997;0.008001464103109566
00:41.2;-0.034951972116017575;-0.23804207708462696;-0.9669477747073147;0.998;0.008045044202831383
00:41.2;-0.035218591460441484;-0.23820315859021737;-0.9667694831622771;0.997;0.00811040294880367
00:41.2;-0.03556103686700594;-0.2383315610286591;-0.9666292450695662;0.998;0.008192489687453414
00:41.2;-0.03594340320330018;-0.23843461061751176;-0.9665299843088074;0.997;0.008283308246985541
00:41.2;-0.036322098418968156;-0.2385157625108358;-0.9664763803021449;0.996;0.008372964708155552
00:41.2;-0.03665318983945404;-0.23857303290389595;-0.9664737710104777;0.995;0.008451293807883552
00:41.2;-0.036900227168345914;-0.2385993681037998;-0.9665259527541107;0.9940000000000001;0.008509652958270676
00:41.2;-0.0370403671792226;-0.23858473118191237;-0.96663282086881;0.996;0.008542391407136139
00:41.3;-0.037067276930270794;-0.23851937502501172;-0.9667888455312649;0.996;0.008547635151941464
00:41.3;-0.03699043266280678;-0.23839748472998498;-0.9669828613381916;0.996;0.008527266908370034
00:41.3;-0.036831456202804196;-0.23822014174490608;-0.9671990533717434;0.998;0.008486199384864444
00:41.3;-0.03661872230282287;-0.23799668741739213;-0.9674187681636002;0.997;0.008431184784461043
00:41.3;-0.036381626993694;-0.2377441112972382;-0.9676227656276276;0.998;0.008369470119359618
00:41.3;-0.03614576594230295;-0.23748467085401234;-0.967793595727951;0.997;0.008307603449336457
00:41.3;-0.035929902718324386;-0.23724227122934718;-0.967917897292048;0.998;0.008250620939701008
00:41.3;-0.03574510612841019;-0.23703836055970381;-0.9679884176268402;1.0;0.008201728454360043
00:41.3;-0.0355959744528698;-0.23688831163593096;-0.9680053159086556;1.0;0.00816248246510104
00:41.3;-0.03548338981179986;-0.23679916560858044;-0.9679760497928892;0.997;0.008133357873076678
00:41.4;-0.035407672780331786;-0.23676911125265832;-0.9679133640685644;0.9940000000000001;0.008114446725409296
00:41.4;-0.03537075651136739;-0.23678853764374252;-0.9678318299322243;0.9940000000000001;0.008105968749114695
00:41.4;-0.03537649374175166;-0.23684226906500755;-0.9677443508730825;0.995;0.008108390285466751
00:41.4;-0.035429084851355756;-0.23691258183494338;-0.9676600977060505;0.997;0.008122147890807375
00:41.4;-0.03553028689892338;-0.236982490805138;-0.9675844312171984;0.9990000000000001;0.008147114987524894
00:41.4;-0.0356764539848806;-0.23703855768908208;-0.9675203205283868;0.998;0.008182024446680588
00:41.4;-0.0358565994638225;-0.23707252217728922;-0.9674701976344467;0.998;0.008224091162842676
00:41.4;-0.03605243158739821;-0.23708157980047442;-0.9674372112983467;0.998;0.00826904131660237
00:41.4;-0.03624070715845853;-0.2370676884936128;-0.967425249303078;0.998;0.00831163468281513
00:41.4;-0.03639740876064566;-0.2370363779376973;-0.9674376018781389;0.995;0.008346577525509139
00:41.5;-0.036502426892795446;-0.23699527731106948;-0.9674746618980462;0.993;0.008369529246048849
00:41.5;-0.03654312027112288;-0.2369524776176159;-0.9675316305790238;0.993;0.008377839832899662
00:41.5;-0.036515650933342136;-0.23691503394218577;-0.9675975512847755;0.995;0.008370789639755606
00:41.5;-0.03642401727147476;-0.2368880139733713;-0.9676566838189741;0.997;0.008349341618937491
00:41.5;-0.036277628119831686;-0.2368742599403323;-0.9676922371467425;1.0;0.008315608072324406
00:41.5;-0.036088655623988;-0.23687464049193846;-0.9676913319498135;1.001;0.008272297087397707
00:41.5;-0.03587020177023615;-0.2368884043343989;-0.9676493781850976;1.0;0.008222344029059596
00:41.5;-0.03563577100499028;-0.2369134488065798;-0.967572173924173;0.998;0.008168818458955942
00:41.5;-0.0353998836345657;-0.2369465664045122;-0.9674749321607771;0.996;0.008115064483734634
00:41.6;-0.03517901976306227;-0.23698372897356282;-0.9673786552127578;0.9940000000000001;0.008064895854389053
00:41.6;-0.0349918472075469;-0.2370203693493055;-0.9673051787571851;0.9940000000000001;0.00802261687685919
00:41.6;-0.03485811293912967;-0.23705162776230132;-0.9672724597957855;0.9940000000000001;0.007992739105583882
00:41.6;-0.03479622563603733;-0.23707258135270326;-0.9672913214140958;0.995;0.007979409586431582
00:41.6;-0.03482000198910571;-0.23707849017445493;-0.9673641771845068;0.996;0.00798566238339182
00:41.6;-0.03493543373126473;-0.23706508758662687;-0.9674855838249826;0.997;0.008012688184161352
00:41.6;-0.035138622484889706;-0.23702893266520608;-0.9676440116491125;0.998;0.008059381356304436
00:41.6;-0.03541581042029395;-0.23696781165255584;-0.9678240343767263;0.997;0.008122373291071558
00:41.6;-0.03574566776006101;-0.2368810934404669;-0.9680082633258462;0.997;0.00819658370257786
00:41.6;-0.03610310102957756;-0.23676987465752597;-0.968178780068138;0.995;0.008276114885619267
00:41.6;-0.03646328381365793;-0.23663686794422123;-0.9683183628157339;0.997;0.008355190455563532
00:41.7;-0.03680472532812553;-0.23648624655264106;-0.9684120424118405;1.0;0.008428875724525485
00:41.7;-0.03711089880939538;-0.23632369801571895;-0.9684491000887439;1.0;0.008493477619128545
00:41.7;-0.03737068293020422;-0.2361566346099819;-0.9684248161624524;0.998;0.00854667314785527
00:41.7;-0.037578106633157256;-0.23599420756187722;-0.9683410304069084;0.997;0.00858745693181685
00:41.7;-0.037731603523778606;-0.23584676116717615;-0.9682052797098915;0.995;0.008615939195999069
00:41.7;-0.03783263896522096;-0.23572458065204646;-0.9680292158790892;0.996;0.008632964850109122
00:41.7;-0.037883744343439225;-0.2356360929996746;-0.9678273136173349;0.998;0.008639579092201128
00:41.7;-0.03788663527266295;-0.23558594753501058;-0.9676163557667298;0.998;0.008636516746606654
00:41.7;-0.03784143299040888;-0.23557350608794297;-0.9674152288694504;0.9990000000000001;0.008623964088905884
00:41.8;-0.03774759425019687;-0.2355922090929568;-0.9672439379139519;0.9940000000000001;0.008601738175886954
00:41.8;-0.03760631610540838;-0.23563009787182215;-0.9671211203049104;0.9940000000000001;0.008569834275163772
00:41.8;-0.03742339120493394;-0.23567149144420282;-0.967060533567759;0.9940000000000001;0.00852911263175466
00:41.8;-0.037211157332141316;-0.23569957543662773;-0.967067904248067;0.993;0.00848181796786034
00:41.8;-0.03698856653175661;-0.23569950374646315;-0.9671394129470781;0.995;0.008431702040337337
00:41.8;-0.03677918258634433;-0.23566139538781336;-0.9672624055739415;0.997;0.008383682567226294
00:41.8;-0.036607600998008354;-0.23558245489362192;-0.967418224997534;0.997;0.008343119747778766
00:41.8;-0.036495204594401046;-0.2354676565934325;-0.967586389615912;1.0;0.008314895876909504
00:41.8;-0.03645626080908095;-0.23532885755813782;-0.9677488721336063;0.9990000000000001;0.008302521001662535
00:41.8;-0.03649511835489467;-0.2351824998526126;-0.967893232066548;0.997;0.008307440355194576
00:41.8;-0.03660492096310716;-0.23504631561158892;-0.9680138589867856;0.996;0.008328647788520016
00:41.9;-0.03676805447560299;-0.2349358063634856;-0.9681113709717429;0.996;0.008362674323003335
00:41.9;-0.03695836143837314;-0.23486146654760628;-0.9681908149069625;0.996;0.008403988221131066
00:41.9;-0.03714488969178361;-0.23482747731766626;-0.9682593905239676;0.997;0.008445778808186801
00:41.9;-0.03729673656999769;-0.234832019267577;-0.9683241473852012;0.997;0.00848103602056496
00:41.9;-0.03738838491408139;-0.23486878489959181;-0.9683898663905338;0.996;0.008503784427931295
00:41.9;-0.037404607689104995;-0.23492900816178014;-0.9684573263204472;0.995;0.008510248430591527
00:41.9;-0.03734373437342259;-0.23500337979436517;-0.9685223556493301;0.995;0.008499659013480279
00:41.9;-0.037218271536789804;-0.2350833899735432;-0.9685762416005081;0.998;0.008474458490471359
00:41.9;-0.03705257712220026;-0.23516186814382423;-0.9686078140978542;0.9990000000000001;0.00843982205036888
00:41.9;-0.0368780727018748;-0.23523272568711068;-0.9686067905168351;0.9990000000000001;0.008402595678828525
00:42.0;-0.03672702111682692;-0.23529007150089415;-0.9685673543746366;0.998;0.008369878109777459
00:42.0;-0.03662620864291643;-0.23532712229288633;-0.9684909824173382;0.998;0.008347559637792667
00:42.0;-0.03659197304920328;-0.23533566911072412;-0.9683879626756028;1.001;0.008339172675256057
00:42.0;-0.03662770720105037;-0.23530680004437116;-0.9682772651112602;0.9990000000000001;0.008345338298341626
00:42.0;-0.03672415870668112;-0.2352328946648813;-0.968184411310905;0.998;0.008363883871243292
00:42.0;-0.03686198848229273;-0.23511013471429257;-0.9681372373273726;0.995;0.008390484396152979
00:42.0;-0.03701570220387804;-0.23494051782654726;-0.9681601509642955;0.9940000000000001;0.008419593370678796
00:42.0;-0.037158201507005856;-0.2347326498583808;-0.9682682146816515;0.9940000000000001;0.008445470758049755
00:42.0;-0.03726534955919275;-0.23450108296178845;-0.9684626024709151;0.9940000000000001;0.008463166928268184
00:42.0;-0.03731984996024121;-0.2342643501523755;-0.9687286168070737;0.9940000000000001;0.008469313751696907
00:42.1;-0.037313633991549744;-0.23404208110872748;-0.9690368489618442;0.997;0.008462560576495403
00:42.1;-0.03724823614696837;-0.23385181541843011;-0.9693474313607638;0.997;0.00844356637150537
00:42.1;-0.03713327011095838;-0.2337063144770776;-0.9696166662989977;0.9990000000000001;0.008414604633973944
00:42.1;-0.036983615445899926;-0.2336120285068681;-0.969804813773366;1.002;0.008378936529697427
00:42.1;-0.03681606077137287;-0.23356888314359608;-0.9698835998709199;1.003;0.008340112675489633
00:42.1;-0.03664615038446565;-0.2335711171448618;-0.9698418736077817;1.003;0.00830134433577462
00:42.1;-0.03648599506750343;-0.23360877612139072;-0.9696878928156144;1.001;0.008265084964131425
00:42.1;-0.03634364690727859;-0.2336694831044417;-0.9694473476910304;0.998;0.008232935806220839
00:42.1;-0.036224096528213165;-0.23374014948538147;-0.9691574488199267;0.9940000000000001;0.008205881062826288
00:42.1;-0.03613118469804792;-0.23380841852546078;-0.9688587736699925;0.993;0.008184701075655467
00:42.2;-0.036069246732018105;-0.23386379840716676;-0.9685873862136466;0.995;0.008170316506617892
00:42.2;-0.03604355124177991;-0.23389853128832117;-0.968369412928788;0.995;0.008163870967680476
00:42.2;-0.03605939536687239;-0.23390824376112043;-0.9682189679080961;0.997;0.008166529870922918
00:42.2;-0.03612038182722896;-0.2338923499808657;-0.9681389986410508;0.998;0.008179110295744398
00:42.2;-0.03622648697769819;-0.23385409724116563;-0.968123880131681;0.997;0.008201667088168737
00:42.2;-0.03637239604065856;-0.2338001844413081;-0.9681624241014247;0.997;0.008233130203901052
00:42.2;-0.03654667196315353;-0.2337400187080206;-0.9682403347536981;0.996;0.008271115395510956
00:42.2;-0.03673236607818788;-0.23368470274994607;-0.9683418352311628;0.997;0.008312044945277543
00:42.2;-0.036909256794419594;-0.2336457054116552;-0.9684507457649608;0.997;0.008351618372521947
00:42.2;-0.03705726430326415;-0.23363305229681008;-0.9685514435667806;0.997;0.008385526401423052
00:42.3;-0.037160251271401684;-0.23365302049369538;-0.9686299527976884;0.997;0.008410231224688574
00:42.3;-0.03720937920020598;-0.23370571560850886;-0.9686751209401363;0.997;0.008423642048147181
00:42.3;-0.037205179641709635;-0.23378321721980788;-0.9686796887891258;0.996;0.0084255241996639
00:42.3;-0.037157648698753876;-0.23386895989789153;-0.9686411672708665;0.997;0.008417511749345222
00:42.3;-0.03708420964262235;-0.2339388389275103;-0.9685626087480654;0.997;0.008402703840775893
00:42.3;-0.037006083329941444;-0.23396439084739545;-0.9684533388323298;0.998;0.008384971415679843
00:42.3;-0.03694404123878031;-0.2339180230538734;-0.968329501731396;1.0;0.008368184536773713
00:42.3;-0.03691453988794136;-0.23377934795131355;-0.968213983844915;1.002;0.008355548288843884
00:42.3;-0.03692697781777914;-0.23354076496673923;-0.9681348912567195;1.001;0.008349151394835075
00:42.4;-0.03698243484527702;-0.23321049269144864;-0.968121589025225;0.992;0.008349750379833218
00:42.4;-0.03707380752480986;-0.23281233754868022;-0.9681981903217267;0.992;0.008356750746538261
00:42.4;-0.03718689642047927;-0.2323826429376751;-0.9683762203834891;0.992;0.00836830955813983
00:42.4;-0.03730197509330809;-0.23196530239562493;-0.9686493002683562;0.992;0.008381493728577513
00:42.4;-0.037395685861872335;-0.23160566086819345;-0.9689919877558455;0.9940000000000001;0.008392490514523327
00:42.4;-0.03744347250914031;-0.23134422811543795;-0.9693632343645411;0.9990000000000001;0.008396945433360873
00:42.4;-0.0374228384005635;-0.23121128390303422;-0.969713421280561;1.0;0.008390525392456686
00:42.4;-0.03731738041091795;-0.23122317791515928;-0.9699929700574669;1.0;0.008369723332512452
00:42.4;-0.037120967630460106;-0.23138068238150122;-0.9701603413835614;1.0;0.008332779760507865
00:42.4;-0.036840927320366444;-0.23166954354618666;-0.9701879558088371;1.0;0.008280477379589063
00:42.4;-0.036498943551447574;-0.2320631183942257;-0.9700656254855828;1.0;0.008216512750596814
00:42.5;-0.036128765421352474;-0.23252648772007625;-0.9698017247060916;0.9990000000000001;0.008147202391305784
00:42.5;-0.035770821001087263;-0.23302107085081572;-0.9694224195798145;0.9990000000000001;0.008080480026587723
00:42.5;-0.035465057829559846;-0.23350881959617276;-0.9689691551831517;1.001;0.008024424834795948
00:42.5;-0.035243970041371066;-0.23395542081318285;-0.9684944370614853;0.998;0.00798573816081948
00:42.5;-0.03512743694448201;-0.2343323160249305;-0.9680558544077471;0.996;0.007968545623456117
00:42.5;-0.03512012967112777;-0.23461767374751175;-0.9677085728665776;0.992;0.007973728122941405
00:42.5;-0.03521145075314917;-0.23479679164165865;-0.967497217186155;0.992;0.007998817749733626
00:42.5;-0.03537759247250341;-0.23486254539160212;-0.9674487141643476;0.992;0.008038406969422573
00:42.5;-0.03558530430502008;-0.23481612998744694;-0.9675677823471274;0.992;0.008084999719013069
00:42.6;-0.03579695501796367;-0.2346677323845306;-0.9678362005442038;0.997;0.008130201792652688
00:42.6;-0.035976196365408705;-0.23443652419208771;-0.9682159674584386;0.997;0.008166063626389448
00:42.6;-0.03609322681946916;-0.23414952476891707;-0.9686554334050994;0.997;0.008186312332723985
00:42.6;-0.036128706010463606;-0.23383912017599567;-0.9690970532552116;0.998;0.00818722731244435
00:42.6;-0.036075737169127826;-0.23353932433477065;-0.9694856858509249;1.001;0.008168017035030128
00:42.6;-0.03593967423049374;-0.23328140029603694;-0.9697765789562066;1.003;0.008130662629868057
00:42.6;-0.03573579996883849;-0.2330898790077396;-0.9699418512308308;1.002;0.00807927933316543
00:42.6;-0.03548536200109613;-0.2329798006701794;-0.9699740473323272;1.001;0.008019136828380072
00:42.6;-0.03521096085161182;-0.23295539396102405;-0.9698858556127009;1.0;0.007955569480385291
00:42.6;-0.03493253588375809;-0.23301010549559784;-0.969706070754429;0.996;0.007893052378915057
00:42.6;-0.03466499113420696;-0.23312802938076468;-0.9694728056918621;0.9940000000000001;0.007834679181367916
00:42.7;-0.034417893073941525;-0.2332868653722404;-0.9692256365343987;0.995;0.007782147564336983
00:42.7;-0.03419684394111724;-0.23346216526519786;-0.9689986100410437;0.995;0.007736164388573132
00:42.7;-0.034005446956617155;-0.23363200759853134;-0.9688155642039141;0.997;0.0076970079573747165
00:42.7;-0.03384670278108464;-0.233780901668692;-0.9686882159447466;0.997;0.007664951543487293
00:42.7;-0.03372323800382468;-0.2339019296878533;-0.9686165832452892;0.996;0.007640380235948022
00:42.7;-0.033636474547870186;-0.23399676640067418;-0.9685909500658968;0.998;0.0076236111017532
00:42.7;-0.03358533918581731;-0.23407391078943296;-0.9685946932522914;0.996;0.00761456038665692
00:42.7;-0.03356527329567121;-0.23414582138832638;-0.9686075607177628;0.996;0.007612450016434892
00:42.7;-0.03356808565073934;-0.2342257199474305;-0.9686091893778789;1.0;0.00761569849686361
00:42.8;-0.03358275096155778;-0.23432493954015526;-0.9685825835719667;0.9990000000000001;0.007622043764794549
00:42.8;-0.033596859473069826;-0.23445156231078565;-0.9685169365326672;0.9990000000000001;0.007628849258436413
00:42.8;-0.03359823878796771;-0.23461035698350463;-0.9684090738190533;0.9990000000000001;0.00763347948483804
00:42.8;-0.03357634319145301;-0.23480330159888507;-0.9682632155493277;0.997;0.007633628625673282
00:42.8;-0.033523163189513115;-0.2350300022301387;-0.9680892885984709;0.996;0.007627526247702685
00:42.8;-0.03343349097202979;-0.23528780660559367;-0.967900393048382;0.995;0.007613981432358003
00:42.8;-0.03330454523285828;-0.23557175993849008;-0.9677102613222577;0.995;0.007592277626988513
00:42.8;-0.03313530804572726;-0.23587467734679873;-0.9675314593340748;0.997;0.0075620131202523725
00:42.8;-0.032926159777950284;-0.23618755801629598;-0.9673745593171366;0.997;0.00752302940070295
00:42.8;-0.03267921766027541;-0.23650033847229254;-0.9672478963788937;0.998;0.007475516621788402
00:42.8;-0.03239930209849621;-0.2368028580963348;-0.9671572309350795;0.996;0.0074202694897442115
00:42.9;-0.03209503705163924;-0.2370859982571187;-0.9671048332412728;0.9940000000000001;0.007358975235731871
00:42.9;-0.03177947575932568;-0.23734287735109635;-0.9670881030377914;0.9940000000000001;0.007294389883063956
00:42.9;-0.0314698020154489;-0.2375697376862474;-0.9670985182009983;0.993;0.007230292162651034
00:42.9;-0.031185904133593338;-0.2377662211314036;-0.9671220096968431;0.995;0.007171165773683372
00:42.9;-0.03094786283479843;-0.23793508504517857;-0.9671415130786266;0.9990000000000001;0.007121626200382351
00:42.9;-0.030772717807369974;-0.23808158736241555;-0.9671414285062301;1.001;0.0070856818897176545
00:42.9;-0.0306712194667939;-0.23821258345997384;-0.9671124380858667;1.0;0.0070659850060217156
00:42.9;-0.030645363825888627;-0.2383351461364672;-0.9670545739550744;0.997;0.007063238246999411
00:42.9;-0.030687298945727932;-0.2384546722180951;-0.966977236066788;0.996;0.007075884751827392
00:42.9;-0.030779927957802197;-0.23857289729459003;-0.9668963987784885;0.993;0.0071001683535422975
00:43.0;-0.03089930299009631;-0.23868646707679406;-0.9668303909368986;0.9940000000000001;0.007130611456995133
00:43.0;-0.031018508350177075;-0.2387865186942917;-0.966795887553403;0.9940000000000001;0.007160865350034719
00:43.0;-0.031112209317710034;-0.2388594676898494;-0.9668052758632879;0.996;0.007184760964466624
00:43.0;-0.031160783643848014;-0.23888902995476596;-0.9668657516610489;0.998;0.00719731904733388
00:43.0;-0.031153127452368465;-0.23885923826593258;-0.9669797413946659;0.9990000000000001;0.007195501538626346
00:43.0;-0.031087694924235628;-0.2387579312639327;-0.967145749427892;0.998;0.0071785752303242965
00:43.0;-0.030971859983654555;-0.23858010184727454;-0.967358683243117;0.997;0.007148074022644797
00:43.0;-0.030819969830690953;-0.23833049799362804;-0.9676092339438278;0.996;0.007107417608586785
00:43.0;-0.03065042408998232;-0.23802492833544095;-0.9678826968118677;0.995;0.00706125112451648
00:43.0;-0.030482051735177405;-0.23768985987380542;-0.9681581817338745;0.996;0.007014571888320702
00:43.1;-0.03033018232244641;-0.23736003597907956;-0.9684091973018228;0.997;0.006971745508189487
00:43.1;-0.030203058863999807;-0.2370741886432528;-0.9686061059511922;0.997;0.0069355739133840555
00:43.1;-0.03009939613468711;-0.23686958965571397;-0.9687202510535717;0.997;0.006906618524425882
00:43.1;-0.030007741861727465;-0.23677663549323424;-0.9687291038595427;0.9990000000000001;0.006882948307030753
00:43.1;-0.029907937498095897;-0.2368144830365936;-0.9686215981676434;1.001;0.006860391060612688
00:43.1;-0.029774660163287205;-0.23698834092591006;-0.9684025364332599;1.003;0.006833287796316723
00:43.1;-0.029582733323959266;-0.23728876287515913;-0.968094569006999;1.0;0.006795685228083204
00:43.1;-0.02931337681106735;-0.237693063929014;-0.9677363789920047;0.998;0.006742786783045362
00:43.1;-0.02895985442691103;-0.23816869691220757;-0.9673767734974479;0.9940000000000001;0.0066723176069464285
00:43.2;-0.028530607145883503;-0.23867816565989883;-0.9670659296097235;0.993;0.006585364046888816
00:43.2;-0.028048648078546335;-0.23918469158307581;-0.9668461048391219;0.993;0.006486384148100191
00:43.2;-0.027547594479805832;-0.23965739763442412;-0.9667441213062857;0.993;0.006382429998335177
00:43.2;-0.02706586152951677;-0.24007474523215885;-0.9667670767105253;0.9940000000000001;0.006281887931524368
00:43.2;-0.02664046547200022;-0.24042560810768412;-0.9669016951649024;0.996;0.006193053810306969
00:43.2;-0.026301425952828313;-0.24070820775202145;-0.9671169833212789;0.995;0.006122787739840205
00:43.2;-0.026067602314937096;-0.24092767078584137;-0.9673694950351224;0.996;0.006075473866419408
00:43.2;-0.025944566350371286;-0.24109314502415716;-0.9676104340549353;1.0;0.0060524585133428675
00:43.2;-0.025924609086173594;-0.24121536297364962;-0.9677936598407203;1.002;0.006052014412530979
00:43.2;-0.02598855487124494;-0.2413052598347664;-0.9678831586047588;1.003;0.006069764653550739
00:43.2;-0.026108905659976603;-0.24137363162608122;-0.9678582319460266;1.001;0.006099443910398153
00:43.3;-0.026253776231228557;-0.2414311442417213;-0.9677152200494141;0.997;0.006133842828810458
00:43.3;-0.02639095447166214;-0.24148793998610588;-0.9674658660877977;0.997;0.006165754030924571
00:43.3;-0.026491458752900453;-0.2415527765941296;-0.9671335880411819;0.995;0.006188770440291146
00:43.3;-0.02653230458917185;-0.24163223795624728;-0.9667492265628631;0.997;0.006197887427943797
00:43.3;-0.02649845565649892;-0.2417303487854253;-0.9663472968115784;0.997;0.0061899191796674705
00:43.3;-0.02638387001888673;-0.241848395279962;-0.9659629205766004;0.997;0.006163709540113559
00:43.3;-0.0261914664109974;-0.24198471935270574;-0.9656290127921338;0.9940000000000001;0.0061200935781593555
00:43.3;-0.025931987580546555;-0.24213463384538464;-0.965373342440964;0.9940000000000001;0.006061610415831629
00:43.3;-0.02562197843131626;-0.24229084508920948;-0.9652156721949517;0.993;0.005992030715426914
00:43.3;-0.02528126064237652;-0.2424446433628668;-0.9651656702632107;0.993;0.005915795946272293
00:43.4;-0.024930379835953913;-0.2425877548275955;-0.9652222505392273;0.997;0.005837475828797916
00:43.4;-0.024588437005648174;-0.24271437506053142;-0.9653745046766288;0.997;0.005761323303884185
00:43.4;-0.024271417144207774;-0.24282274437072668;-0.9656037644835739;0.996;0.005690932674326956
00:43.4;-0.02399089573262379;-0.24291577393304326;-0.9658860703937566;0.996;0.005628958970893115
00:43.4;-0.023753136783887453;-0.2430005968712386;-0.9661946336398376;0.996;0.005576900948413758
00:43.4;-0.023558823270642158;-0.24308728219042217;-0.9665022692724624;0.998;0.00553501383051303
00:43.4;-0.023403583231879195;-0.24318711065141216;-0.9667837496808106;0.998;0.005502401164311205
00:43.4;-0.023279182466103332;-0.2433107581707415;-0.9670177387566893;0.9990000000000001;0.0054772615164114784
00:43.4;-0.023175058113043816;-0.24346665618057003;-0.9671878410198521;0.996;0.005457216092201244
00:43.4;-0.023079856681877783;-0.24365979545047767;-0.9672826078915214;0.995;0.005439642547023812
00:43.5;-0.02298270105070816;-0.24389116760326104;-0.9672949934672433;0.998;0.005421957147065384
00:43.5;-0.022873993942835152;-0.24415783185868625;-0.967222149042228;0.998;0.005401804902078288
00:43.5;-0.022745748323522334;-0.24445340824409256;-0.9670660572020695;1.001;0.005377153898878251
00:43.5;-0.022591655075764695;-0.24476873952133565;-0.9668346212949102;1.0;0.005346335315946261
00:43.5;-0.022407150958613647;-0.24509249716204842;-0.9665422227882958;0.998;0.005308080339358745
00:43.5;-0.02218960509195554;-0.24541162851698756;-0.9662089318742154;0.996;0.005261574916349171
00:43.5;-0.021938559578890644;-0.24571178161777485;-0.9658584008260771;0.995;0.005206520134002673
00:43.5;-0.021655851694643704;-0.24597805647469217;-0.9655153119026801;0.995;0.0051431690568457845
00:43.5;-0.021345413312101116;-0.2461963472056371;-0.965203418132111;0.997;0.005072301084885766
00:43.5;-0.02101263735735046;-0.24635515676754088;-0.9649446304742235;0.998;0.00499510494099713
00:43.6;-0.020663517904275393;-0.24644744837026808;-0.9647587278374078;0.997;0.004913006096142561
00:43.6;-0.020304106650844804;-0.24647211430257984;-0.9646627441422997;0.997;0.004827554470027356
00:43.6;-0.019940743321504723;-0.24643485447965877;-0.9646692806801143;0.996;0.004740475696513832
00:43.6;-0.01958102762734618;-0.24634836784765657;-0.9647836790353398;0.993;0.004653879320728291
00:43.6;-0.01923506414470759;-0.24623172805768384;-0.965000755928792;0.992;0.0045705167560166834
00:43.6;-0.018916303263779903;-0.24610883633714675;-0.9653023729227108;0.993;0.004493935643491959
00:43.6;-0.018641243720186138;-0.24600597305669142;-0.9656571835155537;0.995;0.0044283660446808185
00:43.6;-0.01842749944536191;-0.24594860037738098;-0.9660232998890498;0.996;0.004378227895511798
00:43.6;-0.01829042598212264;-0.24595773735708448;-0.9663537187737765;0.996;0.004347308213674002
00:43.7;-0.018239304181777133;-0.2460464852247085;-0.9666036660050353;1.002;0.0043378434015210856
00:43.7;-0.018274360061471713;-0.2462174494438501;-0.9667385220871423;1.002;0.004349807424780321
00:43.7;-0.018385546486702844;-0.24646172447691567;-0.9667404516538303;1.002;0.004380623387194755
00:43.7;-0.01855347698775623;-0.24675986420953197;-0.9666117542861866;1.0;0.004425393610580245
00:43.7;-0.01875242918719712;-0.24708497262798787;-0.96637382872105;0.9990000000000001;0.004477638489284246
00:43.7;-0.018954758306828395;-0.24740761066146646;-0.9660620381000808;0.996;0.004530397644466843
00:43.7;-0.019135435205330967;-0.24770156962096032;-0.9657178769655195;0.993;0.0045773842777484565
00:43.7;-0.019275263870464583;-0.24794906620132048;-0.9653804665952382;0.9940000000000001;0.004613827106542886
00:43.7;-0.019361938314923447;-0.24814399278701169;-0.9650794930242125;0.9940000000000001;0.00463677140581097
00:43.7;-0.019389075500390342;-0.24829244951075807;-0.9648310679881169;0.9940000000000001;0.00464485214708835
00:43.8;-0.01935411379962293;-0.2484105510085822;-0.9646369355634477;0.996;0.0046377487318030285
00:43.8;-0.019256232803600504;-0.24852024575384046;-0.9644865588308412;0.996;0.004615611873415773
00:43.8;-0.019095219378428913;-0.24864439863758198;-0.9643610795427754;0.996;0.004578708619535014
00:43.8;-0.018871654258088497;-0.24880237686120787;-0.9642379844564206;0.996;0.004527398598443101
00:43.8;-0.018588272795994776;-0.249006913699221;-0.9640956026101108;0.997;0.0044624210431404125
00:43.8;-0.018252037956203587;-0.2492625001528547;-0.9639169906201804;0.998;0.0043853872085406805
00:43.8;-0.017876260117788482;-0.24956517350732924;-0.9636929396559819;0.997;0.004299315561628167
00:43.8;-0.017481930539674437;-0.24990334449590446;-0.9634238216808721;0.996;0.004208999161590218
00:43.8;-0.01709740238114228;-0.25025925542353794;-0.9631201036608251;0.996;0.004120982109091729
00:43.8;-0.016755881815209;-0.2506107193030204;-0.9628016194823763;0.996;0.004043000021095451
00:43.9;-0.016490967510253546;-0.2509328844452447;-0.9624958090668705;0.995;0.003982928975357175
00:43.9;-0.016331358215211714;-0.2511999413805262;-0.9622350429672861;0.995;0.003947507898508925
00:43.9;-0.016296223288725105;-0.2513868561147672;-0.9620530782600238;0.995;0.00394120084160157
00:43.9;-0.01639236280467242;-0.2514712307612631;-0.961980739493008;0.993;0.003965484363082974
00:43.9;-0.016613594059267142;-0.25143529016431415;-0.962041138514693;0.991;0.004018680422538539
00:43.9;-0.016942207727603378;-0.25126785103691823;-0.9622452663322913;0.991;0.004096309013345971
00:43.9;-0.017351876006823235;-0.2509660142489948;-0.9625892897907384;0.9940000000000001;0.004191817575665225
00:43.9;-0.017811181493931322;-0.2505363147918769;-0.9630546480246804;0.995;0.004297484764447676
00:43.9;-0.0182871007700338;-0.24999514248550309;-0.9636109625967343;0.9990000000000001;0.004405327096604833
00:43.9;-0.01874802833916848;-0.24936827558325886;-0.9642206272537781;0.998;0.004507889080097052
00:43.9;-0.019165943842958857;-0.24868931069115346;-0.9648435046617685;0.998;0.004598796661384391
00:44.0;-0.019517343169812518;-0.2479968561352564;-0.9654405912185113;0.995;0.004672963922236177
00:44.0;-0.019782999217692873;-0.24733081175799776;-0.9659764784401903;0.995;0.0047264700271276655
00:44.0;-0.019947319772520837;-0.24672856163500162;-0.9664213058610854;0.9990000000000001;0.004756313504173311
00:44.0;-0.019998369011971825;-0.2462218303918658;-0.9667529558883683;1.001;0.004760325413363447
00:44.0;-0.019929235454927946;-0.24583434724830242;-0.9669593467953829;1.001;0.004737414827912877
00:44.0;-0.019740666793522627;-0.24558008021667904;-0.9670397256726907;0.9990000000000001;0.004688125941705484
00:44.0;-0.01944415019651032;-0.2454620039413252;-0.9670038825160453;0.997;0.004615316200262736
00:44.0;-0.019064169623358447;-0.24547171464448317;-0.966869193313385;0.995;0.004524671692394623
00:44.0;-0.018638369506347233;-0.24559025313511412;-0.9666565431657902;0.995;0.004424775482921293
00:44.0;-0.018214791283070388;-0.245790247168275;-0.9663867474045705;0.9940000000000001;0.004326530912942207
00:44.1;-0.017846126816926565;-0.24603913221028947;-0.9660788021168869;0.9990000000000001;0.004241902814394126
00:44.1;-0.017581919876900987;-0.24630291878696992;-0.9657503014112153;0.9990000000000001;0.00418216061102714
00:44.1;-0.01746055205029538;-0.24654989519440637;-0.9654191318596611;0.9990000000000001;0.004156030192907309
00:44.1;-0.017503155098345255;-0.2467538289466159;-0.965104852163221;0.998;0.004168259423696381
00:44.1;-0.017710994608018192;-0.246896468029788;-0.9648284769938874;0.997;0.004218984610807692
