Time;AccX;AccY;AccZ;Acc-old;Acc-trns
58:17.8;-0.005463986026820072;-0.20574096994258212;-0.9030013211363487;0.9279999999999999;0.0010151231889506218
58:17.8;-0.004402678840117841;-0.20784158309780817;-0.9274114300651999;1.0170000000000001;0.0008486368620697085
58:17.8;-0.003468931354407523;-0.20983903916052513;-0.9503119293667904;1.0170000000000001;0.0006917484199647939
58:17.8;-0.002756081318649975;-0.21164637588285123;-0.9702782930799101;1.071;0.0005659775164716923
58:17.8;-0.0023473467176000195;-0.21318826336409183;-0.986259429298621;1.101;0.0004935506208212239
58:17.8;-0.0023023117482739177;-0.21440743930386966;-0.9976838097853713;1.105;0.0004924894190434086
58:17.8;-0.0026439764189560224;-0.21526815815997644;-1.0044926393733615;1.078;0.0005717209822265313
58:17.8;-0.0033524087728069563;-0.2157564959305801;-1.0070942993077312;1.036;0.0007284353045996259
58:17.8;-0.004367227910842319;-0.2158781154171624;-1.0062491699626044;0.996;0.0009486805792584889
58:17.9;-0.005596722557073288;-0.21565517149201927;-1.0029103592419428;0.9640000000000001;0.0012104748563241858
58:17.9;-0.0069297777761544825;-0.21512463731424486;-0.9980553838503334;0.95;0.0014878669632592118
58:17.9;-0.008247621318740494;-0.21433945374893323;-0.9925431646685217;0.9490000000000001;0.001754608524422837
58:17.9;-0.009433787201828775;-0.2133717208820894;-0.9870214605514211;0.975;0.0019867788633808007
58:17.9;-0.010382102889082314;-0.2123149736667584;-0.9818951342705058;1.008;0.0021643677822736507
58:17.9;-0.011004039503583205;-0.2112816619876784;-0.9773488560141471;1.012;0.0022722889379348365
58:17.9;-0.011237175883296514;-0.2103934438985711;-0.9734046270041453;1.013;0.0023013506047155296
58:17.9;-0.011054690354978677;-0.20976608614044856;-0.9699907510453776;1.011;0.0022493107079878693
58:17.9;-0.010472832222281911;-0.20949447390410122;-0.9670044457642017;1.0070000000000001;0.0021216082149707813
58:17.9;-0.009551411678032834;-0.20964230047614085;-0.9643589671147837;1.001;0.001931013028507789
58:18.0;-0.008383505313994538;-0.21023700949558063;-0.9620126920347064;0.998;0.0016955695790291311
58:18.0;-0.007075648163070184;-0.21126879974113968;-0.9599808390378902;0.996;0.0014350405039837246
58:18.0;-0.005725572865589636;-0.21269356246839188;-0.9583313553711056;0.988;0.0011670487274589635
58:18.0;-0.004405706452957405;-0.21443982432708064;-0.9571669048712051;0.976;0.0009042919692085869
58:18.0;-0.00315635224088611;-0.21641824352427586;-0.9565966032779711;0.966;0.0006534436858185582
58:18.0;-0.0019872306181062892;-0.21853151020566766;-0.95670391060693;0.9620000000000001;0.0004154702067699855
58:18.0;-0.0008837238982271265;-0.22068353955581654;-0.9575188472980691;0.9670000000000001;0.0001867385025047683
58:18.0;0.00018521233126903106;-0.22278762702376262;-0.9590017828156031;0.975;3.957130569637719e-05
58:18.0;0.0012589620765041647;-0.22477258273420256;-0.9610425398670204;0.985;0.0002719559692960153
58:18.0;0.0023772388793970164;-0.22658519764634474;-0.9634739813994747;0.9940000000000001;0.0005189725058370162
58:18.1;0.0035717614312508446;-0.22818822489652799;-0.9660954673220493;1.001;0.0007874005572293621
58:18.1;0.00485762316674496;-0.22955489389598258;-0.9686997538122646;1.006;0.0010801885424663543
58:18.1;0.006225776431319519;-0.23066232756335645;-0.971097199117842;1.005;0.001394546155139265
58:18.1;0.007639063642974143;-0.23148636056365013;-0.9731330627568544;1.004;0.0017208291867917018
58:18.1;0.00903360793132797;-0.23199938938748335;-0.9746964738571972;1.004;0.0020427606084157564
58:18.1;0.010325796812041637;-0.23217159667710263;-0.9757221597343874;1.004;0.0023391540889960687
58:18.1;0.011423824386515862;-0.23197483038063604;-0.9761872394245866;1.002;0.002586934962888667
58:18.1;0.0122417457751027;-0.23138799242109817;-0.976105400979543;1.0;0.0027649093052179376
58:18.1;0.0127130043109959;-0.23040284343226564;-0.9755204906874098;1.001;0.002857409108970898
58:18.1;0.01280040541950822;-0.22902926791698677;-0.9745011772364155;1.003;0.002856913412738416
58:18.2;0.012500947053468835;-0.22729899123851885;-0.9731373823101356;1.008;0.0027651237984304064
58:18.2;0.01184545037751677;-0.2252665718801444;-0.971537369712072;1.01;0.0025924347716920946
58:18.2;0.010893613396397593;-0.2230068421766527;-0.9698226837621787;0.986;0.002356039050461491
58:18.2;0.009725533448041864;-0.2206093003193152;-0.9681186614099769;0.986;0.0020771403422429426
58:18.2;0.008431384733666433;-0.2181714498164118;-0.9665416439388747;0.986;0.0017779412058574336
58:18.2;0.007101110568927525;-0.21579316378799843;-0.9651869315080551;0.983;0.0014790245754581883
58:18.2;0.005815305611817619;-0.21357262929892615;-0.9641209122083707;0.986;0.00119742863751069
58:18.2;0.004637688762135819;-0.21160299910460573;-0.9633782741503601;0.987;0.0009454101623981562
58:18.2;0.003609318923626597;-0.20996887407458167;-0.962963344745334;0.988;0.0007297766002509384
58:18.2;0.0027450066590379765;-0.20874270019704974;-0.962853622653978;0.987;0.0005517152240557992
58:18.3;0.0020331145598537536;-0.20798185308449776;-0.9630033984166522;0.982;0.00040720688616852725
58:18.3;0.0014402917021251495;-0.20772697605431026;-0.9633464756641202;0.977;0.00028822116580852773
58:18.3;0.0009216344422875488;-0.20800138643605054;-0.9637991266278857;0.977;0.00018476148940396194
58:18.3;0.0004345995674379666;-0.20881070158142317;-0.9642660673533408;0.9890000000000001;8.750622047973779e-05
58:18.3;-4.7086233511786184e-05;-0.21014152905679206;-0.9646516628591603;0.9890000000000001;9.545009331949104e-06
58:18.3;-0.0005242260052410843;-0.21195828672129033;-0.9648757707359091;0.996;0.00010721125070209327
58:18.3;-0.0009714708467898119;-0.21419821765412195;-0.9648908367551745;0.998;0.00020078155206184974
58:18.3;-0.0013462123660612074;-0.21676618496338432;-0.9646958228840461;0.998;0.0002815110896519705
58:18.3;-0.0016044828310547024;-0.21953193327813625;-0.9643430720649772;0.997;0.0003396755920352803
58:18.3;-0.0017184604410604544;-0.2223324020368343;-0.9639356628246888;0.9940000000000001;0.0003682903566418714
58:18.4;-0.0016896295722915958;-0.2249804186059508;-0.963614795905041;0.991;0.0003663023309912798
58:18.4;-0.0015535918164997443;-0.22727931792828665;-0.9635387950302736;0.9840000000000001;0.000340224862864267
58:18.4;-0.0013756820355580936;-0.22904139576381605;-0.9638571230043451;0.982;0.00030369994189769346
58:18.4;-0.0012394228900206136;-0.23010702648398476;-0.9646841924936987;0.982;0.0002751278504523718
58:18.4;-0.0012315164449678015;-0.23036104107824865;-0.9660780704241053;0.982;0.00027406998248012573
58:18.4;-0.001427026491371769;-0.2297437812642812;-0.968028111130677;0.985;0.0003173684635522871
58:18.4;-0.0018771079068655436;-0.22825581629507882;-0.9704536584374265;0.993;0.00041580134848479277
58:18.4;-0.0026004504539464263;-0.22595672422479346;-0.9732137958539652;1.001;0.000571849980047304
58:18.4;-0.003579113704196801;-0.22295897176714335;-0.9761258881996756;1.005;0.0007789440772718705
58:18.4;-0.004759000181934752;-0.21941792764550624;-0.978988994800669;1.01;0.001022270056736705
58:18.5;-0.006054578990038933;-0.21551889562825208;-0.981607847161201;1.014;0.0012808766953362595
58:18.5;-0.007357245741057918;-0.2114620741114437;-0.9838136500030633;1.014;0.001530596069736964
58:18.5;-0.008547058438214083;-0.20744658024437515;-0.985478913311693;1.011;0.0017473113145937474
58:18.5;-0.009507594275540156;-0.20365492589933457;-0.9865250001069595;1.0070000000000001;0.00191017719107987
58:18.5;-0.010142519083603928;-0.20023936207058357;-0.9869230394278177;1.0070000000000001;0.0020043731392711713
58:18.5;-0.010390960919392064;-0.19731123787256313;-0.9866903800998257;1.004;0.002022965268747517
58:18.5;-0.010238625795305293;-0.19493410843151143;-0.9858850877578129;1.001;0.001967686039050226
58:18.5;-0.00972291662822579;-0.19312115470621227;-0.9846004148674022;1.003;0.0018487850717022155
58:18.5;-0.008931538809466856;-0.19183755647554804;-0.9829602356116203;1.006;0.0016842085704162765
58:18.5;-0.007994419205982203;-0.19100811093320333;-0.9811150964898336;1.006;0.00149816168345705
58:18.6;-0.0070690192216589075;-0.1905294084624652;-0.9792370147793105;1.005;0.0013188912984371285
58:18.6;-0.006319995605181854;-0.19028499305026164;-0.977510438933098;1.002;0.0011755543664782769
58:18.6;-0.00589547179609152;-0.19016155194347714;-0.976117651139719;0.986;0.0010943177543546682
58:18.6;-0.005903399014646127;-0.19006401866142536;-0.9752194089578198;0.986;0.0010942193290329522
58:18.6;-0.006392015074082496;-0.1899274913518084;-0.9749346939421738;0.986;0.001183589620190511
58:18.6;-0.00733775989923868;-0.18972428807826203;-0.9753246873282527;0.986;0.0013577995050253165
58:18.6;-0.008642426522708111;-0.18946507704769913;-0.9763845409867021;0.987;0.0015987691568627525
58:18.6;-0.010139833391941702;-0.18919362313769225;-0.9780441215655927;0.99;0.0018762718399008636
58:18.6;-0.01161179530181019;-0.18897580497406682;-0.9801773763497569;0.9990000000000001;0.0021508506225695586
58:18.6;-0.01281334107234947;-0.18888522914285097;-0.9826187513042206;1.004;0.0023781838823535542
58:18.7;-0.013506162336815754;-0.18898843489040423;-0.985183699143921;1.008;0.0025146897478122623
58:18.7;-0.013496107660936155;-0.18933151129752532;-0.9876896122764406;1.012;0.0025237824839094264
58:18.7;-0.01266734834439702;-0.1899289515506191;-0.9899740334640355;1.012;0.0023817747552880744
58:18.7;-0.011005708406629637;-0.19075639688418575;-0.9919080542494473;1.016;0.002082420974798168
58:18.7;-0.008606471419174576;-0.19174977336619545;-0.9934037288706856;1.016;0.0016394031907923082
58:18.7;-0.00566534401317761;-0.19281214847386138;-0.9944150632935488;1.018;0.0010862464613243601
58:18.7;-0.0024539040138681057;-0.19382731233883016;-0.9949328093344175;1.015;0.00047322349350731064
58:18.7;0.0007165273419347106;-0.1946772434798876;-0.9949741129240225;1.011;0.00013879049893797721
58:18.7;0.0035357161979354683;-0.19525969592680917;-0.9945692132986331;1.0070000000000001;0.0006866335475847965
58:18.7;0.005731652780298269;-0.19550226924038777;-0.9937485524420508;1.004;0.0011135460584520615
58:18.8;0.007097244741916535;-0.19537049333620984;-0.9925340825606692;1.005;0.0013762400236198879
58:18.8;0.007503862818654586;-0.19486910562325946;-0.9909376517072656;1.01;0.0014490194267625107
58:18.8;0.0069031558135005085;-0.19403708695796204;-0.9889670913047063;1.011;0.0013246900140226792
58:18.8;0.005320895936714145;-0.19293801506658875;-0.986637857293866;1.011;0.0010128854832753265
58:18.8;0.0028465584368419215;-0.19164809812507436;-0.9839861890291092;1.011;0.0005368013760499975
58:18.8;-0.00037930172496649045;-0.19024455100660811;-0.981079520193711;1.006;7.07947829054443e-05
58:18.8;-0.004179278190630346;-0.18879646395015018;-0.9780209180574516;1.001;0.0007716907245178404
58:18.8;-0.008354327396709119;-0.18735936407694018;-0.9749459974354437;0.995;0.0015260454034960388
58:18.8;-0.01269821828391676;-0.18597368167191855;-0.9720125916618029;0.9890000000000001;0.0022954411772380915
58:18.8;-0.017008830908266912;-0.18466653665058547;-0.9693849586749788;0.983;0.0030448012180493856
58:18.9;-0.021094842762915473;-0.18345580311750104;-0.9672152152340479;0.9790000000000001;0.003743095143908241
58:18.9;-0.024778456168509853;-0.18235510491689608;-0.9656251553317925;0.973;0.004363155995784481
58:18.9;-0.027896688262605353;-0.18137818344024864;-0.9646916718783641;0.975;0.004881195774388886
58:18.9;-0.030303985978962875;-0.1805411888096272;-0.9644384938716412;0.975;0.005276556470319434
58:18.9;-0.031877617721670484;-0.1798620142273172;-0.9648357834000713;0.976;0.0055319559457748125
58:18.9;-0.032525678266463395;-0.1793569299291712;-0.9658076460129298;0.983;0.0056342376640442
58:18.9;-0.03219630619722621;-0.1790360835507138;-0.96724618821996;0.99;0.005575497750557119
58:18.9;-0.03088586292602073;-0.17889989166113285;-0.9690293745409121;0.992;0.005354350036220414
58:18.9;-0.02864359617517841;-0.17893774510630203;-0.9710388675099443;0.997;0.004976982528826279
58:18.9;-0.025570811493096486;-0.1791295565348272;-0.9731740370151635;0.9990000000000001;0.004457612118154115
58:19.0;-0.02181359650144444;-0.17944976796754272;-0.9753594333784653;0.998;0.0038179906920840835
58:19.0;-0.017549717808554067;-0.179872500352485;-0.977544601244395;0.995;0.0030858264044608566
58:19.0;-0.012972172153118435;-0.18037615771644705;-0.9796969293044807;0.992;0.002292364012610337
58:19.0;-0.00827287856868781;-0.18094633834888763;-0.9817901304666107;0.991;0.0014696878734999272
58:19.0;-0.0036293085944636132;-0.18157673813087583;-0.9837922382366274;0.993;0.0006483171334030919
58:19.0;0.0008048390214589259;-0.18226824418515186;-0.9856570081735953;0.995;0.00014459252722576508
58:19.0;0.0049051140572781505;-0.1830266636766607;-0.9873214132664393;0.9990000000000001;0.0008863842483809327
58:19.0;0.008578554711766686;-0.18385963019723353;-0.9887102101724237;1.005;0.0015594430770902276
58:19.0;0.011763241634073373;-0.18477315340052564;-0.989746824488617;1.012;0.0021512456535447244
58:19.0;0.014425607319075691;-0.1857682517560026;-0.9903681246024126;1.016;0.002654008161279076
58:19.1;0.01655611804834519;-0.186838261324639;-0.9905393014685135;1.018;0.003064051377362704
58:19.1;0.0181644358987466;-0.1879674280481636;-0.990264710260163;1.0170000000000001;0.0033810828809985403
58:19.1;0.019275305979156748;-0.18913105743778813;-0.9895915517078181;1.01;0.00360761438990356
58:19.1;0.01992560723688701;-0.19029699633132513;-0.9886053703041563;1.01;0.003748577241723698
58:19.1;0.02016188935780253;-0.19142786418813623;-0.9874185160613378;1.0070000000000001;0.003810988583914578
58:19.1;0.020037414422003373;-0.19248343334105292;-0.98615385703533;1.001;0.003803467545333176
58:19.1;0.019608258426541764;-0.19342272967489915;-0.9849262539385757;0.995;0.0037355129305732403
58:19.1;0.018928687872497633;-0.19420554542125312;-0.9838247128447715;0.99;0.003616594888523457
58:19.1;0.01804646923032667;-0.1947932631602362;-0.9828988683327899;0.99;0.003455214497940498
58:19.1;0.016998870331375423;-0.19514934140565338;-0.9821534365117824;0.9940000000000001;0.0032581156172675364
58:19.2;0.01580991808403392;-0.1952402077167569;-0.9815527188419867;1.0;0.003029789883353786
58:19.2;0.01448948546389132;-0.19503720453551535;-0.9810344467814323;1.0070000000000001;0.0027723923001911344
58:19.2;0.013035045970441715;-0.19451960670691845;-0.9805293323702452;1.012;0.0024862027356103186
58:19.2;0.011436670205533345;-0.193678118316471;-0.9799808279393927;1.0090000000000001;0.002170689643167049
58:19.2;0.009684718854946584;-0.19251818668532455;-0.9793596130029814;1.0090000000000001;0.0018260008306233044
58:19.2;0.007778425033621092;-0.19106273045475733;-0.9786692269183584;1.001;0.0014544660318445402
58:19.2;0.005733066620781788;-0.18935389403050187;-0.9779421457039447;0.9940000000000001;0.001061632957235617
58:19.2;0.003583927746270866;-0.18745321091180306;-0.9772284241496318;0.9890000000000001;0.0006565203917787532
58:19.2;0.0013861618886065424;-0.1854395267021776;-0.9765810430001916;0.986;0.0002510293802874667
58:19.2;-0.0007894783179689204;-0.18340429603306352;-0.9760426133502742;0.987;0.00014132483612238676
58:19.3;-0.0028642070816484472;-0.18144430209231419;-0.9756369381709636;0.987;0.0005070327165839654
58:19.3;-0.00476049417240075;-0.17965259481094795;-0.9753668756039671;0.99;0.0008341680172929287
58:19.3;-0.006411254154576448;-0.17810932551522832;-0.9752179776652969;0.993;0.0011136054589501612
58:19.3;-0.00776717076744611;-0.17687437109358853;-0.9751660292176723;0.9940000000000001;0.0013396962017232685
58:19.3;-0.00880062881043903;-0.17598296464063506;-0.97518597896398;0.9940000000000001;0.0015103297669632825
58:19.3;-0.009505485189594971;-0.17544472806474984;-0.9752598379199899;0.9940000000000001;0.0016264284109966235
58:19.3;-0.009893191398635084;-0.17524600629747153;-0.9753818178276011;0.996;0.0016910606988054025
58:19.3;-0.009986969202695836;-0.175354989098465;-0.9755598329706825;0.995;0.0017084636695915939
58:19.3;-0.009816085288116897;-0.17572859369364827;-0.9758130886138003;0.993;0.001683245242591948
58:19.3;-0.009411501349564427;-0.1763197164818188;-0.976166011134453;0.99;0.001619882336028811
58:19.4;-0.008803047286102218;-0.17708357501923716;-0.9766396445002491;0.9840000000000001;0.0015224592083330683
58:19.4;-0.008017825705950624;-0.1779823624224127;-0.9772428854267564;0.982;0.0013945564399112072
58:19.4;-0.007079792792628372;-0.17898781539655112;-0.9779669116903438;0.996;0.00123927638981872
58:19.4;-0.006010600065826796;-0.18008138178901353;-0.9787854821102407;0.996;0.0010594346312095178
58:19.4;-0.00483155347298683;-0.1812519113844167;-0.9796610795878717;0.996;0.0008579169336991779
58:19.4;-0.003566216673528245;-0.18249138190521697;-0.9805543895692664;1.003;0.0006381485315903907
58:19.4;-0.0022429737917818654;-0.18378967688685752;-0.9814341413819166;1.0090000000000001;0.0004045819237751758
58:19.4;-0.0008969154930298761;-0.1851295278314819;-0.9822845698700791;1.006;0.00016310397353647038
58:19.4;0.0004293241198892653;-0.18648253277326524;-0.9831077782923526;1.003;7.870903350650818e-05
58:19.4;0.001686048049353052;-0.18780690187768678;-0.9839194960800767;0.997;0.0003115595455130342
58:19.5;0.002818706520505276;-0.18904747249578602;-0.9847394071845785;0.995;0.0005247374413353294
58:19.5;0.003772018538752636;-0.19013865017410989;-0.9855795587040881;0.996;0.0007068640789667563
58:19.5;0.004495260740417844;-0.1910108620378838;-0.986434871454501;1.004;0.0008469960179085866
58:19.5;0.004947238042185441;-0.19160010145304343;-0.987278403624368;1.004;0.0009358326201311827
58:19.5;0.005099793739482029;-0.1918583635131773;-0.9880618800823118;1.004;0.0009667573699674238
58:19.5;0.004939690964727456;-0.1917618594571822;-0.9887206736000242;1.006;0.0009365600466229681
58:19.5;0.004469348530165286;-0.19131480791007163;-0.989182318098106;1.01;0.0008458028689765889
58:19.5;0.003706970054564575;-0.1905482572505341;-0.9893776089835521;1.011;0.0006988534866871587
58:19.5;0.0026861432703245407;-0.18951472861418955;-0.9892526932775889;1.013;0.0005035926490306615
58:19.5;0.001454274379231777;-0.1882804288936661;-0.9887799136884691;1.013;0.0002707392162665412
58:19.6;6.901764159483029e-05;-0.18691710756292937;-0.9879651498715464;1.012;1.2745321415669698e-05
58:19.6;-0.0014073645294379144;-0.18549507178031122;-0.9868498851096;1.0090000000000001;0.0002576262261409754
58:19.6;-0.0029145607725078963;-0.1840780127725162;-0.9855071625120296;0.9990000000000001;0.0005287310527935724
58:19.6;-0.004399775131212945;-0.18271981809822258;-0.9840321537131815;0.9990000000000001;0.0007910891430715528
58:19.6;-0.005820523120889084;-0.18146344885939739;-0.9825296924888924;0.9990000000000001;0.0010377598477569615
58:19.6;-0.007143837985471419;-0.18034178526917263;-0.9811014646189171;0.997;0.0012639848987158887
58:19.6;-0.008342345026775276;-0.17937984302823443;-0.9798343612409478;0.993;0.0014662717006831334
58:19.6;-0.009388787351978413;-0.17859730593706727;-0.9787904469277826;0.9890000000000001;0.0016412476912779292
58:19.6;-0.010251233848591397;-0.1780104030096725;-0.9779992314644114;0.987;0.0017846786883780686
58:19.6;-0.010890916454429463;-0.177632647074272;-0.9774537575277705;0.985;0.0018909647568214314
58:19.7;-0.011263303134408457;-0.17747431970712693;-0.977112296952262;0.9890000000000001;0.001953195754684035
58:19.7;-0.011321591176439808;-0.1775408300634654;-0.9769066824617327;0.9940000000000001;0.0019636260946941752
58:19.7;-0.011021465940717684;-0.17783055218263782;-0.9767564569245745;1.001;0.0019143971134232436
58:19.7;-0.010326519550161029;-0.17833312111193056;-0.9765857624912698;1.001;0.0017984417275689125
58:19.7;-0.009214087491196976;-0.17902880601392365;-0.9763385838705657;1.001;0.0016105555156665382
58:19.7;-0.0076810471271956254;-0.17988888191246352;-0.9759885242981516;0.997;0.0013485574837384254
58:19.7;-0.005748717848827812;-0.1808767509968181;-0.9755413225114896;0.992;0.0010143770439606673
58:19.7;-0.0034657375034174227;-0.1819498159860023;-0.9750307255104104;0.99;0.0006148449186863805
58:19.7;-0.0009079038807445503;-0.18306218938898375;-0.9745101611808539;0.9890000000000001;0.00016196638774111644
58:19.7;0.0018253397817447547;-0.18416809992177985;-0.9740431928091621;0.99;0.0003274434760723461
58:19.8;0.00461723087580867;-0.1852254832527214;-0.9736948988288915;0.993;0.0008327319396196324
58:19.8;0.007341893749227885;-0.18619898414368208;-0.9735248507959063;0.992;0.0013308602214744762
58:19.8;0.00987353311357727;-0.18706176687281914;-0.9735811868518989;0.991;0.0017981660438538161
58:19.8;0.012095773898657727;-0.1877960707492998;-0.9738950307848996;0.988;0.00221224036011198
58:19.8;0.013910333803599703;-0.18839290573586503;-0.9744752623791065;0.988;0.002553717868175782
58:19.8;0.015244358303033573;-0.18885133591078906;-0.9753046973192664;0.9890000000000001;0.0028078216932883567
58:19.8;0.016056001251866816;-0.18917745425398533;-0.9763391837163563;0.992;0.002965565287674272
58:19.8;0.016337851721978082;-0.189382672098114;-0.9775106618764045;0.995;0.003024521619079254
58:19.8;0.016117282149309898;-0.1894809224522355;-0.9787341557596662;0.998;0.002988973355428705
58:19.8;0.015452416894476139;-0.1894851937330238;-0.9799175283211072;1.0;0.0028692026472924835
58:19.9;0.014423410287672096;-0.18940471618672566;-0.9809722170760847;1.002;0.0026798806561613856
58:19.9;0.013120937500941924;-0.18924399883444498;-0.9818232609065528;1.003;0.0024379247713343676
58:19.9;0.011635405312245968;-0.18900390171781525;-0.9824173805388988;1.005;0.002160470413032236
58:19.9;0.010049793237091629;-0.18868403430192932;-0.9827282444265626;1.005;0.0018634842152584874
58:19.9;0.008436691684732711;-0.18828546630117943;-0.9827582407913608;1.005;0.0015611177825679682
58:19.9;0.006858035436623963;-0.18781284554200803;-0.9825362945620328;1.002;0.0012655334234334212
58:19.9;0.005365622328914971;-0.1872753009628875;-0.9821117920985447;0.998;0.0009868735969703422
58:19.9;0.004001339571583325;-0.18668593698313782;-0.9815455803838824;0.995;0.000733208489572626
58:19.9;0.002796962809970551;-0.18606034838313404;-0.9808999517478725;0.992;0.0005104641357177944
58:19.9;0.001773898809241889;-0.18541512195262108;-0.9802299446995653;0.993;0.00032240514134024436
58:20.0;0.0009433328504457817;-0.18476720912115596;-0.9795778812484834;0.996;0.00017073746446542122
58:20.0;0.0003070641903622142;-0.18413429193021685;-0.9789719182885804;0.997;5.535209750743994e-05
58:20.0;-0.00014098508318126932;-0.18353545601247973;-0.978427983700001;0.995;2.531756918307483e-05
58:20.0;-0.0004128727719223063;-0.18299129270510217;-0.9779536233969558;0.995;7.388647171636896e-05
58:20.0;-0.0005247295810597945;-0.18252296318871988;-0.9775524810856916;0.995;9.362528243900735e-05
58:20.0;-0.0004951302282192394;-0.18215021915305926;-0.9772287730291733;0.997;8.813438634927234e-05
58:20.0;-0.0003439661118944563;-0.1818886983294842;-0.9769912348091161;0.998;6.112403836816806e-05
58:20.0;-9.208848987390625e-05;-0.18174726751490047;-0.976855491502341;0.998;1.6349465667498667e-05
58:20.0;0.00023813486877654347;-0.18172654754377016;-0.9768434420301537;0.995;4.227331760575949e-05
58:20.0;0.0006217547460396125;-0.18181942011203373;-0.9769788611038127;0.99;0.00011044461467651578
58:20.1;0.0010307412564739278;-0.1820133899143866;-0.9772800445630916;0.987;0.00018334624867976323
58:20.1;0.0014352332314431864;-0.18229387639218608;-0.977752091518639;0.987;0.00025581341489790095
58:20.1;0.0018069501437696274;-0.18264724138398092;-0.9783821140024106;0.993;0.00032289981176628784
58:20.1;0.002123879107089452;-0.18306250684086342;-0.9791395599528621;1.002;0.0003806920395429581
58:20.1;0.0023742729101769574;-0.1835310572266415;-0.9799812327159918;1.002;0.00042702958310548425
58:20.1;0.0025578876199474254;-0.18404413850588178;-0.9808580536742332;1.001;0.00046175287991151535
58:20.1;0.002683382088564179;-0.18458877149417272;-0.9817201184354334;0.9990000000000001;0.0004862677719671438
58:20.1;0.0027623842485020767;-0.1851436190245078;-0.9825183980434732;0.997;0.0005024970645633395
58:20.1;0.002802293720168933;-0.18567673546398436;-0.983203775730211;0.995;0.0005115813257667931
58:20.1;0.0028007333690554044;-0.18614645841617553;-0.983725531537018;0.997;0.0005128619588564553
58:20.2;0.0027439916355345858;-0.1865053476945198;-0.9840316856054128;0.998;0.0005035970239455426
58:20.2;0.0026100937441785785;-0.18670595865231274;-0.9840729119105075;1.002;0.00047955846524061284
58:20.2;0.002375511653874773;-0.18670683736262786;-0.9838102899261001;1.006;0.00043634373870315486
58:20.2;0.0020236088233667217;-0.18647737628812666;-0.9832255258477834;1.006;0.0003710272943435598
58:20.2;0.0015524897656889003;-0.18600083438205384;-0.9823311474396534;1.006;0.00028366225632455913
58:20.2;0.0009799856138342654;-0.18527545252853192;-0.9811780746452013;1.006;0.00017814983231980065
58:20.2;0.00034425147843387537;-0.18431383046261923;-0.9798586442461026;1.005;6.21723333937042e-05
58:20.2;-0.00030039204404486576;-0.18314088736027742;-0.9785037978799968;1.003;5.383147203086276e-05
58:20.2;-0.0008915658780739347;-0.18179118209049;-0.977273479949081;0.996;0.0001583953274502566
58:20.2;-0.0013691227110348145;-0.18030673953722245;-0.9763399727327273;0.992;0.00024102128917022014
58:20.3;-0.001685337549500188;-0.17873629172317032;-0.9758653963647334;0.985;0.0002939608935004033
58:20.3;-0.0018125843875144126;-0.17713605413706682;-0.9759765034658981;0.9790000000000001;0.00031336072495880533
58:20.3;-0.001746310444492047;-0.17557119023378262;-0.9767413580761324;0.982;0.00029947066170198436
58:20.3;-0.0015023283880664377;-0.17411653082049783;-0.9781527047488742;0.982;0.0002558653870672797
58:20.3;-0.0011096561850380126;-0.17285534416566944;-0.9801215194084973;0.982;0.00018799711037286224
58:20.3;-0.0006016424329841297;-0.17187553209879133;-0.9824823288950242;0.992;0.00010159615274277745
58:20.3;-7.88201783365165e-06;-0.17126293405363222;-0.9850103010410282;1.001;1.329662943296958e-06
58:20.3;0.0006512881605946621;-0.1710919035960083;-0.9874482466976907;1.008;0.00011003148766859683
58:20.3;0.001366279336725553;-0.17141448821403626;-0.9895393286013938;1.013;0.00023175018325429796
58:20.3;0.0021353644837842473;-0.1722506313595213;-0.9910598545744714;1.0190000000000001;0.00036452953517262523
58:20.4;0.0029591785845553254;-0.17358180313005608;-0.9918468207527675;1.02;0.0005094715960711422
58:20.4;0.003835693546334748;-0.17534959917641424;-0.9918160754845661;1.0190000000000001;0.0006670829220080444
58:20.4;0.004757723011688924;-0.17745994887049305;-0.9909686208243166;1.0070000000000001;0.0008366800412489494
58:20.4;0.0057126823320640925;-0.17979240297651478;-0.9893851053290945;1.0070000000000001;0.0010161943586836227
58:20.4;0.006682957962745221;-0.1822122549794355;-0.9872114604326834;1.0070000000000001;0.0012021440203303022
58:20.4;0.007645614060621905;-0.18458250339188045;-0.9846397763520198;1.0;0.0013895695201361577
58:20.4;0.008571424735864941;-0.18677394939780692;-0.9818873132212079;0.995;0.0015719219081973444
58:20.4;0.009424289408377858;-0.188673389035082;-0.9791752869483008;0.9940000000000001;0.0017410839368008633
58:20.4;0.010162328909714814;-0.19019022500009594;-0.9767090966153645;0.991;0.0018877595315906354
58:20.4;0.0107412548273383;-0.1912613859612115;-0.9746617334486738;0.988;0.002002332672606229
58:20.5;0.011119453468388956;-0.19185419462814302;-0.9731615094036031;0.988;0.0020760588677939396
58:20.5;0.011263303204151571;-0.19196690175668846;-0.9722846155815188;0.99;0.002102255730419141
58:20.5;0.011150895834341042;-0.19162675967481296;-0.9720525426580909;0.987;0.0020770916288715096
58:20.5;0.010772924881666127;-0.19088583791125477;-0.9724338678189176;0.987;0.0019997118318527255
58:20.5;0.010131106514737497;-0.18981539346873144;-0.9733497125259498;0.987;0.0018717904013607664
58:20.5;0.009235874970277043;-0.18849991124821117;-0.9746825191504637;0.992;0.0016968848499202271
58:20.5;0.008105055263484115;-0.18703147654352226;-0.9762880000376973;0.996;0.0014799554219024937
58:20.5;0.0067643405265286755;-0.18550451874543117;-0.9780095504274909;0.9990000000000001;0.0012272217718825142
58:20.5;0.005249456627437773;-0.18401070786918494;-0.9796935552266827;1.0;0.0009463410931066212
58:20.5;0.0036087178007768133;-0.18263366436539916;-0.9812037965781648;1.002;0.0006466852787544344
58:20.6;0.0019036675310140018;-0.18144309720679996;-0.9824336358345828;1.005;0.00033933978188444084
58:20.6;0.00020571101030528174;-0.18048843875639295;-0.9833149498859102;1.0070000000000001;3.650896888450839e-05
58:20.6;-0.0014117201114080065;-0.17979303629520058;-0.9838225848854844;1.002;0.0002497113350542682
58:20.6;-0.0028836519344091547;-0.17935076468503822;-0.9839731669706112;1.002;0.0005088963390043016
58:20.6;-0.0041631695983677;-0.17912684373871957;-0.9838181307806335;1.002;0.0007336680369023984
58:20.6;-0.0052266707375025565;-0.17906374764956248;-0.9834320108772912;0.998;0.000920401148849853
58:20.6;-0.006073129553619609;-0.17909178176530544;-0.9828976057330208;0.992;0.0010690462146962514
58:20.6;-0.006717888468972869;-0.17914238553287626;-0.982290247698643;0.9890000000000001;0.0011821456129654565
58:20.6;-0.007183091788990818;-0.17916103238127382;-0.9816645268247813;0.99;0.0012633336675336017
58:20.6;-0.007487946983008273;-0.17911657965961905;-0.9810471665656699;0.993;0.0013157956192026013
58:20.7;-0.00764217940233464;-0.1790051542750445;-0.9804381614317614;0.9990000000000001;0.0013412291130934608
58:20.7;-0.007644821325107101;-0.17884830163963938;-0.9798193596509358;1.003;0.001339671061205583
58:20.7;-0.00748825581232587;-0.17868639162881075;-0.9791671061117282;0.9990000000000001;0.001310173969307643
58:20.7;-0.007165350638404904;-0.17856906262835467;-0.978464782790779;0.9990000000000001;0.0012519554222755215
58:20.7;-0.006676554846328065;-0.17854497350401913;-0.9777122379698191;0.9990000000000001;0.0011654968402236105
58:20.7;-0.006034269867751135;-0.17865310353708647;-0.9769308345653062;0.996;0.0010531715323695095
58:20.7;-0.005263222955108388;-0.17891712721673708;-0.9761638666403205;0.995;0.0009192347035421264
58:20.7;-0.004397274158805477;-0.17934343633092834;-0.9754725156577448;0.993;0.0007692793380411445
58:20.7;-0.0034743940174584184;-0.1799224625762784;-0.9749279782411708;0.991;0.0006094484670399743
58:20.7;-0.0025319149883846893;-0.18063202546801374;-0.9746009771458878;0.986;0.00044572881826778453
58:20.8;-0.0016035144076629857;-0.18144095112805045;-0.9745505031558818;0.985;0.00028353882175115563
58:20.8;-0.0007181451174862765;-0.1823117627633018;-0.974814225465731;0.983;0.00012762882195873073
58:20.8;9.999734848751751e-05;-0.1832025209445532;-0.9754029825199353;0.993;1.7869154718017672e-05
58:20.8;0.0008315607271420286;-0.18406874499323378;-0.976300529577659;0.993;0.00014943679564564122
58:20.8;0.0014624040892412182;-0.18486605864243272;-0.9774677599276155;0.993;0.0002642573142504228
58:20.8;0.0019836708015957354;-0.18555343218473447;-0.9788494572632144;1.0;0.00036029189881623525
58:20.8;0.0023910634689095264;-0.18609652142419605;-0.9803818055720198;1.004;0.0004362391136757527
58:20.8;0.0026833356969470016;-0.18647050510922103;-0.9819991275120308;1.006;0.0004913559928964742
58:20.8;0.0028603659211783165;-0.18666184270940764;-0.9836380744621396;1.003;0.0005251851951836558
58:20.8;0.002921349882199136;-0.18666877237274082;-0.9852379259021419;1.001;0.000537274671132735
58:20.9;0.0028638012628375937;-0.18650083781117513;-0.9867373844375661;0.998;0.000527017754168495
58:20.9;0.002684091069129161;-0.18617774650797783;-0.9880702650415815;0.996;0.0004937565230605075
58:20.9;0.002379775023372592;-0.18572762062253503;-0.9891635577718008;1.0;0.0004372003541199652
58:20.9;0.0019529381312883688;-0.1851846749620182;-0.9899407965181687;1.013;0.0003580162597442998
58:20.9;0.0014130949436988772;-0.18458650583872185;-0.99033118906533;1.013;0.0002583162622738781
58:20.9;0.0007784561473252794;-0.18397117711925312;-0.9902816733962551;1.014;0.0001418216982527356
58:20.9;7.524819395551179e-05;-0.18337411958554856;-0.9897675193638519;1.012;1.3657377703186915e-05
58:20.9;-0.0006642618031027671;-0.18282485161193915;-0.9887983115977245;1.008;0.00012008319260361215
58:20.9;-0.0014037316634698416;-0.18234395181464422;-0.987418425122689;1.005;0.00025274157400236247
58:20.9;-0.002103697476774859;-0.18194128088010267;-0.9857027129141136;1.002;0.00037727713526176996
58:21.0;-0.0027218082400362895;-0.18161639680606215;-0.9837488269351009;1.0;0.0004862916441401507
58:21.0;-0.0032138325740253605;-0.1813611114716352;-0.9816677069010136;0.997;0.0005721790094830643
58:21.0;-0.0035369968483783625;-0.18116302411125434;-0.979573622301734;0.992;0.0006276843730815397
58:21.0;-0.003655962171195913;-0.18100873495044095;-0.9775750488536441;0.992;0.000646921127574069
58:21.0;-0.003549759124635975;-0.18088614078039314;-0.9757675346865141;0.992;0.0006265425087693612
58:21.0;-0.003216808225959866;-0.1807857920559486;-0.9742291735089559;0.9890000000000001;0.0005665661158164315
58:21.0;-0.00267595285210436;-0.18070155716567096;-0.9730184420101612;0.99;0.0004705019460134474
58:21.0;-0.001963412113171003;-0.18063106286095762;-0.9721736128373768;0.991;0.0003447844991160044
58:21.0;-0.001127114845255587;-0.1805762469144062;-0.9717128961276948;0.988;0.00019777288957749283
58:21.1;-0.00022037311156673732;-0.1805437467727464;-0.9716346679098046;0.986;3.8658416144006144e-05
58:21.1;0.0007035794777749915;-0.180544580933274;-0.9719177507682261;0.9840000000000001;0.00012346024512186867
58:21.1;0.0015957904353723054;-0.18059308841725408;-0.9725226377449236;0.987;0.00028027005724566307
58:21.1;0.0024153770470956093;-0.18070555945721303;-0.9733948906810462;0.9940000000000001;0.0004248596737087103
58:21.1;0.0031337823355297;-0.18089875828311394;-0.9744709697125848;0.9940000000000001;0.0005524249940370756
58:21.1;0.0037386804483234936;-0.18118805177996739;-0.9756851705446614;0.9940000000000001;0.0006609332584160355
58:21.1;0.004235181351194927;-0.18158473326174362;-0.976975757105943;0.997;0.0007513376137655818
58:21.1;0.004642620439035879;-0.18209236882017865;-0.9782891180593155;0.997;0.0008270316829932869
58:21.1;0.004987326464829975;-0.18270243482207985;-0.979581628211774;0.996;0.0008925915356215499
58:21.1;0.00529357183616942;-0.18339023330411316;-0.980819278703539;0.996;0.0009521689336260275
58:21.2;0.005575645193072499;-0.1841128380326822;-0.9819755488828605;0.998;0.0010080448986313996
58:21.2;0.005833479436300288;-0.18481088404068666;-0.9830284048921433;0.9990000000000001;0.0010597935763418098
58:21.2;0.006052707135569307;-0.18541492649975633;-0.9839572758599158;1.0;0.0011042581049979523
58:21.2;0.00620824428677794;-0.18585536607575426;-0.9847405745454021;1.002;0.0011362286475848134
58:21.2;0.006269584694290306;-0.18607358008660935;-0.9853541628666156;1.002;0.0011495181765185038
58:21.2;0.0062062561798695345;-0.18603156712320348;-0.9857710210999575;1.002;0.0011381313594468728
58:21.2;0.005992689643273348;-0.18571807642815155;-0.9859622307588447;1.002;0.0010973274467682152
58:21.2;0.005612288198881766;-0.18515040453880277;-0.9858993814111892;1.003;0.0010244652318560927
58:21.2;0.005060566442761881;-0.18437220322172354;-0.9855585012011109;1.003;0.0009195534649712692
58:21.2;0.004347037378487549;-0.18344827335667194;-0.9849253046032754;1.004;0.0007854350874512124
58:21.3;0.003495285980625878;-0.18245746089414047;-0.9840010137139995;1.004;0.0006275377955288864
58:21.3;0.002540789703432469;-0.1814847791957537;-0.98280749913426;1.006;0.0004531869441480812
58:21.3;0.001526792822573328;-0.1806136979702953;-0.9813901712138515;1.002;0.00027062785695879425
58:21.3;0.0004993892449271015;-0.1799190341317187;-0.9798172313500588;0.993;8.803621629530833e-05
58:21.3;-0.0004969086400583655;-0.1794605972270272;-0.9781750115909961;0.993;8.722926659313972e-05
58:21.3;-0.0014224636665537017;-0.17927802775422277;-0.9765607524154212;0.993;0.00024903908626270526
58:21.3;-0.0022447436693396787;-0.17938751271575953;-0.9750747665538262;0.991;0.0003926421158590066
58:21.3;-0.002939864424088588;-0.17978081290124714;-0.9738130066200907;0.99;0.0005146905725281044
58:21.3;-0.003493567187382881;-0.1804266031758453;-0.9728599799317477;0.9890000000000001;0.0006132252249561079
58:21.3;-0.0039012597182676487;-0.18127377259625269;-0.9722818434614391;0.985;0.0006875938957193834
58:21.4;-0.004166675666049313;-0.1822561272096294;-0.9721201086377159;0.985;0.000738230120226379
58:21.4;-0.004299313352482308;-0.18329809982964934;-0.9723870153589947;0.987;0.0007662953907393388
58:21.4;-0.004311604931205989;-0.18432137380883296;-0.9730636792601689;0.9890000000000001;0.0007733140859880943
58:21.4;-0.0042170852828873374;-0.18525211017829582;-0.9741013944867413;0.992;0.0007609913366240225
58:21.4;-0.004030335181330081;-0.1860277996181768;-0.9754256056179637;0.992;0.000731329625547461
58:21.4;-0.003768295162626647;-0.18660244521133884;-0.9769417596779605;0.992;0.00068695915748953
58:21.4;-0.003451555631318803;-0.1869491860855682;-0.9785426105088171;0.995;0.0006314198025019805
58:21.4;-0.003104247842726507;-0.18706027461028615;-0.9801170433652193;0.9990000000000001;0.0005691357897519197
58:21.4;-0.002751907724406413;-0.18694507787416173;-0.9815603248852476;1.003;0.00050496920964586
58:21.4;-0.00241756292946687;-0.18662717368839343;-0.9827847088160009;1.0070000000000001;0.0004434156911069998
58:21.5;-0.002117178967084673;-0.18614143343065992;-0.9837283746896807;1.008;0.00038768216601546324
58:21.5;-0.0018561772444620353;-0.18553133995660742;-0.9843605724824985;1.006;0.0003389931601496827
58:21.5;-0.0016284509465769787;-0.1848462453072571;-0.9846816228112478;1.005;0.00029640201180822294
58:21.5;-0.0014181632845853048;-0.18413826774889647;-0.9847176766646533;0.997;0.00025714733326147435
58:21.5;-0.0012033813156722075;-0.18345889580073454;-0.9845115988186405;0.997;0.00021735161746862713
58:21.5;-0.0009601673267155036;-0.18285565625671105;-0.9841126221983191;0.997;0.0001727826475241341
58:21.5;-0.0006661890918536338;-0.18236914805085114;-0.9835676816779978;0.997;0.00011949593636484278
58:21.5;-0.00030350404468062206;-0.18203048562946048;-0.9829162438586396;0.998;5.43031625621853e-05
58:21.5;0.0001394290281244669;-0.18185912516287406;-0.9821889273382197;0.998;2.4904815662558265e-05
58:21.5;0.0006661421872722109;-0.18186125247012827;-0.9814091873285251;0.9990000000000001;0.00011889326008707686
58:21.6;0.00127066627959647;-0.18202902060218967;-0.9805968458782287;1.001;0.00022681022495996844
58:21.6;0.0019365571569227066;-0.18234076843729505;-0.979772040930517;0.998;0.0003459705583298334
58:21.6;0.0026373464925639124;-0.18276232703760528;-0.9789582380958867;0.997;0.00047186529340512346
58:21.6;0.0033389682282491343;-0.18324975653798342;-0.9781834213078715;0.997;0.0005985163114862106
58:21.6;0.00400404029082806;-0.1837537242294502;-0.9774793100726052;0.9940000000000001;0.0007191875530423914
58:21.6;0.004597358548734665;-0.18422501746106296;-0.976879001924932;0.9940000000000001;0.0008273661652271456
58:21.6;0.005091342868183225;-0.18462017935480107;-0.976413638488287;0.9940000000000001;0.0009177942878272721
58:21.6;0.005469824116047032;-0.18490643001483567;-0.9761086868987374;0.993;0.0009872418410482111
58:21.6;0.005729125378645378;-0.18506533864024577;-0.9759803422373817;0.992;0.0010347953852428643
58:21.6;0.0058764824168055915;-0.18509467445922792;-0.9760325150267555;0.993;0.0010616360322829948
58:21.7;0.0059267036114057136;-0.185007764894857;-0.9762548809230428;0.991;0.0010704499932320654
58:21.7;0.005898220264609731;-0.18482993560487546;-0.9766224969820673;0.988;0.0010646822736561747
58:21.7;0.005809160199071242;-0.18459222932226052;-0.9770977081281009;0.9890000000000001;0.0010477671124587867
58:21.7;0.005673334967421079;-0.1843233598032709;-0.9776352287618829;1.001;0.0010223406913532128
58:21.7;0.00549618801608061;-0.1840415586466699;-0.9781903013319122;1.001;0.0009894659098316381
58:21.7;0.005271807498527593;-0.18374847877630218;-0.9787276323919469;1.001;0.0009480803506281296
58:21.7;0.004982685500139003;-0.18342723198187372;-0.979227512541234;1.0;0.0008949749821448195
58:21.7;0.0046032399361881264;-0.1830456658868665;-0.979686640273781;0.9990000000000001;0.0008254870190866481
58:21.7;0.00410679668052989;-0.1825644931291387;-0.9801134358792428;0.995;0.0007348451984245571
58:21.7;0.003474474632944489;-0.18194844144895456;-0.9805194836661221;0.99;0.0006198601441453647
58:21.8;0.0027035985373197987;-0.18117759620763557;-0.9809100811665555;0.991;0.00048048064082850623
58:21.8;0.0018132466907514007;-0.18025589879910653;-0.9812775065713103;0.995;0.0003207289947403156
58:21.8;0.0008452833884635779;-0.17921447592015602;-0.9815997063966565;0.998;0.0001486996138322161
58:21.8;-0.00013977757572892094;-0.17810902451098617;-0.981844760341798;1.001;2.4443661211846312e-05
58:21.8;-0.0010714472569835875;-0.17701249118574405;-0.9819791107378443;1.001;0.0001862417144183853
58:21.8;-0.0018800923684437212;-0.1760056972278006;-0.9819764496336959;1.001;0.0003249428497534005
58:21.8;-0.0025065725350635606;-0.1751683503528911;-0.9818245984553359;0.9990000000000001;0.0004310918629009325
58:21.8;-0.002908369713911875;-0.1745715260805446;-0.9815290765726764;0.998;0.0004983405091008073
58:21.8;-0.0030618938659749072;-0.17427167082351924;-0.9811133791058537;0.998;0.0005235234333145535
58:21.8;-0.0029619922798187785;-0.1743060753810882;-0.9806166356771486;0.996;0.0005062857494497844
58:21.9;-0.002620060852317261;-0.17469003129460364;-0.9800893792215201;0.9940000000000001;0.00044858545077608577
58:21.9;-0.0020617448507539455;-0.1754159157815483;-0.9795881545455645;0.993;0.0003542806546754537
58:21.9;-0.0013243258589593213;-0.17645415670352202;-0.979169922803606;0.993;0.00022881517182480414
58:21.9;-0.000453247373525362;-0.177755670577935;-0.9788873653982358;0.993;7.886630304677947e-05
58:21.9;0.0005024574990165955;-0.17925525373182521;-0.9787858702992195;0.996;8.81574291344342e-05
58:21.9;0.0014949375013729354;-0.18087553402432258;-0.9789022280234754;0.996;0.0002646928315873992
58:21.9;0.002480780274370227;-0.1825312497290775;-0.9792642807828145;0.998;0.0004434303769885081
58:21.9;0.003421522196809716;-0.18413378155135426;-0.9798904239543279;0.9990000000000001;0.0006173484294837587
58:21.9;0.0042815758423657155;-0.18559601134042902;-0.9807880565360105;0.9990000000000001;0.0007793767545467822
58:21.9;0.005024904624990101;-0.1868375828042727;-0.9819505549204807;0.998;0.0009218954742743879
58:22.0;0.00561217259779552;-0.1877904765095273;-0.9833529971840628;0.998;0.001036368080933224
58:22.0;0.006000047171231724;-0.18840445387315824;-0.9849476810418122;0.9990000000000001;0.0011134199331380241
58:22.0;0.006143865193995577;-0.18865137972498947;-0.9866611269745045;0.998;0.0011435882429763529
58:22.0;0.006003465654122319;-0.1885272335541247;-0.9883943571841434;1.006;0.0011186813103257565
58:22.0;0.005550243333773591;-0.1880512879874121;-0.9900275796724137;1.006;0.001033321889226804
58:22.0;0.004773076953529223;-0.18726292178264223;-0.9914291506115532;1.006;0.0008861595367292774
58:22.0;0.0036818485728880215;-0.18621687151702018;-0.9924677933819072;1.01;0.0006804580736464919
58:22.0;0.0023082780201761463;-0.18497751194947967;-0.993027006391641;1.0170000000000001;0.00042400219956071185
58:22.0;0.0007041788419548949;-0.18361278235525355;-0.9930202637250286;1.018;0.00012839378281529192
58:22.0;-0.001062490675380525;-0.18218862818564796;-0.9924044048722211;1.018;0.0001921034110136984
58:22.1;-0.0029131731453367693;-0.18076469804442652;-0.9911878952017614;1.015;0.0005219584195920146
58:22.1;-0.00476523029868951;-0.17939157652097928;-0.9894315354836875;1.0090000000000001;0.0008458078065658025
58:22.1;-0.006538760874138604;-0.1781095478927368;-0.987241178443397;1.002;0.0011497566186236827
58:22.1;-0.00816270089129326;-0.17694881621198902;-0.9847541410826881;0.993;0.0014223594421429238
58:22.1;-0.009578955546553693;-0.17593096166016908;-0.9821226991131118;0.993;0.0016551074103299385
58:22.1;-0.010743791480989357;-0.17507111880962917;-0.979498597624574;0.993;0.001842365941373432
58:22.1;-0.011626744532771566;-0.17438011549833463;-0.9770213082866719;0.992;0.001980884376218031
58:22.1;-0.012208187926956224;-0.173865871552129;-0.9748104866337376;0.99;0.0020691202944907124
58:22.1;-0.012477077309178004;-0.17353378119715857;-0.9729614243288028;0.988;0.0021066506310222556
58:22.1;-0.012430065122363622;-0.17338627113291308;-0.971542109454584;0.9840000000000001;0.0020938701206307388
58:22.2;-0.012072137006129614;-0.173421918537517;-0.9705913272509521;0.981;0.002032003952498868
58:22.2;-0.011417823919452334;-0.1736345686887227;-0.9701182733212369;0.98;0.0019232875439505414
58:22.2;-0.010491778305921282;-0.17401307545346034;-0.9701048320413835;0.981;0.001771126804240473
58:22.2;-0.00932814278807381;-0.17454239054834744;-0.9705114771199614;0.9940000000000001;0.0015801444160749797
58:22.2;-0.007968952917413822;-0.17520619239138482;-0.9712862879743085;0.9940000000000001;0.0013561195290675205
58:22.2;-0.006462053139637636;-0.17599011578794393;-0.9723744511372202;0.9940000000000001;0.0011058401181818396
58:22.2;-0.00485856575708196;-0.1768839901045996;-0.9737247523383263;0.993;0.0008368214838406601
58:22.2;-0.0032095699772755966;-0.17788199384078565;-0.9752910075822689;0.991;0.0005568177326746966
58:22.2;-0.0015621011169219235;-0.1789805311855173;-0.9770288152745427;0.988;0.00027316327319406415
58:22.2;4.4444243528509895e-05;-0.18017417632845248;-0.978889826279336;0.9890000000000001;7.83866092726377e-06
58:22.3;0.0015800340935904023;-0.18145046933329945;-0.9808165161671814;0.992;0.0002811980627808835
58:22.3;0.0030230616721125233;-0.18278488936717624;-0.9827401091747295;0.996;0.0005430326955297802
58:22.3;0.004357015139687554;-0.18413765866838347;-0.9845829218151089;1.001;0.0007899215902124196
58:22.3;0.005565801311438165;-0.18545388433512308;-0.9862646373149226;1.0090000000000001;0.0010180218385236227
58:22.3;0.006629136409420266;-0.18666766142132754;-0.9877106237204513;1.0090000000000001;0.0012222379587566523
58:22.3;0.007519559505030154;-0.18770919002573425;-0.9888598517020938;1.0090000000000001;0.0013957662113946465
58:22.3;0.008202526566626811;-0.18851288825270315;-0.9896705357295885;1.01;0.0015303097096414765
58:22.3;0.008640417628841813;-0.18902480288564946;-0.990122846348061;1.011;0.0016171213459459865
58:22.3;0.008799942086025992;-0.18920844319036503;-0.990218828961324;1.012;0.0016487374641682951
58:22.3;0.008660795054623674;-0.1890486260916756;-0.9899796543238636;1.008;0.0016209049796712027
58:22.4;0.008222542205628661;-0.18855328626613085;-0.9894402956659062;1.005;0.001534015722268167
58:22.4;0.0075073069809620295;-0.18775352024360875;-0.9886423759133812;1.002;0.0013935144772921045
58:22.4;0.006557551480848278;-0.1867020563710096;-0.9876268944396663;1.001;0.0012091598498267925
58:22.4;0.005430040077446746;-0.18546998918344637;-0.9864289075449807;1.0;0.0009934418986399165
58:22.4;0.004188056777906024;-0.1841415304436354;-0.9850756124394566;1.002;0.0007596855688476389
58:22.4;0.002893878788118739;-0.18280701452671663;-0.9835880189392544;1.002;0.0005203390534181552
58:22.4;0.0016028289621900101;-0.18155498071334514;-0.9819851299470743;1.001;0.0002857592256445731
58:22.4;0.0003595138232006055;-0.18046418832229272;-0.9802889328587712;0.997;6.360052867058516e-05
58:22.4;-0.0008036773391873689;-0.17959617632575603;-0.9785288405761158;0.993;0.0001412382862827895
58:22.4;-0.0018661359791291403;-0.17898913404867;-0.9767451957355229;0.993;0.00032625053824735493
58:22.5;-0.00281727627425986;-0.1786542048822553;-0.9749921996170262;0.996;0.0004907313703186206
58:22.5;-0.003654172810863471;-0.17857520549100114;-0.9733403024476337;0.996;0.0006351480173085774
58:22.5;-0.004379201131850469;-0.17871207120135224;-0.9718768312944366;0.996;0.000760606459742313
58:22.5;-0.0049980395648890315;-0.17900759864220267;-0.9707027906507346;0.986;0.000868475226318023
58:22.5;-0.005518042614338766;-0.17939639798629142;-0.9699246269835566;0.986;0.0009601448468508383
58:22.5;-0.0059466805275746855;-0.17981441492255268;-0.969641874228475;0.986;0.0010368369699169453
58:22.5;-0.006289728360586161;-0.1802073472580741;-0.9699330453844882;0.983;0.0010993757148887314
58:22.5;-0.006549245856314793;-0.18053689703582057;-0.9708419772341964;0.981;0.001147904646563124
58:22.5;-0.006721800979838847;-0.18078443543478367;-0.9723663411446006;0.981;0.001181616656036431
58:22.5;-0.006797458575026514;-0.1809519123806738;-0.9744502080166412;0.983;0.001198586548910007
58:22.6;-0.006759730402540319;-0.18106002993577502;-0.9769826717874777;0.987;0.0011957456900000634
58:22.6;-0.006586416563127422;-0.1811440096259754;-0.979803871087031;0.991;0.0011689941077793976
58:22.6;-0.006251528701473926;-0.18124751666908906;-0.9827186161065841;0.997;0.0011134929648462847
58:22.6;-0.005728935015036526;-0.18141539682632044;-0.9855165561715175;1.014;0.00102426412947828
58:22.6;-0.004998053911970824;-0.18168602124840003;-0.9879960690428315;1.014;0.0008971760412900262
58:22.6;-0.004050702513115071;-0.18208426045987253;-0.9899871476197296;1.014;0.0007301840002096027
58:22.6;-0.0028971685098384474;-0.18261615308962642;-0.9913684007692872;1.015;0.0005245030499156125
58:22.6;-0.0015694989899857688;-0.1832660499794734;-0.9920755750975657;1.014;0.00028535653140845344
58:22.6;-0.00012064707048699044;-0.18399668741637112;-0.9921016403566237;1.01;2.2023328305419647e-05
58:22.6;0.0013807651655389666;-0.18475249402050936;-0.9914898642649055;1.0070000000000001;0.0002529288739979744
58:22.7;0.002858954361793551;-0.18546609726058777;-0.9903220527105104;1.004;0.000525107481592567
58:22.7;0.004240694640887223;-0.18606713248042955;-0.9887047432698471;1.004;0.0007801413252759705
58:22.7;0.005463998955206638;-0.18649155863532318;-0.9867560610964582;1.002;0.001005494244452631
58:22.7;0.006483950659169609;-0.18668948226243462;-0.9845949455186425;1.001;0.0011918377981694373
58:22.7;0.007274762211042196;-0.18663010816068248;-0.9823332530290463;0.995;0.0013337036986319597
58:22.7;0.00782826875565243;-0.18630348254808662;-0.9800707350665053;0.995;0.001429368219277407
58:22.7;0.008150151401327186;-0.185719552959328;-0.9778930641997875;0.995;0.0014801804777903294
58:22.7;0.008255724166520732;-0.18490537699814175;-0.9758730036849748;0.995;0.0014896972590534713
58:22.7;0.00816663664330216;-0.18390145143617334;-0.9740739362118174;0.995;0.001462919108989559
58:22.7;0.007908733845738392;-0.18275842272339707;-0.9725538758521728;0.995;0.0014057174324884892
58:22.8;0.007510596024032739;-0.1815352176068119;-0.9713676237771136;0.9940000000000001;0.0013243992228669265
58:22.8;0.007002372017064667;-0.1802983595462054;-0.9705651681738412;0.988;0.0012253542359489385
58:22.8;0.006414872235389754;-0.17912082388012907;-0.9701857336491351;0.982;0.001114779498764242
58:22.8;0.0057789047848936;-0.17807853570991064;-0.9702488599716143;0.9790000000000001;0.0009984820365613882
58:22.8;0.005124632847475068;-0.17724375752203597;-0.970745689818379;0.9790000000000001;0.0008817372232619257
58:22.8;0.004480651342967084;-0.1766763642904991;-0.9716340734910389;0.9790000000000001;0.0007691700069969707
58:22.8;0.003872494531878537;-0.17641506866449558;-0.9728399620531515;0.987;0.0006646115637019308
58:22.8;0.0033202980015974138;-0.17647048023113032;-0.9742655591748111;0.996;0.0005708558840025121
58:22.8;0.0028355674050152212;-0.1768214111283576;-0.9758022647046529;0.998;0.0004892565508787498
58:22.8;0.002417701282179281;-0.17741567105765593;-0.9773444103055671;0.998;0.0004192202499012164
58:22.9;0.002051880856631363;-0.17817596008471906;-0.9787997488496685;0.996;0.00035784511794810536
58:22.9;0.0017103462454583327;-0.17901002294833207;-0.9800948727160718;0.995;0.0003000747853321612
58:22.9;0.0013579677549871731;-0.17982287758426974;-0.9811764818803835;0.995;0.0002395970854083915
58:22.9;0.0009606018529936999;-0.18052861378458754;-0.9820109113200775;1.001;0.0001702965229421033
58:22.9;0.0004929254568403331;-0.181059898609594;-0.9825839277156883;1.001;8.769466562342757e-05
58:22.9;-5.7047180664441054e-05;-0.18137414685924474;-0.9829011996516083;1.001;1.0169964424717975e-05
58:22.9;-0.0006875794488705159;-0.18145591473088002;-0.9829886003129111;1.002;0.00012264292447555062
58:22.9;-0.0013861462542635139;-0.1813156427467844;-0.9828914262607756;1.002;0.0002470301012115042
58:22.9;-0.0021338421584542735;-0.18098552709515975;-0.9826719724697779;1.002;0.0003795025580296675
58:22.9;-0.00290884540007028;-0.18051380888912064;-0.9824049543398491;1.001;0.000515847837072158
58:23.0;-0.0036871988129901813;-0.17995887842818653;-0.9821703301828795;0.997;0.0006517133895933795
58:23.0;-0.0044410783619247725;-0.179384222429206;-0.9820437208056791;0.993;0.0007823543502947541
58:23.0;-0.00513632414743517;-0.17885445973829572;-0.9820858885407692;0.99;0.00090219760167533
58:23.0;-0.0057311669110084685;-0.17843192064568048;-0.9823339671032724;0.9940000000000001;0.0010045574258026623
58:23.0;-0.006177185520030293;-0.17817315859784877;-0.9827971371369943;0.9990000000000001;0.0010816750355848918
58:23.0;-0.006422519148431409;-0.17812544237936112;-0.9834576856212571;0.9990000000000001;0.0011250894241955295
58:23.0;-0.006416730865800459;-0.1783236649408977;-0.9842761914458604;0.9990000000000001;0.0011262629189232516
58:23.0;-0.006116614052207366;-0.17878780575763098;-0.9851987984231626;1.005;0.0010773897661699545
58:23.0;-0.005492457787763652;-0.1795207666046092;-0.9861650045237098;1.0070000000000001;0.0009723687854951513
58:23.0;-0.004534307584486175;-0.18050654316638126;-0.9871146080155021;1.006;0.0008079258527614098
58:23.1;-0.0032573128218403046;-0.18170917169454062;-0.9879923459449623;1.006;0.0005847764811191655
58:23.1;-0.0017047975816745448;-0.183073336780092;-0.9887493725463158;1.005;0.00030859162743624184
58:23.1;5.213789664663935e-05;-0.18452741962470073;-0.989341990230709;1.003;9.518332190077342e-06
58:23.1;0.0019188427475606974;-0.1859889449716951;-0.9897290825858638;1.005;0.00035321801683823575
58:23.1;0.003784489165856104;-0.18737141533159626;-0.9898700541050155;1.005;0.0007019218951046861
58:23.1;0.0055312206634637855;-0.18859109885620695;-0.9897247278727043;1.005;0.0010324204460225067
58:23.1;0.007043831865337332;-0.18957273633698737;-0.9892558772439632;1.0070000000000001;0.0013209716553312916
58:23.1;0.008219456691106106;-0.19025401779078532;-0.9884342987572977;1.008;0.0015456983933601267
58:23.1;0.008976955150212613;-0.1905891996284719;-0.9872456996846142;1.0090000000000001;0.0016890892283350745
58:23.1;0.009264956569711368;-0.1905519551880478;-0.9856981479564952;1.0090000000000001;0.0017402063044662938
58:23.2;0.009066703438734188;-0.19013710250030988;-0.9838284398767675;1.01;0.0016960382981682767
58:23.2;0.008399944724238249;-0.18936086528167856;-0.981705465900002;1.0090000000000001;0.0015615211348104761
58:23.2;0.007311414956668893;-0.18825945199801902;-0.9794286290133285;1.003;0.001348127654031532
58:23.2;0.005867352969608836;-0.1868857195368289;-0.9771200942759461;0.987;0.0010714361047410167
58:23.2;0.0041430353418534654;-0.18530415857976026;-0.974911608444219;0.987;0.0007484607759251325
58:23.2;0.00221455108337962;-0.18358543179834527;-0.972929030981239;0.987;0.0003955533622101466
58:23.2;0.00015479235339736146;-0.18180196633130896;-0.9712784029375864;0.9840000000000001;2.7333283839654428e-05
58:23.2;-0.0019664927407140056;-0.1800251865175485;-0.9700357721757378;0.982;0.0003434103397615379
58:23.2;-0.004080588923925985;-0.17832398346095465;-0.9692412656241484;0.981;0.0007052847597579093
58:23.2;-0.006118255987191179;-0.17676369948872644;-0.9688975496747799;0.98;0.001047848711723178
58:23.3;-0.008010420642863546;-0.1754049736429488;-0.9689729688654685;0.9840000000000001;0.0013614725448848617
58:23.3;-0.009691023077401939;-0.17430204163697585;-0.9694092257778467;0.986;0.0016374922395012072
58:23.3;-0.011100567898135353;-0.17350050656970806;-0.9701325219673259;0.988;0.0018684307601651918
58:23.3;-0.01218889508725992;-0.173035047959824;-0.9710662049780041;0.9940000000000001;0.0020480816039866296
58:23.3;-0.012916645846110637;-0.17292780433077573;-0.9721424829219388;0.993;0.0021714233403129536
58:23.3;-0.013255862518460209;-0.17318792420093107;-0.9733107558256751;0.993;0.002234483338950153
58:23.3;-0.013190539867061441;-0.17381203712646034;-0.9745408367429772;0.993;0.0022343050280254776
58:23.3;-0.012717762957464;-0.1747848646539387;-0.9758207388815068;0.991;0.0021691250631613763
58:23.3;-0.011849509874774634;-0.1760792685827386;-0.977150138428701;0.988;0.002038777868862283
58:23.3;-0.01061454624540229;-0.17765528205492814;-0.9785317085072011;0.99;0.001845246801348965
58:23.4;-0.009059596039915331;-0.17945799634041895;-0.9799630836236344;0.99;0.0015932405946467258
58:23.4;-0.007249296542603056;-0.18141507524000758;-0.9814317927827314;0.996;0.0012907120402036827
58:23.4;-0.005264830212146065;-0.18343592090816038;-0.9829140491884478;1.001;0.0009492580679895305
58:23.4;-0.0032012108487820476;-0.18541488891015692;-0.9843765439878842;1.005;0.0005842788179374825
58:23.4;-0.001163224147280668;-0.18723945143511617;-0.98577930039656;1.005;0.0002147041622217365
58:23.4;0.0007398904429462515;-0.18880162522584124;-0.9870777775071908;1.005;0.00013788738031762706
58:23.4;0.0024010971516942874;-0.19000967097027258;-0.9882235561141827;1.003;0.00045085889298545153
58:23.4;0.0037239279255585375;-0.19079789714855458;-0.9891643271486114;1.004;0.0007028186808728191
58:23.4;0.0046324703800934485;-0.19113350580778043;-0.9898448683637292;1.006;0.0008764287445543891
58:23.4;0.005081445337040879;-0.19101958429206117;-0.9902106957389027;1.01;0.0009611535331193185
58:23.5;0.005063392508344702;-0.19049359423607923;-0.9902148727039196;1.012;0.0009551056537057006
58:23.5;0.004609934286251034;-0.18962169894976375;-0.9898266830356605;1.015;0.0008652506317814377
58:23.5;0.0037860661333903307;-0.18849021482101655;-0.989039582633187;1.014;0.0007058146658110111
58:23.5;0.002679451508414341;-0.1871957560566139;-0.9878756815827326;1.004;0.0004955006116491712
58:23.5;0.0013885569384625557;-0.18583557599550138;-0.986385223586675;1.004;0.00025453007692052105
58:23.5;1.2805630664613052e-05;-0.1844994800903316;-0.9846415944506764;1.004;2.32634593636073e-06
58:23.5;-0.0013542276597004839;-0.18326420605031096;-0.982733641310993;0.998;0.0002438962668121646
58:23.5;-0.0026292581590564423;-0.18219030574430864;-0.9807567871674181;0.995;0.00046980736115777
58:23.5;-0.0037425468202926106;-0.18132089955457098;-0.9788039441938884;0.992;0.0006642182711493355
58:23.5;-0.004640846923045055;-0.1806815270290276;-0.9769574470951067;0.9890000000000001;0.0008191937753999931
58:23.6;-0.005290251327616057;-0.18028056243760043;-0.9752833616783259;0.988;0.0009301564980468888
58:23.6;-0.005678367792372274;-0.18011014138349493;-0.973829082699114;0.986;0.0009959658011089196
58:23.6;-0.0058146050649049465;-0.18014790619677556;-0.9726245203933497;0.9890000000000001;0.0010188134160225076
58:23.6;-0.005727274799716804;-0.18035975925794243;-0.971686562300252;0.993;0.001003722975056091
58:23.6;-0.005457292339417089;-0.18070338829162322;-0.9710256171705663;0.993;0.0009575780937522208
58:23.6;-0.005050212899103529;-0.1811320714522499;-0.9706520592401316;0.993;0.0008879093327704929
58:23.6;-0.004549449106416162;-0.18159839237894274;-0.9705801188421486;0.992;0.0008018667429345572
58:23.6;-0.003992624664854256;-0.18205779882518344;-0.9708275972177302;0.9890000000000001;0.0007056833751434029
58:23.6;-0.0034111112936688055;-0.18247199227271862;-0.9714111809152735;0.987;0.0006046376699567084
58:23.6;-0.0028314189673398233;-0.1828117972312451;-0.9723384796733474;0.985;0.0005032987227723201
58:23.7;-0.002276811656370596;-0.18305893557070116;-0.9735988959608552;0.985;0.0004057869831935098
58:23.7;-0.0017680289221607037;-0.18320647113116922;-0.9751558141843146;0.986;0.00031586695164336067
58:23.7;-0.0013226875292853973;-0.183258206799467;-0.9769423314085999;0.987;0.0002368043193603258
58:23.7;-0.0009534655831125119;-0.18322743623645926;-0.9788620901967313;0.991;0.00017100823920437072
58:23.7;-0.0006656732059483866;-0.18313521774574465;-0.9807958677777894;1.001;0.00011956706618270072
58:23.7;-0.0004553160209589305;-0.18300809022265002;-0.982613239430462;1.001;8.187773727036043e-05
58:23.7;-0.0003089238470852867;-0.18287507354213065;-0.9841871420139211;1.005;5.560113220369149e-05
58:23.7;-0.00020592425373275008;-0.18276394290166983;-0.9854085225617846;1.0090000000000001;3.7086370585549976e-05
58:23.7;-0.00012327554295220956;-0.18269717512616707;-0.9861986311873113;1.0090000000000001;2.2211257741244574e-05
58:23.7;-4.104414003949007e-05;-0.1826884631499874;-0.9865170425106663;1.0070000000000001;7.397191728150134e-06
58:23.8;5.2788496019016906e-05;-0.18274077624164858;-0.9863641187772647;1.006;9.515070700903392e-06
58:23.8;0.00015982369699560147;-0.1828463978992487;-0.9857778618790547;1.001;2.8807571088548837e-05
58:23.8;0.0002721186125351375;-0.18298876122188304;-0.9848265333423837;1.0;4.9039090384900704e-05
58:23.8;0.00037665691121656136;-0.18314571866561458;-0.9835992357717902;0.9990000000000001;6.785172512489608e-05
58:23.8;0.00046222564302237095;-0.18329380422615646;-0.9821964865555537;0.9990000000000001;8.321472773249476e-05
58:23.8;0.0005260089721262325;-0.18341271608458437;-0.9807218459199425;0.9990000000000001;9.461684091427886e-05
58:23.8;0.0005767925197561325;-0.18348904053092718;-0.9792745705587896;0.995;0.0001036416280129275
58:23.8;0.000632984666280415;-0.1835184680662659;-0.9779428682924765;0.993;0.00011360212331821408
58:23.8;0.0007159991276883329;-0.18350610691537694;-0.9767978690973955;0.9890000000000001;0.00012834167956768196
58:23.8;0.0008416517724078925;-0.18346484156558732;-0.9758892681489245;0.9890000000000001;0.00015069048636664144
58:23.9;0.0010130686869231533;-0.18341229057285913;-0.9752438427408476;0.991;0.0001812093254032078
58:23.9;0.0012176942473931906;-0.18336754430999136;-0.9748673812006403;0.9940000000000001;0.0002176738518995713
58:23.9;0.0014289541811769765;-0.183348648238373;-0.9747493316950606;0.996;0.0002553812227773899
58:23.9;0.0016112694751902307;-0.18337063473490633;-0.9748684506297963;0.992;0.00028803415122275985
58:23.9;0.0017263038748542689;-0.18344312438529833;-0.9751977373143054;0.992;0.0003088242312018749
58:23.9;0.0017386909169000591;-0.18356714128894774;-0.975708015297381;0.992;0.00031141333294981493
58:23.9;0.0016204337620438758;-0.18373192902080682;-0.9763706082411724;0.9940000000000001;0.0002906903503425569
58:23.9;0.0013537681438059296;-0.18391297727905545;-0.9771596582148101;0.997;0.0002432888436744435
58:23.9;0.0009322434809434676;-0.18407237053228892;-0.9780538387062098;0.998;0.00016783430030300976
58:23.9;0.0003597789146240702;-0.18416238018071196;-0.9790364391643812;0.997;6.486874306635105e-05
58:24.0;-0.00035186982972498397;-0.18413247088579746;-0.9800929129863307;0.997;6.350086784769393e-05
58:24.0;-0.001185856498966596;-0.18393839492392094;-0.9812060846365737;0.9940000000000001;0.00021402512686721165
58:24.0;-0.0021217210493987464;-0.18355079261128085;-0.9823505965979649;0.993;0.0003825701334658277
58:24.0;-0.0031351511728251124;-0.18296080558357392;-0.9834889755251917;1.0;0.0005641388990203482
58:24.0;-0.00419680830296797;-0.18218161741678188;-0.9845712589854029;1.0;0.0007527847973806802
58:24.0;-0.005271460713576627;-0.18124648653131994;-0.9855385686924258;1.0;0.0009416167939216955
58:24.0;-0.0063184567812807286;-0.18020457927986908;-0.9863296751746563;1.004;0.0011230496111733783
58:24.0;-0.007294095049835156;-0.17911567161367473;-0.9868893307300418;1.0070000000000001;0.0012893578181945317
58:24.0;-0.008155541505555053;-0.17804449993157864;-0.987177077272954;1.008;0.0014334297929422598
58:24.0;-0.008864683177986596;-0.1770555207417179;-0.9871747623367091;1.0090000000000001;0.001549411358706558
58:24.1;-0.009389825285090822;-0.17620857410723337;-0.9868908841209378;1.005;0.001632877804570337
58:24.1;-0.009704416139479973;-0.1755555059212186;-0.9863605910251322;1.006;0.0016804267192806034
58:24.1;-0.009784281340385153;-0.17513759962653444;-0.9856411503326069;1.004;0.0016889902871609307
58:24.1;-0.009606213554147001;-0.17498360036856836;-0.9848034616871822;0.993;0.0016553855189963102
58:24.1;-0.009149874705217213;-0.1751081289082768;-0.9839209999561342;0.993;0.0015764553850977515
58:24.1;-0.008402474161134557;-0.17551052657259028;-0.9830587010826438;0.993;0.0014497389470532513
58:24.1;-0.0073638341762079585;-0.17617446010332552;-0.9822647395249712;0.9940000000000001;0.0012743112108496329
58:24.1;-0.006049715242463739;-0.1770687115859731;-0.9815669423174579;0.996;0.0010514695103349134
58:24.1;-0.004492804587817494;-0.17814950042566538;-0.9809736989740078;0.998;0.000785162414764381
58:24.1;-0.002741846075597912;-0.179364321917845;-0.9804780022362586;1.0;0.00048218865132454653
58:24.2;-0.0008593449188333477;-0.18065654745773832;-0.9800628167406916;0.9990000000000001;0.00015215111245524534
58:24.2;0.0010821422157317035;-0.18196951883033577;-0.9797061142563024;0.995;0.00019292068926753334
58:24.2;0.003004833440341709;-0.18324939587761413;-0.9793847312089644;0.993;0.0005392824465406189
58:24.2;0.004830528470389363;-0.18444712089779133;-0.979077418162629;0.998;0.0008723355281413985
58:24.2;0.006484158063241017;-0.18552012285488972;-0.9787680930963253;0.998;0.0011774010521841789
58:24.2;0.007895907808381716;-0.1864336284429327;-0.9784497476075462;0.998;0.0014403394189276308
58:24.2;0.009002962377827679;-0.18716100580323086;-0.9781283841684874;1.0;0.001648149744750787
58:24.2;0.009752220004073334;-0.18768310943461744;-0.9778257675285867;1.0;0.001789740878429133
58:24.2;0.010104630258065099;-0.18798741842713595;-0.9775796633730137;0.9990000000000001;0.0018569549548869135
58:24.2;0.010040671348914914;-0.18806801975094495;-0.9774404825607977;0.996;0.001845729382548347
58:24.3;0.009565516870437567;-0.18792687567316885;-0.9774641321137126;0.995;0.0017571068246707232
58:24.3;0.008712008353848935;-0.18757566818688212;-0.9777021398495558;0.992;0.0015977224995037788
58:24.3;0.007539779068457243;-0.18703680401822212;-0.9781910047607363;0.991;0.001379460782012482
58:24.3;0.0061297422150110555;-0.1863425626162952;-0.9789429178587136;0.992;0.0011181798021583451
58:24.3;0.004574498744905027;-0.1855324279812793;-0.9799396353393749;0.9940000000000001;0.0008316922691952323
58:24.3;0.002966665663787636;-0.18464945726903487;-0.9811305112232082;0.9940000000000001;0.0005374566269886565
58:24.3;0.0013879042040317886;-0.18373670313263726;-0.9824348350698578;0.996;0.0002505296685753177
58:24.3;-9.908239710492919e-05;-0.18283438716626385;-0.983748117789591;1.001;1.7821255629145985e-05
58:24.3;-0.0014544934800384875;-0.18197803792219158;-0.9849517322590703;1.001;0.00026070280583401906
58:24.3;-0.002660987628899013;-0.1811973486865107;-0.9859249706677039;1.004;0.0004753774321629706
58:24.4;-0.003719076398607998;-0.18051529631633312;-0.9865582320171533;1.0070000000000001;0.0006623260447883015
58:24.4;-0.004639742071013864;-0.17994737287858303;-0.9867658463151079;1.008;0.0008238600772467649
58:24.4;-0.005436870795868358;-0.1795013110082004;-0.9864968649556922;1.008;0.0009627473826899387
58:24.4;-0.006121982006365397;-0.17917765169017022;-0.9857422472708853;1.004;0.0010812827118239568
58:24.4;-0.0067021622335431035;-0.17897098130292202;-0.9845375896533423;1.004;0.001180945505745078
58:24.4;-0.007180391022673429;-0.17887154576264128;-0.9829614822442141;1.004;0.0012624839205427395
58:24.4;-0.007556809624789552;-0.17886728984299619;-0.9811299256275914;1.002;0.0013261600184149177
58:24.4;-0.007829800420113822;-0.178946342656207;-0.9791869434085327;0.996;0.0013719526808350863
58:24.4;-0.007996239720906769;-0.17909949286923607;-0.9772915104063872;0.992;0.0013996011404669266
58:24.4;-0.008050939995493297;-0.17932202516106263;-0.9756016889711597;0.9890000000000001;0.0014084867577356815
58:24.5;-0.007986138946025515;-0.17961451756754065;-0.9742578218406909;0.9840000000000001;0.001397501231652283
58:24.5;-0.007792052033791051;-0.1799821827147736;-0.9733672138626888;0.9790000000000001;0.0013650799004144738
58:24.5;-0.0074586800172703315;-0.18043229927119056;-0.972993071572868;0.9790000000000001;0.0013094412176623013
58:24.5;-0.006978278011118798;-0.18097014309904091;-0.9731502739698694;0.993;0.0012289525260412387
58:24.5;-0.006347856634038042;-0.18159502564779054;-0.9738087635562558;0.993;0.0011225475236287745
58:24.5;-0.0055714046086946314;-0.18229800264661647;-0.9749022814071442;0.993;0.0009901652853301448
58:24.5;-0.004661677119983128;-0.1830617166064953;-0.9763384953044372;0.993;0.0008331824883693414
58:24.5;-0.0036414057382654274;-0.18386209783782456;-0.9780079017342986;0.9940000000000001;0.0006547924254990947
58:24.5;-0.0025437709995567406;-0.18467134269484783;-0.979791385876326;0.997;0.00046026837497066065
58:24.5;-0.0014117883572902726;-0.18546110754199124;-0.9815675565046044;1.0;0.0002570056319027087
58:24.6;-0.0002960911011993553;-0.18620471754469134;-0.9832205537552838;1.003;5.420844926226577e-05
58:24.6;0.0007490035840024765;-0.18687805020997225;-0.9846479257861958;1.005;0.00013782346379016366
58:24.6;0.0016705781168302662;-0.18745987155208826;-0.9857674094242297;1.0070000000000001;0.00030870919062615104
58:24.6;0.0024226349527002155;-0.18793253160733442;-0.9865214932666225;1.005;0.00044915526461440175
58:24.6;0.002971476365929818;-0.18828311531705388;-0.9868793284472712;1.005;0.0005521380893349714
58:24.6;0.0033000096188100406;-0.1885045026210348;-0.9868364118684496;1.005;0.0006138780423799721
58:24.6;0.0034096446093959377;-0.1885958743218521;-0.9864129224107564;1.006;0.0006343078052014228
58:24.6;0.0033189367153169023;-0.18856261796599916;-0.9856513205061415;1.006;0.0006168475991813318
58:24.6;0.003059181279975496;-0.18841579363135405;-0.984613166763601;1.003;0.0005675291277674526
58:24.6;0.002667936197319117;-0.18817119277202424;-0.9833747949289877;1.001;0.0004936824057935228
58:24.7;0.0021819031413870572;-0.18784790157777978;-0.982021825925701;0.998;0.00040249728558078534
58:24.7;0.0016309685536437912;-0.18746642163753954;-0.9806431411123873;0.998;0.00029983344336141854
58:24.7;0.0010351353699166238;-0.18704663583634407;-0.9793251637745911;0.997;0.0001896155559690667
58:24.7;0.0004050920492819982;-0.18660611310991942;-0.9781468531021468;0.997;7.394071542290272e-05
58:24.7;-0.00025443818136581967;-0.1861593917093055;-0.9771750925953631;0.9940000000000001;4.628493120392185e-05
58:24.7;-0.0009405661056026913;-0.18571860356319356;-0.9764598948691307;0.9940000000000001;0.00017056862344538162
58:24.7;-0.0016492342017084484;-0.18529502158693809;-0.9760293714069356;0.988;0.00029826958547108767
58:24.7;-0.002374290970381859;-0.18490053556709968;-0.9758853694167711;0.987;0.0004284211641818718
58:24.7;-0.003108432047116981;-0.18454820965767943;-0.9760015047793466;0.988;0.0005598886987037349
58:24.7;-0.0038447305216110146;-0.1842516289376807;-0.9763254145954067;0.992;0.0006916268357623156
58:24.8;-0.004577036878153764;-0.18402319876819873;-0.976785979886104;0.9940000000000001;0.0008227282398837829
58:24.8;-0.005298453829700662;-0.18387180870173242;-0.9773045555719976;0.9990000000000001;0.0009521255634331731
58:24.8;-0.005998909153536035;-0.18380045429383818;-0.9778079416191771;1.002;0.0010781332146797234
58:24.8;-0.006663839406138488;-0.1838044921358748;-0.978240267334943;1.003;0.0011981913480422189
58:24.8;-0.0072751790934029465;-0.18387104012171876;-0.9785710548977213;0.9990000000000001;0.0013090293596792321
58:24.8;-0.00781404186938342;-0.18397979452491117;-0.9787976882346492;0.9990000000000001;0.0014071448267528519
58:24.8;-0.008263242348463245;-0.1841054162227854;-0.9789421646742351;0.996;0.0014892722254785933
58:24.8;-0.008608052260477747;-0.1842213962925618;-0.9790434397341807;0.995;0.0015525547574254956
58:24.8;-0.008835075256777352;-0.1843047662161368;-0.9791473141629575;0.995;0.0015943910821272383
58:24.8;-0.008930708946386087;-0.18434056065463023;-0.9792958522373069;0.993;0.0016122068235816754
58:24.9;-0.008881063367325255;-0.18432493364841013;-0.9795180607594585;0.993;0.0016034724523722136
58:24.9;-0.008674107460474062;-0.1842661650469175;-0.9798232109317281;0.991;0.0015660950567695552
58:24.9;-0.008303103935568294;-0.1841834327451935;-0.9801979210766579;0.992;0.0014990109811389124
58:24.9;-0.007769269037845227;-0.1841040829389737;-0.9806077521283251;1.0;0.0014026163690720075
58:24.9;-0.007081991176005835;-0.18406047386909824;-0.9810031249814948;1.0;0.0012787519468675157
58:24.9;-0.006256802848554065;-0.18408686632827115;-0.9813279715812736;1.0;0.0011302888763640234
58:24.9;-0.005312862272466707;-0.18421603632309314;-0.9815288142062785;1.002;0.0009606364133005335
58:24.9;-0.004271503294294191;-0.1844750702014097;-0.9815625636229254;1.001;0.0007734574307348312
58:24.9;-0.003156360170130034;-0.18488023508571375;-0.9814023307263233;0.9990000000000001;0.000572695966209931
58:24.9;-0.0019949190330408955;-0.18543176926908836;-0.9810410915212437;0.9990000000000001;0.00036290806052595366
58:25.0;-0.0008207305057007435;-0.18611033375330543;-0.9804933145784471;0.9990000000000001;0.00014976685181063946
58:25.0;0.0003253586903958938;-0.18687681248139904;-0.9797948418690349;0.9990000000000001;5.957348105117299e-05
58:25.0;0.0013967343625410937;-0.18767622481166843;-0.979001158325153;1.002;0.0002566293253859007
58:25.0;0.0023458279093541037;-0.18844545972475468;-0.9781836813881132;0.997;0.00043241648350759337
58:25.0;0.0031309535930612257;-0.18912338744431628;-0.9774234693441434;0.997;0.0005787681604895656
58:25.0;0.0037228710036730913;-0.1896606845928812;-0.9768023256647461;0.997;0.0006897027968118357
58:25.0;0.004109017644179009;-0.1900264431670403;-0.9763921433775843;0.99;0.0007623884738253776
58:25.0;0.0042945101614553895;-0.19020982839799475;-0.9762438809584258;0.986;0.0007974526640050451
58:25.0;0.004300108264523146;-0.19021678428708108;-0.9763782308959599;0.986;0.0007986312747835594
58:25.0;0.0041577086058341185;-0.19006331570839033;-0.9767807132695984;0.9890000000000001;0.000771879355567719
58:25.1;0.003903918210484446;-0.18976806140618466;-0.9774032693870212;0.996;0.0007240984515916782
58:25.1;0.003572635883771687;-0.18934704875262304;-0.9781721806078252;1.001;0.0006617022382028638
58:25.1;0.0031883868505552383;-0.18881222484149862;-0.9789997478133692;1.003;0.0005893641283776608
58:25.1;0.0027625308064625053;-0.18817349326738214;-0.9797961234757615;0.9990000000000001;0.0005093323885009126
58:25.1;0.0022937788287478006;-0.18744275140976802;-0.9804785201804472;0.9990000000000001;0.0004215589113016467
58:25.1;0.0017729711488597673;-0.18663803851767877;-0.9809770656747117;0.9990000000000001;0.0003246090952210529
58:25.1;0.001190454125402085;-0.18578606980932996;-0.9812382684282573;0.9990000000000001;0.00021702026495408315
58:25.1;0.0005434145504345397;-0.184922100934392;-0.9812274096741251;0.998;9.860291475081344e-05
58:25.1;-0.00015925518544454567;-0.18408719824309802;-0.9809306728439451;0.998;2.8757788463978453e-05
58:25.1;-0.0008957191207884569;-0.18332399044227662;-0.9803572799658138;1.0;0.00016098133526877434
58:25.2;-0.0016332075793125626;-0.18267222179137027;-0.979541392980172;1.001;0.0002922380024380603
58:25.2;-0.0023319006021349366;-0.18216509441789216;-0.9785428560662951;1.0;0.00041567609402047513
58:25.2;-0.0029492895582260027;-0.1818269525674117;-0.977445325869424;0.9990000000000001;0.0005241651555599238
58:25.2;-0.003444406636305551;-0.18167241696755054;-0.9763505998630991;0.991;0.0006109549795034832
58:25.2;-0.0037819652627395684;-0.1817066646606079;-0.9753691592818261;0.991;0.0006702817757310068
58:25.2;-0.00393619984704296;-0.18192633436651018;-0.9746083557766417;0.991;0.0006979154934634408
58:25.2;-0.0038936161656231995;-0.1823206053982022;-0.9741602008628156;0.987;0.0006915431330583607
58:25.2;-0.003653932525981608;-0.18287230873830063;-0.9740902767150444;0.985;0.0006508901201769956
58:25.2;-0.0032290891237468956;-0.18355920529458897;-0.9744289932061256;0.985;0.0005775723552408845
58:25.2;-0.002640724186005423;-0.18435545382316135;-0.9751666650210659;0.9890000000000001;0.0004747422459393319
58:25.3;-0.0019168304930828272;-0.18523294109677393;-0.9762536705784344;0.991;0.00034662877453566957
58:25.3;-0.0010885522240737606;-0.18616213865247774;-0.9776057750827247;0.9940000000000001;0.00019810908286735054
58:25.3;-0.00018811113921860816;-0.18711259063609043;-0.9791134320423288;0.998;3.4462797949161366e-05
58:25.3;0.0007517883776754845;-0.18805345499184997;-0.980653384164077;1.0;0.00013864124690984023
58:25.3;0.001697903731764924;-0.18895431921553685;-0.9821010073367948;1.004;0.0003150837771464888
58:25.3;0.002617059164040897;-0.18978612267733797;-0.9833420514720658;1.004;0.0004884078165061656
58:25.3;0.00347772029555357;-0.19052196082069386;-0.9842826213126789;1.006;0.000652168036276476
58:25.3;0.004251543278634863;-0.19113772814116878;-0.984856596582293;1.006;0.0008003243345558379
58:25.3;0.004913861879010868;-0.1916125833967986;-0.9850301601032102;1.006;0.0009274628000354288
58:25.3;0.005443108189432228;-0.19192920456410956;-0.9848033561665522;1.0070000000000001;0.001028815621650194
58:25.4;0.005820119424832573;-0.19207396633130877;-0.9842085391281616;1.006;0.0011002402522099911
58:25.4;0.006028504432823617;-0.19203731735933482;-0.9833054768804882;1.002;0.001138370605964131
58:25.4;0.006056590180232751;-0.1918146195895296;-0.9821731720112017;0.998;0.0011410323569776655
58:25.4;0.005900259382722005;-0.19140754141707958;-0.9808993747050443;0.995;0.0011077827718749815
58:25.4;0.0055650660756869355;-0.1908256329387214;-0.9795698217815137;0.9940000000000001;0.0010402612802333931
58:25.4;0.005066155079145133;-0.19008719681276603;-0.9782595321773513;0.9940000000000001;0.0009420749032240802
58:25.4;0.0044256579547561035;-0.18921865619198053;-0.9770276978524789;0.993;0.0008181796534460609
58:25.4;0.0036685480504687665;-0.188252398083077;-0.9759164297767546;0.9940000000000001;0.000673980542072222
58:25.4;0.002818755576355276;-0.18722391274746156;-0.9749525849550315;0.9940000000000001;0.0005145199641396143
58:25.4;0.0018975185366814267;-0.18616934892721204;-0.9741513516861499;0.995;0.0003441285024619125
58:25.5;0.0009251325596125808;-0.18512417687038157;-0.9735201440419092;0.991;0.00016672934685634368
58:25.5;-7.469516008976927e-05;-0.18412289436895926;-0.9730616545779913;0.991;1.3382603607064655e-05
58:25.5;-0.001070680928809726;-0.18319921076775042;-0.972775593479095;0.99;0.00019080789094311104
58:25.5;-0.002023130824338499;-0.18238596330856696;-0.9726593470316313;0.99;0.0003589022185951412
58:25.5;-0.002887819117432988;-0.18171404808241218;-0.9727080866454095;0.9890000000000001;0.0005104356711412864
58:25.5;-0.003623282537198288;-0.18121018321947527;-0.972914700476247;0.9890000000000001;0.0006387921431323716
58:25.5;-0.004198340296625795;-0.1808943000809202;-0.9732696475398;0.988;0.0007391553074602362
58:25.5;-0.004596594835433228;-0.1807778450717812;-0.9737607939293196;0.991;0.0008091587125065727
58:25.5;-0.0048163129696005905;-0.18086376069655902;-0.9743734168378189;0.991;0.0008487732500795045
58:25.6;-0.004866271782595641;-0.18114807217752174;-0.9750905205809247;0.993;0.0008595576536243211
58:25.6;-0.004759674451952309;-0.18162249091758054;-0.975893334074595;0.995;0.0008436245867571958
58:25.6;-0.004508684091167462;-0.18227709297867214;-0.9767615698196922;0.995;0.0008027317941889743
58:25.6;-0.004121592559169788;-0.1831017122687314;-0.9776730338965722;0.991;0.0007378211487277834
58:25.6;-0.003603282964594513;-0.18408457877736426;-0.9786028458909567;0.991;0.0006491159055651099
58:25.6;-0.002958107198970815;-0.1852075607796775;-0.9795235078604927;0.998;0.0005366454896660644
58:25.6;-0.00219365503733538;-0.18643924476865026;-0.9804070085331661;0.998;0.0004009701804038983
58:25.6;-0.0013243426332535863;-0.18772899381339594;-0.9812286188051906;1.002;0.00024395061595287312
58:25.6;-0.0003744275824492731;-0.1890054461605534;-0.9819705255889096;1.004;6.949292706443633e-05
58:25.6;0.0006197577740825388;-0.1901811965641268;-0.9826232581090417;1.002;0.00011581814321565866
58:25.6;0.0016089143522422735;-0.19116295271635017;-0.9831837975789847;0.9990000000000001;0.0003023927460012008
58:25.7;0.002532299734586184;-0.19186471388544643;-0.9836508281365897;0.9990000000000001;0.00047791557234396154
58:25.7;0.003322713304123288;-0.19222079756793706;-0.984019142952282;1.0;0.0006284877142859205
58:25.7;0.0039148397047663284;-0.19219569676178455;-0.9842757272892222;0.9990000000000001;0.0007405841606953534
58:25.7;0.0042549926647352096;-0.19178884000260124;-0.9843992328038484;1.002;0.0008033289436356985
58:25.7;0.004309126668424966;-0.19103403539778852;-0.9843632052437257;1.006;0.0008103178056777643
58:25.7;0.004066739292607467;-0.18999472516436086;-0.9841421410211201;1.006;0.0007604062965278959
58:25.7;0.003540635514199513;-0.18875644818952472;-0.9837184894639138;1.006;0.0006574365609524397
58:25.7;0.002764384538258371;-0.18741748380006953;-0.9830885099053525;1.002;0.0005093322529615349
58:25.7;0.001789127839794164;-0.18607853674561664;-0.9822655640992691;1.002;0.0003270141723970502
58:25.7;0.0006799263145735126;-0.184832826451442;-0.9812804137234515;1.0;0.00012332016150425388
58:25.8;-0.0004891943862496343;-0.18375819108369176;-0.9801787649166993;0.998;8.811167579507958e-05
58:25.8;-0.001642026859462526;-0.18291213288364963;-0.9790165930900603;0.9940000000000001;0.00029404433945785005
58:25.8;-0.002708059494797437;-0.1823296303525955;-0.9778540860810634;0.991;0.00048282473157103907
58:25.8;-0.003629716171443533;-0.18202291150719818;-0.9767495334196219;0.99;0.0006453301197030212
58:25.8;-0.004367418677244257;-0.1819825335218579;-0.9757547314487813;0.992;0.0007755239239032826
58:25.8;-0.004901959159941312;-0.1821795685828535;-0.9749129358174012;0.992;0.0008706331333251981
58:25.8;-0.005234405430841034;-0.1825688161221867;-0.9742592314275285;0.992;0.0009310403150589705
58:25.8;-0.005383906782762431;-0.18309291617932905;-0.9738221897445363;0.9940000000000001;0.0009599502808852639
58:25.8;-0.005383877630934895;-0.18368743477125568;-0.9736253426399607;0.993;0.0009628674360512463
58:25.8;-0.005277177011665073;-0.18428703524177795;-0.9736872659321146;0.99;0.0009469257693040474
58:25.9;-0.005110727758526519;-0.18483234919741953;-0.9740198962755706;0.9890000000000001;0.0009200862890316519
58:25.9;-0.004929890937964042;-0.18527658399068248;-0.974625875030666;0.992;0.0008902167953618156
58:25.9;-0.004773390481350017;-0.1855907080957713;-0.9754962846989143;0.996;0.000864189153551019
58:25.9;-0.00466997931005958;-0.18576607327996025;-0.9766094628622487;0.995;0.0008472318729676288
58:25.9;-0.004637261269456234;-0.18581355905078842;-0.977930504340325;0.992;0.0008426494862215373
58:25.9;-0.004681727215138653;-0.18575931323651934;-0.9794110041875802;0.992;0.00085176870900122
58:25.9;-0.004798588064371316;-0.1856387256579502;-0.9809895713970935;0.997;0.000873869211697203
58:25.9;-0.004970603112039245;-0.18549078533873517;-0.982594253550112;1.001;0.000905952957923795
58:25.9;-0.005166307771633135;-0.18535366044541365;-0.9841473276000935;1.001;0.0009424136315906352
58:25.9;-0.005339497694847588;-0.18526088688088613;-0.9855717090242516;1.003;0.0009749276118808604
58:26.0;-0.00543245550230976;-0.18523757067224542;-0.9867977803033966;1.008;0.000993009534211215
58:26.0;-0.005384093778156667;-0.18529688496320343;-0.9877696091220907;1.01;0.0009854540849800217
58:26.0;-0.005141647410422185;-0.18543762291682203;-0.9884494179883543;1.0090000000000001;0.0009424419149524513
58:26.0;-0.0046725868406992666;-0.1856435344486887;-0.9888190082254488;1.008;0.0008577367465314673
58:26.0;-0.003973097919359186;-0.18588502662704567;-0.9888774974224395;1.004;0.0007303250060124256
58:26.0;-0.0030707923606471225;-0.18612338951262317;-0.988636090313228;1.004;0.0005650512823152316
58:26.0;-0.0020214093118154056;-0.1863168498167258;-0.9881117545357749;1.002;0.0003721452330711507
58:26.0;-0.0009008738481352514;-0.18642708954234985;-0.9873219672425964;1.0;0.00016581804831420588
58:26.0;0.00020528538101146745;-0.18642495609649334;-0.9862822106736988;1.003;3.7745333980587935e-05
58:26.0;0.001213101494292942;-0.18629459998312378;-0.9850069784051884;1.005;0.00022260592083345974
58:26.1;0.002050161364115808;-0.1860357197032535;-0.9835138061932196;1.004;0.0003751153570674437
58:26.1;0.002663206860088432;-0.18566380540388455;-0.981828625638255;1.004;0.00048547608209887185
58:26.1;0.0030224947120947795;-0.1852082336048743;-0.9799903141066606;1.002;0.0005485896664979895
58:26.1;0.0031222372492738515;-0.18470807333117228;-0.9780528581109097;0.993;0.0005640454568075134
58:26.1;0.0029770579099047114;-0.184206007106027;-0.9760846887700172;0.993;0.0005352769863345699
58:26.1;0.0026155614221596434;-0.18374173462628807;-0.9741659617994262;0.993;0.00046817226933311786
58:26.1;0.0020728500040913416;-0.1833466581228408;-0.9723849068852142;0.992;0.00036955500155925737
58:26.1;0.00138356408829507;-0.18304094986640704;-0.9708335280843319;0.99;0.0002458625084328104
58:26.1;0.0005765915394496761;-0.18283295065005145;-0.9696020772318606;0.985;0.00010221538551176813
58:26.1;-0.0003274674963574472;-0.18272012060452106;-0.9687720061348526;0.982;5.7966376524990616e-05
58:26.2;-0.0013152080421691148;-0.1826905453817159;-0.9684082335867578;0.982;0.000232685328893548
58:26.2;-0.0023756786393984352;-0.18272420182460106;-0.9685523848337244;0.983;0.000420442762646924
58:26.2;-0.0034933191667949055;-0.1827939234854858;-0.9692183912782023;0.986;0.0006189016888666697
58:26.2;-0.004641287146729405;-0.18286699987666283;-0.9703906976936509;0.988;0.0008236077084850342
58:26.2;-0.005778393636938059;-0.1829086702973943;-0.9720242540528854;0.988;0.0010273502188350822
58:26.2;-0.006851562074048723;-0.182887716418135;-0.9740453586437043;0.988;0.0012205436489365542
58:26.2;-0.007803060570313893;-0.18278262353694305;-0.9763533820763762;0.988;0.0013925375655681317
58:26.2;-0.008579765793072791;-0.18258607267128796;-0.9788244934976538;0.997;0.0015333733410803926
58:26.2;-0.009141569883647447;-0.1823063850228798;-0.9813184871924172;0.997;0.0016354325744066072
58:26.3;-0.009467011534422006;-0.18196580736506546;-0.9836885967247659;1.001;0.0016945731930137176
58:26.3;-0.00955541849420366;-0.18159631400238405;-0.9857930895782718;1.005;0.0017105765374973237
58:26.3;-0.009425955387737718;-0.1812341427060834;-0.9875072169442534;1.008;0.0016869634608254508
58:26.3;-0.00911450484365383;-0.18091466965976202;-0.9887341141023532;1.0090000000000001;0.0016303707770184655
58:26.3;-0.008669021918011997;-0.1806689815208196;-0.9894131805848492;1.01;0.001549642036825274
58:26.3;-0.008143446759530961;-0.18052254680188579;-0.9895247743843705;1.0090000000000001;0.001454676373635598
58:26.3;-0.007590259120415958;-0.18049538716329386;-0.9890907098151218;1.0090000000000001;0.0013550609573242886
58:26.3;-0.007052448068678979;-0.18060276197718073;-0.9881705988631122;1.0070000000000001;0.001258624591044108
58:26.3;-0.006556456370795315;-0.18085561784932244;-0.9868544487626577;1.002;0.0011701843416832376
58:26.3;-0.006108002981613011;-0.18126050315202286;-0.985252399715435;0.9990000000000001;0.0010908120400393488
58:26.3;-0.005692311748562588;-0.18181898539847605;-0.9834831389241244;0.996;0.001017875885261455
58:26.4;-0.005279038911137996;-0.18252667391374086;-0.9816629944519025;0.9940000000000001;0.0009458965095703894
58:26.4;-0.004830583584695298;-0.18337186321252916;-0.9798975722500984;0.9940000000000001;0.0008679865202874719
58:26.4;-0.004311445463069364;-0.18433396309049233;-0.9782770137839966;0.995;0.0007774815761706314
58:26.4;-0.0036963069035672105;-0.1853822633949989;-0.9768747562210969;0.998;0.0006693836352041222
58:26.4;-0.0029753190390993892;-0.1864757768386131;-0.9757484426839208;0.995;0.0005413695605888909
58:26.4;-0.002156175526163347;-0.18756472971782784;-0.9749409906473439;0.995;0.00039428805308556585
58:26.4;-0.0012634188398870734;-0.18859381327877123;-0.9744802877595347;0.992;0.00023219231898037487
58:26.4;-0.0003357402987504211;-0.18950676373208683;-0.9743771831360579;0.99;6.199480427510839e-05
58:26.4;0.0005779570624930622;-0.19025149885554807;-0.9746225419372551;0.99;0.00010716676324739783
58:26.5;0.0014229643942526048;-0.19078504116258146;-0.9751847524351442;0.99;0.00026474346916742345
58:26.5;0.002143058827445147;-0.19107759599232507;-0.9760091842148236;0.992;0.0003996665169756942
58:26.5;0.0026845533265264514;-0.19111519488600842;-0.9770206738100253;0.9940000000000001;0.0005012691836237179
58:26.5;0.0030002692577571835;-0.19090041089889048;-0.9781293438551374;0.996;0.0005602261581964024
58:26.5;0.0030535036069820197;-0.1904509731703672;-0.9792393172973508;0.998;0.0005694695093601263
58:26.5;0.0028218399085054727;-0.18979650986298577;-0.980259324642358;1.005;0.0005250027465961479
58:26.5;0.0023004317447312883;-0.18897411510788414;-0.9811135858173297;1.005;0.00042651171257321264
58:26.5;0.0015041805687518947;-0.18802387033786605;-0.9817506900681032;1.0070000000000001;0.0002776605485869996
58:26.5;0.0004682863795908152;-0.1869853120405572;-0.9821482124882812;1.0;8.59995245474275e-05
58:26.5;-0.00075296527418593;-0.18589518136423797;-0.9823120136049951;1.0;0.0001374967824746458
58:26.5;-0.0020890581712326743;-0.18478645644588662;-0.9822709432979958;0.9990000000000001;0.0003791857150978546
58:26.6;-0.0034576589138419034;-0.18368864037570667;-0.9820687906757364;0.997;0.0006237439680059554
58:26.6;-0.004770412683392793;-0.18262887569403707;-0.9817553390909214;0.996;0.0008553200807956537
58:26.6;-0.0059396417835425545;-0.18163304039471234;-0.9813779370597673;0.996;0.0010587450590782501
58:26.6;-0.006885322301805901;-0.18072624221996858;-0.9809746325206133;0.995;0.0012206840497465058
58:26.6;-0.007541753080387435;-0.17993268635394963;-0.9805695828613472;0.993;0.0013306406621785927
58:26.6;-0.007863349785205571;-0.17927511337266525;-0.9801711609088842;0.993;0.0013817501517807869
58:26.6;-0.007828971128454721;-0.17877391984960125;-0.9797730303846551;0.9940000000000001;0.0013713058696100434
58:26.6;-0.007444143823989652;-0.17844596624900655;-0.9793582301597541;0.996;0.0013009573762411452
58:26.6;-0.00674053262728672;-0.1783031175725057;-0.9789057186685316;0.9990000000000001;0.0011765056511612462
58:26.6;-0.005772182795729317;-0.17835076484803655;-0.9783980016583667;0.9990000000000001;0.0010072345377462552
58:26.7;-0.004608658826933264;-0.1785867310037913;-0.9778278784159156;0.997;0.0008047966534378202
58:26.7;-0.0033261289635540285;-0.17900092584450777;-0.9772025901848339;0.992;0.0005818070383609149
58:26.7;-0.001998183391477463;-0.1795760175634188;-0.9765448847170917;0.992;0.00035040951492674825
58:26.7;-0.0006881870447741114;-0.18028920959700556;-0.9758918947669896;0.995;0.00012108154068868412
58:26.7;0.000555674916666177;-0.18111469182128898;-0.9752930312380494;0.995;9.81543599276663e-05
58:26.7;0.0017022486134026804;-0.1820257516748721;-0.9748071540456985;0.995;0.0003020470023937683
58:26.7;0.0027363106820706123;-0.18299558904068794;-0.974498303149219;0.993;0.000487963249375893
58:26.7;0.003655069318952523;-0.18399655954771427;-0.9744292706335774;0.99;0.0006553233480897726
58:26.7;0.004463066047610405;-0.184998193787403;-0.9746531859225763;0.987;0.0008047313284037672
58:26.8;0.005166393579172846;-0.18596469839325713;-0.9752044424914328;0.987;0.0009369440747015748
58:26.8;0.005767176144169536;-0.18685302144769572;-0.9760910186723548;0.99;0.0010518496278747124
58:26.8;0.006259226925985713;-0.1876128771507917;-0.9772899904505948;0.991;0.0011476429453024326
58:26.8;0.0066258149826548905;-0.18818986305506727;-0.9787470036184711;0.993;0.001220410614690258
58:26.8;0.0068404434735169495;-0.18853172474547084;-0.9803796363671;0.9940000000000001;0.001264337388438888
58:26.8;0.006871076433442369;-0.18859641183152934;-0.9820844497065069;1.004;0.00127264430930074
58:26.8;0.006687218009780876;-0.1883597075140082;-0.9837473527961582;1.004;0.0012391305545187694
58:26.8;0.006268048991857033;-0.1878203629599509;-0.9852560305038278;1.008;0.0011599096444745748
58:26.8;0.0056091673437698945;-0.18700158470048267;-0.986512282788146;1.011;0.00103477560287757
58:26.8;0.004725822335338434;-0.18594890360619296;-0.9874419897678155;1.012;0.0008677259862125678
58:26.9;0.0036517582461233497;-0.18472539741071828;-0.9880007917180921;1.008;0.0006664781574150947
58:26.9;0.0024343867058171007;-0.1834055885165409;-0.9881743775374245;1.004;0.00044120022104470255
58:26.9;0.0011282614032125811;-0.18206917868922368;-0.9879738612018429;1.0;0.00020295119803086367
58:26.9;-0.00021095909893623335;-0.1807953657166264;-0.9874285671317705;0.9990000000000001;3.766094762025568e-05
58:26.9;-0.0015307717340689864;-0.1796579044702328;-0.9865793905261542;1.0;0.00027132436980332976
58:26.9;-0.0027842331058065854;-0.17872063156081797;-0.985475092643114;1.004;0.0004903723066473245
58:26.9;-0.003931031869871189;-0.17803331091923935;-0.9841718628514974;1.004;0.0006887772242267367
58:26.9;-0.004937674934840187;-0.17762821416989155;-0.9827344739096961;1.001;0.000861927299283895
58:26.9;-0.005777044622837951;-0.17751812032750702;-0.9812367262300369;0.997;0.0010062878004218853
58:26.9;-0.006427560146291666;-0.17769610637312255;-0.9797598978196806;0.996;0.0011190351299613331
58:27.0;-0.006872197773364601;-0.17813701322707332;-0.9783893977157234;0.995;0.001197737242242888
58:27.0;-0.0070977275907528605;-0.17880018676562848;-0.9772103965302362;0.996;0.001240153302385461
58:27.0;-0.007094779480225817;-0.17963302370612286;-0.9763027266293294;0.9940000000000001;0.0012442555419658113
58:27.0;-0.0068593827485115815;-0.18057501151443411;-0.9757346938324725;0.993;0.0012085773069376042
58:27.0;-0.006395979451859302;-0.18156226180797955;-0.9755554580936547;0.99;0.0011328818193478871
58:27.0;-0.005720911458241595;-0.18253259173869016;-0.9757864582765068;0.986;0.001018967736944747
58:27.0;-0.004864931896520284;-0.18343079471444415;-0.9764135528409216;0.986;0.0008713302898251863
58:27.0;-0.003873669994537438;-0.1842132679257698;-0.9773824411507406;0.9890000000000001;0.000697441939057903
58:27.0;-0.002805643239596238;-0.18485107328212103;-0.9785997657225244;0.992;0.0005075274426722208
58:27.0;-0.0017280597132437923;-0.18533079128603833;-0.9799409300666906;0.995;0.00031383850266929924
58:27.1;-0.0007113154381654252;-0.18565308416966353;-0.9812638999735339;1.003;0.000129583654797173
58:27.1;0.0001766007719651093;-0.18582955488568906;-0.9824267954204664;1.006;3.224093169518141e-05
58:27.1;0.0008749685987604948;-0.18587882854954488;-0.9833060720688053;1.0070000000000001;0.0001599230687980103
58:27.1;0.0013343194569153981;-0.18582263202177546;-0.9838119153010463;1.0070000000000001;0.00024393297039633749
58:27.1;0.001519793631599008;-0.1856823632349373;-0.9838984580055263;1.005;0.0002776550361379788
58:27.1;0.001414082242251033;-0.1854764842291375;-0.9835679867767791;1.005;0.00025796923066297877
58:27.1;0.0010198239609626359;-0.18521901256683196;-0.9828694399898992;1.005;0.0001856549820787253
58:27.1;0.00036099975898314194;-0.18491931462680936;-0.9818918549423526;1.0;6.554700379452845e-05
58:27.1;-0.0005171419442801187;-0.1845832243638554;-0.9807534289885553;0.998;9.36185320906812e-05
58:27.1;-0.0015498520386517485;-0.18421521892645523;-0.9795871960831868;0.9940000000000001;0.00027967834781939406
58:27.2;-0.002656323822027832;-0.18382105323163783;-0.9785250068655388;0.991;0.0004778022560300518
58:27.2;-0.0037446724855878136;-0.18341007580953358;-0.9776819802906074;0.9890000000000001;0.0006714824105174172
58:27.2;-0.00471828166845348;-0.18299662211595097;-0.9771435343384904;0.9890000000000001;0.0008436946583432204
58:27.2;-0.005483366793805609;-0.1826002522880941;-0.9769565648076906;0.9890000000000001;0.00097819159415717
58:27.2;-0.005957520087954097;-0.18224483947484157;-0.9771255621496845;0.991;0.0010608918906318667
58:27.2;-0.006078683368559514;-0.1819566739759753;-0.977613678087588;0.993;0.0010812964596639244
58:27.2;-0.005813508558052233;-0.18176194241669488;-0.9783481147052284;0.993;0.00103379561036637
58:27.2;-0.00516361359592247;-0.1816839527042048;-0.9792288748034224;0.995;0.0009186593859682916
58:27.2;-0.004168142939871296;-0.18174027496013292;-0.9801399871214347;0.996;0.0007424750980524307
58:27.2;-0.002901545563011418;-0.18193995031960444;-0.9809625013856278;0.9990000000000001;0.0005178570257451614
58:27.3;-0.0014664482448014853;-0.18228126989566695;-0.981588400058423;1.002;0.0002623845162754473
58:27.3;1.7479527912528775e-05;-0.18275092920190564;-0.981934081292876;1.006;3.136690197884895e-06
58:27.3;0.0014270630999068331;-0.18332508982906404;-0.9819515442701527;1.0070000000000001;0.00025689469768744235
58:27.3;0.0026495935080943795;-0.18397211503084887;-0.981635180157717;1.006;0.00047849936595203204
58:27.3;0.0035950409377002624;-0.18465609434271657;-0.9810225253449775;0.997;0.0006512480937703926
58:27.3;0.004204457756370815;-0.1853401038101714;-0.9801888168423991;0.997;0.0007638166806906114
58:27.3;0.004453434845516805;-0.1859883608088911;-0.979237172996464;0.997;0.0008110894662230859
58:27.3;0.004350733109441197;-0.18656687924265716;-0.9782870718925422;0.997;0.0007940782563058129
58:27.3;0.003933002844477922;-0.1870429103296742;-0.9774626974633221;0.998;0.0007190609504035903
58:27.3;0.0032567953360490834;-0.1873842400880441;-0.9768809747574396;0.9940000000000001;0.0005961632226399715
58:27.4;0.0023891468063757053;-0.18755983445992566;-0.9766384894342569;0.99;0.0004376395002065042
58:27.4;0.0013979481585772815;-0.18754280968341946;-0.976797507686425;0.985;0.0002560920091182504
58:27.4;0.00034334487515615586;-0.18731529206842898;-0.977373326225371;0.981;6.285853942983507e-05
58:27.4;-0.0007283707010689798;-0.18687332026635264;-0.9783269355106144;0.983;0.0001331630643549604
58:27.4;-0.0017870742711468277;-0.18622959748696594;-0.9795670347421485;1.002;0.00032600590626257625
58:27.4;-0.0028170680427477596;-0.18541296149260977;-0.9809627089484381;1.002;0.0005123773529932651
58:27.4;-0.003812405523541477;-0.18446512989961977;-0.9823636551110309;1.002;0.0006908530168829364
58:27.4;-0.004771113032843917;-0.18343619123726038;-0.9836224056607019;1.0070000000000001;0.0008608612172607393
58:27.4;-0.005689927056603062;-0.18238000496038295;-0.9846141982347876;1.011;0.0010217626332843686
58:27.4;-0.0065605663558283836;-0.1813501527284132;-0.9852521366955072;1.01;0.0011722132970370328
58:27.5;-0.007367935948457996;-0.1803969569213747;-0.9854958556575165;1.008;0.0013098749936807975
58:27.5;-0.008090142752272432;-0.1795658022446091;-0.9853523531201321;1.004;0.0014314341469303302
58:27.5;-0.008700022893495108;-0.17889638920268466;-0.9848691790700086;1.0;0.0015328530313563115
58:27.5;-0.009168111838567826;-0.17842224323347675;-0.984121919442749;0.997;0.001609821794390084
58:27.5;-0.009467119752748613;-0.1781700012678849;-0.983198895099452;0.995;0.0016584173614477068
58:27.5;-0.009577370167269889;-0.1781582351030741;-0.9821861308158361;0.9890000000000001;0.0016758917860023748
58:27.5;-0.009491681934725785;-0.1783957155941524;-0.9811553921697971;0.9890000000000001;0.001661366280246745
58:27.5;-0.009218009288773824;-0.1788793817247566;-0.9801576568930374;0.992;0.001616193528574391
58:27.5;-0.008779188710579804;-0.1795927351026721;-0.9792233238425442;0.997;0.0015439203736565736
58:27.5;-0.008210485539740771;-0.1805054812850429;-0.978368425244741;1.001;0.0014499788358499099
58:27.6;-0.007556275092459689;-0.1815749255972649;-0.9776038693038513;1.002;0.001341301922542526
58:27.6;-0.006866830227647665;-0.1827490795158038;-0.9769436573930482;1.0;0.0012259733397917349
58:27.6;-0.006195194751280156;-0.18397083674702938;-0.9764087592518008;0.995;0.001112847395603077
58:27.6;-0.005593313971669221;-0.18518236652453457;-0.9760254430635408;0.99;0.0010109506766524125
58:27.6;-0.00510686001978134;-0.18632928932867912;-0.9758192717473917;0.9890000000000001;0.0009285482424884392
58:27.6;-0.00476956408916418;-0.18736467396848203;-0.9758075905171009;0.991;0.0008720283265300702
58:27.6;-0.004599022636902357;-0.18825261884615768;-0.9759934673010631;0.991;0.0008449937263295363
58:27.6;-0.0045956577779404165;-0.18897041012949237;-0.9763629577312246;0.991;0.000847915903292109
58:27.6;-0.004745151470982327;-0.1895081923143578;-0.9768862372281295;0.995;0.0008784601401280222
58:27.6;-0.0050233137246512485;-0.18986614698221677;-0.9775221777450056;0.996;0.0009323188366722826
58:27.7;-0.005401571852302357;-0.19005032318571438;-0.9782252526133072;0.9990000000000001;0.0010042171634461379
58:27.7;-0.005851351732783724;-0.19006853039555782;-0.9789532160900017;1.0;0.0010887504792678976
58:27.7;-0.006346569391492562;-0.18992724356076693;-0.9796739569814923;1.003;0.001180885694151151
58:27.7;-0.006864625458896867;-0.1896299011280563;-0.9803700748081416;1.005;0.0012761852226427443
58:27.7;-0.007386795158990637;-0.18917658742681207;-0.9810398382987582;1.003;0.0013709136052802542
58:27.7;-0.007898512895076456;-0.18856491185999866;-0.9816935838278295;0.996;0.001462117134053028
58:27.7;-0.00838936610441475;-0.18779195836832455;-0.9823459078080642;0.996;0.0015476422537483074
58:27.7;-0.00885225721968672;-0.18685730353485258;-0.9830058515619601;0.996;0.001625998741845843
58:27.7;-0.009281374440961642;-0.18576690993154593;-0.9836681952555625;0.996;0.0016960134052853165
58:27.7;-0.009669224682445512;-0.18453714576146;-0.9843083090150834;0.998;0.0017563319520023737
58:27.8;-0.010003633417443038;-0.18319775497387078;-0.9848816966453521;0.9990000000000001;0.0018049367280657987
58:27.8;-0.010265880682832493;-0.18179275230935804;-0.9853282982889022;1.001;0.0018388814545008518
58:27.8;-0.010430876470094762;-0.18037879705044285;-0.985580792435022;1.005;0.0018543790817741042
58:27.8;-0.010469588708795854;-0.17902120921675832;-0.9855753488511186;1.0070000000000001;0.0018472426181327431
58:27.8;-0.010353070423710493;-0.17778830309790217;-0.9852625825663887;1.006;0.0018135283240144227
58:27.8;-0.010056763397972887;-0.17674507330217648;-0.9846163287547727;1.001;0.0017501391639347093
58:27.8;-0.0095637071356245;-0.17594739074061397;-0.9836387764862575;1.001;0.0016551781330875453
58:27.8;-0.008865949092144512;-0.17543778429345686;-0.9823619264373776;1.0;0.0015279878085366508
58:27.8;-0.007964317812153187;-0.17524351640577057;-0.9808460791949767;0.998;0.0013689620265434407
58:27.8;-0.006867238734139846;-0.1753769362987201;-0.9791758585991421;0.996;0.0011792756251689878
58:27.9;-0.0055894351650549005;-0.17583744300236887;-0.9774539300143609;0.995;0.0009606729884820965
58:27.9;-0.004151251401894122;-0.17661422442469113;-0.9757925867421838;0.992;0.0007154218964278165
58:27.9;-0.0025788582468321327;-0.1776889127774604;-0.9743036455334595;0.987;0.00044645956148122676
58:27.9;-0.0009048231164870634;-0.17903697215033712;-0.9730876467730324;0.983;0.00015763707624355592
58:27.9;0.0008320568381125522;-0.18062653715456248;-0.9722241575867608;0.985;0.00014611707110341528
58:27.9;0.0025883069770168132;-0.18241449091585682;-0.9717652366856188;0.985;0.0004588138057046478
58:27.9;0.004317833397114287;-0.18434151416729744;-0.9717331804661171;0.985;0.000773456803253885
58:27.9;0.005972720616832897;-0.18632908279881524;-0.9721222695034804;0.99;0.00108186666352408
58:27.9;0.007502140376547156;-0.18828091672224276;-0.9729034217626158;0.993;0.0013742356833401298
58:27.9;0.008850798272877687;-0.19008958377170695;-0.9740302959150332;0.998;0.001638751972382887
58:28.0;0.00995930913999673;-0.1916469430389594;-0.9754450700435942;0.997;0.00186180386502642
58:28.0;0.01076811506841003;-0.19285597895770762;-0.9770822356212668;0.997;0.002029102157801552
58:28.0;0.01122473311325123;-0.19364168511380425;-0.9788697183211622;0.997;0.002127647956906652
58:28.0;0.011292267408495642;-0.19395929514133314;-0.9807280899478072;0.995;0.002148030114449912
58:28.0;0.010956018099836371;-0.19379867478227344;-0.9825697707396122;0.997;0.0020862528488830934
58:28.0;0.010225353947960918;-0.19318429399991177;-0.9843003780922406;1.005;0.0019443650990126767
58:28.0;0.009130164091122512;-0.19217115549691913;-0.9858234490628416;1.005;0.0017296806565163954
58:28.0;0.007714049916784018;-0.19083792432921937;-0.987048006136844;1.0070000000000001;0.001453066213156684
58:28.0;0.006027723576145749;-0.18927871470690577;-0.9878972016493714;1.008;0.0011271114491774956
58:28.0;0.004125121933183958;-0.18759473116432954;-0.9883163235163741;1.008;0.0007648097137085942
58:28.1;0.0020629424862730304;-0.18588672849397841;-0.9882790379558152;1.008;0.0003789789499841741
58:28.1;-9.713030087559897e-05;-0.18424892154991046;-0.9877912187574898;1.0070000000000001;1.767766296681531e-05
58:28.1;-0.0022852292609932766;-0.1827643289481215;-0.9868921042956488;1.0070000000000001;0.0004121837697307094
58:28.1;-0.004421286011128497;-0.18150106372206065;-0.9856527650701983;1.005;0.0007909549154834921
58:28.1;-0.006415924063422398;-0.18050922553942003;-0.9841718130209464;1.004;0.0011398023304796886
58:28.1;-0.008175008765934967;-0.17981850842937688;-0.982568176069275;0.997;0.001444392789781481
58:28.1;-0.00960746686826206;-0.17943695857297354;-0.9809710693711319;0.997;0.0016911300018642537
58:28.1;-0.010634927032726909;-0.1793513231132294;-0.9795080127020676;0.995;0.0018683020590579617
58:28.1;-0.011201197349961918;-0.17952922969305085;-0.9782921636043164;0.991;0.0019672891247369323
58:28.1;-0.01127985960723058;-0.17992330676490076;-0.9774101148184662;0.988;0.0019836632506258335
58:28.2;-0.010878751363164432;-0.1804772449074622;-0.9769113344434962;0.987;0.0019180355483196568
58:28.2;-0.01004037328749509;-0.1811332811187443;-0.9768008308612106;0.988;0.0017764546866956678
58:28.2;-0.008837691588459125;-0.1818397106961858;-0.9770367289657376;0.988;0.0015701403112268002
58:28.2;-0.00736584572296858;-0.18255660763479592;-0.977533883097646;0.99;0.0013144739839293744
58:28.2;-0.005731572821592855;-0.18325851546880612;-0.9781737470779285;0.993;0.0010274341139000795
58:28.2;-0.004042708386176856;-0.18393394007432165;-0.9788197772046857;1.002;0.0007278418530187293
58:28.2;-0.0023994492313503413;-0.1845822862022067;-0.9793365261416342;1.002;0.00043374405845209794
58:28.2;-0.0008879545214311571;-0.18520934805292166;-0.9796093592460368;1.005;0.00016110408466140386
58:28.2;0.00042378384156667654;-0.18582257172382854;-0.9795612268987118;1.005;7.713907846013506e-05
58:28.2;0.0014879448584361992;-0.18642689014077996;-0.9791636634588482;1.003;0.0002716130801601991
58:28.3;0.002276669215159937;-0.18702140577844667;-0.9784405430535921;1.0;0.0004166061648257456
58:28.3;0.0027794422983265133;-0.1875971018172223;-0.9774644595693515;0.997;0.0005096649438129689
58:28.3;0.0029983968156102225;-0.18813590702773242;-0.9763467199936487;0.996;0.0005507631448900615
58:28.3;0.002942970274164283;-0.18861142387405072;-0.9752226100125252;0.992;0.0005413244343624914
58:28.3;0.002626178171793583;-0.18899143011698274;-0.9742338372228839;0.985;0.00048353677334914423
58:28.3;0.0020642618384834697;-0.1892419210129291;-0.9735103896396561;0.985;0.00038029684523939575
58:28.3;0.0012796489387201233;-0.18933202805387897;-0.9731545033012733;0.985;0.00023577444132074504
58:28.3;0.00030545130736188344;-0.18923897358072808;-0.9732292137309356;0.986;5.625585231137796e-05
58:28.3;-0.0008108020393314361;-0.18895243943241113;-0.9737527457845141;0.991;0.00014918186453119053
58:28.3;-0.0020062107577932843;-0.18847785592745497;-0.9746985079574312;0.993;0.0003685591425420966
58:28.4;-0.0032055916859638094;-0.1878378942990773;-0.9759994228144261;0.993;0.0005876800865178247
58:28.4;-0.004328522519771199;-0.18707148282924765;-0.9775550035658888;0.995;0.000791568444652535
58:28.4;-0.005298745949258341;-0.18623040513967482;-0.9792399990334559;0.9940000000000001;0.0009663018932318706
58:28.4;-0.0060534244280329354;-0.1853743626265742;-0.9809142997853715;0.992;0.0011007326823789883
58:28.4;-0.006549803715061263;-0.18456559623403046;-0.982434573727889;1.006;0.0011876341386434328
58:28.4;-0.006767945843581496;-0.18386391958972378;-0.9836678561727964;1.006;0.0012240576400813533
58:28.4;-0.006709725373842256;-0.1833226866825248;-0.9845057121021302;1.006;0.0012109862128989264
58:28.4;-0.006395206591279251;-0.18298583713188865;-0.98487624093478;1.0090000000000001;0.0011525339214134666
58:28.4;-0.0058575857469641114;-0.18288579201327285;-0.9847516327090765;1.0070000000000001;0.0010549341022587076
58:28.4;-0.005137727236440697;-0.1830417810319885;-0.9841503010667757;1.003;0.000925513389854038
58:28.5;-0.00427916825989216;-0.1834581271037652;-0.9831336783568001;1.0;0.0007718073191674773
58:28.5;-0.0033240891362369173;-0.18412208578285255;-0.9817987442862549;0.997;0.0006008983608505746
58:28.5;-0.0023104540278657657;-0.18500141579029594;-0.9802680620928581;0.998;0.0004190031006762502
58:28.5;-0.0012706542615511557;-0.18604303835221636;-0.9786787504559389;1.0;0.00023135611331523464
58:28.5;-0.00023202808125287586;-0.18717486803732286;-0.9771706644854892;0.9890000000000001;4.243835143202472e-05
58:28.5;0.0007809375229162872;-0.18831188464006832;-0.9758736038705685;0.9890000000000001;0.00014351179333344714
58:28.5;0.0017436891692779735;-0.18936531385828648;-0.9748944928995137;0.9890000000000001;0.00032190455280374947
58:28.5;0.0026292564488143186;-0.19025255617279085;-0.9743067039082294;0.988;0.00048737038873052503
58:28.5;0.0034075831794321363;-0.1909060110374355;-0.9741433552535784;0.9890000000000001;0.0006337076377724609
58:28.5;0.004047145380896771;-0.19127970018416188;-0.974395290698857;0.99;0.0007543152084870176
58:28.6;0.00451843373311611;-0.19135276840644133;-0.9750137867327776;0.992;0.0008430113538137528
58:28.6;0.004797632555667109;-0.19112936701610211;-0.9759175795658234;0.995;0.0008948856532358114
58:28.6;0.0048685150628124;-0.1906354079875899;-0.977003199416387;0.996;0.0009067677635359096
58:28.6;0.00472179781256959;-0.1899133701882514;-0.9781571882692367;0.997;0.0008771453759773786
58:28.6;0.004352981759028243;-0.1890162766910462;-0.9792687649077539;1.002;0.0008057270676736551
58:28.6;0.0037605910828130465;-0.18800166963817377;-0.9802415825241705;1.002;0.0006930282525644276
58:28.6;0.002946252246685727;-0.1869263761156358;-0.9810031372799157;1.002;0.0005402700705404429
58:28.6;0.0019169025752143374;-0.18584274835485298;-0.9815105116941836;1.002;0.0003496557024241757
58:28.6;0.0006883578511691029;-0.18479653214250838;-0.9817518663827458;1.0;0.0001248848690606846
58:28.6;-0.0007111935551831403;-0.1838259477608099;-0.9817440542421135;0.998;0.00012834912311418908
58:28.7;-0.002239223588959298;-0.182961317788387;-0.9815274601514644;0.996;0.00040212325981876096
58:28.7;-0.0038392019272366707;-0.18222460829111234;-0.981159600527104;0.996;0.0006864163791224114
58:28.7;-0.005443262125478318;-0.18162865185767074;-0.9807089565705335;0.998;0.0009695802259150758
58:28.7;-0.006976898328349546;-0.18117655304522232;-0.9802497014708285;1.0;0.0012390850175174012
58:28.7;-0.008365174711106215;-0.18086216752379244;-0.979856795572648;0.996;0.0014824680971404216
58:28.7;-0.009539439820241597;-0.1806720813650602;-0.9796004022467141;0.996;0.0016883515275296515
58:28.7;-0.010443150873504921;-0.18058870835885604;-0.9795392319943431;0.996;0.0018473278555419448
58:28.7;-0.011035744402548155;-0.18059376770232263;-0.9797134011228265;0.9940000000000001;0.0019525557400955882
58:28.7;-0.011294434609423457;-0.18067152690021068;-0.9801377888485545;0.991;0.002000052260978939
58:28.7;-0.01121460107540945;-0.1808113493182238;-0.9807970599286547;0.991;0.00198878882951969
58:28.8;-0.010809473633828602;-0.18100909804436108;-0.9816439125337884;0.9940000000000001;0.0019206973120918847
58:28.8;-0.010109214344155671;-0.1812669300903865;-0.9826020732253626;0.996;0.001800585136159944
58:28.8;-0.009158852169651692;-0.18159119279440294;-0.9835746066956556;0.9990000000000001;0.0016358487198137597
58:28.8;-0.008014509861344237;-0.1819887181695033;-0.9844567610113802;1.005;0.0014358797793451992
58:28.8;-0.006737943563014853;-0.1824625375460034;-0.9851513880665399;1.008;0.0012111670660061912
58:28.8;-0.005390086661566738;-0.18300823251974757;-0.9855840882140661;1.011;0.0009722099418388012
58:28.8;-0.004024949967163375;-0.18361164116993522;-0.9857149214337481;1.011;0.0007284706007820489
58:28.8;-0.002685774975521859;-0.18424804717650825;-0.9855441122624063;1.0090000000000001;0.0004876953157765728
58:28.8;-0.001405023323830216;-0.1848827766147177;-0.9851104515446303;1.004;0.0002558968355211787
58:28.8;-0.00020826095584673617;-0.18547320935600428;-0.9844827007057153;0.9990000000000001;3.8027443815681885e-05
58:28.9;0.0008799116246908263;-0.18597226963781008;-0.983745953324515;0.997;0.00016097936334858872
58:28.9;0.001830829848240112;-0.18633331085284704;-0.9829861015312895;0.9940000000000001;0.00033534038786050066
58:28.9;0.0026101992618682824;-0.18651596180128652;-0.982275796909421;0.993;0.00047821490697813607
58:28.9;0.0031808813565783645;-0.18649217304523957;-0.9816646338234116;0.995;0.0005823327634184038
58:28.9;0.0035090245970798863;-0.186251583139947;-0.981175082329017;0.996;0.0006412581471896648
58:28.9;0.003571570051902346;-0.18580540607325224;-0.9808042475802622;1.0;0.0006508783957221485
58:28.9;0.003363363375728553;-0.18518831938693334;-0.9805301768053184;1.0;0.000610728722415994
58:28.9;0.0029028309235939577;-0.1844582450513273;-0.980320623823278;1.0;0.0005249137542680977
58:28.9;0.002235585758146381;-0.18369411949359155;-0.9801421923229324;1.001;0.0004025090715092572
58:28.9;0.0014350732390082863;-0.18299151480599843;-0.9799683901096822;1.001;0.0002573458003924071
58:29.0;0.0005989573416153163;-0.1824555745819385;-0.9797857273691244;1.0;0.00010707402741758856
58:29.0;-0.0001599239844256363;-0.1821907213076882;-0.9795973282405622;0.996;2.854220024277471e-05
58:29.0;-0.0007284078195376933;-0.18228743456689367;-0.9794239494974927;0.9940000000000001;0.00013004751313602938
58:29.0;-0.0010124799798365014;-0.18280794001213035;-0.9793030452368755;0.993;0.0001812585929044967
58:29.0;-0.0009577957662378591;-0.18377387514065338;-0.9792871077694827;0.9990000000000001;0.0001723720010134948
58:29.0;-0.0005656296532788091;-0.18515888437267067;-0.9794421479353865;0.9990000000000001;0.00010257830385488667
58:29.0;0.00010108560524399988;-0.18688783670985792;-0.9798458848797948;0.9990000000000001;1.8510925192820387e-05
58:29.0;0.0009244777783265493;-0.18884314817460654;-0.980584194946028;1.005;0.00017119165770478919
58:29.0;0.0017511670103226551;-0.19087789504206681;-0.9817443611915572;1.006;0.0003281569598960616
58:29.0;0.0024214625442206578;-0.19283417342683823;-0.9834041270957256;1.005;0.000459191439219822
58:29.1;0.0028020995215385374;-0.19456358438624197;-0.9856162751996705;1.001;0.0005373447137523592
58:29.1;0.0028140486216095893;-0.1959461487996515;-0.9883900219594275;0.998;0.0005450002249446427
58:29.1;0.002447755352810018;-0.19690464165457958;-0.9916727734070807;0.997;0.0004779608806405991
58:29.1;0.0017622215495620235;-0.19741227923132884;-0.9953374795482612;0.998;0.0003462621555399747
58:29.1;0.0008695913013097255;-0.1974925573639689;-0.9991809208149082;1.004;0.00017159714309169017
58:29.1;-8.927759443710077e-05;-0.197211320593201;-1.002936367638265;1.028;1.765825160871508e-05
58:29.1;-0.0009714966901560598;-0.19666294901924392;-1.006300107008883;1.028;0.0001922610861388705
58:29.1;-0.0016550175605972717;-0.19595405901463067;-1.008966665921058;1.0390000000000001;0.00032721536492941926
58:29.1;-0.002053708508000742;-0.19518829081010125;-1.0106651415112156;1.043;0.0004051350805625582
58:29.1;-0.00212363935961073;-0.19445473780599268;-1.0111898663727534;1.044;0.0004175726095991558
58:29.2;-0.0018621006840926365;-0.19382136682054493;-1.0104206577390997;1.04;0.00036467587039152514
58:29.2;-0.0013017632015231533;-0.19333354275316278;-1.0083299837991178;1.033;0.0002537709360136513
58:29.2;-0.0005020339615772743;-0.1930162731566057;-1.0049770455601326;1.023;9.738300358115236e-05
58:29.2;0.0004605638181494362;-0.1928778626799581;-1.000491653344561;1.014;8.887623970000958e-05
58:29.2;0.0015008265038926392;-0.19291314653546984;-0.9950528050310734;1.0;0.0002880968060498719
58:29.2;0.0025303155984846048;-0.19310573676687828;-0.9888676394329068;1.0;0.0004831789810450356
58:29.2;0.003460043289120601;-0.19342959579569236;-0.9821557260588741;1.0;0.0006573320524258836
58:29.2;0.004202787476238231;-0.19385045015095012;-0.9751410381809147;0.995;0.0007944593435865025
58:29.2;0.004677461757415094;-0.19432759837209032;-0.9680502925062046;0.992;0.0008799189065542104
58:29.2;0.004816082917373892;-0.19481685667836937;-0.961113900958104;0.988;0.0009017690922270054
58:29.3;0.0045719266300053504;-0.1952752425446318;-0.954565539888079;0.982;0.0008522209188278805
58:29.3;0.003926569939738429;-0.19566705634841985;-0.9486373412079467;0.972;0.0007288384313020703
58:29.3;0.0028936059093183997;-0.19596985068680922;-0.9435493356554329;0.961;0.0005350486314818342
58:29.3;0.0015173813006262066;-0.1961783881811776;-0.9394940941201658;0.9520000000000001;0.00027966617598835613
58:29.3;-0.00013388467173556208;-0.1963053098027039;-0.9366198185849878;0.948;2.4616496797876623e-05
58:29.3;-0.001979480687146709;-0.19637837377985126;-0.935016104083136;0.948;0.00036346619047802935
58:29.3;-0.003939050844666496;-0.19643519522055894;-0.9347056932374809;0.948;0.0007232455620278899
58:29.3;-0.005943483113191464;-0.1965168976272503;-0.9356436007096812;0.953;0.0010928269187639678
58:29.3;-0.007941950527021001;-0.19666192982731104;-0.9377232199001566;0.956;0.0014646105024549191
58:29.3;-0.009904902739518736;-0.19690105132585678;-0.9407879603068133;0.96;0.0018348053646980464
58:29.4;-0.011823290192886542;-0.19725429141112863;-0.9446465693060335;0.9670000000000001;0.0022030997498413652
58:29.4;-0.013704123107897448;-0.197730082846977;-0.949090382331143;0.972;0.0025717667207739
58:29.4;-0.015562651678177546;-0.19832594272026446;-0.9539109255003965;0.978;0.002944224670853124
58:29.4;-0.017412478043777154;-0.19902992723225144;-0.9589162943683817;0.986;0.003323224373637031
58:29.4;-0.019256173009753526;-0.19982267650599672;-0.9639445816759283;0.996;0.0037090852692515147
58:29.4;-0.02107893100126259;-0.20068010602387173;-0.9688723881362892;0.996;0.004098448509083
58:29.4;-0.02284610681727147;-0.2015762893855605;-0.9736166114694275;0.996;0.0044837317760331435
58:29.4;-0.024504006773854566;-0.2024857527692114;-0.9781290544385876;0.9990000000000001;0.00485319491879137
58:29.4;-0.025983350189754856;-0.2033848284057039;-0.9823854672440033;1.001;0.005191533121399374
58:29.4;-0.02720525224613817;-0.20425227464453274;-0.9863718845302629;1.003;0.005481006832058709
58:29.5;-0.028089236505786805;-0.20506949534107458;-0.9900711059461227;1.005;0.005703052686920282
58:29.5;-0.028562156065486972;-0.20582054048523724;-0.9934517604780025;1.0090000000000001;0.005840183404593946
58:29.5;-0.02856678325874145;-0.20649199263956647;-0.9964618832374533;1.014;0.0058779413127894795
58:29.5;-0.028069249654803383;-0.20707284235320492;-0.99902800188393;1.0170000000000001;0.005806729687003871
58:29.5;-0.02706504603034285;-0.20755424869889494;-1.0010596357011605;1.021;0.00562341776160525
58:29.5;-0.025583467743549543;-0.20792876567278865;-1.002458341842777;1.0270000000000001;0.0053326161145331435
58:29.5;-0.02369004762343506;-0.20818879356883202;-1.003129824783385;1.0270000000000001;0.004947438737761743
58:29.5;-0.02148595288697959;-0.20832479891539518;-1.0029969690493599;1.0290000000000001;0.004489471418422467
58:29.5;-0.019103119757675893;-0.2083244803671193;-1.0020114611753337;1.028;0.003987652403340226
58:29.5;-0.016694456739959958;-0.20817390941473723;-1.0001622077586556;1.026;0.003475914053899453
58:29.6;-0.01441957677418791;-0.20786082157660804;-0.9974796068379561;1.022;0.002989710788669636
58:29.6;-0.0124276947976771;-0.20737910063787043;-0.9940355375635651;1.0190000000000001;0.002561872294101872
58:29.6;-0.010840347583591306;-0.20673265358624776;-0.9899395434359187;1.013;0.002218507797121584
58:29.6;-0.009737414581104992;-0.20593682474625555;-0.9853319939771319;1.005;0.001975878601415685
58:29.6;-0.009149884112298473;-0.2050163446947725;-0.9803753575952237;0.993;0.0018390624034099032
58:29.6;-0.009061040761107591;-0.20400034026414382;-0.9752454245841425;0.993;0.0018026976698503564
58:29.6;-0.009414809687698608;-0.2029164924968403;-0.9701246084183943;0.993;0.001853345609007007
58:29.6;-0.01012808000880253;-0.20178685916957886;-0.9651981483296391;0.991;0.001972588441897906
58:29.6;-0.011104004210119995;-0.20062686560499848;-0.9606516407582224;0.987;0.0021401027981597575
58:29.6;-0.01224404473833358;-0.1994476165892427;-0.9566669181043421;0.98;0.0023362241810744614
58:29.7;-0.013456717838062078;-0.19826074752280934;-0.9534140420468368;0.973;0.002543650446600791
58:29.7;-0.014661469168099918;-0.19708436801110876;-0.9510393270576722;0.968;0.0027480722495963057
