Time;AccX;AccY;AccZ;Acc-old;Acc-trns
55:47.4;0.03345238447585704;-0.2549599512602802;-0.9119460479925284;0.948;0.007778004546080373
55:47.4;0.025648886294277872;-0.24558771428135745;-0.9241142653924872;0.966;0.005821043219175523
55:47.4;0.018249885136883887;-0.2368110416967474;-0.9355557321706541;0.987;0.004043260728972652
55:47.4;0.011678880538071508;-0.22915229541652682;-0.9455710819714317;1.016;0.002530577311337907
55:47.4;0.006262406448889513;-0.22302476603860125;-0.9536314069204298;1.016;0.0013319100298442568
55:47.4;0.002204516384863785;-0.21869021693305823;-0.9594336836093941;1.021;0.00046254889515674253
55:47.4;-0.0004151561417538163;-0.21623612065532;-0.9629191708949849;1.004;8.644294250689375e-05
55:47.4;-0.0016239118711613993;-0.21557753086397238;-0.9642516464947488;0.983;0.0003375641668417146
55:47.4;-0.0015257156167804017;-0.21648140822653295;-0.9637623852015845;0.966;0.0003183201773543127
55:47.5;-0.00026672322014976025;-0.2186067250884662;-0.9618769431999532;0.956;5.608462992173694e-05
55:47.5;0.0019939866853386553;-0.2215522370163741;-0.9590423969247114;0.955;0.0004236782798613779
55:47.5;0.005101097878675607;-0.22490412357680373;-0.9556714738630161;0.963;0.0010964016937633002
55:47.5;0.00890482455196952;-0.22827709433420174;-0.9521130490233454;0.976;0.0019354244378917032
55:47.5;0.013251539017009307;-0.23134477893519736;-0.9486493550963383;0.991;0.0029082500087624836
55:47.5;0.017971097879870317;-0.23385782882347775;-0.9455119022048729;0.991;0.003973685787661088
55:47.5;0.022868742691512733;-0.23565051077187524;-0.9429034623552649;0.9890000000000001;0.005081335890545426
55:47.5;0.027725883576343535;-0.2366380882343703;-0.9410142898699285;0.982;0.0061739948349896975
55:47.5;0.03230864047294789;-0.23680752973115218;-0.9400258390902592;0.975;0.007192071272062237
55:47.5;0.036379375445417785;-0.23620344735623017;-0.9401011621952823;0.9690000000000001;0.008078227139358334
55:47.6;0.03970856031306886;-0.2349110873223346;-0.9413651552614299;0.9640000000000001;0.008781036356847375
55:47.6;0.04208961642912234;-0.23303930535669803;-0.9438797093854512;0.9440000000000001;0.009258077142051662
55:47.6;0.04336005260075918;-0.2307073192452651;-0.9476204526693013;0.951;0.009479503665266181
55:47.6;0.043426302806218495;-0.2280377383750171;-0.9524633486023999;0.986;0.009432088220942453
55:47.6;0.04228386356800582;-0.22515512586495937;-0.9581872538597045;0.986;0.009122353358521084
55:47.6;0.04002499658872985;-0.22218674059307583;-0.9644915275555146;0.986;0.008577245853183053
55:47.6;0.03683147266792512;-0.2192620040342374;-0.9710226701169254;0.992;0.007841729053976091
55:47.6;0.03295389173445595;-0.2165088546110918;-0.9774055119060114;1.004;0.006973601989394001
55:47.6;0.028681366289370572;-0.2140471346633816;-0.9832776394255311;1.015;0.006036502953880525
55:47.6;0.024307792495939937;-0.21198066568597676;-0.9883252341751337;1.025;0.005092624511044869
55:47.7;0.02010213335892704;-0.2103899765389678;-0.9923160545180583;1.03;0.004196789752221836
55:47.7;0.016288102015691166;-0.20932703193379038;-0.9951241797570523;1.036;0.003392915746380689
55:47.7;0.01303452000908847;-0.20881274337961328;-0.9967417046649484;1.038;0.002712905538592305
55:47.7;0.010453974069315112;-0.20883777817767804;-0.9972741562961701;1.016;0.0021772336974456162
55:47.7;0.008606029869132456;-0.20936668201324168;-0.9969194797236375;1.016;0.0017962653885343408
55:47.7;0.007502432946221466;-0.21034431566399017;-0.9959348760880689;1.016;0.001571678975729633
55:47.7;0.00711361429511196;-0.2117028689729059;-0.9945985207355604;1.008;0.0014978380755130039
55:47.7;0.007376538096408737;-0.21336803584929004;-0.9931722421427966;1.003;0.0015631711177965173
55:47.7;0.008203750211072518;-0.21526367760596915;-0.9918693748498335;0.998;0.0017516110050480788
55:47.7;0.009493299059343664;-0.21731474473089832;-0.9908317275477035;0.9990000000000001;0.0020441194052126426
55:47.8;0.011138830312326143;-0.2194487089026846;-0.9901194184514894;1.004;0.0024202498181121837
55:47.8;0.01303850043792163;-0.2215963377575024;-0.9897153665742772;1.014;0.0028595687206364037
55:47.8;0.01510105994895414;-0.22369259850856316;-0.9895428844215831;1.021;0.003342671252519158
55:47.8;0.017247977605375726;-0.22567763139921407;-0.9894916015232798;1.0270000000000001;0.003851578972791987
55:47.8;0.0194116722584917;-0.22749696165408625;-0.9894452112047861;1.028;0.004369485494003183
55:47.8;0.021531355405131087;-0.2291002599060126;-0.9893047733554022;1.026;0.004880081287060467
55:47.8;0.023548869911641433;-0.23043897333680965;-0.9890031279891872;1.021;0.0053669020284937
55:47.8;0.0254064430871156;-0.23146431133747977;-0.9885086744932022;1.015;0.0058131079888488835
55:47.8;0.02704685676267624;-0.2321274367390126;-0.9878196663411675;1.012;0.006201845529809368
55:47.8;0.028415582095776253;-0.23238272041297617;-0.9869524959983282;1.0090000000000001;0.0065171338133187895
55:47.9;0.02946437652232564;-0.23219318020229354;-0.9859284396178856;1.0070000000000001;0.006745157730222138
55:47.9;0.030155781055756857;-0.23153621479346786;-0.9847627849322689;1.008;0.0068757667963275804
55:47.9;0.030467465563047122;-0.2304081270140139;-0.9834587322657636;1.008;0.006903832775104017
55:47.9;0.03039516505982494;-0.22882688148849212;-0.9820067493922656;1.0070000000000001;0.006830083621555488
55:47.9;0.029953515791721518;-0.2268330305058031;-0.9803887889439317;1.0070000000000001;0.006661199431893771
55:47.9;0.02917491349552793;-0.2244887714070021;-0.9785860917862477;1.0070000000000001;0.006409191369086929
55:47.9;0.028106852617079615;-0.22187516289061976;-0.9765888919624457;1.005;0.006090215858109987
55:47.9;0.02680812942364468;-0.2190876635549129;-0.9744060446486196;1.005;0.005723008682666338
55:47.9;0.025344467905088267;-0.21623027374837414;-0.9720725450072366;1.003;0.005327192042736559
55:47.9;0.023784632682738865;-0.21340883705190203;-0.9696530703258734;0.9990000000000001;0.00492181431324992
55:48.0;0.022198165383044418;-0.2107243935061847;-0.9672401407717756;0.991;0.004524454309633753
55:48.0;0.020655211739597473;-0.2082674390648457;-0.9649465946927084;0.987;0.004151015031134974
55:48.0;0.01922802118717085;-0.20611342608758504;-0.9628935546155084;0.985;0.003816094791413529
55:48.0;0.01799280632921281;-0.20431929152739456;-0.9611959810706381;0.975;0.003533623102334183
55:48.0;0.01702984282219002;-0.2029207497316796;-0.959948069380437;0.975;0.0033173006772777556
55:48.0;0.016419746703043168;-0.20193042632098554;-0.9592107776168276;0.975;0.0031804038113605105
55:48.0;0.016234978107607555;-0.2013370362728688;-0.9590036125771654;0.972;0.0031346973871584126
55:48.0;0.01652712608024853;-0.20110567076909336;-0.9593020623631695;0.9740000000000001;0.003188431090734172
55:48.0;0.017312394197413684;-0.20117939930849113;-0.9600411605016058;0.98;0.003343724540408639
55:48.0;0.01855963578218953;-0.2014827927549765;-0.9611246702492678;0.986;0.0035940750049849902
55:48.1;0.020185679852973662;-0.20192794355782415;-0.9624378698903918;0.99;0.003922947595592938
55:48.1;0.02206067420545053;-0.20242279639587013;-0.9638606370941436;0.988;0.004304200025302079
55:48.1;0.02402287566728419;-0.20288053103480994;-0.9652778959905984;0.987;0.004704546092519589
55:48.1;0.025899398920386063;-0.20322805857380688;-0.9665866124565603;0.985;0.005087613711359066
55:48.1;0.02752787991189343;-0.203411809417264;-0.9677008154890366;0.991;0.005418636712274613
55:48.1;0.028774184431178507;-0.20339983194758257;-0.9685567729703053;0.991;0.005668637626117193
55:48.1;0.02954294958981477;-0.20318037074356915;-0.9691192168061579;0.9940000000000001;0.00581718408408697
55:48.1;0.029780088547296343;-0.2027579537620693;-0.9693878806020296;0.995;0.005853309253571295
55:48.1;0.02946869845293213;-0.2021482927868781;-0.9694028054481031;0.998;0.005774778154360892
55:48.1;0.0286216007933371;-0.2013731670818531;-0.9692466780605341;0.996;0.005586371863541825
55:48.2;0.02727437037449715;-0.200456042595774;-0.9690425302062051;0.996;0.005298058192648275
55:48.2;0.02548178293082182;-0.19941863153956413;-0.9689456769464377;0.993;0.004923738425640354
55:48.2;0.023318493580529658;-0.19827844722559831;-0.9691297329413556;0.99;0.004480824330475682
55:48.2;0.02088227931893659;-0.19704789590759647;-0.9697675469941581;0.9840000000000001;0.00399040842573727
55:48.2;0.01829665507557774;-0.19573576495833248;-0.9710089950751244;0.9840000000000001;0.003477484008002945
55:48.2;0.01571015240976937;-0.19435116487216242;-0.9729587387359387;0.9840000000000001;0.0029707217053293452
55:48.2;0.013290982186699829;-0.19290862609319206;-0.9756575284275041;0.987;0.0025015323520371207
55:48.2;0.011216380091104464;-0.1914325908388305;-0.9790699446040119;0.988;0.002102240089662918
55:48.2;0.009656231007161137;-0.1899601496766741;-0.9830802908934677;0.993;0.0018032632804591295
55:48.2;0.008752337530570819;-0.18854145270804848;-0.9874974282282298;1.001;0.0016295469583151245
55:48.3;0.00859753385457277;-0.1872372636582885;-0.9920685009855215;1.0070000000000001;0.001597010754862907
55:48.3;0.009220370842105469;-0.1861134538867625;-0.9965003656706032;1.013;0.001710029568322229
55:48.3;0.01057992543404312;-0.18523357378656422;-1.0004863670842377;1.021;0.0019607105600349165
55:48.3;0.01257225620974985;-0.1846519580034906;-1.0037353331038554;1.034;0.0023301632705450066
55:48.3;0.01504645247447187;-0.18440943317950503;-1.0059990667260053;1.034;0.00279135342925019
55:48.3;0.01782535492234267;-0.18453178993975725;-1.0070942381430033;1.034;0.003312680044413801
55:48.3;0.02072571492004895;-0.18502972018900432;-1.0069153504009947;1.031;0.0038613927245189886
55:48.3;0.02357485751926953;-0.18589907861017071;-1.005437629940508;1.023;0.004406374945251682
55:48.3;0.026223078672592437;-0.18712134755492538;-1.0027111848355648;1.0170000000000001;0.004920201325208838
55:48.3;0.02855161063424068;-0.18866478955921562;-0.9988495926117708;1.014;0.005380486731260514
55:48.4;0.03047628586067822;-0.19048648897959783;-0.9940166699679969;1.013;0.005770585541104846
55:48.4;0.03194768603376207;-0.1925347259073343;-0.9884140891462855;1.01;0.00607977358467481
55:48.4;0.03294888105876175;-0.19475077857271375;-0.982270307795133;1.005;0.006303051991516956
55:48.4;0.033491670173049576;-0.19706982474414897;-0.9758295216394887;0.998;0.006440667638817298
55:48.4;0.03361207204740885;-0.19942151484061768;-0.9693392076332268;0.98;0.006497451943262246
55:48.4;0.03336579934626084;-0.201731064844486;-0.9630364528698601;0.98;0.0064821196182291655
55:48.4;0.032824166286081945;-0.20392140662370759;-0.9571353662380108;0.975;0.00640663358411919
55:48.4;0.03207000818277084;-0.2059167105118414;-0.9518182856918205;0.9690000000000001;0.006285570566741926
55:48.4;0.03119204402392118;-0.2076474088710206;-0.9472320250288133;0.968;0.006135171735495158
55:48.4;0.030275681049329643;-0.20905617762398793;-0.9434890186921758;0.968;0.005971642175179708
55:48.5;0.029389501732529213;-0.21010327236610415;-0.9406725558251624;0.971;0.005808493576194421
55:48.5;0.028569465620369595;-0.21076885232193543;-0.9388443187559057;0.973;0.0056533012750234705
55:48.5;0.02780591642302031;-0.2110502759342133;-0.9380511402469704;0.966;0.005504902774788657
55:48.5;0.027039690816876457;-0.21095435276061292;-0.9383276294584887;0.9590000000000001;0.005352352610118751
55:48.5;0.02617102308636979;-0.21048754125687807;-0.9396930765015478;0.9590000000000001;0.005176463101940862
55:48.5;0.025079483845064757;-0.20964898969562612;-0.9421438962909428;0.96;0.004953687510739853
55:48.5;0.023648992097903554;-0.208430226113006;-0.9456447141990415;0.963;0.0046612386104604745
55:48.5;0.021791537555268355;-0.206821577469385;-0.950121284084507;0.9690000000000001;0.004282158786569201
55:48.5;0.01946528543625785;-0.20482160827853932;-0.9554575761739904;0.975;0.0038093243860785153
55:48.5;0.016684955355626554;-0.202444726738103;-0.9614981312159526;0.982;0.0032477303380007124
55:48.6;0.013523783473683942;-0.19972427576745377;-0.9680552540323446;0.991;0.002614744211080765
55:48.6;0.010107191831299512;-0.19671181508720276;-0.9749192175708016;1.0;0.0019383383373522917
55:48.6;0.006599372498640889;-0.19347493816334763;-0.9818688996809288;1.005;0.001253663158125706
55:48.6;0.0031855419558986845;-0.19009497122082944;-0.9886805433326363;1.0070000000000001;0.0005987009471145952
55:48.6;5.360717393453678e-05;-0.1866640715700575;-0.9951336896998179;1.0090000000000001;9.957838455665013e-06
55:48.6;-0.002621359855383188;-0.18328071032118404;-1.0010151856763927;1.013;0.00048093243687605166
55:48.6;-0.004687718272387968;-0.18004350872576555;-1.0061234350480261;1.0170000000000001;0.0008491613834994994
55:48.6;-0.006022501599305791;-0.17704458173503865;-1.0102751479434495;1.022;0.001077207166260142
55:48.6;-0.0065328390797306;-0.1743639219272963;-1.0133159117797454;1.03;0.0011542594844292727
55:48.6;-0.006156323428905006;-0.172065900011249;-1.0151342562435577;1.0390000000000001;0.001075324948271722
55:48.7;-0.004862361004776811;-0.17019803765866603;-1.0156768201477728;1.042;0.0008405378781148142
55:48.7;-0.002654609888238519;-0.1687913819487933;-1.014960538447943;1.041;0.0004547787188986175
55:48.7;0.00042640241511286584;-0.16786171124179042;-1.0130774443766413;1.0390000000000001;7.251267859469366e-05
55:48.7;0.004301106895572723;-0.16741130350595718;-1.0101891282469477;1.02;0.00072739063355942
55:48.7;0.008849661084986941;-0.1674310737571602;-1.006510860961461;1.02;0.001491355454298605
55:48.7;0.013912941458593644;-0.16790219082923916;-1.0022886823301458;1.011;0.002341359744258019
55:48.7;0.01929781621708154;-0.16879593830698217;-0.9977743670036086;1.0;0.0032501432343046695
55:48.7;0.02478809605951624;-0.17007154114607728;-0.993202752932297;0.996;0.004187094206639786
55:48.7;0.030160419583755992;-0.1716732484678108;-0.9887750410134399;0.996;0.005119617317325185
55:48.7;0.035202191444065355;-0.1735286491009573;-0.9846505784135484;1.0;0.006014825423017852
55:48.8;0.03972782987564348;-0.1755494502963073;-0.9809473146198313;1.002;0.006841321482598196
55:48.8;0.04359013188602957;-0.1776345939998407;-0.9777482825416574;0.998;0.007570817764291836
55:48.8;0.04668512856920723;-0.1796747405336728;-0.9751100913553976;0.993;0.008179358364913712
55:48.8;0.04895075626832277;-0.18155729144236826;-0.9730703382075023;0.992;0.008648032942079293
55:48.8;0.05036128816438517;-0.1831717977639144;-0.9716528821653326;0.992;0.00896327211404909
55:48.8;0.050920352584327026;-0.18441588363999972;-0.9708712017991216;0.992;0.009116987202087787
55:48.8;0.050655311399523506;-0.1852016261108202;-0.9707299728101089;0.993;0.009106850861601882
55:48.8;0.049614598947432566;-0.185462288339762;-0.9712244386636043;0.9940000000000001;0.008936854784354516
55:48.8;0.047867675148289546;-0.18515917708150315;-0.9723369615479822;0.995;0.008617957974914416
55:48.8;0.04550570416305414;-0.18428767983954167;-0.9740305277827539;0.986;0.008168356993321892
55:48.9;0.042641028499197986;-0.18288094881917585;-0.9762401820296874;0.982;0.0076129471836752565
55:48.9;0.03940470554763361;-0.18101019646479846;-0.9788654105848079;0.9840000000000001;0.006981907789803218
55:48.9;0.03594256746090161;-0.17878152079284018;-0.9817680072614442;0.9940000000000001;0.006308710513712578
55:48.9;0.032410544819585455;-0.17632931339386312;-0.9847789353961602;1.004;0.005627941809496426
55:48.9;0.028969124941261706;-0.17380617567823353;-0.9877139407061071;1.016;0.004973152352748518
55:48.9;0.025775758350330503;-0.1713702699385133;-0.9903933502111348;1.016;0.004374764185730406
55:48.9;0.022974432975712125;-0.16917239790983635;-0.9926594442014401;1.015;0.003858109819939507
55:48.9;0.020683381911721456;-0.16734511094062862;-0.9943862931721407;1.01;0.003441832325802877
55:48.9;0.018983488264322786;-0.16599511799487182;-0.9954806867805903;1.0070000000000001;0.0031369252665381826
55:48.9;0.017910706183792188;-0.16519947466766108;-0.9958762385711484;1.002;0.0029466377053057103
55:49.0;0.017455200142669207;-0.1650055710515741;-0.9955246126384221;1.001;0.0028673152331083543
55:49.0;0.0175675485319079;-0.16543421278746856;-0.9943882410934126;0.9990000000000001;0.0028899642554354008
55:49.0;0.018169484878439057;-0.16648420704252448;-0.9924382722438709;1.002;0.003002058567958148
55:49.0;0.019165050197637052;-0.16813649028518698;-0.9896599069797536;1.005;0.0031890249368091974
55:49.0;0.02044843985639741;-0.17035635222679518;-0.9860648700144667;1.0070000000000001;0.0034349782960456238
55:49.0;0.021907250655826854;-0.17309327146662698;-0.9817081687747904;1.0070000000000001;0.0037226351031986993
55:49.0;0.023423364689828703;-0.17627864822710557;-0.9767045452966217;1.006;0.004032851221959063
55:49.0;0.02487580731597279;-0.17982240691764076;-0.9712396129899891;1.002;0.004344575790183028
55:49.0;0.026148590147422712;-0.1836103128358056;-0.9655713340630997;0.993;0.004635853599586059
55:49.0;0.027142960000709142;-0.18750437898348124;-0.9600191175413086;0.981;0.004885944201629038
55:49.1;0.02779054190104309;-0.19134819930140087;-0.9549404825607885;0.975;0.00507805849949794
55:49.1;0.028063269729338855;-0.19497753772973173;-0.9506981329289744;0.9670000000000001;0.0052019418498449104
55:49.1;0.027977128416884847;-0.1982347813664149;-0.9476220434746194;0.9590000000000001;0.005255549696378807
55:49.1;0.02758814709528363;-0.2009845786932154;-0.9459716243798177;0.9540000000000001;0.005245216009429733
55:49.1;0.026980645944943635;-0.20312755137676594;-0.9459031078636719;0.9520000000000001;0.005184033849341744
55:49.1;0.026250026321520882;-0.20460949275406703;-0.9474471171428874;0.9520000000000001;0.005088742796412614
55:49.1;0.02548458663417922;-0.20542452689183582;-0.9505005158575367;0.955;0.00497602147491474
55:49.1;0.024751296912253154;-0.20561193753350954;-0.9548350793611688;0.971;0.004859310511571689
55:49.1;0.024088899416129062;-0.20524778025337967;-0.9601230031896789;0.987;0.004747033560076986
55:49.1;0.0235091742366825;-0.2044335028600017;-0.9659755352656193;0.9990000000000001;0.004642539122989611
55:49.2;0.0230047114359851;-0.2032837605919368;-0.9719875354852555;1.0070000000000001;0.004545484402875371
55:49.2;0.02255986299543938;-0.20191463245526303;-0.977779790118413;1.011;0.004453949690512542
55:49.2;0.022161206979481856;-0.20043288986318789;-0.983032792100845;1.014;0.0043664692239652955
55:49.2;0.02180463641393102;-0.19892732568684915;-0.9875087821325604;1.0170000000000001;0.004283356877113703
55:49.2;0.021497730573082737;-0.1974633655304961;-0.9910614764709611;1.0170000000000001;0.004207070070650754
55:49.2;0.021257934634934413;-0.1960815353156429;-0.9936344901104446;1.0170000000000001;0.004141755179437412
55:49.2;0.02110819771746268;-0.1947993868201794;-0.9952503405998443;1.013;0.004092334018872925
55:49.2;0.02107155547184371;-0.19361584361250592;-0.9959926772494226;1.011;0.004063437965690571
55:49.2;0.021165694232282647;-0.19251671169437237;-0.9959850751808973;1.01;0.004058390040005824
55:49.2;0.021398624773246198;-0.19148020176878303;-0.9953698699838298;1.0090000000000001;0.004078441434285925
55:49.3;0.02176657785339968;-0.19048169967613163;-0.9942898301183933;1.006;0.0041224596118987315
55:49.3;0.022254522269433797;-0.189497558731378;-0.9928744371200646;1.006;0.004187127876335478
55:49.3;0.02283890654347436;-0.1885080327923875;-0.9912316626168117;1.0070000000000001;0.004267566868628814
55:49.3;0.023492053731412964;-0.18749938156935064;-0.9894452104895488;1.008;0.0043582543843441795
55:49.3;0.024187801286008476;-0.18646491283902455;-0.9875760964677965;1.005;0.004454142263813593
55:49.3;0.024907614649822264;-0.18540485142731247;-0.9856667639240724;1.005;0.0045518018155186815
55:49.3;0.025645495209157355;-0.18432547892817405;-0.9837461358440054;1.002;0.0046502842499209
55:49.3;0.026409704532277277;-0.1832382513003895;-0.981834647496687;1.0;0.004751361065398535
55:49.3;0.027220322993279443;-0.18215918555307764;-0.9799488059697673;0.997;0.0048590093874976426
55:49.3;0.02810323621630041;-0.18110817552422787;-0.9781051205276265;0.995;0.004978286903701947
55:49.4;0.029082345844807546;-0.18010757653578413;-0.9763234748983319;0.9940000000000001;0.005113934355774036
55:49.4;0.030172246750599735;-0.1791795518313539;-0.974630117334472;0.991;0.005269093731223304
55:49.4;0.03137324240547306;-0.17834225620119815;-0.9730603472917546;0.99;0.005444442768043995
55:49.4;0.03266958724676542;-0.17760564579199148;-0.9716607450741553;0.992;0.0056378701928577
55:49.4;0.03403069946320652;-0.1769680890415472;-0.9704904605344835;0.9890000000000001;0.0058446311411150444
55:49.4;0.0354143042351038;-0.17641481827499728;-0.9696207365620515;0.9890000000000001;0.0060578103152856945
55:49.4;0.036770395056767234;-0.17591878648318113;-0.9691318663408058;0.986;0.006268929566354199
55:49.4;0.03804541530432663;-0.17544385820991823;-0.9691073710242739;0.985;0.006468631264107415
55:49.4;0.039186600069810756;-0.17494958202361988;-0.9696260154191743;0.985;0.00664744500569548
55:49.4;0.04014646675633785;-0.17439644863270998;-0.9707528713153962;0.987;0.0067966303447845105
55:49.5;0.040887014349713646;-0.17375082521544843;-0.9725306298952727;0.9890000000000001;0.006909005889999097
55:49.5;0.04138277585716379;-0.17298924280304798;-0.9749717980300489;0.99;0.006979603792544396
55:49.5;0.041622023694280606;-0.17210180049749035;-0.978051858568415;0.992;0.007006005737940976
55:49.5;0.04160624147823685;-0.1710942065310151;-0.9817034782027484;0.991;0.006988341492579208
55:49.5;0.04134871720809959;-0.16998788482702848;-0.98581242575747;0.997;0.006929059626548628
55:49.5;0.04087298978556227;-0.16881796518727293;-0.9902165086871023;0.997;0.006832587947553751
55:49.5;0.040211158491886854;-0.16762968623581834;-0.9947089991956741;1.003;0.00670491944643684
55:49.5;0.03940159174459281;-0.1664741399651212;-0.9990477217753675;1.0090000000000001;0.006553099776480061
55:49.5;0.038485688887216915;-0.16540405635994354;-1.0029703870082927;1.016;0.006384597613816576
55:49.5;0.037504001987701485;-0.16446983887823693;-1.0062156835010077;1.024;0.006206617222805541
55:49.6;0.03649288786219673;-0.16371574862763597;-1.0085481284746936;1.03;0.006025530911488293
55:49.6;0.035483020933337786;-0.16317625125940458;-1.009783311451621;1.034;0.00584663157891866
55:49.6;0.03450003370170683;-0.16287306790631095;-1.0098094849743013;1.036;0.005674247067189274
55:49.6;0.03356625506669053;-0.16281372512099374;-1.008601613922667;1.038;0.005512055250354203
55:49.6;0.032702182866986174;-0.16299178531660666;-1.006224787036623;1.031;0.005363366449234084
55:49.6;0.03192676205995724;-0.16338817298786742;-1.0028253411962373;1.012;0.005231193588515469
55:49.6;0.03125614058459784;-0.16397334269378902;-0.9986107516307002;1.003;0.005118053711948123
55:49.6;0.03070141744561332;-0.16471110189809055;-0.9938229555442444;0.997;0.005025627821729084
55:49.6;0.030266805703278974;-0.16556470428005035;-0.988711914249958;0.998;0.004954548842924508
55:49.6;0.029949624683610572;-0.1665038840951353;-0.9835149163359219;0.996;0.004904522194924473
55:49.7;0.029742116670611295;-0.1675102195300977;-0.978443458303801;0.992;0.004874711463324194
55:49.7;0.0296333843849178;-0.168579266025895;-0.9736763628250376;0.987;0.004864072507028376
55:49.7;0.029609528858849907;-0.16971977922419706;-0.9693568055172779;0.9840000000000001;0.004871330759995714
55:49.7;0.029651659321189787;-0.17095111968198332;-0.9655916080571979;0.978;0.0048945687607276035
55:49.7;0.029733343467945424;-0.1722995782836932;-0.9624521625419717;0.978;0.004930683371890273
55:49.7;0.02981965352354939;-0.1737937625031041;-0.9599769505834078;0.975;0.004975051538195739
55:49.7;0.029869077570636223;-0.17545891741961825;-0.9581756489955009;0.975;0.005021603122797679
55:49.7;0.029838194708232974;-0.17731019106119744;-0.9570343953997128;0.976;0.005063301489290771
55:49.7;0.029688002479446914;-0.17934525071059948;-0.9565213315133084;0.973;0.005092904327552575
55:49.7;0.029390257232193098;-0.1815373900828013;-0.9565915103720047;0.97;0.005103827608289709
55:49.8;0.028931952427200425;-0.18383121570081865;-0.9571909226319801;0.973;0.005090911800181346
55:49.8;0.028316326038351568;-0.1861432632188663;-0.9582602900565758;0.9790000000000001;0.0050508877723632615
55:49.8;0.027559928696942692;-0.1883686431405161;-0.9597391936207436;0.985;0.004982415361629069
55:49.8;0.0266867595716242;-0.19039260896560134;-0.9615698190048081;0.9840000000000001;0.004885699498856538
55:49.8;0.025721353674937025;-0.1921042705534478;-0.9636986395619812;0.9840000000000001;0.004761810260760359
55:49.8;0.024682946380721223;-0.19340942300111566;-0.9660750563468764;0.9840000000000001;0.004611959639845509
55:49.8;0.023582597278233072;-0.19424041299995812;-0.9686477304455725;0.986;0.00443707829961738
55:49.8;0.022424190594667548;-0.1945621766767304;-0.971360482580634;0.99;0.004237948000885683
55:49.8;0.02120876100222329;-0.19437418615298543;-0.9741495845341464;0.991;0.004015868984600817
55:49.8;0.019940247542243966;-0.193708313089326;-0.9769434988439396;0.995;0.00377353386367262
55:49.9;0.018630244262400994;-0.19262331236887772;-0.979665201810429;1.002;0.003515645509598851
55:49.9;0.017300065666063947;-0.19119740087491716;-0.9822363020211908;1.003;0.0032489701164062574
55:49.9;0.015979864864092145;-0.1895204486732273;-0.9845814730456697;1.0;0.0029818159778471397
55:49.9;0.014705438603412724;-0.18768674905039873;-0.9866320870365054;0.998;0.002723120311639003
55:49.9;0.01351356023131733;-0.18578877735876165;-0.9883294909136926;1.01;0.002481367061381066
55:49.9;0.012436995673617128;-0.18391189330179167;-0.9896292170258909;1.01;0.002263590210976396
55:49.9;0.011500893809103165;-0.18212952914716377;-0.9905060884200547;1.011;0.00207476592979189
55:49.9;0.010721912801565151;-0.18049843083717917;-0.9909583647800044;1.008;0.0019177902641694749
55:49.9;0.010109755556991243;-0.17905438370707857;-0.9910091455501028;1.005;0.001793920841468781
55:49.9;0.009669202696386953;-0.17780988464704198;-0.9907048416455447;1.006;0.0017032988379274102
55:50.0;0.009401058651949668;-0.17675501255768447;-0.9901118371508846;1.0070000000000001;0.0016452532357111634
55:50.0;0.009302343390853228;-0.17586121596421994;-0.989312516105917;1.0090000000000001;0.0016184375362035942
55:50.0;0.009367242818477206;-0.1750866115610437;-0.9884007437819089;1.0090000000000001;0.0016210551104824612
55:50.0;0.00958931840140717;-0.1743818177945862;-0.9874756334355806;1.004;0.0016512594937337312
55:50.0;0.009963672525311001;-0.17369630543466974;-0.9866323557469859;0.995;0.0017075183511582918
55:50.0;0.010487599412052923;-0.17298520406027218;-0.9859504691688077;0.995;0.0017887108722444243
55:50.0;0.011159879231712726;-0.17221557859334566;-0.9854825846490352;0.993;0.0018940039649157886
55:50.0;0.011980101772438492;-0.17137072430531436;-0.9852470226315087;0.9940000000000001;0.0020227502842509603
55:50.0;0.012948784748484468;-0.1704516587768495;-0.9852268902204094;0.997;0.0021745354908291386
55:50.0;0.014067576480909574;-0.16947601540285528;-0.9853759403903939;1.002;0.0023492513420377632
55:50.1;0.015338351420725727;-0.16847504827453091;-0.9856297164348996;1.005;0.0025469948224311864
55:50.1;0.016760946942721854;-0.16748934816646774;-0.9859191184083259;1.006;0.0027677510997149934
55:50.1;0.01833043595160069;-0.16656371176696913;-0.9861830386673448;1.004;0.00301099970509563
55:50.1;0.020035108054131542;-0.16574177705522566;-0.9863774629699007;1.004;0.0032754186746883455
55:50.1;0.0218559136545338;-0.1650612457326628;-0.9864799904612153;1.003;0.0035587900302294162
55:50.1;0.023767400628187905;-0.16455035252395261;-0.9864900382699183;1.003;0.0038580975812246687
55:50.1;0.025739231057059858;-0.16422585229671124;-0.9864254943062656;1.001;0.004169667082096292
55:50.1;0.027736972937972174;-0.16409248990850617;-0.9863166469454326;0.998;0.004489150142664852
55:50.1;0.029721770443757053;-0.1641437175755955;-0.9861984718379695;0.996;0.004811309180080217
55:50.1;0.03164984845056602;-0.16436333564337907;-0.9861028581214775;0.996;0.005129780694274988
55:50.2;0.033473145567275944;-0.1647277752910035;-0.9860525992413749;0.996;0.005437051436015953
55:50.2;0.03514148506140823;-0.16520876314323005;-0.9860585517147368;0.9990000000000001;0.005724741676657665
55:50.2;0.036605622487279485;-0.16577597243962458;-0.986120402919297;1.004;0.0059841066522504155
55:50.2;0.037820212086045774;-0.1663990608609951;-0.9862302635428175;1.006;0.006206591409392096
55:50.2;0.03874603596487301;-0.16704854804722524;-0.9863771652147703;1.003;0.0063842956739898924
55:50.2;0.0393511575159852;-0.16769553052527847;-0.9865502790213884;1.003;0.00651025834966283
55:50.2;0.03961109166441791;-0.1683109358959079;-0.986739695289082;1.001;0.006578573724789975
55:50.2;0.03950879265718136;-0.16886526615785089;-0.9869350944333816;0.9990000000000001;0.006584498143337563
55:50.2;0.03903568366296389;-0.16932946175521504;-0.987123596845552;0.998;0.006524779678660464
55:50.2;0.03819438852484696;-0.16967710704778172;-0.9872883957345051;1.0;0.006398333086887201
55:50.3;0.03700251959286868;-0.16988796313453677;-0.9874094811539722;1.006;0.006207135123867868
55:50.3;0.035495957088763005;-0.16995239363661155;-0.9874666488522447;1.0070000000000001;0.005957013890865255
55:50.3;0.03373015253235939;-0.16987550468715104;-0.9874435092942212;1.005;0.005657978913449049
55:50.3;0.03177875307811624;-0.16967948493103102;-0.9873305839875975;1.002;0.005323886397931785
55:50.3;0.029729850257117062;-0.16940318882946576;-0.987126382634612;1.002;0.004971495633133212
55:50.3;0.027680949937884194;-0.16909883917550278;-0.9868367149070371;1.002;0.00461920157969076
55:50.3;0.02573353615168325;-0.16882623211601233;-0.9864731318202002;1.001;0.004285728523520231
55:50.3;0.02398687335668835;-0.16864527747690783;-0.9860510996071535;1.0;0.00398884580411625
55:50.3;0.0225299842019716;-0.16860836308177865;-0.9855880007132716;1.001;0.0037439962642428614
55:50.3;0.021431834899897903;-0.16875433224539377;-0.9851007953505794;1.001;0.0035628288105710028
55:50.4;0.020731833615983887;-0.16910520886945687;-0.9846030404542961;0.9990000000000001;0.0034518814530583677
55:50.4;0.02043367215368107;-0.16966574058974404;-0.9841009998834177;0.9940000000000001;0.0034117739689214044
55:50.4;0.020504492692454725;-0.17042535574427697;-0.9835892314141681;0.991;0.0034371382692328263
55:50.4;0.020879685315527023;-0.17136211909931004;-0.9830472669135294;0.992;0.0035173304611328293
55:50.4;0.021472643797838618;-0.17244785619265257;-0.9824397310458004;1.0;0.003637887269808574
55:50.4;0.02218798860602379;-0.17365290908148898;-0.9817212445481694;1.0;0.003782580563077049
55:50.4;0.02293536842643434;-0.17494909731645006;-0.9808450966193396;1.0;0.003935662531548012
55:50.4;0.023640233618504973;-0.17631063312502412;-0.9797729560690958;1.001;0.004083717740692636
55:50.4;0.024249427931486406;-0.17771380824883795;-0.9784829674044067;0.9990000000000001;0.0042167314333121445
55:50.5;0.02473207714311682;-0.17913631617710235;-0.976974608758556;0.993;0.004328401193745841
55:50.5;0.025077756921639466;-0.18055657273872003;-0.975269875837269;0.99;0.004415976981036444
55:50.5;0.025293463049810495;-0.18195328328315283;-0.9734116827041605;0.99;0.0044798631319660194
55:50.5;0.025399721094221266;-0.18330566688387998;-0.9714611448922985;0.9940000000000001;0.00452303839265249
55:50.5;0.025425778888262005;-0.1845943514085647;-0.9694947381884295;0.987;0.004550280084390063
55:50.5;0.02540427226843893;-0.1858021722820562;-0.96760100118312;0.987;0.004567240223758099
55:50.5;0.02536613981197612;-0.1869140324601988;-0.9658760522073344;0.987;0.00457949603376109
55:50.5;0.025336483909576105;-0.1879157707337745;-0.9644176419635063;0.982;0.0045917128506483855
55:50.5;0.025331821122135216;-0.18879272605259254;-0.9633177946271558;0.9790000000000001;0.004607032254825835
55:50.5;0.02535903330901407;-0.1895288892004054;-0.9626544827047316;0.977;0.004626776796717794
55:50.6;0.02541620710500843;-0.19010740583836377;-0.962483519293044;0.978;0.004650536722390376
55:50.6;0.025495172972510527;-0.1905127365840656;-0.9628321872586524;0.981;0.004676625338763357
55:50.6;0.025585044180752328;-0.190733895261836;-0.9636956022554232;0.981;0.004702772030858187
55:50.6;0.02567576605672403;-0.19076747586349035;-0.9650360514947508;0.978;0.00472684412751556
55:50.6;0.025760737385198573;-0.19061940185355503;-0.9667854199153505;0.98;0.004747396277345041
55:50.6;0.025837940394200176;-0.19030520856670036;-0.9688511848807094;0.993;0.0047639329639222495
55:50.6;0.02590963462397426;-0.18984918132118433;-0.9711260203092517;0.993;0.004776894041151218
55:50.6;0.025981093600272898;-0.18928246383542824;-0.9734993942468396;0.996;0.004787441647486931
55:50.6;0.026058684794077296;-0.188640026989837;-0.9758684477297259;0.998;0.004797087265862972
55:50.6;0.026147258430124897;-0.18795673903543264;-0.9781461092545705;1.0;0.0048071513155377495
55:50.7;0.02624712689408429;-0.1872632533425746;-0.9802656406365041;1.001;0.004818125581855658
55:50.7;0.026351631842624363;-0.18658240052847733;-0.9821815431304493;0.998;0.00482914181627143
55:50.7;0.026446351248360898;-0.18592652220835207;-0.9838674012455921;0.998;0.004837752864471849
55:50.7;0.026510278879300856;-0.18529612020360073;-0.9853120919742764;1.001;0.004840101118891385
55:50.7;0.026518644860499204;-0.18467997909602388;-0.986516148097956;1.006;0.004831426115690917
55:50.7;0.026446731459979247;-0.18405651032530437;-0.9874892751209409;1.006;0.004806794732838978
55:50.7;0.02627383081792268;-0.18339613047823303;-0.9882486027985926;1.006;0.004761894575273423
55:50.7;0.02598651420089566;-0.1826649193936847;-0.9888165583923783;1.006;0.004693738686967942
55:50.7;0.02558090404409348;-0.18182969577025376;-0.9892177629831608;1.005;0.00460121584763848
55:50.7;0.02506428530009071;-0.1808639288401972;-0.9894752608273696;1.003;0.004485514101021432
55:50.8;0.024456331486312655;-0.17975334445178556;-0.9896070050325841;1.003;0.0043504186558336955
55:50.8;0.023789415093909538;-0.17850004694244734;-0.9896237636550729;1.006;0.0042023499394650545
55:50.8;0.02310697442072873;-0.17712418681342;-0.9895292721060249;1.008;0.004049949416417385
55:50.8;0.02245933103065385;-0.17566244872204156;-0.989322457432349;1.006;0.0039031353923226274
55:50.8;0.021897168621896692;-0.17416322936541612;-0.9890006338241734;1.005;0.0037717335207395402
55:50.8;0.021463678279224158;-0.17267954159747842;-0.9885625002016808;1.005;0.00366394688468067
55:50.8;0.021187152222320003;-0.17126167627300504;-0.9880102874455284;1.005;0.003585041967067017
55:50.8;0.021076015224547887;-0.16995147681854345;-0.987350776903751;1.001;0.0035365916617557925
55:50.8;0.02111737593621554;-0.16877906935188422;-0.9865951282729346;0.9990000000000001;0.0035163938018269707
55:50.8;0.02127891955817281;-0.1677621939928843;-0.9857578638665806;1.001;0.003518956678504175
55:50.9;0.021513546580494668;-0.16690792559582385;-0.9848556772672614;1.0;0.003536401479091175
55:50.9;0.02176642846657972;-0.16621599202954324;-0.9839064345203667;0.9990000000000001;0.003559703131289006
55:50.9;0.021983930328322177;-0.16568255811386765;-0.982928086941481;0.9990000000000001;0.003580171866549181
55:50.9;0.022122908646285064;-0.16530359684623025;-0.9819370078112598;0.9940000000000001;0.003590940075031038
55:50.9;0.022158216907968268;-0.16507708342651206;-0.9809458017403008;0.991;0.0035881171113551313
55:50.9;0.02208658698840246;-0.16500320213356873;-0.9799615203942154;0.991;0.003571330192299347
55:50.9;0.021926187476622633;-0.16508240269259838;-0.9789856762180971;0.991;0.003543563681850216
55:50.9;0.02171223936070429;-0.16531211895180606;-0.9780169366407756;0.9940000000000001;0.003510392568018884
55:50.9;0.021489529460733958;-0.16568332206554734;-0.9770561689963928;0.9940000000000001;0.003478766115449861
55:50.9;0.02130302666449117;-0.16617805907729508;-0.976112297665098;0.996;0.0034555308730839086
55:51.0;0.02118865863048277;-0.16676905414641927;-0.9752067809064343;0.9940000000000001;0.0034460029280838716
55:51.0;0.02116689782065954;-0.1674218284941093;-0.9743747339796047;0.991;0.003452989900082028
55:51.0;0.021240967737718813;-0.16809872938932016;-0.973661840336463;0.987;0.0034765371898037847
55:51.0;0.021399458486492884;-0.16876370341070845;-0.9731177722510725;0.985;0.0035143679936206185
55:51.0;0.021621469821748517;-0.16938677251916867;-0.9727881078018155;0.9840000000000001;0.003562730401412938
55:51.0;0.02188210718290798;-0.1699473232977132;-0.9727070436797571;0.987;0.00361730834657713
55:51.0;0.0221569131978256;-0.17043559619860024;-0.9728924710919847;0.987;0.0036739598253131348
55:51.0;0.02242482526744441;-0.17085262587736091;-0.9733437223385888;0.986;0.003729211011417289
55:51.0;0.02267009402438118;-0.17120963356471972;-0.9740414457013866;0.988;0.0037805845548275208
55:51.0;0.02288402459428757;-0.17152758646956173;-0.9749490850709397;0.99;0.0038269106162911407
55:51.1;0.023067052316333256;-0.1718368330188096;-0.9760156954536648;0.992;0.0038687009690631584
55:51.1;0.023230668356693025;-0.1721763379840618;-0.9771796986485315;0.995;0.003908495417742539
55:51.1;0.02339794391822985;-0.1725920249058808;-0.9783729269372486;0.995;0.003950961942351501
55:51.1;0.023601473357757086;-0.1731337623629536;-0.9795243131646132;0.9940000000000001;0.004002543884944954
55:51.1;0.02387830294105702;-0.17385080301567388;-0.9805629315058296;0.996;0.004070573774383306
55:51.1;0.02426251156692745;-0.17478602182298375;-0.9814206098015678;0.996;0.0041619573666919615
55:51.1;0.024777143888947;-0.17596964749837998;-0.9820346867522394;0.996;0.004281696056300371
55:51.1;0.02542748895857856;-0.17741322716498822;-0.9823515333081401;0.997;0.00443155759062063
55:51.1;0.02619704014973579;-0.17910464877155105;-0.9823312791041048;1.0;0.004609109830149043
55:51.1;0.027046485904171146;-0.18100520391602026;-0.9819536773746742;1.002;0.004807207936816975
55:51.2;0.02791546005104505;-0.1830495557346258;-0.9812241680319134;1.003;0.005013969700864463
55:51.2;0.028726647338256348;-0.18514894956756783;-0.9801784940406976;1.0;0.005213283765476216
55:51.2;0.029391873452156436;-0.1871974065245379;-0.9788843579690981;1.0;0.005385902479002599
55:51.2;0.029819737133390173;-0.1890803261572533;-0.9774394090688249;1.003;0.005511121665185336
55:51.2;0.029924212531284473;-0.19068473066604363;-0.9759654709418936;0.9940000000000001;0.005568947211228093
55:51.2;0.029633594927448388;-0.191909962296426;-0.9745992433240652;0.9940000000000001;0.005542528437066747
55:51.2;0.028899164079201616;-0.19267725864118931;-0.9734803661133106;0.9940000000000001;0.005420544775801919
55:51.2;0.027702907658282937;-0.19293689503124167;-0.9727383309235375;0.991;0.005199201737834244
55:51.2;0.02606340740274677;-0.1926723844306043;-0.9724794889763496;0.988;0.004883499132096071
55:51.2;0.02403843883335995;-0.1919017943592878;-0.9727750938542846;0.9840000000000001;0.004487430521537242
55:51.3;0.021722585333712994;-0.19067627305460277;-0.9736518862567829;0.985;0.004032848209893372
55:51.3;0.019239279603235977;-0.18907564154461187;-0.9750874425514787;0.9890000000000001;0.003547055243436982
55:51.3;0.016728896054945534;-0.1872007688125313;-0.9770120732911234;0.993;0.0030596717816741745
55:51.3;0.014335776229921009;-0.1851629559003645;-0.9793173673798113;0.996;0.0025995535904528885
55:51.3;0.012196091863786016;-0.18307189612513203;-0.9818696238098227;1.003;0.002192280853929676
55:51.3;0.010426752693852325;-0.18102483519693993;-0.9845253157507797;1.008;0.0018582927031388597
55:51.3;0.00911545756854877;-0.17909902632811087;-0.9871454345619082;1.008;0.0016115836026274176
55:51.3;0.00831328678028764;-0.17734793418216294;-0.9896060557349559;1.0070000000000001;0.0014590199849236509
55:51.3;0.008031775495917852;-0.17580050333511105;-0.9918039020409904;1.008;0.0014004173650666828
55:51.3;0.008245296971418207;-0.17446280147614934;-0.9936574375544568;1.008;0.001429373847725889
55:51.4;0.008897891142859389;-0.17332171118831413;-0.9951050796450713;1.008;0.001534648783842421
55:51.4;0.009912515337254211;-0.172350217240283;-0.9961022769133261;1.0090000000000001;0.0017017652074372473
55:51.4;0.01120052422506985;-0.17151330780767288;-0.9966189154426726;1.011;0.0019145437638633292
55:51.4;0.012670008470257095;-0.1707733016105121;-0.9966379291876505;1.013;0.002156424668046239
55:51.4;0.01423267289400347;-0.1700938938603287;-0.9961551675161564;1.0090000000000001;0.0024115828331760423
55:51.4;0.015809303144518918;-0.1694429948598527;-0.9951800659550227;1.0090000000000001;0.002665864149396871
55:51.4;0.01733370838594841;-0.1687948337573871;-0.9937368837492235;1.0090000000000001;0.0029075155466896543
55:51.4;0.01875512825420216;-0.1681315958688195;-0.9918666435397233;1.006;0.0031276824900711452
55:51.4;0.020039510674072124;-0.16744446925145834;-0.9896297065607969;1.0070000000000001;0.003320707655018686
55:51.4;0.021170136350642098;-0.16673381124695233;-0.9871083145887367;1.005;0.0034842727370217545
55:51.5;0.02214753221794971;-0.16600823185129054;-0.9844079341213122;1.003;0.0036193457409896667
55:51.5;0.022988001297280236;-0.165282673318041;-0.9816560893593649;0.9990000000000001;0.0037298202843216834
55:51.5;0.023720143315336506;-0.16457595813515452;-0.9789977317464083;0.9940000000000001;0.003821777386917275
55:51.5;0.02437965487993417;-0.1639083460694952;-0.9765870551564861;0.9890000000000001;0.0039024701046729083
55:51.5;0.025003626347881332;-0.1632991861319068;-0.9745766998291935;0.986;0.003979266672127135
55:51.5;0.0256254957153137;-0.1627644853062008;-0.9731059889936875;0.986;0.004058747835736519
55:51.5;0.02627113199287236;-0.16231466513179688;-0.972289759488296;0.986;0.004146028261788831
55:51.5;0.02695619791296221;-0.16195326002034494;-0.9722085423961021;0.9840000000000001;0.004244316516011978
55:51.5;0.027684997344941193;-0.1616772244971792;-0.9729000663678322;0.983;0.004354733319317985
55:51.5;0.02845093463579191;-0.16147920274281574;-0.974352028771986;0.983;0.004476401454614998
55:51.6;0.029238507833522272;-0.16135167757386848;-0.9764967744354313;0.983;0.004606801537722332
55:51.6;0.03002650981275767;-0.16129205216237258;-0.9792093280546095;0.986;0.004742347385441479
55:51.6;0.03079163716003107;-0.1613068968439428;-0.9823106218275723;0.988;0.004879042005750327
55:51.6;0.03151137698992185;-0.16141357344185597;-0.9855775806677759;0.9940000000000001;0.005013006290051397
55:51.6;0.032165624666403256;-0.1616381402526319;-0.9887607932116858;1.012;0.0051407569599184275
55:51.6;0.032737457192049665;-0.16200961280913379;-0.9916083318603472;1.012;0.005259275179198929
55:51.6;0.03321342705005931;-0.16255225392081646;-0.9938915447761393;1.012;0.005365938382059027
55:51.6;0.03358293547677562;-0.1632786030746605;-0.9954278304392297;1.016;0.005458303872481043
55:51.6;0.03383632119886379;-0.16418531092397612;-0.9960973723152456;1.018;0.005533746153673783
55:51.6;0.0339624054951509;-0.16525209902725826;-0.995853005822337;1.016;0.005589084376838242
55:51.7;0.03394696416663996;-0.1664429341709561;-0.994723086404987;1.014;0.005620416534336432
55:51.7;0.03377316297491159;-0.1677086290637707;-0.9928074474527957;1.011;0.005623311878217126
55:51.7;0.033424025880365756;-0.16899091006897082;-0.9902670269989285;1.01;0.005593381249873801
55:51.7;0.032886371454860196;-0.17022820299789532;-0.9873079896563723;1.0070000000000001;0.005527135656948184
55:51.7;0.03215531936881333;-0.17136265195671152;-0.9841611952070416;0.988;0.005422945489912937
55:51.7;0.03123819997145516;-0.1723470798378964;-0.981058767117918;0.988;0.005281836497274226
55:51.7;0.03015676827754562;-0.173150461683562;-0.9782114142900097;0.988;0.005107885799630882
55:51.7;0.02894703709199317;-0.1737610332924708;-0.975790760067988;0.988;0.004908097816994585
55:51.7;0.027656513734865253;-0.17418694905860746;-0.9739187519945733;0.988;0.004691759847151789
55:51.7;0.026339305809031426;-0.17445486569828672;-0.9726633768878241;0.986;0.004469407725995895
55:51.8;0.025050434675026004;-0.17460683785801032;-0.972038879705223;0.983;0.004251675883322473
55:51.8;0.02384099739504324;-0.17469594395542543;-0.9720093567986933;0.986;0.004048346599882366
55:51.8;0.02275506562850857;-0.174781370206514;-0.9724954928093035;0.988;0.003867771681247871
55:51.8;0.0218280046106084;-0.17492371397810488;-0.9733842737028483;0.99;0.0037166105206138025
55:51.8;0.021085291731485593;-0.17518065623670795;-0.9745408301125148;0.993;0.0035996958094067937
55:51.8;0.02054133245293975;-0.17560266090894247;-0.9758210348942131;0.993;0.003519896386760271
55:51.8;0.020198603131275698;-0.17622869842378466;-0.977083600817123;0.993;0.0034780009316443586
55:51.8;0.020047770316274714;-0.17708260618814597;-0.9782010350429604;0.996;0.0034727226615192007
55:51.8;0.02006904395289151;-0.17817077799401687;-0.979069375926127;0.9990000000000001;0.003500875182705023
55:51.8;0.02023449033278197;-0.17948148518481538;-0.979616551136062;1.002;0.0035576894718289255
55:51.9;0.02051082212039399;-0.18098570248265236;-0.9798085145196148;1.002;0.003637211413153505
55:51.9;0.02086214535904119;-0.18263899787816198;-0.9796518701897305;1.001;0.003732710036936058
55:51.9;0.02125203237742044;-0.18438398954509036;-0.9791920116610792;0.9990000000000001;0.0038369976951820716
55:51.9;0.021644431017406388;-0.18615318297420166;-0.9785066273302475;0.998;0.0039425790661179695
55:51.9;0.02200364298564292;-0.18787231604797533;-0.9776952996682533;0.991;0.004041670517886604
55:51.9;0.022294274655988548;-0.18946421963151164;-0.9768667637103805;0.991;0.004126253315161485
55:51.9;0.022481877014058793;-0.1908529207354918;-0.9761260627563038;0.991;0.00418829522783609
55:51.9;0.022534374171891743;-0.19196782043646596;-0.9755637662244458;0.991;0.0042201666093549485
55:51.9;0.022424311457402243;-0.19274799841677312;-0.9752484318439363;0.9940000000000001;0.004215258902895035
55:51.9;0.02213226238878936;-0.19314641584983572;-0.9752224045662075;0.991;0.004168848703901474
55:52.0;0.02165128533772706;-0.1931334401105213;-0.9755005773235909;0.991;0.004079140747326468
55:52.0;0.02099104189732486;-0.1926994500290927;-0.976071842682388;0.996;0.003948173736589192
55:52.0;0.020179667201517325;-0.19185666546478142;-0.9769030785771792;0.997;0.003782181533968998
55:52.0;0.019262487695501776;-0.19063981805920824;-0.9779451837650576;0.997;0.003591207516324446
55:52.0;0.018297808621556277;-0.18910461841644965;-0.9791402007194439;1.001;0.0033880210373205097
55:52.0;0.0173504057866511;-0.18732357312178363;-0.9804283882045632;1.001;0.0031865295285691954
55:52.0;0.016483969066649964;-0.18538004740671096;-0.9817541384483117;1.001;0.003000043282144173
55:52.0;0.015754396416009096;-0.18336183883613963;-0.9830698814697783;1.003;0.0028398481304028147
55:52.0;0.015205238276834806;-0.1813548609129413;-0.9843376580192144;1.002;0.0027143542776800126
55:52.0;0.014865184668844825;-0.1794373273570783;-0.9855284808467949;1.001;0.002628768125964102
55:52.1;0.014746921950176546;-0.17767531933848846;-0.9866198375648328;1.002;0.0025851058459373808
55:52.1;0.014847362679120473;-0.1761205289989029;-0.9875920410116769;1.001;0.0025824794825456488
55:52.1;0.015149972354014456;-0.1748099649260201;-0.9884245019830942;1.001;0.0026177099788820377
55:52.1;0.015629403162081466;-0.17376655730300214;-0.989093137625119;0.9990000000000001;0.0026862459862501764
55:52.1;0.016257198509988125;-0.1729996567806722;-0.98957005528928;1.005;0.0027831556497214527
55:52.1;0.017006519563327823;-0.17250509919820145;-0.9898261609494257;1.005;0.0029038642372503894
55:52.1;0.017854447360109216;-0.17226513090758053;-0.9898363209660765;1.005;0.00304443829726022
55:52.1;0.0187816855579939;-0.17224863226168033;-0.9895858330463747;1.0090000000000001;0.0032014285727944574
55:52.1;0.01977048238324483;-0.17241191550855858;-0.98907671083165;1.011;0.0033714328857633027
55:52.1;0.020802102827369332;-0.1727003837385041;-0.9883320932871986;1.011;0.0035506138226401806
55:52.2;0.021855184420273364;-0.1730515697337546;-0.9873967758949971;1.006;0.0037344076449139555
55:52.2;0.02290567692567799;-0.1734000893407708;-0.9863323723630145;1.0;0.0039175607073507835
55:52.2;0.023928208057115156;-0.17368450183466994;-0.9852074610433276;0.995;0.004094481712322066
55:52.2;0.0248983109974336;-0.1738550735758545;-0.9840852889022962;0.995;0.004259807717201737
55:52.2;0.025794961836758504;-0.17388055768814317;-0.9830126642584303;0.993;0.004409050032042939
55:52.2;0.02660281596582947;-0.173752093762229;-0.9820129415292675;0.996;0.0045391534840672
55:52.2;0.02731338732570057;-0.17348342979779136;-0.9810841926701316;0.996;0.004648789070759046
55:52.2;0.027924565316363118;-0.1731081011276112;-0.9802019567579145;0.9940000000000001;0.004738265359796401
55:52.2;0.028438473935015328;-0.17267488297475492;-0.9793252094331577;0.9940000000000001;0.004809084322122664
55:52.2;0.028858499552987672;-0.1722425326628055;-0.9784044701652911;0.9940000000000001;0.004863316992811477
55:52.3;0.02918681625338994;-0.17187420441012233;-0.9773914737440349;0.9940000000000001;0.004903046036591171
55:52.3;0.029423466778561218;-0.17163155292651627;-0.9762498002612077;0.995;0.004930056898733714
55:52.3;0.02956707762393045;-0.17156860932573628;-0.9749653251263336;0.997;0.004945786931931244
55:52.3;0.029616277244710616;-0.1717259236708649;-0.9735546822959431;1.0;0.004951384785289109
55:52.3;0.029570698070941162;-0.17212584229983305;-0.9720694731084961;0.987;0.004947718245971542
55:52.3;0.029431201411865966;-0.17276969127365743;-0.9705944943687369;0.987;0.004935297890896075
55:52.3;0.029199769380372564;-0.17363723072188023;-0.9692401462991489;0.987;0.004914209494908188
55:52.3;0.02887960251504503;-0.1746885482398425;-0.9681308661902954;0.982;0.004884158101843105
55:52.3;0.028475615196546813;-0.17586844276250363;-0.9673915257113537;0.982;0.004844660097901532
55:52.3;0.027995192273516132;-0.17711277258715188;-0.9671332305150099;0.981;0.004795342618302951
55:52.4;0.027448729428380714;-0.17835548428534184;-0.9674399244311166;0.981;0.004736229300890918
55:52.4;0.026849191735806452;-0.1795349888535245;-0.9683571062203847;0.981;0.004667838904041214
55:52.4;0.026210102318726756;-0.1805992306482511;-0.9698835960138609;0.981;0.0045909675834561415
55:52.4;0.02554223932964748;-0.18150933288842216;-0.9719672625249135;0.977;0.004506190710204157
55:52.4;0.024850465803336386;-0.18224177289226043;-0.9745059990699322;0.9940000000000001;0.004413335893641538
55:52.4;0.024132532716393533;-0.18278905976216422;-0.9773548830252163;0.9940000000000001;0.004311271663574038
55:52.4;0.023380794160451843;-0.18315899543179023;-0.9803387063453928;0.9940000000000001;0.004198205192401317
55:52.4;0.02258635534134503;-0.1833726375950729;-0.9832676461082334;1.002;0.004072418835327415
55:52.4;0.021744291594953696;-0.18346114410922204;-0.985954213979008;1.01;0.003933200706172579
55:52.4;0.020858257557977763;-0.18346188798623747;-0.9882301120745299;1.012;0.0037816555367462964
55:52.5;0.01994292324705698;-0.18341444478134866;-0.9899609533400516;1.011;0.0036210991670679532
55:52.5;0.019023468449140338;-0.18335704294870997;-0.9910566369596914;1.011;0.0034568916938076625
55:52.5;0.01813254574077603;-0.18332380717246305;-0.9914765157823843;1.012;0.003295794172187664
55:52.5;0.01730592122593796;-0.18334280675794945;-0.9912298689938053;1.014;0.0031450892806032583
55:52.5;0.016578066476379192;-0.18343473449934677;-0.9903723774496702;1.006;0.003011715687681766
55:52.5;0.01597851695816524;-0.18361204560026229;-0.9889990638215581;1.006;0.002901573107713959
55:52.5;0.015529292259271051;-0.18387851242803244;-0.9872345311154905;1.006;0.002819051322960216
55:52.5;0.01524339081112269;-0.18422924997324958;-0.9852217398104418;1.001;0.0027667769864720654
55:52.5;0.015124274926609862;-0.18465123615642828;-0.9831102542888402;0.997;0.0027455477970515824
55:52.5;0.015166201983516711;-0.1851242926565905;-0.981044649858931;0.992;0.0027544127590015234
55:52.6;0.015355162944809896;-0.1856225709989335;-0.9791542520534906;0.995;0.0027908489218228636
55:52.6;0.01567016161892722;-0.1861165763644794;-0.977545608161408;0.996;0.002850989118028042
55:52.6;0.01608475614265383;-0.18657538275599153;-0.9762981790842207;0.993;0.002929889906296298
55:52.6;0.016568911690315512;-0.1869684475419167;-0.975462526562473;0.99;0.0030218499480388827
55:52.6;0.01709095781224953;-0.18726685415430722;-0.975060124983157;0.993;0.0031207480905959214
55:52.6;0.0176192102136361;-0.1874443288588958;-0.975084601847604;0.993;0.0032203349155222223
55:52.6;0.01812310677020311;-0.18747826492525207;-0.9755044000153167;0.993;0.0033144601912125505
55:52.6;0.018574219347404174;-0.18735060973880777;-0.976266450842193;0.995;0.003397301148447724
55:52.6;0.01894762059133802;-0.18704852461840374;-0.9773002598447417;0.997;0.003463673771941465
55:52.6;0.019223651491274255;-0.18656512222603155;-0.9785219055490919;0.996;0.0035094325014019658
55:52.7;0.019389532390674195;-0.18590072710178296;-0.9798376268863075;0.995;0.003531852327735818
55:52.7;0.01944012242671899;-0.18506472801181512;-0.9811471913896488;0.996;0.003529854578659613
55:52.7;0.01937771786734353;-0.1840775027389968;-0.9823480028237093;0.996;0.00350403720609119
55:52.7;0.019211542383135872;-0.1829715621025946;-0.9833412497406238;0.9990000000000001;0.003456607649056982
55:52.7;0.018957755541533047;-0.1817911631643053;-0.9840408678838138;1.0090000000000001;0.003391351637116496
55:52.7;0.01864020761954949;-0.18059011336177336;-0.9843845778986942;1.0090000000000001;0.0033136719922194245
55:52.7;0.01829128006785044;-0.17942808631346105;-0.9843443078682922;1.0090000000000001;0.0032305878766178053
55:52.7;0.0179516736277505;-0.17836601749347838;-0.9839325104872373;1.005;0.003150520936511239
55:52.7;0.017668247889083805;-0.17746089458625317;-0.9832021446689732;1.002;0.00308275469293345
55:52.7;0.017489684907725643;-0.17676004501643006;-0.9822402587600703;0.998;0.0030365736513126526
55:52.8;0.017460473559651232;-0.17629526313042349;-0.9811567083747448;0.9940000000000001;0.0030201953832775324
55:52.8;0.017614321654665224;-0.17607771274035325;-0.9800702552407603;0.992;0.00303967757494712
55:52.8;0.017968379142770646;-0.1760951617323658;-0.9790943446909538;0.99;0.0030979961142065223
55:52.8;0.018519467110954386;-0.17631313931967182;-0.978324474833345;0.988;0.0031944499098554516
55:52.8;0.019243032810707487;-0.17668062377065222;-0.9778285586096611;0.991;0.0033244909987316467
55:52.8;0.02009498060067112;-0.17713919551263696;-0.9776411945085574;0.991;0.00348002009895311
55:52.8;0.021016064862205634;-0.17763307629982195;-0.977762223533719;0.991;0.0036501313368202497
55:52.8;0.021938438299644973;-0.1781171471560369;-0.9781594446326938;0.993;0.0038222676258125913
55:52.8;0.022793925596143516;-0.17856123649462088;-0.9787750470996601;0.996;0.003983723613299078
55:52.8;0.023523040387471356;-0.17895068621571275;-0.9795349907996715;0.9990000000000001;0.004123317495243176
55:52.9;0.02408302275204185;-0.1792842146181512;-0.98036003594114;1.0;0.004232906232614644
55:52.9;0.024453113237050204;-0.17957016053011135;-0.9811767013202972;1.003;0.004308395433757513
55:52.9;0.02463596901818855;-0.17982187931989296;-0.9819263824033396;1.004;0.004350018562955856
55:52.9;0.02465504632362179;-0.18005304365142288;-0.9825710724778722;1.001;0.0043618453557163735
55:52.9;0.024548592920276637;-0.18027388907189312;-0.9830947321497847;0.9990000000000001;0.00435065655590927
55:52.9;0.024361588660121457;-0.18048928406692552;-0.9835006256232504;0.9990000000000001;0.004324457852883277
55:52.9;0.02413749624720524;-0.18069856558434186;-0.9838062885664504;0.9990000000000001;0.004290980279579291
55:52.9;0.02391165734257294;-0.18089624597911888;-0.984038126281914;1.001;0.0042564854999758385
55:52.9;0.023707376517451917;-0.18107284566255674;-0.9842268380623673;1.002;0.004225051696984947
55:52.9;0.023534745267973167;-0.18121582210253817;-0.9844037588979136;1.002;0.004198352298811131
55:53.0;0.023391742774734818;-0.18131092996679213;-0.9845975544450488;1.002;0.004175854113000869
55:53.0;0.023267067572230307;-0.18134418158618978;-0.9848306937180544;1.002;0.004155342754886594
55:53.0;0.02314406691492532;-0.1813043049727004;-0.9851155204311229;0.9990000000000001;0.004133661919230447
55:53.0;0.023004885368993325;-0.1811854222623602;-0.9854502613604876;1.002;0.004107504378464111
55:53.0;0.022833873943750246;-0.18098942162183718;-0.9858157368204742;1.0;0.004074070480994004
55:53.0;0.02261972794891544;-0.18072731529855146;-0.9861736273636336;1.0;0.004031480456253417
55:53.0;0.022356485660320047;-0.18041922859659765;-0.9864669357682153;1.0;0.0039789537424587355
55:53.0;0.02204380652132491;-0.18009328790051454;-0.986623079331956;1.002;0.003916836000504914
55:53.0;0.021686781648456634;-0.1797838052137067;-0.9865598209505438;1.003;0.003846529781701718
55:53.0;0.021295310327342575;-0.17952883199818231;-0.9861937762790494;1.002;0.0037703393098374987
55:53.1;0.02088303027125265;-0.17936703112704303;-0.9854507099931265;1.004;0.0036912294702342286
55:53.1;0.020465953392352836;-0.1793340561025226;-0.9842764856778388;1.006;0.0036125333243812803
55:53.1;0.020061226751388817;-0.17945887157100096;-0.9826471560834957;1.006;0.0035376920118176474
55:53.1;0.019686466509718108;-0.17976055679584782;-0.9805762041353051;1.004;0.0034701122776157355
55:53.1;0.01935974574372145;-0.18024625892820925;-0.9781169896134104;0.993;0.003413160503536587
55:53.1;0.019099887920707846;-0.18091086248131766;-0.9753597132093758;0.993;0.0033702357119271115
55:53.1;0.018926574865479627;-0.18173829050318363;-0.9724240974683641;0.993;0.0033448309880265027
55:53.1;0.018859858688476925;-0.18270377213173392;-0.9694496924311043;0.987;0.003340498072689313
55:53.1;0.01891875102371351;-0.18377661541516366;-0.9665848031155715;0.982;0.0033606452714911783
55:53.1;0.019118697828087186;-0.18492341908952517;-0.963974381183295;0.9790000000000001;0.003408126576759003
55:53.2;0.019468107273534853;-0.18611138163602295;-0.9617478691965513;0.973;0.003484639832010153
55:53.2;0.01996449065599021;-0.18731087249471629;-0.9600088359282167;0.972;0.0035900165596768757
55:53.2;0.020590992281859;-0.1884966158546875;-0.9588283763641461;0.9740000000000001;0.003721531606997412
55:53.2;0.0213144796972092;-0.18964746525983794;-0.9582435929066526;0.978;0.0038734477521677455
55:53.2;0.02208678768010434;-0.19074506189047533;-0.9582609856478754;0.981;0.004037101482675695
55:53.2;0.022849866174444785;-0.19177173734070313;-0.9588628142878617;0.981;0.004201697092268448
55:53.2;0.02354341223041079;-0.19270825679460293;-0.9600136842744775;0.981;0.004355591618411619
55:53.2;0.024112298054012753;-0.19353224513521083;-0.9616653103160195;0.981;0.004487618073194872
55:53.2;0.02451202759281948;-0.19421798687735675;-0.9637589027747591;0.983;0.004588144507907279
55:53.2;0.024712123881781838;-0.19473770823202016;-0.9662258299697125;0.985;0.00464984814985924
55:53.3;0.024698115125681125;-0.19506386007553242;-0.9689876754853054;0.987;0.004668301297208431
55:53.3;0.024472548017243557;-0.19517173219356426;-0.9719567275909801;0.99;0.004642405115106583
55:53.3;0.024054856593381087;-0.1950419247541968;-0.9750376447074183;0.9940000000000001;0.004574589509299704
55:53.3;0.023479569217586843;-0.19466253046982157;-0.9781307005439567;0.996;0.004470636705263
55:53.3;0.02279257703292214;-0.1940311063608663;-0.9811366007279788;1.006;0.004339046141157868
55:53.3;0.022045904014487312;-0.19315651633324132;-0.9839621992109654;1.006;0.004190016091075036
55:53.3;0.02129213610275788;-0.19206057548230723;-0.9865256661798062;1.006;0.004034278243076001
55:53.3;0.02057976384598696;-0.19077921250654586;-0.988759654633025;1.0090000000000001;0.0038820593957165027
55:53.3;0.0199500176136478;-0.1893626306594627;-0.9906120859358714;1.011;0.0037423222696442403
55:53.3;0.019434975136322655;-0.18787382925450605;-0.9920451359024934;1.0090000000000001;0.0036222774204923785
55:53.4;0.019056441963091683;-0.18638493927481448;-0.9930331706781347;1.0070000000000001;0.0035270887583733162
55:53.4;0.01882533998139888;-0.18497114132442458;-0.9935605751080214;1.005;0.0034597216134221393
55:53.4;0.018741747286008796;-0.18370260961251092;-0.9936209805383418;1.0070000000000001;0.003420945508734018
55:53.4;0.018795988769898967;-0.18263592205017712;-0.9932193676859274;1.013;0.003409546031037062
55:53.4;0.01897109673683563;-0.1818070957527723;-0.9923770994093314;1.016;0.0034227880069923316
55:53.4;0.01924659757362114;-0.18122818092624984;-0.991137802193374;1.012;0.0034571142920964085
55:53.4;0.019603083048548298;-0.18088817751213102;-0.9895708979169761;1.012;0.0035089847252256835
55:53.4;0.020026544527704793;-0.18075763594649547;-0.9877704058153636;1.005;0.0035756803152023993
55:53.4;0.020511282224681075;-0.18079543406733561;-0.9858486042363626;0.9990000000000001;0.00365586789876489
55:53.4;0.021060555609854453;-0.1809560079974373;-0.9839261332733036;0.996;0.0037497760156453863
55:53.5;0.021684814522759627;-0.18119542297788668;-0.9821214593679357;0.995;0.0038589409719641797
55:53.5;0.022398050224909358;-0.18147508920169805;-0.9805426171342372;0.997;0.0039855999687016565
55:53.5;0.023213333729262695;-0.1817627944879094;-0.9792825946989613;0.9990000000000001;0.004131907037023518
55:53.5;0.02413865545925431;-0.18203175601501773;-0.9784176147773936;0.997;0.004299168800686319
55:53.5;0.02517362230504152;-0.18225911727027855;-0.9780063128824851;0.9940000000000001;0.0044872124561325406
55:53.5;0.026306909813721142;-0.18242528114337594;-0.9780881710028612;0.9940000000000001;0.004693889556215672
55:53.5;0.02751425120630653;-0.18251452289407358;-0.97868097685288;0.9940000000000001;0.004914691618014109
55:53.5;0.028757147450984708;-0.18251630865165155;-0.9797781854899693;0.995;0.005142511205729687
55:53.5;0.02998285644223343;-0.18242670212885376;-0.981347147231132;0.998;0.005367648604410253
55:53.5;0.031126252039181297;-0.18224984728003307;-0.9833286376376428;1.0;0.005578182131668559
55:53.6;0.03211401133663861;-0.1819996522967223;-0.9856376050876816;1.001;0.005760794448921382
55:53.6;0.032871451730086175;-0.18170127214066598;-0.9881649240800227;1.002;0.005902096237314293
55:53.6;0.0333319031635104;-0.18139155872578583;-0.9907803713935202;1.005;0.005990382835095511
55:53.6;0.033447395973915675;-0.18111780309867156;-0.9933376234438692;1.01;0.006017558741454119
55:53.6;0.03319797124738757;-0.18093452741489863;-0.9956819940273055;1.015;0.005980722448310472
55:53.6;0.03259622400952931;-0.18089839632609622;-0.9976606355261507;1.018;0.0058828103421764135
55:53.6;0.03168490843711728;-0.18106162721297808;-0.9991337095806851;1.018;0.005731951239950947
55:53.6;0.030528167284872416;-0.18146479768462248;-0.9999845197879907;1.02;0.005539701942943601
55:53.6;0.029199170795442403;-0.18213034652607638;-1.0001270600341534;1.018;0.0053187308075100465
55:53.6;0.02776736350849205;-0.18305800442678477;-0.9995103906688786;1.016;0.005080549449147986
55:53.7;0.026287739454827024;-0.18422313048363534;-0.9981201484001522;1.015;0.00483370589222737
55:53.7;0.024793647789575535;-0.18557856323588826;-0.9959780691394786;1.013;0.0045826639484221315
55:53.7;0.02329407474691037;-0.18705980010380377;-0.9931404999944387;1.012;0.004327495483563253
55:53.7;0.02177601556682326;-0.18859240597116086;-0.9896964537198146;1.011;0.004064476655347916
55:53.7;0.02021166546746554;-0.19010025761523203;-0.9857651359816902;1.002;0.0037875490082411203
55:53.7;0.018568590384854946;-0.19151338199578555;-0.9814926555735408;1.002;0.0034903189551819935
55:53.7;0.016819998547639235;-0.19277414959900088;-0.9770479059566022;1.002;0.0031680396483951385
55:53.7;0.014952515210445308;-0.19384076859363758;-0.9726174817219476;0.995;0.0028190413570288123
55:53.7;0.0129699079652053;-0.194687854301969;-0.9683986765909367;0.99;0.0024452875702705994
55:53.7;0.010892517828857834;-0.19530479526341682;-0.9645894012129348;0.985;0.002052029838880149
55:53.8;0.008753685143794012;-0.19569302133917615;-0.9613749229158426;0.978;0.001646868981101164
55:53.8;0.006595602126043275;-0.19586311585115138;-0.9589127429980809;0.971;0.00123875721914007
55:53.8;0.004466669507969863;-0.1958324113900133;-0.9573180413624636;0.966;0.0008373839549355777
55:53.8;0.0024203905565041497;-0.19562351645071807;-0.9566528877360794;0.9670000000000001;0.0004529610908794832
55:53.8;0.0005137374952840273;-0.19526392602841094;-0.9569222002508184;0.981;9.599307663006262e-05
55:53.8;-0.0011970098502949076;-0.19478630755193826;-0.9580773175811301;0.981;0.0002233863888853649
55:53.8;-0.002662768123580539;-0.19422865632320352;-0.9600248436658679;0.981;0.0004965112885466375
55:53.8;-0.0038486092124199924;-0.19363365042801026;-0.962636865884786;0.9840000000000001;0.000717376486693058
55:53.8;-0.0047394406301575825;-0.19304700381787596;-0.9657598877479224;0.987;0.0008836073427096343
55:53.8;-0.005343179325522908;-0.19251515442958617;-0.9692217595401851;0.988;0.000996983171612218
55:53.9;-0.005690143501719262;-0.19208299908858137;-0.9728368576836183;0.987;0.0010632910624090925
55:53.9;-0.005828005510052752;-0.191792269654476;-0.9764104548266554;0.99;0.001091398803243577
55:53.9;-0.005813364040573075;-0.1916805203704361;-0.9797441229646874;0.9940000000000001;0.0010917373455194793
55:53.9;-0.005702593919448761;-0.1917800055013769;-0.9826442547204745;0.998;0.0010746624953486483
55:53.9;-0.005545137574398075;-0.19211556610518968;-0.9849347650157136;1.011;0.001049258140271757
55:53.9;-0.005381301262572476;-0.19270129499666164;-0.9864730293309979;1.011;0.001022956473672282
55:53.9;-0.0052440233897703675;-0.1935366984896031;-0.9871660646336472;1.011;0.0010018856718198796
55:53.9;-0.005161897752778681;-0.19460352478534845;-0.9869833369637635;1.013;0.0009914479533963251
55:53.9;-0.005160754318277507;-0.1958643076147545;-0.985963719421295;1.015;0.0009966195926371616
55:53.9;-0.00526246525949898;-0.19726334455371208;-0.9842153845645201;1.011;0.0010217056226086646
55:54.0;-0.005480802118748381;-0.1987302756148813;-0.9819078603728355;1.006;0.0010694953333646692
55:54.0;-0.005815132260806425;-0.20018563159790878;-0.979256168338845;0.997;0.0011399579071222636
55:54.0;-0.006243960982646422;-0.20154721917436652;-0.9764986073848304;0.992;0.0012288775752868192
55:54.0;-0.006721363926377316;-0.2027363662531007;-0.9738714572662511;0.99;0.0013270604506609896
55:54.0;-0.007179109072983032;-0.2036834320453492;-0.9715844442800776;0.983;0.0014207144860889807
55:54.0;-0.007535056613366207;-0.20433222555466388;-0.9698001512254211;0.983;0.0014931575427222813
55:54.0;-0.007705332655940305;-0.2046433295818505;-0.9686195293301663;0.983;0.0015273627941628832
55:54.0;-0.007616274914279404;-0.2045967873378247;-0.968074747604271;0.982;0.001508517363420943
55:54.0;-0.0072132282891213565;-0.20419465150780577;-0.9681297516267691;0.9840000000000001;0.001425960863880783
55:54.0;-0.0064652821148944856;-0.20346333235811112;-0.9686882790429322;0.988;0.001274258907915224
55:54.1;-0.005366402671342786;-0.20245494211772447;-0.9696085661260336;0.993;0.0010534358247522612
55:54.1;-0.003934077606597382;-0.20124649186774532;-0.9707230890381641;0.996;0.0007685402211107548
55:54.1;-0.00220671664017711;-0.1999360519666692;-0.9718606273463917;1.0;0.0004287870593632895
55:54.1;-0.00024057386745711368;-0.19863557786216207;-0.9728674155167141;1.001;4.648995714071576e-05
55:54.1;0.0018937587979081325;-0.1974608003758886;-0.9736244045215234;0.9990000000000001;0.0003640801552789543
55:54.1;0.0041154432177918105;-0.19651944943815464;-0.974058543902175;0.9990000000000001;0.0007877841030729135
55:54.1;0.00633774794181198;-0.19589992953986685;-0.9741472137554481;0.9990000000000001;0.0012094664768404104
55:54.1;0.008472074700727576;-0.19566262304148885;-0.9739159644136771;0.996;0.0016144296780931122
55:54.1;0.010431612274520352;-0.19583495626122563;-0.9734303006000904;0.993;0.0019885957765614797
55:54.1;0.01213509162002519;-0.19641012083533263;-0.9727827224942053;0.99;0.0023185836604115782
55:54.2;0.013510870766198823;-0.1973488838334792;-0.9720768736909976;0.985;0.002591902290469302
55:54.2;0.014501010993984766;-0.19858416654885902;-0.9714112771530774;0.982;0.002797345061033652
55:54.2;0.015064707049359626;-0.2000281548882238;-0.9708656007025113;0.982;0.0029255729597059176
55:54.2;0.01518042904217925;-0.20158105647931784;-0.970492473402752;0.983;0.0029697913278281017
55:54.2;0.014846325109698189;-0.20313981453615942;-0.9703170175771934;0.997;0.002926359424332686
55:54.2;0.014078948747067069;-0.204605164007983;-0.9703439480297488;0.997;0.0027951976344356023
55:54.2;0.01291108910454727;-0.20588645418312893;-0.9705690245373189;0.997;0.002579984396186098
55:54.2;0.011389704883617917;-0.20690482269028443;-0.9709900764720665;0.9990000000000001;0.002288220522590103
55:54.2;0.00957445810768536;-0.20759592806754418;-0.9716139158434376;0.9990000000000001;0.001931197810125167
55:54.2;0.007536887129191212;-0.20791333410406498;-0.9724576135398625;0.997;0.0015238598797693234
55:54.3;0.005360289679086534;-0.2078327531945636;-0.9735442538466063;0.995;0.0010845709029556998
55:54.3;0.003140241078354866;-0.20735615499847246;-0.9748945516114215;0.995;0.0006348009453408998
55:54.3;0.0009848256877682904;-0.2065141806719046;-0.9765166527173866;0.995;0.00019860441580627088
55:54.3;-0.0009872450726933332;-0.205365678164165;-0.9783965239706153;0.996;0.00019836623003241407
55:54.3;-0.0026523317613140578;-0.20399391597534516;-0.9804906956559343;0.998;0.0005305038471741994
55:54.3;-0.0038915616604574973;-0.20249982098430772;-0.9827223837229058;0.998;0.000774425077538173
55:54.3;-0.004602662663054127;-0.2009933518894778;-0.9849816258772112;0.998;0.0009112110293343979
55:54.3;-0.0047112368588509545;-0.19958428613955345;-0.9871301158052923;1.003;0.000928187436759429
55:54.3;-0.0041796510791750115;-0.19837309199074538;-0.9890114397278374;1.0070000000000001;0.0008200193596552658
55:54.3;-0.0030128978865190436;-0.19744216583146573;-0.9904665743988692;1.015;0.0005892019058535696
55:54.4;-0.001261146212082956;-0.1968481378533166;-0.9913527550522483;1.018;0.000246107567811325
55:54.4;0.0009813301588585492;-0.19661646708425728;-0.991562192906719;1.02;0.00019131763054452427
55:54.4;0.003581087421220883;-0.19673946357172342;-0.9910365930369339;1.02;0.000698226128592974
55:54.4;0.006374541113899721;-0.1971784035923036;-0.9897741529906516;1.0170000000000001;0.001244068750028874
55:54.4;0.009181282946649499;-0.19786982991195057;-0.9878274428338272;1.002;0.001794585023873589
55:54.4;0.011820969845107408;-0.198735186032703;-0.9852932124642915;1.002;0.0023146928288596377
55:54.4;0.014131280299542564;-0.19969175054039076;-0.982297924468868;1.002;0.0027719466116741336
55:54.4;0.015983673248346743;-0.20066248168479256;-0.978983509756361;0.996;0.003139916856555982
55:54.4;0.017294902599791072;-0.20158321771431142;-0.9754960092596029;0.992;0.0034009323311103823
55:54.4;0.018033574291837356;-0.20240665847637862;-0.9719778906763974;0.992;0.003547831576852969
55:54.5;0.018221171835221518;-0.20310309820754924;-0.9685642264529872;0.991;0.003584439682190255
55:54.5;0.017926972939092217;-0.20365844096879185;-0.9653822372008578;0.991;0.003524590622593939
55:54.5;0.017257129458043762;-0.20407063929848973;-0.9625524217149658;0.987;0.003389795299085123
55:54.5;0.016339571393783954;-0.20434580088169169;-0.9601888369002296;0.9840000000000001;0.003205996402257442
55:54.5;0.015307467339610687;-0.20449471146064319;-0.9583967933168419;0.978;0.003000065760479902
55:54.5;0.01428408405160013;-0.20453000497474633;-0.9572677348988281;0.978;0.0027966804533759632
55:54.5;0.01337107348338524;-0.20446414027900126;-0.9568723088162728;0.978;0.0026159980319077265
55:54.5;0.012641051139111143;-0.2043084861565359;-0.9572529296768117;0.9740000000000001;0.0024722722736334165
55:54.5;0.012134423022003777;-0.20407374898680983;-0.9584168806305421;0.976;0.0023733442042555737
55:54.5;0.011860066753106531;-0.20377165364755917;-0.9603310350462255;0.977;0.002320875625494972
55:54.6;0.011799475772612226;-0.20341730258840704;-0.962919566583324;0.98;0.002311216427181029
55:54.6;0.011913846489455086;-0.20303111699654733;-0.9660658612409171;0.983;0.002336798897964363
55:54.6;0.01215302919106196;-0.20263908789680807;-0.9696192768744557;0.986;0.00238786078919519
55:54.6;0.012464517289601885;-0.202270552679293;-0.973406894620167;0.991;0.0024541581360899563
55:54.6;0.012800486145862107;-0.20195366289044198;-0.9772497929468761;1.011;0.002526293388476604
55:54.6;0.013121837547997447;-0.2017097156447301;-0.9809817654895178;1.011;0.0025964646171115807
55:54.6;0.01339967115445918;-0.20154828559570387;-0.9844661105365112;1.011;0.002658728672500549
55:54.6;0.013615408600491064;-0.20146515732791834;-0.9876056484280141;1.015;0.0027090323521880874
55:54.6;0.013760551875958836;-0.2014441446208327;-0.9903436368739388;1.013;0.002745215331577511
55:54.6;0.013836374126556479;-0.2014624885607477;-0.9926563947334799;1.011;0.0027670399884026386
55:54.7;0.013853328114173991;-0.2014983184994264;-0.9945402408724086;1.011;0.002776181827132884
55:54.7;0.013829798881435918;-0.20153791292116646;-0.9959962201154379;1.01;0.002776069352070219
55:54.7;0.013790032328184572;-0.2015804903192714;-0.9970163206654463;1.01;0.0027715074420092815
55:54.7;0.013761380872256734;-0.20163923073797146;-0.9975742368748907;1.01;0.0027681031623649275
55:54.7;0.013771018136356731;-0.20173874123437305;-0.9976225352225809;1.014;0.002771542915650388
55:54.7;0.013842165733043742;-0.20191024912041586;-0.9970967600702635;1.014;0.0027867609384444746
55:54.7;0.013990170376265662;-0.20218584718943333;-0.9959257605897598;1.014;0.0028170899973818334
55:54.7;0.014219231440685735;-0.20259252970558256;-0.9940466779237016;1.018;0.0028635602731942144
55:54.7;0.014520524887139197;-0.20314640505982712;-0.9914225421687296;1.021;0.002924490710221288
55:54.7;0.014871970632098086;-0.20384766704949603;-0.9880596573692534;1.0190000000000001;0.0029954179778344677
55:54.8;0.01523950497102808;-0.20467726786694396;-0.984021051668807;1.016;0.0030693390212062884
55:54.8;0.015579577661596723;-0.20559626235437675;-0.9794323541683273;1.008;0.0031372226495281464
55:54.8;0.01584254037622582;-0.20654829646207767;-0.9744780442322843;0.997;0.0031887355135645284
55:54.8;0.015976586682341802;-0.20746494399390916;-0.9693885707406352;0.988;0.003213117579217649
55:54.8;0.015931918806193806;-0.20827304193454765;-0.964421388429374;0.9790000000000001;0.0032001326291825486
55:54.8;0.015664894801071794;-0.20890293089663656;-0.9598403908273037;0.9790000000000001;0.0031410224268562
55:54.8;0.015142159883968094;-0.20929627861990088;-0.9558977398108659;0.9790000000000001;0.003029428931809226
55:54.8;0.014344937106400842;-0.20941213629135597;-0.9528198369458734;0.9790000000000001;0.002862274529447334
55:54.8;0.013273262048036244;-0.20923049497261526;-0.95079646972667;0.975;0.002640524561578451
55:54.8;0.011949130596933283;-0.2087535671118135;-0.9499708659080038;0.97;0.002369629781427311
55:54.9;0.010417186675178294;-0.2080055740887409;-0.9504293141628981;0.9670000000000001;0.002059421502072395
55:54.9;0.008742294410632246;-0.20703163144383416;-0.9521911601943641;0.966;0.0017234007504769535
55:54.9;0.007004521535469771;-0.20589561538030554;-0.9552017070097147;0.968;0.0013775921616548672
55:54.9;0.005292686555620806;-0.20467627281750217;-0.9593310058851379;0.971;0.0010392311502331367
55:54.9;0.0036975679908427565;-0.2034608438826821;-0.9643806710444941;0.9940000000000001;0.0007255135155452687
55:54.9;0.0023056591584413475;-0.2023363704642115;-0.9700984578810614;0.9940000000000001;0.00045256907692042635
55:54.9;0.0011940324680771177;-0.20138034910894675;-0.976197193725217;0.9940000000000001;0.00023473117921549847
55:54.9;0.0004262816938178027;-0.20065313218500672;-0.9823737719730415;1.001;8.40271019255431e-05
55:54.9;4.9046036389110554e-05;-0.2001935716836517;-0.9883264791068648;1.011;9.704082388041336e-06
55:54.9;8.876657114243785e-05;-0.2000177582042043;-0.9937713646449918;1.018;1.7644301824297037e-05
55:55.0;0.0005488181646999279;-0.2001197233645589;-0.9984579226286225;1.024;0.00010965997395835096
55:55.0;0.001407476111828288;-0.2004730695613416;-1.0021827827736276;1.0270000000000001;0.00028277695276593564
55:55.0;0.002617359676958155;-0.20103336102321406;-1.0047996371007755;1.03;0.0005287020696582016
55:55.0;0.004107274366378377;-0.20174197529371535;-1.006224128038873;1.032;0.0008337670162633395
55:55.0;0.005787332261868677;-0.20253211807001456;-1.006433168004225;1.025;0.0011796611101044425
55:55.0;0.007557162189603749;-0.2033366559439765;-1.0054592180577733;1.025;0.0015450369850510668
55:55.0;0.009315364905963597;-0.20409611325374818;-1.0033813409220396;1.025;0.0019076584768739043
55:55.0;0.010967779349363976;-0.20476483516698912;-1.0003152831126978;1.02;0.0022465235983314606
55:55.0;0.012433178669902633;-0.2053142073655399;-0.996403949229418;1.0170000000000001;0.0025435285552704865
55:55.0;0.013646334053191125;-0.20573289211534151;-0.991808638712694;1.011;0.002784502526592408
55:55.1;0.014558997162305881;-0.20602451370269179;-0.9867012743881631;1.005;0.0029596206457755464
55:55.1;0.015139569462472828;-0.20620346554363495;-0.9812580699272221;1.0;0.003063322538767512
55:55.1;0.015372205471396932;-0.2062898953812608;-0.9756550636621847;0.997;0.003093929684474281
55:55.1;0.015255774319077217;-0.2063050729829968;-0.9700655587482754;0.9940000000000001;0.0030531296611891307
55:55.1;0.014802748817913412;-0.20626788804960314;-0.9646589022166172;0.983;0.0029454236405526855
55:55.1;0.014037987646077433;-0.2061925653255434;-0.9595998406186598;0.983;0.0027775892645551105
55:55.1;0.012997586385579667;-0.20608743668951518;-0.9550480795873563;0.983;0.002558229282464057
55:55.1;0.011728147647958273;-0.2059547589886805;-0.951157555988875;0.9790000000000001;0.0022974904703515053
55:55.1;0.010286498373328706;-0.2057917445903211;-0.9480739368085505;0.972;0.002006955385870739
55:55.1;0.008739327793856402;-0.20559306342819805;-0.9459285616427688;0.968;0.0016995925775527044
55:55.2;0.007162122173260521;-0.20535490186643743;-0.9448284013940134;0.965;0.001389631783497777
55:55.2;0.0056372214528607545;-0.20507987367701017;-0.9448434670783203;0.9620000000000001;0.0010923152622687583
55:55.2;0.004251243773039038;-0.2047810491617313;-0.945994221075558;0.96;0.0008235581244583175
55:55.2;0.0030920512082984793;-0.2044832385467295;-0.9482418923425815;0.96;0.0005995474092054977
55:55.2;0.002245059822362993;-0.20422081991007088;-0.9514844870937639;0.965;0.00043624417924242957
55:55.2;0.001788538385023356;-0.20403287002006448;-0.9555604641292901;0.98;0.00034870371686214203
55:55.2;0.0017877356017847305;-0.20395710618403246;-0.9602600748011632;0.98;0.0003501313535965896
55:55.2;0.00228803285394308;-0.2040240915818192;-0.9653419982135306;0.99;0.0004506349901704082
55:55.2;0.0033077512575888355;-0.20425272565243183;-0.9705518774991236;0.997;0.000655721551774794
55:55.2;0.004831813445859277;-0.20464756517398436;-0.9756399379511371;1.002;0.000964731168356709
55:55.3;0.006808025342524899;-0.2051981680320731;-0.9803757018032253;1.005;0.0013695792949261964
55:55.3;0.009147753791846716;-0.20588045720493023;-0.9845585307448973;1.008;0.0018542621387126453
55:55.3;0.011731805824543935;-0.206659943705749;-0.9880237862050135;1.0090000000000001;0.002395458068811041
55:55.3;0.014420709092411122;-0.2074963210240971;-0.9906455629858923;1.01;0.002964253324426605
55:55.3;0.017067217238866138;-0.20834846914316069;-0.992337682723643;1.015;0.0035286819312269195
55:55.3;0.019528417060895396;-0.20917871592558396;-0.9930545691412395;1.015;0.004056557611502097
55:55.3;0.02167556152640319;-0.20995563925446784;-0.9927927575929989;1.015;0.0045181068910487045
55:55.3;0.023401322939155443;-0.21065542197203552;-0.991592835668734;1.0170000000000001;0.004888171470361796
55:55.3;0.024625483271143413;-0.21126216443803633;-0.9895411634763845;1.016;0.005148021501008036
55:55.3;0.025300187763262406;-0.21176752700735404;-0.9867704139963537;1.016;0.005286877272614383
55:55.4;0.02541481959302789;-0.21217005002064748;-0.9834574394356004;1.014;0.005303061698057367
55:55.4;0.0249992186149939;-0.212474536859104;-0.9798166329272258;1.008;0.005204489458715952
55:55.4;0.02412332944819352;-0.21269156740376327;-0.9760874450182491;1.0;0.005008137526715425
55:55.4;0.022891728130279707;-0.2128366838771311;-0.9725162145566446;0.991;0.0047382930176751
55:55.4;0.021432580477077637;-0.2129287594567016;-0.969334544021376;0.981;0.004423667506347983
55:55.4;0.01988233973540733;-0.21298760675025008;-0.9667381642548153;0.981;0.004093838328539948
55:55.4;0.01836950096669961;-0.2130313970412923;-0.9648705715081838;0.981;0.003775809148014128
55:55.4;0.0170013424807795;-0.21307453459132958;-0.9638142242257918;0.985;0.0034914682409916287
55:55.4;0.015855829573404923;-0.21312639033391484;-0.963589514481604;0.986;0.003256253924754707
55:55.4;0.014978368479515931;-0.21319102880971283;-0.9641596421175107;0.987;0.0030788064275377247
55:55.5;0.014381913067846613;-0.21326778953833933;-0.965438967289436;0.988;0.0029611932509337616
55:55.5;0.014049269788248414;-0.2133522258857275;-0.9673031831022756;0.99;0.0028994361370679625
55:55.5;0.013937387628578652;-0.21343672445157583;-0.9696006531923613;0.992;0.0028843198949091427
55:55.5;0.01398388650023033;-0.21351051619199565;-0.9721646150448946;1.0;0.0029025985261965375
55:55.5;0.014115614452444677;-0.2135595061186335;-0.9748255256792274;1.004;0.0029386346027830365
55:55.5;0.01425812784921952;-0.21356664599365838;-0.9774220370789719;1.004;0.0029763092788765563
55:55.5;0.014344398712942788;-0.21351322969174302;-0.9798088188850876;1.004;0.003000878985229339
55:55.5;0.014321201568373259;-0.2133810059748282;-0.9818604176821892;1.003;0.0030004401485219066
55:55.5;0.014152579592117532;-0.21315472324645107;-0.9834720250298861;1.003;0.002966829422819368
55:55.6;0.01382099007716749;-0.2128245653792581;-0.9845591708119884;1.005;0.00289602783784725
55:55.6;0.013327231150800891;-0.21238793927219093;-0.985058350999204;1.008;0.002788250177939605
55:55.6;0.012689660675485706;-0.21185029948653447;-0.9849295700924411;1.012;0.0026477944509537624
55:55.6;0.011942246484928188;-0.21122489559376764;-0.9841602071998923;1.013;0.0024825438932874404
55:55.6;0.011130710056841055;-0.2105313682716517;-0.9827682809826653;1.0090000000000001;0.0023029834346792065
55:55.6;0.010306744357860533;-0.20979330797113735;-0.9808030011185013;1.0;0.002120776591454547
55:55.6;0.009521415495333852;-0.20903540583413185;-0.9783418269472199;1.0;0.0019472064098349452
55:55.6;0.00881955514170153;-0.2082812500080053;-0.9754850790413289;1.0;0.001791915335152403
55:55.6;0.008236669484178387;-0.20755260281621868;-0.9723496803717975;0.993;0.0016622728020073525
55:55.6;0.007798820195835352;-0.20687015275184917;-0.969062756795504;0.988;0.0015634307365601546
55:55.7;0.0075247636290658665;-0.20625485390562573;-0.9657553921267485;0.9840000000000001;0.001498870740133318
55:55.7;0.007428784939185454;-0.20572862742351097;-0.9625573959642989;0.9840000000000001;0.0014710896831671837
55:55.7;0.007522394530829148;-0.20531345156611672;-0.9595941556329459;0.982;0.0014820440279202838
55:55.7;0.00781380019569661;-0.20502839301882314;-0.956985769912323;0.981;0.001533139911576872
55:55.7;0.00830555597084163;-0.20488496370576906;-0.9548473806054919;0.982;0.0016248480647176764
55:55.7;0.008991750976440525;-0.20488237050720162;-0.9532887621407895;0.9740000000000001;0.0017561974184918756
55:55.7;0.00985594965954587;-0.20500482458655384;-0.9524113945866124;0.9740000000000001;0.0019243636338478563
55:55.7;0.010870627990504063;-0.20522220086462165;-0.9523025524419655;0.9740000000000001;0.0021244862418324734
55:55.7;0.011998691614396002;-0.20549389110465613;-0.9530273255775895;0.973;0.002349839285615
55:55.7;0.013197375989545748;-0.20577508398012326;-0.9546198658918794;0.9740000000000001;0.002592452723866355
55:55.8;0.014423916092173202;-0.20602466762466884;-0.9570749655692586;0.977;0.002844122944302117
55:55.8;0.015641299884307264;-0.20621348121136154;-0.9603410707817255;0.978;0.0030975291295168464
55:55.8;0.01682223852589856;-0.20633084947417535;-0.9643159872503628;0.98;0.0033470894564864998
55:55.8;0.017950481444770364;-0.20638715301600752;-0.9688467710604001;0.9840000000000001;0.003589333874348508
55:55.8;0.019019785968739936;-0.20641119679225475;-0.9737354326837312;0.9890000000000001;0.003822784804165867
55:55.8;0.02003121698155436;-0.2064430394537724;-0.9787513401676197;1.01;0.004047435621632746
55:55.8;0.020989248227884835;-0.20652464992451214;-0.9836490209384671;1.01;0.00426391896513053
55:55.8;0.021897145801262917;-0.206691175130076;-0.9881875737731214;1.01;0.004472484385003534
55:55.8;0.022752374051900164;-0.20696474398644318;-0.9921477201689297;1.014;0.00467196336187398
55:55.8;0.023542851366487694;-0.20735154701509875;-0.995345075807314;1.02;0.0048589229568872724
55:55.9;0.024244717880922965;-0.20784198138536722;-0.9976403856683832;1.025;0.005027179940232428
55:55.9;0.024822059163106754;-0.2084128480148997;-0.9989471604219429;1.0270000000000001;0.0051677894561238955
55:55.9;0.02522884542445556;-0.20903012187531203;-0.9992358622339353;1.0270000000000001;0.005269558885609542
55:55.9;0.025413042355659245;-0.2096512268847505;-0.9985334054726025;1.024;0.00532006167567432
55:55.9;0.025322290385883645;-0.21022690899356689;-0.9969174073171012;1.02;0.00530701687984781
55:55.9;0.024910041081998808;-0.21070367807708432;-0.9945058149840214;1.01;0.005219800292746666
55:55.9;0.024141130083715347;-0.21102753558597886;-0.991443940390734;1.01;0.005050854828235919
55:55.9;0.022996376514898133;-0.21114869307870224;-0.9878919029580371;1.01;0.0047968621065807866
55:55.9;0.021476192821828152;-0.21102633410581026;-0.9840149034798051;1.0070000000000001;0.004459597109072099
55:55.9;0.019603077363593627;-0.2106326047782273;-0.9799767649059018;1.001;0.00404637036302626
55:56.0;0.017422686427324544;-0.20995540430580414;-0.9759356905886271;0.9990000000000001;0.003569960237789657
55:56.0;0.015003135227372798;-0.20899978394701374;-0.9720412562600352;0.9940000000000001;0.0030479831297345415
55:56.0;0.01243204330604931;-0.2077878633973061;-0.9684322587113193;0.992;0.0025016810519911717
55:56.0;0.009810845836498125;-0.20635708939744732;-0.965235192667726;0.9890000000000001;0.001954154932046699
55:56.0;0.007246438491144899;-0.2047565505311257;-0.9625628727991593;0.987;0.0014282081963694132
55:56.0;0.0048410433649232806;-0.20304144593420934;-0.960512428587873;0.9790000000000001;0.0009441188295430474
55:56.0;0.0026819732971326516;-0.2012667769731809;-0.9591620371072421;0.9790000000000001;0.0005177481108167716
55:56.0;0.0008337045651278645;-0.19948207952405902;-0.9585664820289792;0.9790000000000001;0.0001594183484332101
55:56.0;-0.0006654190781301411;-0.19772866198617864;-0.9587522251040486;0.977;0.00012614535425195913
55:56.0;-0.0018011268262551731;-0.19603964527390616;-0.959712671226306;0.975;0.0003388671199806371
55:56.1;-0.0025772331667086147;-0.1944422169441012;-0.961404370581896;0.976;0.0004817817755975529
55:56.1;-0.003008377214310407;-0.19296120592196914;-0.9637453975147457;0.98;0.0005594542949495026
55:56.1;-0.003114027181536109;-0.19162278202180275;-0.9666172536870192;0.985;0.000576798447781891
55:56.1;-0.002915222877044502;-0.19045679635712845;-0.9698708063678919;0.988;0.0005384955581275762
55:56.1;-0.002434127091132265;-0.18949666548098112;-0.9733356336966772;0.991;0.0004489597890663315
55:56.1;-0.0016953244901148487;-0.1887768114486407;-0.9768314943192594;1.001;0.00031262315051463655
55:56.1;-0.0007274844389103326;-0.18832871470252735;-0.9801803456787079;1.001;0.00013429079363696248
55:56.1;0.00043542666814715565;-0.1881769398768619;-0.9832171624880832;1.001;8.056211826631728e-05
55:56.1;0.0017535081650766025;-0.1883360721167058;-0.9857983764422181;1.002;0.00032555877052568654
55:56.1;0.003180883541741291;-0.18880882382028844;-0.9878082293194917;1.006;0.000593256760242221
55:56.2;0.00466643625119647;-0.18958505865110015;-0.9891643424990545;1.008;0.0008751004294857232
55:56.2;0.006155388630861197;-0.19064129558415593;-0.9898233665356575;1.011;0.001161529276482686
55:56.2;0.007591517410545379;-0.19194045245938068;-0.9897863594541504;1.015;0.0014422367940072481
55:56.2;0.008919713327667124;-0.19343207450202388;-0.9891024694396658;1.015;0.0017065565042861171
55:56.2;0.010088673706346873;-0.19505367645384838;-0.9878688582126549;1.014;0.001943960837079331
55:56.2;0.011053574861787475;-0.19673373095179997;-0.9862249074184407;1.0090000000000001;0.00214465555474495
55:56.2;0.011778654460769434;-0.19839632683967517;-0.9843399475278982;0.9990000000000001;0.0023002467152345688
55:56.2;0.012239746349591912;-0.19996696707185344;-0.9823957972889322;0.9990000000000001;0.002404457877719894
55:56.2;0.012426705769605745;-0.20137870030490804;-0.9805672347782778;0.996;0.0024538438700190085
55:56.2;0.012345460921215454;-0.20257782691418516;-0.9790038707715206;0.996;0.0024484070765915986
55:56.3;0.012019486404359821;-0.20352844340877357;-0.9778157568059109;0.995;0.002392037881084876
55:56.3;0.011490513324203441;-0.20421492270528982;-0.977063722170467;0.9940000000000001;0.0022927135279263997
55:56.3;0.01081770151436763;-0.20464160488521152;-0.9767547257335885;0.992;0.0021622925313422455
55:56.3;0.010073728879345337;-0.20482982607863964;-0.9768423303458711;0.992;0.0020156165956448147
55:56.3;0.009336549762452628;-0.2048132343505515;-0.977232445202614;0.996;0.001868711721664454
55:56.3;0.00867731692091785;-0.20463235990784293;-0.9777943687514808;0.995;0.0017362301915836928
55:56.3;0.008146961078328074;-0.20432898577366787;-0.9783766620725941;1.002;0.0016286647821949377
55:56.3;0.007764902234336923;-0.2039408843336978;-0.9788265564209838;1.002;0.0015500511648770011
55:56.3;0.007513209734431189;-0.20349785693446923;-0.9790106994741381;1.0070000000000001;0.0014968310746454156
55:56.3;0.007338483061427678;-0.20301983979798433;-0.9788344805582293;1.01;0.0014583240443184974
55:56.4;0.0071617013544659465;-0.20251697473434113;-0.9782571347356399;1.0090000000000001;0.0014188309777293303
55:56.4;0.0068937438982271445;-0.20199081751092157;-0.9773001697926281;1.005;0.0013608640658237688
55:56.4;0.006452638319708875;-0.20143578260672299;-0.9760475827413104;1.0;0.0012686590834916588
55:56.4;0.005778804836813532;-0.2008402703872237;-0.9746379776797691;0.997;0.0011311811386320865
55:56.4;0.004845930167613553;-0.20018747782627805;-0.9732502061352707;0.997;0.0009441447090566499
55:56.4;0.003666303539698309;-0.1994566336400572;-0.9720844450143232;0.995;0.0007108547941809731
55:56.4;0.002290246593094775;-0.19862587489009254;-0.971339961540625;0.986;0.00044186471776680116
55:56.4;0.0008002982946332718;-0.19767746374025905;-0.9711906469298919;0.986;0.00015364327046528344
55:56.4;-0.0006980636528137144;-0.19660466932965465;-0.9717603972732005;0.981;0.00013336689787590608
55:56.4;-0.0020872108253446116;-0.19541861082305997;-0.9731015684299402;0.98;0.0003969085120190881
55:56.5;-0.0032485631533120634;-0.19415332609819666;-0.9751800905227003;0.983;0.0006150649443000374
55:56.5;-0.004073699945746176;-0.19286764428254985;-0.977870427697048;0.987;0.0007682980409814668
55:56.5;-0.0044745832360841425;-0.19164267419334863;-0.9809623744234356;0.993;0.0008411959316901782
55:56.5;-0.004391697554239812;-0.19057447953546644;-0.984179721196567;1.0;0.00082370476490796
55:56.5;-0.0037991696878922807;-0.18976302256514732;-0.9872087739622165;1.008;0.0007117201921124033
55:56.5;-0.002706503156014977;-0.1892997770135238;-0.9897331590615881;1.014;0.0005070803260759912
55:56.5;-0.0011568401626396232;-0.18925658794670516;-0.9914703872793428;1.023;0.00021707215179618251
55:56.5;0.0007781461442470819;-0.18967750438723574;-0.9922052534230504;1.023;0.0001464463388920891
55:56.5;0.0030061279819313213;-0.1905742272465083;-0.9918154050176293;1.023;0.000568201640308466
55:56.5;0.005423675909572014;-0.19192505094415901;-0.9902855622761881;1.021;0.0010308271354855384
55:56.6;0.00792615487264649;-0.19367676967563477;-0.9877087527622069;1.014;0.0015162436296721883
55:56.6;0.010416380653578505;-0.19574884380283836;-0.9842748974832451;1.005;0.0020069310724835036
55:56.6;0.012810423433223823;-0.19803908360132252;-0.9802489019661754;0.996;0.002486856682371806
55:56.6;0.015039699108420276;-0.20043017648074504;-0.9759420558394039;0.99;0.0029418890499706826
55:56.6;0.017049812025366776;-0.20279665964079205;-0.9716814074566174;0.987;0.0033597292884216838
55:56.6;0.01879766324282562;-0.20501233860481816;-0.967781169246044;0.987;0.003729589489209507
55:56.6;0.020248592838464745;-0.20695821630400088;-0.9645184383400895;0.981;0.004041923175149705
55:56.6;0.021374717253160563;-0.20853057740429295;-0.9621138340931442;0.981;0.004288412800359413
55:56.6;0.022154448710290122;-0.20964853625383637;-0.9607170122807677;0.978;0.004462192103350114
55:56.6;0.0225723523816597;-0.2102605061643807;-0.9603971601879177;0.977;0.004558116219340864
55:56.7;0.02261877352848212;-0.2103491926245737;-0.9611388700037746;0.977;0.0045729456819920905
55:56.7;0.022289600189465433;-0.2099343548014916;-0.9628440831476303;0.98;0.0045054871897148695
55:56.7;0.021587065651637358;-0.20907225189808368;-0.9653408445361272;0.985;0.004356830771485018
55:56.7;0.02052210823137072;-0.20785123159571114;-0.9683989120618753;0.991;0.004130749593303089
55:56.7;0.019117721136855018;-0.20638407779494083;-0.9717509278615444;0.997;0.003834133898124942
55:56.7;0.01741175486855262;-0.2047984117298401;-0.9751165939071114;1.003;0.0034771680111295115
55:56.7;0.015457608992931707;-0.2032262223456453;-0.978226697383712;1.005;0.003072993014752949
55:56.7;0.013322165170315686;-0.2017931905824153;-0.9808440553221586;1.005;0.002636824863553653
55:56.7;0.011081251219668157;-0.20060841888715358;-0.9827794798884565;1.005;0.0021847112030920265
55:56.7;0.008813190172329153;-0.199755233548715;-0.9839024305028996;1.006;0.0017321413981716436
55:56.8;0.006590985162597492;-0.19928368203552244;-0.98414727720182;1.006;0.001292653623820044
55:56.8;0.004474122812224738;-0.19920537390662835;-0.9835163067510491;1.006;0.0008765778978428517
55:56.8;0.002501735552936246;-0.1994914030953539;-0.9820799570153838;1.006;0.000490131294913779
55:56.8;0.0006892943349878562;-0.2000740043792239;-0.9799740077866398;1.005;0.0001351480956580277
55:56.8;-0.0009693945313084429;-0.2008522695614115;-0.9773930644938791;1.001;0.0001903034062626361
55:56.8;-0.0024944221702227196;-0.201701846353602;-0.9745797587966272;0.9990000000000001;0.0004903398826156791
55:56.8;-0.003907521428848888;-0.20248813941210467;-0.9718095307833174;0.995;0.0007689216906748875
55:56.8;-0.005218037492460078;-0.20308186109900797;-0.9693713445476625;0.995;0.0010272319231755403
55:56.8;-0.006410463272137668;-0.20337486551752584;-0.9675449676208272;0.99;0.001261414600441225
55:56.9;-0.007436629544452166;-0.20329382378181915;-0.9665755925747791;0.983;0.0014612891398909414
55:56.9;-0.008214681553538161;-0.2028098457051026;-0.9666471281198066;0.98;0.00161045180353338
55:56.9;-0.008635489171730702;-0.2019429957130314;-0.9678567732952816;0.975;0.0016878227334054753
55:56.9;-0.008575445917624182;-0.2007613316997174;-0.9701948289601176;0.976;0.001670304825104328
55:56.9;-0.00791330009678688;-0.19937473483076848;-0.9735340720696876;0.9790000000000001;0.001535956493476605
55:56.9;-0.006548132327612068;-0.19792431510166292;-0.9776321471766941;0.985;0.0012670450948136776
55:56.9;-0.00441577292673876;-0.19656837962505835;-0.9821487204570999;0.991;0.0008525063946336295
55:56.9;-0.0015017170459908954;-0.19546616124275448;-0.9866769587318863;1.015;0.000289624089115935
55:56.9;0.0021503037873172393;-0.1947611004235019;-0.9907860865233892;1.015;0.0004149367860677549
55:56.9;0.006434315751979123;-0.1945659483572616;-0.9940688177924449;1.028;0.0012444735067440875
55:56.9;0.011183236308264833;-0.19495149348603072;-0.9961861906606941;1.033;0.002171873796581872
55:57.0;0.0161761521664959;-0.19593959269808528;-0.9969033480630362;1.032;0.0031597336779067204
55:57.0;0.021152124375485908;-0.19750048862857655;-0.9961117534416257;1.026;0.004161311536229749
55:57.0;0.025829517982498697;-0.1995544239879015;-0.9938357656592316;1.0190000000000001;0.005122621686788995
55:57.0;0.029928808040072023;-0.2019777080877669;-0.9902245166386413;1.015;0.005985859725511005
55:57.0;0.033196450079167446;-0.2046132062305475;-0.9855322712537224;1.012;0.006694161021220533
55:57.0;0.03542727695654474;-0.20728469376552425;-0.9800908728572143;0.9940000000000001;0.007197328937544161
55:57.0;0.03648272976341957;-0.20981353911457376;-0.9742777593488208;0.9940000000000001;0.007457677939928594
55:57.0;0.03630232593699909;-0.21203505439725234;-0.9684834843907165;0.9940000000000001;0.007454771509988572
55:57.0;0.0349065374572649;-0.2138118078276749;-0.9630821927388148;0.982;0.007187896412971481
55:57.0;0.032390821501248085;-0.2150425892072753;-0.9584063971030333;0.975;0.006675689785917055
55:57.1;0.028912608964414943;-0.2156670077991936;-0.9547262905325824;0.97;0.005953191834935701
55:57.1;0.02467461484850778;-0.21566595794790566;-0.9522347945582107;0.97;0.005067293128022812
55:57.1;0.019907585962808314;-0.2150583451587979;-0.9510401038847603;0.971;0.00407168085755871
55:57.1;0.014853731761716208;-0.21389506727975577;-0.9511662113903795;0.9740000000000001;0.003021988173605147
55:57.1;0.00975050120718371;-0.21225157317714202;-0.9525600833355067;0.975;0.001971379503538068
55:57.1;0.004814411106683345;-0.21022003238505654;-0.9551031448891167;0.982;0.0009666461955807106
55:57.1;0.00022609027828001955;-0.20790189048754243;-0.9586245764090735;0.982;4.505976119366081e-05
55:57.1;-0.003880704055228532;-0.20540164929727756;-0.9629143157725575;0.982;0.0007675419027276732
55:57.1;-0.007423498756906908;-0.20282243660568952;-0.967734815038493;0.986;0.0014570719623269045
55:57.1;-0.010368571779688102;-0.20026315399638692;-0.9728322212526398;0.993;0.0020200305461016846
55:57.2;-0.012723176175083211;-0.19781658548276232;-0.9779482802209;1.001;0.0024613542803682206
55:57.2;-0.014524621116687779;-0.19556801950494052;-0.9828332074635316;1.006;0.0027917882295201975
55:57.2;-0.015827973302942343;-0.1935939366324759;-0.9872583264646972;1.01;0.003025156628907603
55:57.2;-0.016694231077826107;-0.19196015516191595;-0.991026873319298;1.012;0.0031758716622859577
55:57.2;-0.017181114958478835;-0.19071906742789266;-0.9939820014708741;1.015;0.0032570466479466954
55:57.2;-0.017338230517060214;-0.1899059950033938;-0.9960118738102769;1.015;0.0032795024783792183
55:57.2;-0.017206984905330312;-0.18953499286743686;-0.9970522165791365;1.015;0.003251712079292674
55:57.2;-0.0168240973661185;-0.1895950215503927;-0.9970867895779045;1.015;0.0031804726457539344
55:57.2;-0.016226873857046447;-0.19004794894849783;-0.9961461804769007;1.015;0.003071999361647789
55:57.2;-0.01545842129556863;-0.19082951372083135;-0.9943052987552874;1.013;0.002933124088438565
55:57.3;-0.014570786272359077;-0.19185342428265517;-0.9916798321235732;1.012;0.0027721965839479445
55:57.3;-0.013623948396723654;-0.19301807168751828;-0.9884216710203806;1.0090000000000001;0.002599221084219711
55:57.3;-0.012679804842238507;-0.1942152400782564;-0.98471296464475;1.0070000000000001;0.0024249653149358047
55:57.3;-0.011792551049952594;-0.19534030571638278;-0.980758195848319;1.005;0.002259235866756445
55:57.3;-0.010998555788299044;-0.1963031426199155;-0.9767736138454756;0.998;0.0021089041117483766
55:57.3;-0.010308730841120727;-0.197038388670687;-0.9729738089603093;0.985;0.0019763196902401487
55:57.3;-0.00970500347841149;-0.1975134904193488;-0.9695565362496256;0.985;0.001858512976241199
55:57.3;-0.00914131266466216;-0.19773324127415257;-0.96668848912631;0.985;0.0017473294482601833
55:57.3;-0.00854914472276432;-0.19774007975993102;-0.9644947877112434;0.982;0.0016304866940826225
55:57.3;-0.007847264578404196;-0.19760992115793782;-0.9630531791331034;0.981;0.001493403998002068
55:57.4;-0.006954407332544053;-0.1974436180511163;-0.9623924032705558;0.9790000000000001;0.0013214642282668829
55:57.4;-0.005802662519055391;-0.19735450724960396;-0.9624940343154886;0.981;0.0011022304603098784
55:57.4;-0.004348935872632363;-0.19745328013656782;-0.9632974372600552;0.98;0.0008271947348294096
55:57.4;-0.0025825111284839774;-0.19783244359549454;-0.9647074744119265;0.983;0.0004928733774743684
55:57.4;-0.0005277537884143905;-0.19855318817813736;-0.9666043571053151;0.991;0.00010128776144304509
55:57.4;0.0017580671489325665;-0.19963711993690197;-0.9688544423615103;0.997;0.0003400441357787965
55:57.4;0.0041906856337087855;-0.2010643257008818;-0.9713197584428809;0.992;0.0008184314847387917
55:57.4;0.006666370860834863;-0.20277786874788675;-0.9738639087106605;0.992;0.0013164619039006855
55:57.4;0.009069796273241702;-0.20469311207958762;-0.9763540294346319;0.993;0.0018126254937295546
55:57.5;0.011282999906575308;-0.20670914962740689;-0.9786611893468432;0.997;0.0022825308224450843
55:57.5;0.013196572941033487;-0.20872002071147497;-0.9806623637886734;1.002;0.0027011256055402056
55:57.5;0.014721897082298789;-0.2106245216707934;-0.9822456284325937;1.0090000000000001;0.003045739908296205
55:57.5;0.01580061900168492;-0.21233398412637539;-0.9833181118596973;1.012;0.0032990405097141568
55:57.5;0.016407452007572817;-0.2137772926205849;-0.9838147305130223;1.011;0.003450770178017104
55:57.5;0.016545276520683962;-0.21490253689189337;-0.9837053534793541;1.008;0.0034976842958859555
55:57.5;0.016235266693513703;-0.21567563048614874;-0.9829989384543533;1.006;0.0034420212897137313
55:57.5;0.01550687154341123;-0.21607748797125179;-0.9817446607857621;1.0070000000000001;0.003289517942612167
55:57.5;0.014391955805892464;-0.21610175529224657;-0.9800308792711316;1.0070000000000001;0.0030480204119591263
55:57.5;0.012925018591924905;-0.21575422253846022;-0.9779823039660481;1.0090000000000001;0.0027272281885247465
55:57.6;0.01114857289609145;-0.21505381504067134;-0.9757545282755548;1.008;0.0023394135693105404
55:57.6;0.009120502887654773;-0.21403435521443417;-0.9735242715254693;1.0;0.001900417659956667
55:57.6;0.0069192352526113;-0.21274600095702986;-0.9714741202934224;0.992;0.001430048404274564
55:57.6;0.004643506505679923;-0.21125506319081297;-0.9697725218526985;0.982;0.0009513121845433338
55:57.6;0.0024059364050991274;-0.20964106846038966;-0.968552467802567;0.978;0.0004885214755082157
55:57.6;0.00032196686409951566;-0.2079907775828221;-0.9678940398115462;0.9790000000000001;6.481612624587532e-05
55:57.6;-0.001503108499220339;-0.2063899863796224;-0.9678154471678796;0.9840000000000001;0.0003002420401283319
55:57.6;-0.0029864165659858936;-0.20491465193008135;-0.9682744134481833;0.991;0.0005925457049748501
55:57.6;-0.0040773337646477295;-0.20362311862359564;-0.9691782350241817;0.991;0.0008046499726477586
55:57.6;-0.004763876552124788;-0.202551134761728;-0.9703985973617336;0.99;0.0009363653614475524
55:57.7;-0.005074841569328775;-0.20171075400966976;-0.9717875198579097;0.992;0.000994770410762086
55:57.7;-0.005076799897929343;-0.20109310661488644;-0.9731927854903649;0.9940000000000001;0.0009935417241635266
55:57.7;-0.004865381607143115;-0.20067403014282353;-0.9744727950584183;0.9990000000000001;0.0009514321023375866
55:57.7;-0.004551545073274197;-0.2004210262026618;-0.9755108264861179;1.004;0.0008898856898955677
55:57.7;-0.004245302439076406;-0.20029981288754664;-0.9762275990573365;1.0070000000000001;0.0008301188204312015
55:57.7;-0.004040446827901515;-0.20027906317300478;-0.9765897662423096;1.0090000000000001;0.0007902729485742011
55:57.7;-0.0040034071973010215;-0.2003329696457491;-0.9766115228887302;0.996;0.000783256555870422
55:57.7;-0.004167711099900953;-0.2004423423090696;-0.9763479421890691;0.996;0.000815627182288543
55:57.7;-0.004533660872316561;-0.20059509897573186;-0.9758816018020624;0.996;0.0008874961528799532
55:57.7;-0.005071885119917114;-0.2007864250586796;-0.9753061438108552;0.99;0.000993218305848648
55:57.7;-0.005729748423133171;-0.20101834105050745;-0.974710224108621;0.988;0.0011226561502018873
55:57.8;-0.006440241779945068;-0.2012981494823224;-0.9741643684478781;0.987;0.0012629152136505845
55:57.8;-0.007132864826384015;-0.201635277087314;-0.9737128705495578;0.9890000000000001;0.0014004300488763824
55:57.8;-0.007745095123979199;-0.20203664091074133;-0.9733722185440311;0.992;0.0015231260362916373
55:57.8;-0.008232064329035936;-0.20250161664744726;-0.9731359893210781;0.995;0.0016222238589909466
55:57.8;-0.008571890845749688;-0.20301824858550302;-0.972984410422526;0.996;0.0016932363796064575
55:57.8;-0.00876523387352379;-0.20356217894594222;-0.9728957795801471;0.9990000000000001;0.0017359088560165152
55:57.8;-0.008829686258644383;-0.20409899392923975;-0.9728569172345465;1.0;0.0017532147161275935
55:57.8;-0.00879146429543471;-0.2045894011644283;-0.9728704321995894;1.0;0.0017498440784589073
55:57.8;-0.008677395758520149;-0.20499534769949218;-0.9729574078345353;1.0;0.00173072170106542
55:57.8;-0.008509373430923508;-0.2052848770234795;-0.973154998355148;0.995;0.0016999516032063543
55:57.9;-0.008302028320758425;-0.20543462982818927;-0.9735093275450102;0.992;0.0016603436342062974
55:57.9;-0.00806309723672285;-0.20543048541148365;-0.974065114816752;0.99;0.0016134472803710147
55:57.9;-0.007795047426142561;-0.20526764477584822;-0.9748544397564547;0.991;0.001559836343700067
55:57.9;-0.00749612896466519;-0.20495103799615097;-0.9758874186370875;0.99;0.0014992943031819474
55:57.9;-0.007159463163890653;-0.20449589024655945;-0.9771471450418231;0.992;0.0014306223673689364
55:57.9;-0.006770194621116768;-0.20392767013935445;-0.9785903933803213;0.997;0.0013510712699557057
55:57.9;-0.0063024355941947025;-0.20328090680365887;-0.9801542953762387;1.0090000000000001;0.0012557392040147006
55:57.9;-0.005718223899843536;-0.20259687694871553;-0.9817672313642442;1.0090000000000001;0.0011373717451947456
55:57.9;-0.004969470432706311;-0.20192033972224016;-0.9833602499806665;1.012;0.0009867402145422612
55:58.0;-0.004002316387101336;-0.20129561218889785;-0.9848749716095729;1.0090000000000001;0.0007934632674418672
55:58.0;-0.002762863877505438;-0.20076273249356516;-0.9862655446916521;1.008;0.000547061872490511
55:58.0;-0.0012035626781273395;-0.20035485968461397;-0.9874945629316181;1.0070000000000001;0.00023812407501145225
55:58.0;0.0007102111686358479;-0.20009769806381467;-0.9885246434735608;1.003;0.00014048083847738728
55:58.0;0.0029937405166862332;-0.20001068527895305;-0.9893083513054919;1.001;0.000592378145897753
55:58.0;0.005637006210839068;-0.20010876245878034;-0.9897797020217071;1.0;0.0011164856941773423
55:58.0;0.00859964018242281;-0.20040336080570167;-0.9898506929931655;0.9990000000000001;0.001705905511117574
55:58.0;0.011807638764039225;-0.2009018020708526;-0.9894157194624447;1.0070000000000001;0.00234706813062469
55:58.0;0.015152928511524222;-0.20160517319086982;-0.988364948961607;1.0070000000000001;0.0030193647573776724
55:58.0;0.018496874599869068;-0.2025053251722623;-0.9866051959442557;1.016;0.0036955424789326
55:58.1;0.02167869738911349;-0.2035818157942567;-0.9840844785469315;1.02;0.004343147197927616
55:58.1;0.024529184637483853;-0.20479968944714946;-0.980814757078087;1.0190000000000001;0.004927190996948286
55:58.1;0.02688866471873256;-0.20610911393421402;-0.9768866999789276;1.013;0.005413904977683304
55:58.1;0.028626584475613875;-0.20744776163841105;-0.9724714796957887;1.004;0.005775042180394607
55:58.1;0.029659234526819823;-0.20874616522756057;-0.9678077058606855;0.991;0.005991940882611722
55:58.1;0.02996216407112522;-0.20993538290886196;-0.963175463767724;0.98;0.006058487694600598
55:58.1;0.029574133565413094;-0.21095574870084113;-0.9588626450314742;0.97;0.005982184380665663
55:58.1;0.028590552472239246;-0.21176534841671066;-0.9551304778829144;0.966;0.005782826308769301
55:58.1;0.027147162493883478;-0.21234667978462252;-0.9521849338114297;0.966;0.005488974621000229
55:58.1;0.025398284649492307;-0.21270968713752855;-0.950158559793398;0.968;0.005133194735671032
55:58.1;0.02349541282304938;-0.2128897974282618;-0.949104138092548;0.968;0.004747355950728467
55:58.2;0.021570333592528135;-0.21294107847704366;-0.9489988439685099;0.971;0.0043589510733936
55:58.2;0.01972440056036095;-0.2129262378100899;-0.9497561843904144;0.972;0.003988826297022056
55:58.2;0.018023890777161038;-0.2129057195747894;-0.9512428377664296;0.9740000000000001;0.0036502892161913107
55:58.2;0.016500410896872795;-0.21292755964238458;-0.953298031654398;0.9790000000000001;0.003349309892872926
55:58.2;0.015154696229189052;-0.2130188328879249;-0.9557536793765642;0.985;0.0030853981515272344
55:58.2;0.013961935637992307;-0.21317940129586532;-0.9584534549037214;0.991;0.0028527380647200397
55:58.2;0.012877116211739521;-0.21337917247891425;-0.9612682437747214;0.996;0.0026412848292032996
55:58.2;0.011839768051193768;-0.21356014417886313;-0.9641048418774548;0.996;0.002437741572419982
55:58.2;0.010778465309049242;-0.21364356399721457;-0.9669053872065013;0.991;0.0022265411319391955
55:58.3;0.009615852640381638;-0.2135412269774293;-0.9696372351683404;0.985;0.001991034647721038
55:58.3;0.00827461132312305;-0.21316893675970483;-0.9722763817172833;0.982;0.001714988682084499
55:58.3;0.006684040404661202;-0.21245943504918322;-0.9747905036879219;0.988;0.0013842877589314965
55:58.3;0.004786257709897721;-0.2113717931092678;-0.9771281279213605;0.997;0.0009885408617517758
55:58.3;0.002540707938122305;-0.20989494559673408;-0.97921751622296;1.0070000000000001;0.0005221988350389361
55:58.3;-7.40564858680011e-05;-0.20804484057486536;-0.9809741361595897;1.0070000000000001;1.5113936983825747e-05
55:58.3;-0.00306115420859027;-0.20585684473235935;-0.9823122857422214;0.997;0.0006190134646221572
55:58.3;-0.0064066257101956505;-0.2033766898351317;-0.983156811786699;1.006;0.0012810123575667672
55:58.3;-0.010078227814898201;-0.20065356257745218;-0.983453634584689;1.006;0.0019887717206791434
55:58.3;-0.014020848285478569;-0.19773732818380826;-0.9831794129322949;1.006;0.0027258109250019842
55:58.3;-0.018151058543992862;-0.1946792499568242;-0.9823500585709424;1.0070000000000001;0.0034712660219585753
55:58.4;-0.022355055339347715;-0.19153407553919902;-0.9810268841508583;1.0070000000000001;0.004200516627090199
55:58.4;-0.02649309019912337;-0.1883616562516768;-0.979318968481208;1.005;0.004887078162581875
55:58.4;-0.030410227603154785;-0.18522697757553241;-0.977380442891851;1.0;0.005505383228397514
55:58.4;-0.03394966646892002;-0.18219783643675;-0.975401949171333;0.996;0.0060334031629462
55:58.4;-0.036963455819285125;-0.17934027668984598;-0.9735965057059337;0.993;0.006454006669438207
55:58.4;-0.03931762572999807;-0.17671367053467898;-0.9721807434546207;0.987;0.006754674823239035
55:58.4;-0.04089295674726594;-0.17436837022665747;-0.9713528595378254;0.9790000000000001;0.006926171556474055
55:58.4;-0.04158537321816874;-0.17234744458976498;-0.9712695077706355;0.9790000000000001;0.006961217553060123
55:58.4;-0.04130933801032702;-0.17069106906152398;-0.9720251090429097;0.9790000000000001;0.006853880332577748
55:58.4;-0.040005256836934164;-0.1694403018216301;-0.9736373432228448;0.978;0.0065998034503096945
55:58.5;-0.03765017071466777;-0.16863749340798928;-0.9760414908509006;0.981;0.006197112320700063
55:58.5;-0.03426983590116199;-0.1683224768465309;-0.9790949370894838;0.988;0.005647795236703297
55:58.5;-0.029948711710414164;-0.16852553185664693;-0.9825919347066704;0.998;0.0049592619301870545
55:58.5;-0.02483324075883885;-0.16925926135996147;-0.9862870347831919;1.005;0.00414561688485416
55:58.5;-0.019124581641724987;-0.17051198811798604;-0.9899236462495142;1.012;0.003228111745955574
55:58.5;-0.013059774084932361;-0.1722450003214292;-0.9932630573164869;1.021;0.002234326168297258
55:58.5;-0.006884541825285377;-0.17439453593123516;-0.9961093489377272;1.021;0.001195955258042779
55:58.5;-0.0008249428075575584;-0.17687731137801188;-0.9983266260186417;1.021;0.00014566949770946597
55:58.5;0.004934535219685;-0.17959752532114043;-0.9998467118692078;1.021;0.0008860944654771415
55:58.5;0.010262954821347738;-0.18245422700326597;-1.000667506892936;1.021;0.0018737694083643063
55:58.6;0.015085854576905235;-0.18534892902785538;-1.00084371033812;1.0190000000000001;0.0027985061274211306
55:58.6;0.019381288727426494;-0.18819309104527226;-1.000472163718856;1.018;0.003649146815634746
55:58.6;0.023170739324301002;-0.1909144828270244;-0.9996740888345701;1.016;0.004422188004502935
55:58.6;0.026506361167230916;-0.19346141778021902;-0.9985763154314218;1.014;0.005120657616632856
55:58.6;0.02945599270961057;-0.19580423507949182;-0.9972934215112003;1.0090000000000001;0.005751997636940226
55:58.6;0.03208754074656719;-0.19793380476468223;-0.9959128195188026;1.004;0.006325250487948747
55:58.6;0.03445468926901344;-0.19985723832894325;-0.9944851573609294;1.0090000000000001;0.006848043733345259
55:58.6;0.036586045715832585;-0.20159138021943748;-0.9930221965986518;1.0090000000000001;0.007323967141949583
55:58.6;0.03847955372097555;-0.20315490991385363;-0.9915028947300066;1.012;0.007750885761420152
55:58.6;0.04010317958217179;-0.2045601882464517;-0.9898862276488973;1.018;0.00812054549189316
55:58.7;0.041401372281734766;-0.20580648635265414;-0.988127334760222;1.02;0.008419507885561771
55:58.7;0.042304987900739145;-0.20687643757369353;-0.9861924085380038;1.0170000000000001;0.008631062457146146
55:58.7;0.042741542698642505;-0.20773681516022866;-0.9840680434566111;1.0090000000000001;0.008737532241270761
55:58.7;0.042643583007476206;-0.2083432401500426;-0.9817630539555163;1.001;0.008722476067121343
55:58.7;0.041954642349642884;-0.2086470661630689;-0.9793042065692825;0.9940000000000001;0.008572548001384009
55:58.7;0.04063324000360979;-0.20860223128559674;-0.9767299298288159;0.996;0.008278943120339732
55:58.7;0.03865560090706453;-0.20817050722291075;-0.9740863225018981;0.996;0.007838429823965164
55:58.7;0.036017901202392594;-0.20732489782533933;-0.9714276296990295;0.996;0.0072540461490573855
55:58.7;0.03273869165353086;-0.20605188689785844;-0.9688204048632895;0.9990000000000001;0.006535535719594741
55:58.7;0.028861503301235145;-0.2043530736209727;-0.966348539192728;0.998;0.005699462716194656
55:58.8;0.024457100340101172;-0.20224610484046276;-0.9641156081209921;0.991;0.004768856400025021
55:58.8;0.019624626373184944;-0.19976469292952667;-0.9622415858468739;0.983;0.0037722828685647766
55:58.8;0.014490748490173077;-0.19695770538204552;-0.9608531659493752;0.976;0.0027423369797271737
55:58.8;0.009206149826201979;-0.19388716450467236;-0.9600698624225917;0.973;0.0017136808156058066
55:58.8;0.00393931944716676;-0.19062481797902295;-0.9599899005034565;0.972;0.000720887186438624
55:58.8;-0.0011322248323312571;-0.18724750586072605;-0.9606795866981541;0.976;0.00020367010153554796
55:58.8;-0.0058331738589417845;-0.18383255335705423;-0.9621678385569643;0.983;0.0010317587872249617
55:58.8;-0.010003109575724247;-0.1804547813245775;-0.9644450848718573;0.983;0.0017409284555013626
55:58.8;-0.013508080083935864;-0.1771860584270054;-0.9674641133239481;0.985;0.0023155706615814397
55:58.9;-0.01624830944798224;-0.17409719018942446;-0.971140526024789;0.986;0.002747147772549423
55:58.9;-0.018160882557360706;-0.1712611077055735;-0.9753519738999704;0.986;0.003033591269922638
55:58.9;-0.01921791906654934;-0.16875597056631048;-0.9799371037970424;0.9890000000000001;0.00317807183155091
55:58.9;-0.019421520362174007;-0.16666658722487004;-0.9846963400835292;0.992;0.0031873818173129946
55:58.9;-0.01879721036179271;-0.16508256247216388;-0.9893969286309594;0.997;0.003070189351582573
55:58.9;-0.017387996132451743;-0.16409242563994686;-0.9937839627804045;1.006;0.002835502625913411
55:58.9;-0.01525097717501144;-0.16377456847404226;-0.9975975104960386;1.016;0.0024917214542620933
55:58.9;-0.01245712011267772;-0.16418702537764862;-1.0005938505894965;1.023;0.0020465120971963724
55:58.9;-0.009093039249895919;-0.1653582156812392;-1.0025670221581884;1.023;0.0015074685424491616
55:58.9;-0.005262772743936982;-0.16728013709302048;-1.003366576896709;1.021;0.000883321136797402
55:58.9;-0.001087934266038786;-0.16990487352311717;-1.0029089625679488;1.023;0.00018538304202988119
55:59.0;0.003294506629820526;-0.17314474137798738;-1.0011820987425866;1.02;0.0005711007988348228
55:59.0;0.007736552212508832;-0.17687576972340394;-0.9982439375332073;1.014;0.0013660056165626525
55:59.0;0.012084328402739203;-0.18094384838556388;-0.9942162266967245;1.0070000000000001;0.0021739381750556083
55:59.0;0.016182552088752848;-0.18517309367997206;-0.989275230351927;1.005;0.002964435676244375
55:59.0;0.019878076479278767;-0.18937612375912255;-0.9836415967256443;1.005;0.0037028529571513733
55:59.0;0.02302413806748514;-0.19336539171430275;-0.9775708657738794;1.0;0.00435221536757716
55:59.0;0.025487309856038688;-0.19696420007214327;-0.9713444786015872;0.99;0.004876234370205264
55:59.0;0.027157264281035026;-0.20001634095504095;-0.9652602247670765;0.99;0.0052431937637630035
55:59.0;0.0279569946241563;-0.20239402956082697;-0.9596214465700577;0.986;0.005429853664764019
55:59.1;0.027850518709890963;-0.20400414550026064;-0.9547246479019166;0.98;0.005424383867611036
55:59.1;0.026846506351307812;-0.20479262852119967;-0.9508448922979547;0.972;0.005227713461817329
55:59.1;0.024997964714642197;-0.20474656694805712;-0.948218835093139;0.965;0.004853218640457797
55:59.1;0.02239901715488068;-0.20389357593063798;-0.947026835779943;0.9620000000000001;0.004325086432101646
55:59.1;0.01918008971925013;-0.20229844712217093;-0.9473770053802592;0.961;0.0036759197599450896
55:59.1;0.015502312845975008;-0.2000573592670191;-0.9492942103112628;0.961;0.002944095279871336
55:59.1;0.011550678253732238;-0.19729030402841222;-0.9527160339726402;0.975;0.0021710843814257527
55:59.1;0.007525077101473294;-0.19413298108414395;-0.9574958153366053;0.975;0.0013987727472156528
55:59.1;0.0036297150209056695;-0.19072961850892417;-0.9634109450300814;0.975;0.0006669637721127257
55:59.1;6.242840194436692e-05;-0.18722732362752292;-0.9701743833614201;0.983;1.1339691781454646e-05
55:59.1;-0.0029955292044326334;-0.18377126636840824;-0.9774491533768205;0.993;0.0005380781302777176
55:59.2;-0.005389718831492717;-0.18049954568391566;-0.9848666924190981;1.003;0.0009581194862547348
55:59.2;-0.0070026038478155;-0.1775372300797416;-0.9920487449679141;1.012;0.0012333377082229158
55:59.2;-0.0077619848109348015;-0.17498994117417696;-0.9986306207223513;1.018;0.0013564092796747474
55:59.2;-0.00764577162439624;-0.1729379043599602;-1.0042830686579174;1.023;0.001327906982581495
55:59.2;-0.006681637753891796;-0.17143160966281548;-1.0087307686426925;1.026;0.0011554445211514664
55:59.2;-0.00494124923534473;-0.1704900737420188;-1.0117665827487665;1.031;0.0008523465152536158
55:59.2;-0.002530281205532796;-0.1701020672607195;-1.0132614512129972;1.031;0.00043611387282909607
55:59.2;0.0004231320049116601;-0.17022979495879795;-1.0131699934919496;1.031;7.297830478017448e-05
55:59.2;0.0037788050831401333;-0.17081400621192552;-1.0115318485797498;1.03;0.0006529163299400838
55:59.2;0.007392746500530191;-0.1717796743743734;-1.0084687942031274;1.0290000000000001;0.001280678308101921
55:59.3;0.011123972139194836;-0.1730418091814908;-1.0041775346229058;1.026;0.0019329536518807365
55:59.3;0.014840991769819862;-0.1745112421064553;-0.998917697935352;1.0190000000000001;0.002587116832179413
55:59.3;0.018428325197518813;-0.17610038139805564;-0.992994494491497;1.01;0.0032225005834703746
55:59.3;0.02179236239689071;-0.17772902466004248;-0.9867362039819345;0.998;0.003821762837084464
55:59.3;0.024865279730411787;-0.17933014860455282;-0.9804681606006501;0.992;0.0043719999952356765
55:59.3;0.027606019967902764;-0.1808550433362161;-0.9744864781778965;0.976;0.004865306884987685
55:59.3;0.029998131746456477;-0.1822765768433976;-0.9690357108247962;0.976;0.005298645371927737
55:59.3;0.032044826348122335;-0.18358944002399571;-0.964294550237276;0.976;0.005673033288884407
55:59.3;0.033762002569125565;-0.1848070611577205;-0.9603719550700489;0.975;0.00599219901212523
55:59.3;0.03517058413515628;-0.18595575318125673;-0.9573131706187935;0.976;0.006260993236639755
55:59.4;0.03629001129363496;-0.18706695566305906;-0.9551127793955537;0.977;0.006483937767852299
55:59.4;0.037134430891552335;-0.18816845705578303;-0.9537312351232;0.977;0.006664224248286864
55:59.4;0.03771182231255256;-0.18927577994115855;-0.9531115677947932;0.977;0.006803248019514468
55:59.4;0.03802478550201294;-0.19038528181498401;-0.9531935836502992;0.976;0.006900511028717129
55:59.4;0.038071324598327336;-0.19147034732565138;-0.9539239817033327;0.977;0.006953657238131196
55:59.4;0.03784499709347143;-0.19248140837029318;-0.9552620012107117;0.976;0.006958566251911129
55:59.4;0.03733509053375155;-0.1933500245946131;-0.9571809277833538;0.983;0.006909640894754983
55:59.4;0.036527895045388475;-0.19399677351257924;-0.9596658497512164;0.983;0.00680047414390082
55:59.4;0.03540971917995871;-0.19434182179689136;-0.962707764615747;0.983;0.006624959485460258
55:59.4;0.0339716608262651;-0.19431640818446014;-0.9662942096315615;0.985;0.006378750725676118
55:59.5;0.03221556076820195;-0.1938737177347444;-0.9703974661594342;0.986;0.006060860493467611
55:59.5;0.03016005090682205;-0.1929980252367719;-0.9749624680457887;0.9890000000000001;0.00567509104227072
