Time;AccX;AccY;AccZ;Acc-old;Acc-trns
53:05.8;0.015637285143662045;-0.24845671567533067;-0.9284164246533514;0.9620000000000001;0.003607072824512075
53:05.8;0.0162218011123046;-0.24620234794740053;-0.9390718742305105;0.973;0.003750507999529909
53:05.8;0.016780760961422912;-0.24403633803773755;-0.9491512843775917;0.9890000000000001;0.003886884093324848
53:05.8;0.01727502111365941;-0.24202245827672061;-0.9581060232522618;1.01;0.004005786744670792
53:05.8;0.01767462899856291;-0.24022360081020164;-0.9655078000519496;1.025;0.004099413864746163
53:05.9;0.01796558584379813;-0.23869958612681413;-0.9710922078703108;1.038;0.004164410368376343
53:05.9;0.01815625031863321;-0.23750422523059544;-0.9747816213115046;1.0290000000000001;0.004203439821334974
53:05.9;0.01827870994903016;-0.23668062054216793;-0.9766808232798461;1.013;0.004225332608371961
53:05.9;0.0183821057242668;-0.2362544369962063;-0.9770445972577231;0.995;0.004243162075182309
53:05.9;0.01851930955497788;-0.23622633496954537;-0.976224369407376;0.982;0.004270736215158586
53:05.9;0.018731691063207427;-0.2365659082155184;-0.974606752774062;0.976;0.0043187549326864855
53:05.9;0.0190371511938521;-0.23720948975717662;-0.9725579078840172;0.977;0.0043918701158056975
53:05.9;0.019425015988619815;-0.2380632420226006;-0.9703843344079599;0.9840000000000001;0.004487428123340694
53:05.9;0.019858759653120207;-0.23901174771253778;-0.9683149020633244;0.995;0.004596084268182682
53:05.9;0.020284853091941543;-0.2399311035147856;-0.966502626896641;1.004;0.004703936571240608
53:06.0;0.020644520277720298;-0.24070424749066865;-0.9650397347211898;1.0070000000000001;0.004795498338834581
53:06.0;0.020885171480472576;-0.24123537771596937;-0.9639772989327237;1.0070000000000001;0.004856751136971592
53:06.0;0.02096917043956978;-0.24146050054227636;-0.9633416491416579;0.998;0.004877616860804179
53:06.0;0.020878729394291827;-0.24135243527165745;-0.9631430834507251;0.998;0.004853405310278375
53:06.0;0.020616768645355877;-0.24092024336719212;-0.963376432453797;0.991;0.00478508777230172
53:06.0;0.02020439629330885;-0.24020410983344465;-0.9640159347780923;0.985;0.004678541915738398
53:06.0;0.019676276140947597;-0.23926704161352993;-0.9650082915459757;0.9840000000000001;0.0045431474644776785
53:06.0;0.01907549700106879;-0.23818491694704236;-0.9662682507045653;0.986;0.004390235612094118
53:06.0;0.01844939907692028;-0.23703660754445346;-0.9676804675912979;0.993;0.004231843739749695
53:06.0;0.017847102823328673;-0.23589577670243256;-0.9691092273339796;1.0;0.004080004293955685
53:06.1;0.017318452863305345;-0.23482535471150978;-0.970414611746833;1.005;0.003946493629539479
53:06.1;0.016913134176614785;-0.23387478592284588;-0.971471354541344;1.008;0.0038427089905418077
53:06.1;0.01667844246482861;-0.23307935247094325;-0.9721859323225353;1.0090000000000001;0.0037792761473847947
53:06.1;0.01665484872354146;-0.23246062523242175;-0.9725082405688181;1.006;0.0037651595465294234
53:06.1;0.016869551824116095;-0.2320273768240211;-0.9724357910426402;1.003;0.0038063060902896496
53:06.1;0.017329121702631588;-0.2317767062463641;-0.972010247168084;0.9990000000000001;0.003904066278982579
53:06.1;0.018013107111386498;-0.23169532522604652;-0.9713078833789554;0.995;0.004053804649410439
53:06.1;0.018870928206274184;-0.231761008597012;-0.970426703401539;0.993;0.004244205200299914
53:06.1;0.019823796681687968;-0.23194437189927478;-0.9694731895977722;0.9940000000000001;0.0044576552441443484
53:06.1;0.02077170087096953;-0.23221131948730386;-0.968550981766049;0.9940000000000001;0.004671732115802598
53:06.2;0.02160388037387382;-0.2325263182120783;-0.9677525048791767;0.996;0.004861476413529963
53:06.2;0.022210884935290155;-0.23285610419550937;-0.9671533065860545;0.996;0.005002059004738748
53:06.2;0.022496788816312452;-0.233173071638144;-0.9668081469894455;0.993;0.005071532660881756
53:06.2;0.02239022122385142;-0.23345776909857596;-0.9667479168323587;0.993;0.00505335676851017
53:06.2;0.0218526085294633;-0.233700326613847;-0.9669771669171519;0.992;0.004938315405246252
53:06.2;0.020882349123930163;-0.23390070898738155;-0.9674728859404522;0.992;0.0047255209509722935
53:06.2;0.01951475322865918;-0.23406739663763756;-0.9681855899399777;0.993;0.00442244665645516
53:06.2;0.01781856090109104;-0.23421410733897866;-0.969043600767486;0.997;0.004044166188739744
53:06.2;0.015889962628052225;-0.23435497233409583;-0.9699606146541533;0.998;0.003612028332759834
53:06.2;0.013844780823943435;-0.2344995760436608;-0.9708456336302552;0.9990000000000001;0.003151942806736562
53:06.3;0.011809601030899234;-0.23464953285754853;-0.9716137583474398;1.001;0.002692455757960214
53:06.3;0.009912831934412314;-0.23479768133650056;-0.9721964444295024;1.006;0.002262796901340444
53:06.3;0.008276247935505706;-0.23492999563282244;-0.9725500018944824;1.006;0.0018909667924606201
53:06.3;0.007006884998986237;-0.23502944496231165;-0.972660995363204;1.006;0.0016018017552653148
53:06.3;0.006189027009106113;-0.235080646427577;-0.972547254670942;1.006;0.001414978908919852
53:06.3;0.005876571525926685;-0.2350742015139533;-0.9722538327747855;1.003;0.0013431009613433602
53:06.3;0.006086828125890997;-0.23500973242718767;-0.971844225277433;0.998;0.001390188031309187
53:06.3;0.006797204351281502;-0.23489685835238167;-0.971388253045088;0.9940000000000001;0.0015509592323101117
53:06.3;0.007945991565177989;-0.2347538997987351;-0.9709490409662623;0.992;0.0018111622284089073
53:06.3;0.009437761896513694;-0.2346048054612084;-0.970572013016161;0.992;0.0021489864842648434
53:06.4;0.011153053709852919;-0.23447529011819143;-0.9702783618106027;0.9940000000000001;0.0025373899874786064
53:06.4;0.012961209898835488;-0.23438925630888333;-0.9700642238656006;0.996;0.002947024408650794
53:06.4;0.014734599245267767;-0.23436625199978559;-0.9699053376207147;0.998;0.0033493671189245068
53:06.4;0.016362242462634152;-0.2344201825314105;-0.9697657646659174;1.002;0.003719672226387345
53:06.4;0.017761071050761808;-0.23455898348229734;-0.96960849936868;1.003;0.004039407209107817
53:06.4;0.0188833556454982;-0.23478461022888572;-0.9694054289846118;1.004;0.0042978796129323335
53:06.4;0.019719139951313747;-0.23509266274106516;-0.9691442196341451;1.002;0.004492783116458903
53:06.4;0.02029303717156135;-0.23547142417210626;-0.9688304811267903;0.998;0.004629488988163582
53:06.4;0.02065566219617881;-0.23590088498338757;-0.9684849491705715;0.9940000000000001;0.004719125950737718
53:06.4;0.020871208230350404;-0.23635278094686618;-0.9681370349853233;0.991;0.004775789116753716
53:06.5;0.021003851700547745;-0.2367923598430924;-0.9678172813762385;0.993;0.0048134891979427245
53:06.5;0.021106144700708932;-0.2371818950092283;-0.9675513964325367;0.993;0.004843557836373072
53:06.5;0.02121188505744582;-0.23748541366415826;-0.967357508652346;0.9990000000000001;0.0048730763132379335
53:06.5;0.021334283738641817;-0.23767374616989878;-0.9672466077664078;0.9990000000000001;0.004904519815587849
53:06.5;0.021468390027314068;-0.23772881114055774;-0.9672245903961322;1.0;0.0049363804604932926
53:06.5;0.021595792177443816;-0.23764620621095892;-0.9672937500761781;0.997;0.0049643044362411405
53:06.5;0.021689898922402157;-0.2374356185050029;-0.9674523414371853;0.9940000000000001;0.004982335603124952
53:06.5;0.021720882476645387;-0.23711901246112518;-0.967692466327357;0.993;0.004984036376215585
53:06.5;0.02165998209017667;-0.2367269605719678;-0.9679978339414187;0.993;0.004963410564541641
53:06.5;0.021483241447738638;-0.23629397791016749;-0.968343158985465;0.9940000000000001;0.004915659040274363
53:06.6;0.021174926926301556;-0.23585406255099825;-0.968696217341934;0.996;0.004837855421970663
53:06.6;0.02073092654889517;-0.23543746029960635;-0.9690225490446317;0.9990000000000001;0.004729640816947851
53:06.6;0.02016230287699657;-0.2350691096674877;-0.969291886805967;1.004;0.004593992421583532
53:06.6;0.01949867011387815;-0.23476859784564552;-0.9694846054665189;1.004;0.004437985870316158
53:06.6;0.018790403333217288;-0.23455081521336227;-0.9695960376836886;1.002;0.004273304902491984
53:06.6;0.01810837045053075;-0.2344262250216627;-0.9696368932715008;0.998;0.004116183202236565
53:06.6;0.01754004940864786;-0.23440026653419863;-0.9696293419888733;0.997;0.003986526568241046
53:06.6;0.017181494251379915;-0.23447234243634255;-0.9695998584867496;0.9940000000000001;0.0039061156433876166
53:06.6;0.017125646604693602;-0.23463516838781587;-0.9695708910026368;0.991;0.003896006325935215
53:06.6;0.017448730608417312;-0.23487502622534412;-0.9695537168233805;0.991;0.0039734939380464815
53:06.7;0.01819748365638848;-0.23517316181378906;-0.9695446962612582;0.995;0.0041492244759090205
53:06.7;0.019380300199944;-0.23550826091411886;-0.9695262929119282;0.998;0.004425132068457262
53:06.7;0.0209645431354974;-0.2358596475659678;-0.9694725561235745;1.003;0.004793741016328081
53:06.7;0.022880374667779188;-0.23621073290914313;-0.969357023660187;1.003;0.005238977343885472
53:06.7;0.025029546635309607;-0.23655213816754278;-0.9691602293996768;1.002;0.005738196883026145
53:06.7;0.0272967688442202;-0.236883745573661;-0.9688745172692568;1.001;0.006264898468134732
53:06.7;0.029561319561887237;-0.23721499911318789;-0.9685051941771403;0.9990000000000001;0.006791534582845019
53:06.7;0.03170676941795641;-0.2375631527476844;-0.9680684016263196;0.996;0.007291839808650931
53:06.7;0.03362732570636821;-0.23794963432156258;-0.9675869206698496;0.9940000000000001;0.007742253040041994
53:06.7;0.03523061426290855;-0.2383951879401871;-0.9670854270836167;0.993;0.00812236570022623
53:06.8;0.036437960773803416;-0.23891482491174218;-0.9665866503932923;0.993;0.008414686797276576
53:06.8;0.03718385252595521;-0.23951355679674538;-0.9661094837629919;0.996;0.008604206590004024
53:06.8;0.03741631437726565;-0.2401835449363805;-0.9656692811107674;0.997;0.008678260303815815
53:06.8;0.03709940076369679;-0.24090313157493096;-0.9652795993141933;0.997;0.00862705303994102
53:06.8;0.03621801326228507;-0.24163814614534493;-0.9649541102719099;0.997;0.008444944095401061
53:06.8;0.03478428927978794;-0.24234546864798384;-0.9647076646121774;0.996;0.008132307032844552
53:06.8;0.03284407904598871;-0.24297811536418393;-0.9645561554764762;0.997;0.007697536639030787
53:06.8;0.030481415296648093;-0.24349064764977588;-0.9645152752003104;0.997;0.007158574069384853
53:06.8;0.02781863131059881;-0.24384386314545023;-0.9645982750078254;0.995;0.006543258375451801
53:06.8;0.025010451761165002;-0.24400820685125868;-0.9648128229082497;0.993;0.005888016748720736
53:06.9;0.022231970987303076;-0.24396569623144587;-0.9651574646737059;0.993;0.00523485800362176
53:06.9;0.019662221469661713;-0.24371044260052954;-0.9656187872222038;0.9940000000000001;0.004627137751985912
53:06.9;0.01746630798519371;-0.2432481580994518;-0.9661704624978638;0.995;0.004104917474847578
53:06.9;0.015779431358975433;-0.24259516906554;-0.9667747149270455;0.997;0.003700826967912876
53:06.9;0.014695316096101778;-0.2417774240069279;-0.9673859011198224;0.997;0.003437117918558532
53:06.9;0.014259986112153815;-0.2408299411286422;-0.9679554209753383;0.997;0.0033241831094810315
53:06.9;0.014470564373294498;-0.2397969234853458;-0.9684373056919074;0.9990000000000001;0.0033604743690019956
53:06.9;0.015278351509345266;-0.23873223150469028;-0.9687941488030355;1.002;0.003533613637253125
53:06.9;0.01659541046388003;-0.23769935234343556;-0.9690028958182512;1.004;0.0038224434744317903
53:06.9;0.018303839739336226;-0.23676984741114118;-0.9690593103008266;1.003;0.004199706663338964
53:07.0;0.02026698678503395;-0.23601953434191433;-0.9689794554197516;1.001;0.004635020962184968
53:07.0;0.022341934823831153;-0.23552218690218585;-0.9687969939633615;0.9990000000000001;0.005097830465406601
53:07.0;0.02439222011264722;-0.23534122761442922;-0.968556280753854;0.996;0.00555999251163442
53:07.0;0.02629899473672631;-0.23552063529899384;-0.9683023118138351;0.992;0.005997621863836369
53:07.0;0.027968620288474307;-0.23607671097181032;-0.9680694140849861;0.985;0.006391910534850276
53:07.0;0.02933550221341521;-0.23699220860240144;-0.9678714796471066;0.9840000000000001;0.006728918815116597
53:07.0;0.03036036330426769;-0.2382139704142439;-0.9676973007328252;0.9890000000000001;0.00699864107936376
53:07.0;0.03102537217071824;-0.23965477289321224;-0.9675139687223565;0.997;0.007193832582290271
53:07.0;0.031328140024534955;-0.24119940027596165;-0.9672786818135976;1.006;0.007309075553706163
53:07.0;0.031276253816541866;-0.24271439424141325;-0.9669557159233242;1.0070000000000001;0.007340351329098327
53:07.1;0.030883204192377868;-0.24406081358944495;-0.9665329770146208;1.006;0.007285126273690968
53:07.1;0.030166461157147342;-0.24510892417152425;-0.9660330110015131;1.005;0.007142914585338258
53:07.1;0.029148854648055632;-0.24575261635092768;-0.9655159909064958;1.002;0.006916384291146747
53:07.1;0.027863555219149086;-0.24592066292989767;-0.9650749664161404;0.9990000000000001;0.006612909818762963
53:07.1;0.026360401873125765;-0.24558273565323457;-0.9648252359961786;0.996;0.0062459501560767116
53:07.1;0.02470944955969462;-0.24474967275048007;-0.9648902292457953;0.995;0.005835298801431845
53:07.1;0.0229986449876826;-0.24346846009542078;-0.9653862222855152;0.9940000000000001;0.005405626745973924
53:07.1;0.02132550655855829;-0.2418126968728045;-0.9664077135831235;0.993;0.004983550281037081
53:07.1;0.019784788988131324;-0.23986980589645165;-0.968014637332627;0.993;0.004593978207933394
53:07.1;0.0184543907186119;-0.23772695211238204;-0.9702222056938815;0.993;0.004256467716813728
53:07.2;0.017381687346778647;-0.23545794344552;-0.9729940765510293;0.997;0.003982130392024727
53:07.2;0.016573100553750778;-0.23311333484170946;-0.9762393123502274;0.9990000000000001;0.0037716134429255665
53:07.2;0.01599002828835242;-0.23071587110541084;-0.9798130274599531;1.003;0.003614680469072282
53:07.2;0.015553324294087657;-0.22826278647657772;-0.9835202353477265;1.003;0.0034917379379386213
53:07.2;0.015157028703869856;-0.2257347567406223;-0.987122829061329;1.006;0.0033774093566685914
53:07.2;0.0146903717237773;-0.22310931804484835;-0.9903505544582393;1.011;0.003245932191801586
53:07.2;0.014064375798203585;-0.22037564623519426;-0.9929172858803027;1.01;0.0030774934161461585
53:07.2;0.013236278215689224;-0.21754770212305002;-0.994543595484942;1.016;0.0028638100741309987
53:07.2;0.01222407287711339;-0.21467298970090665;-0.9949859968613475;1.02;0.0026110206327652607
53:07.2;0.011106183655190128;-0.21183444601062093;-0.9940721874207336;1.028;0.0023387260616604946
53:07.3;0.010006409236745891;-0.20914415736057007;-0.9917394293785021;1.032;0.0020754944542863488
53:07.3;0.009069282683280238;-0.20672997416390917;-0.9880702836871567;1.037;0.0018525256382652955
53:07.3;0.008433535272180546;-0.2047185219085122;-0.9833175816836769;1.0390000000000001;0.001697698665557448
53:07.3;0.008210566944484082;-0.20321900877651936;-0.9779098251280947;1.025;0.001631684863204204
53:07.3;0.008471892438626165;-0.2023110089069237;-0.972430011416295;1.0090000000000001;0.0016667033287472166
53:07.3;0.0092462183816239;-0.20203722156346415;-0.9675656918901212;0.9890000000000001;0.0018074903806830245
53:07.3;0.01052416427189364;-0.2024010761886709;-0.9640345616830183;0.972;0.0020534921162475538
53:07.3;0.01226761467573384;-0.20336915033216246;-0.9624954854852209;0.956;0.0024012860711541796
53:07.3;0.01442135392457508;-0.20487807953609125;-0.9634581102942041;0.951;0.0028466519239263824
53:07.3;0.016925295729446496;-0.20684461363285106;-0.9672049973771755;0.943;0.003386094025938566
53:07.4;0.019725209346239295;-0.20917714666827422;-0.9737388713973973;0.955;0.004017707937192557
53:07.4;0.02277932308059781;-0.21178783189654354;-0.9827645143698552;0.977;0.004741232855730271
53:07.4;0.026058795978084828;-0.2146044389575507;-0.9937100200568448;0.998;0.005557157626551689
53:07.4;0.02954198184759951;-0.21757954120367973;-1.005785897299609;1.0290000000000001;0.00646492104725423
53:07.4;0.03320477479907701;-0.2206937768773492;-1.0180742538018446;1.062;0.007460536867995927
53:07.4;0.03701078920832449;-0.22395160590619614;-1.0296351263968229;1.087;0.008534260148714879
53:07.4;0.040904715275399156;-0.2273708161672747;-1.039613588501865;1.103;0.009668966202133606
53:07.4;0.04480996457507949;-0.23096917958965774;-1.0473309426107498;1.112;0.010839582794456386
53:07.4;0.048629467431423296;-0.23475225511834194;-1.0523469259885838;1.11;0.012013463220720558
53:07.4;0.05224832044584617;-0.2387050306840558;-1.0544861381290285;1.1;0.013151484613804807
53:07.5;0.0555384153377966;-0.24278799556422231;-1.0538287861946005;1.09;0.014209891148340727
53:07.5;0.05836572772775037;-0.24693723820115282;-1.0506717708196205;1.078;0.015142987203446515
53:07.5;0.060599769300443584;-0.2510684286993944;-1.045469872863232;1.0659999999999998;0.01590649882582634
53:07.5;0.062123376019475346;-0.25508472214963696;-1.0387678780516287;1.057;0.016461067978775445
53:07.5;0.06284091911848497;-0.2588879765598929;-1.0311335054462585;1.0490000000000002;0.016775261873866357
53:07.5;0.06268395148461546;-0.2623914523176237;-1.0230989133097799;1.044;0.016827657827314033
53:07.5;0.06161435239666497;-0.26553103299381026;-1.0151159858835086;1.035;0.016607828068391027
53:07.5;0.05962572323306682;-0.2682719582844548;-1.0075281543306758;1.028;0.016116329211507248
53:07.5;0.05674393619836837;-0.2706095571614403;-1.0005597327844813;1.025;0.015364046395832458
53:07.5;0.053027281955608914;-0.2725645696450253;-0.9943225082268276;1.028;0.01437129946291432
53:07.6;0.04856580526734562;-0.2741747011714447;-0.9888377565311744;1.0290000000000001;0.013166884124348946
53:07.6;0.04347857135048;-0.27548356986083;-0.9840696852113757;1.032;0.011786824599130826
53:07.6;0.037907369925996186;-0.27652754866048207;-0.9799642762794405;1.036;0.010272408968691294
53:07.6;0.03200635345884975;-0.27732176502258843;-0.9764861999846421;1.036;0.008667348570223438
53:07.6;0.025928795121293976;-0.2778483734829555;-0.9736460119216487;1.032;0.007014412211552717
53:07.6;0.019813013710132468;-0.2780511645497546;-0.9715108909074529;1.022;0.005352084134937929
53:07.6;0.013769462857729153;-0.27783930264428697;-0.9701954610247359;1.014;0.0037116747942757774
53:07.6;0.007871202845862343;-0.2771000991608539;-0.9698340450775066;1.005;0.0021153157903087993
53:07.6;0.0021501036760976132;-0.27571800707155336;-0.9705400249901467;0.997;0.0005753577704107535
53:07.6;-0.0034000417716421125;-0.27359595773202466;-0.9723604513160315;0.991;0.00090452633506348
53:07.7;-0.008814187853182548;-0.27067546271148496;-0.9752350542654333;0.976;0.002326700554990369
53:07.7;-0.014142168210231407;-0.2669521201740291;-0.9789694429937452;0.9890000000000001;0.0036958855087306725
53:07.7;-0.019432100778592067;-0.2624832038480484;-0.9832317485767761;1.002;0.005015071925482226
53:07.7;-0.02471363416683512;-0.25738523449457024;-0.987577756049009;1.02;0.006281907569037459
53:07.7;-0.029984967777054724;-0.2518220457641265;-0.9915017056312186;1.0390000000000001;0.007486706361412833
53:07.7;-0.035207352668536876;-0.2459861771326476;-0.9945023769056917;1.0490000000000002;0.008612909803644134
53:07.7;-0.040308191875926956;-0.24007712012604265;-0.9961503533702656;1.054;0.00963982130535214
53:07.7;-0.04519135954817917;-0.2342796214659377;-0.9961430628806556;1.046;0.010546579616077176
53:07.7;-0.04975293723982119;-0.22874511862909153;-0.994338313046425;1.034;0.011316307335220181
53:07.7;-0.05390082074144367;-0.22357931457577027;-0.9907631540393158;1.02;0.011939794323052087
53:07.8;-0.05757555749565889;-0.21883792934984986;-0.9856010495076285;1.011;0.01241829309972846
53:07.8;-0.060768038146861665;-0.21453064140989375;-0.9791642643456894;1.006;0.01276497892023651
53:07.8;-0.06352922459337518;-0.21063086826668787;-0.9718587415366847;1.0;0.013004651485820282
53:07.8;-0.06596853409299795;-0.2070873630099906;-0.9641463806657505;0.985;0.013171444518179148
53:07.8;-0.06824049653240098;-0.20383369902769927;-0.9565071662257133;0.97;0.013304740003649588
53:07.8;-0.07052291803034459;-0.2007936233447471;-0.9494031058011311;0.9620000000000001;0.01344407227666468
53:07.8;-0.0729917804404944;-0.1978825483930994;-0.9432468357047875;0.958;0.013624068197807327
53:07.8;-0.07579699129566811;-0.19500684172630028;-0.9383777338730852;0.9570000000000001;0.013870097366707516
53:07.8;-0.0790403454685762;-0.1920629401169554;-0.9350465481376256;0.9570000000000001;0.014194680898845381
53:07.8;-0.08275523977059514;-0.18893809062159303;-0.933407183894211;0.955;0.014594397224193608
53:07.9;-0.08688789068878075;-0.18551428134599748;-0.9335129408857565;0.9520000000000001;0.0150472433763992
53:07.9;-0.09128175943517759;-0.18167707039471584;-0.9353147229522741;0.9490000000000001;0.015511074766730599
53:07.9;-0.09566950952935818;-0.17733118291474273;-0.9386602675296477;0.95;0.01592454724380848
53:07.9;-0.09967839910640137;-0.17242375348380984;-0.9432954431521776;0.95;0.016212346822336184
53:07.9;-0.10285400866969098;-0.16697297414137416;-0.9488703463306076;0.961;0.01629574725237545
53:07.9;-0.10470316005324903;-0.16109540206914885;-0.954953607496398;0.973;0.016107391260159105
53:07.9;-0.10475085295936991;-0.1550219519230817;-0.9610572112552975;0.9890000000000001;0.015606302140769785
53:07.9;-0.10260044093101577;-0.14909333679937872;-0.96667107929711;1.0;0.01478720819250325
53:07.9;-0.09798383780486851;-0.14373104068009113;-0.9713029534577822;1.001;0.01367916931735613
53:07.9;-0.09079115593374;-0.13938782112302475;-0.974517005896644;0.993;0.012332689489779204
53:08.0;-0.08107626941502345;-0.13648868539225953;-0.975965716242597;0.988;0.010800030202835903
53:08.0;-0.06904252248513511;-0.13537604001663234;-0.9754132145290105;0.988;0.00911689789822342
53:08.0;-0.05501669857523885;-0.13627025012823285;-0.9727515154016557;0.99;0.007292853591981554
53:08.0;-0.039418412226399545;-0.13925079309768248;-0.968011278916596;0.996;0.005313457630374449
53:08.0;-0.022728999246677952;-0.14425669844120304;-0.9613661126339256;0.995;0.0031521371988887147
53:08.0;-0.005462006518282367;-0.15110090742145882;-0.9531264080282023;0.978;0.0007866287029486757
53:08.0;0.011862848498486615;-0.15949272718375768;-0.9437182260597674;0.9590000000000001;0.0017855508008576498
53:08.0;0.028740871752035782;-0.16906445917884183;-0.933646195607951;0.945;0.0045366428263590025
53:08.0;0.04469915676463651;-0.17940006117362015;-0.9234447133609373;0.929;0.007405132206151322
53:08.0;0.05931088858575745;-0.19006419745163905;-0.9136252832931875;0.9179999999999999;0.01029918493028915
53:08.1;0.07220918712244433;-0.20062995600759181;-0.9046283216002153;0.914;0.013105645436168458
53:08.1;0.0831012950969098;-0.21070358961312494;-0.8967862322578262;0.91;0.015702494819203612
53:08.1;0.09178203259434002;-0.21994484908660217;-0.890302130026555;0.905;0.017972516018370226
53:08.1;0.0981437808498176;-0.22808179666022466;-0.8852462298899321;0.9079999999999999;0.01981606854178933
53:08.1;0.1021803647316785;-0.23491955573630485;-0.8815701209750726;0.9159999999999999;0.02116135542556023
53:08.1;0.10398432004518753;-0.2403431153134088;-0.8791370236318737;0.924;0.02197131814019347
53:08.1;0.10373904256143858;-0.24431470125844915;-0.8777631274029652;0.934;0.022246882933160867
53:08.1;0.10170712412765216;-0.24686647318825142;-0.8772623323418293;0.94;0.022026371971808248
53:08.1;0.09821448303383305;-0.24808990785540885;-0.8774854269609916;0.938;0.021380829258314048
53:08.1;0.09362928961530184;-0.2481239938468662;-0.8783455192883722;0.932;0.020405436131405125
53:08.2;0.08833638719089511;-0.247144424994391;-0.8798247339972449;0.9209999999999999;0.01920819776385628
53:08.2;0.08271036302254478;-0.24535530548659185;-0.881962162785074;0.915;0.017898034225983822
53:08.2;0.07709132160616487;-0.24298432199816763;-0.8848278677375095;0.909;0.016574580144957954
53:08.2;0.07176632724054163;-0.24028177823192373;-0.8884906451170435;0.9079999999999999;0.015321257718605045
53:08.2;0.06695795301340589;-0.23752225128252358;-0.8929878653810859;0.914;0.01420208235170054
53:08.2;0.06282069431331921;-0.23500518041614676;-0.8983043724524943;0.922;0.013261836871591442
53:08.2;0.059445591654545535;-0.2330494506716557;-0.904364561824049;0.93;0.012528851834788461
53:08.2;0.0568718273003837;-0.23197861981367301;-0.9110380952940295;0.9470000000000001;0.012019369324162628
53:08.2;0.05510161311520207;-0.23209718387539832;-0.9181561376215579;0.958;0.011742233867078051
53:08.2;0.05411360299915887;-0.23366163969547438;-0.9255322077002242;0.966;0.011702682095681694
53:08.3;0.05387136552940382;-0.2368514708378795;-0.9329807022349034;0.973;0.011904378616783041
53:08.3;0.05432560311996687;-0.24174499094906068;-0.9403277060253536;0.97;0.012349269632832756
53:08.3;0.05541046571491997;-0.24830396668085428;-0.9474122937780157;0.976;0.013035103196737506
53:08.3;0.05703561794446015;-0.25636968371225577;-0.954080365748313;0.98;0.013950757103760432
53:08.3;0.059076566857625565;-0.2656721655780317;-0.9601754912228406;0.978;0.015069953808547839
53:08.3;0.06136607565882403;-0.2758530862519072;-0.965532141520535;0.988;0.016344548717023774
53:08.3;0.06369011957199572;-0.2865005692931998;-0.9699767298655705;1.012;0.017699413234168057
53:08.3;0.06579257581817838;-0.2971908468140186;-0.9733399967250983;1.035;0.019031669575215304
53:08.3;0.06739176253883716;-0.3075290951850057;-0.9754792826166255;1.046;0.020216737660183576
53:08.3;0.06820807907647738;-0.3171812636436406;-0.9763036412991944;1.051;0.021121669993552878
53:08.4;0.06799689668560985;-0.3258914433261075;-0.9757927904324349;1.046;0.021623184556764964
53:08.4;0.06657743816220844;-0.3334846318337591;-0.9740034395515138;1.037;0.02162536245697892
53:08.4;0.06384922987344352;-0.339859542232329;-0.9710613198151071;1.0270000000000001;0.021071807331498195
53:08.4;0.05979298477266977;-0.344977233739782;-0.9671419927920464;1.02;0.019949449190295832
53:08.4;0.05445922115553183;-0.3488491154943573;-0.962446631059229;1.014;0.01828461030735511
53:08.4;0.04795150525524828;-0.3515253018594644;-0.9571796351610267;1.004;0.01613438012334768
53:08.4;0.04041087886786796;-0.3530831920298949;-0.951533826072526;1.005;0.013576867245389715
53:08.4;0.03200536213607758;-0.35361614873580505;-0.9456867987281191;1.014;0.010702917110237832
53:08.4;0.02292475487202772;-0.35322243162270495;-0.9398084069988442;1.013;0.0076101339690946585
53:08.4;0.013377301347092474;-0.35199487553042025;-0.9340747749631458;1.006;0.004398316678084773
53:08.5;0.0035830424749102026;-0.35001255608629556;-0.928681527145542;1.002;0.0011646686555438488
53:08.5;-0.006239621445730467;-0.34733656048142086;-0.923849913639562;0.995;0.002002212479677212
53:08.5;-0.015893267650764133;-0.34401157121842296;-0.9198226335516033;0.988;0.005029100792850873
53:08.5;-0.025221455600829102;-0.3400731220598557;-0.9168491105305004;0.981;0.007863942399719317
53:08.5;-0.034122523128928994;-0.33555897861074235;-0.9151619292497064;0.976;0.010478713002199972
53:08.5;-0.04255194070659508;-0.33052290771275045;-0.9149473050696018;0.9690000000000001;0.012868176799501526
53:08.5;-0.05051126872753957;-0.3250487979032951;-0.9163134309247797;0.96;0.015044608602799431
53:08.5;-0.0580251290837993;-0.3192621764449353;-0.9192618727139948;0.9540000000000001;0.017029536702804476
53:08.5;-0.0651107261594858;-0.31333574237625844;-0.923668550545462;0.958;0.018844240299364604
53:08.5;-0.07174669295364422;-0.30748602271331027;-0.9292809878711289;0.965;0.020500965688751076
53:08.6;-0.07784845047701244;-0.30195928752198586;-0.935736307280055;0.977;0.02199641199043695
53:08.6;-0.08325631851103694;-0.29700688065933717;-0.9426001169928315;0.991;0.023308332400324264
53:08.6;-0.08774105837495523;-0.29285347301068;-0.9494213192142765;1.018;0.024395640626044365
53:08.6;-0.09102839341181478;-0.2896648838448749;-0.9557933361256583;1.018;0.025202099670999664
53:08.6;-0.09283913513810672;-0.287522739021816;-0.9614099510960952;1.0290000000000001;0.0256632642619992
53:08.6;-0.09293757976146143;-0.28641073096111785;-0.9661054994230667;1.041;0.02571610548544646
53:08.6;-0.09117946998176493;-0.28621332783821624;-0.9698731981379503;1.038;0.0253105670277471
53:08.6;-0.08755071564384917;-0.2867248498579795;-0.9728589743147762;1.032;0.024421645558444092
53:08.6;-0.08218897754893634;-0.28766604572230076;-0.9753312357227572;1.02;0.023059735118088353
53:08.6;-0.07538323744511999;-0.2887060490652254;-0.977631221451406;1.006;0.02127677157467454
53:08.7;-0.06755117047968243;-0.28948830350509414;-0.9801131103407709;1.002;0.01916638017078455
53:08.7;-0.059198889448546;-0.2896588408333574;-0.9830856304595624;1.008;0.016857442854189005
53:08.7;-0.050870780339793205;-0.2888948409306922;-0.9867655965044664;1.024;0.014501809150862547
53:08.7;-0.043097408214596226;-0.2869313172548813;-0.9912486020197765;1.024;0.012257776355911186
53:08.7;-0.036346954864614166;-0.2835834926850499;-0.9964963659577054;1.026;0.010271283064027246
53:08.7;-0.03098260174935479;-0.2787618924116908;-1.0023380491798888;1.034;0.008656961885453278
53:08.7;-0.02722780728414094;-0.2724775119670559;-1.0084840110545774;1.038;0.007481907767745127
53:08.7;-0.025144040531225008;-0.26483629485943083;-1.014551277162235;1.05;0.006755952280219792
53:08.7;-0.02462758799135204;-0.25602512799280736;-1.0200986701546322;1.052;0.006432009138080376
53:08.7;-0.025429421214217422;-0.24629367586463272;-1.0246678368323974;1.056;0.006417602893604924
53:08.8;-0.027194982149636202;-0.2359350800182764;-1.0278264872341514;1.056;0.0065947919963438555
53:08.8;-0.02951412192084341;-0.22526523703222506;-1.029211817996413;1.061;0.006842720607885609
53:08.8;-0.03197031460612395;-0.21459997637775624;-1.0285727181214401;1.074;0.007056861285481545
53:08.8;-0.03418229316010791;-0.20423253670907365;-1.0258071459531526;1.0759999999999998;0.0071612996497156765
53:08.8;-0.035835833155194695;-0.19441549270708403;-1.0209875112444908;1.071;0.007113262014110528
53:08.8;-0.03670562556921056;-0.18534961538509317;-1.0143655298560232;1.051;0.006901107648032331
53:08.8;-0.03666756612826226;-0.17717961019008635;-1.0063511132744667;1.0270000000000001;0.006538006637100105
53:08.8;-0.03570143214523936;-0.1699952536397212;-0.9974664670206594;1.004;0.006053697813665695
53:08.8;-0.0338835796921944;-0.16383588800334897;-0.9882834382251104;0.981;0.005486303674953083
53:08.8;-0.03137036369223367;-0.15869643464606445;-0.9793562582586468;0.9620000000000001;0.0048755927928062015
53:08.9;-0.028375937581135602;-0.15453448657152322;-0.9711623098866338;0.955;0.004258605916423755
53:08.9;-0.025150682295788058;-0.15127980056504317;-0.9640611355376277;0.956;0.0036680503624119893
53:08.9;-0.021965650495150143;-0.14884753319831942;-0.9582771816485188;0.971;0.0031331187643816585
53:08.9;-0.01910351836410386;-0.14715396445656564;-0.9539053735534125;0.971;0.002681579163142655
53:08.9;-0.016850811595438876;-0.14613023854878773;-0.9509326438289503;0.9740000000000001;0.002341589016672052
53:08.9;-0.015484580051918329;-0.14572929887237832;-0.9492657629753195;0.972;0.0021420722968907933
53:08.9;-0.015251096590229588;-0.14592485509416467;-0.9487569463949808;0.963;0.0021114719236832937
53:08.9;-0.01634057193594869;-0.1467057797367572;-0.9492222582977057;0.96;0.002275529083615215
53:08.9;-0.018864801279092316;-0.1480706545598349;-0.9504521723447805;0.9590000000000001;0.002654920363484349
53:08.9;-0.022842982381281535;-0.150024864937264;-0.9522170000796197;0.968;0.0032632622724863445
53:09.0;-0.02819758254620758;-0.1525797666855028;-0.9542706725806076;0.955;0.004105635596410317
53:09.0;-0.03475956652456389;-0.1557521667507487;-0.9563556021900416;0.9590000000000001;0.00517759236505368
53:09.0;-0.0422808848957565;-0.1595622014222009;-0.9582113742396785;0.971;0.006464506988758073
53:09.0;-0.05045151920603727;-0.16402816438324289;-0.959590018363855;0.971;0.00794105849151812
53:09.0;-0.058918688522335394;-0.1691582678367384;-0.9602784295852183;0.9840000000000001;0.009570694953557047
53:09.0;-0.06730731306399947;-0.17494122509143795;-0.9601250997738199;0.995;0.01130530388062263
53:09.0;-0.075242527903425;-0.1813387345722017;-0.959065560452534;1.001;0.013085859551425594
53:09.0;-0.08237491237004564;-0.1882828598419379;-0.9571392293055145;1.0;0.014845022781276163
53:09.0;-0.08840700145972784;-0.19568012484485076;-0.9544906716832718;0.991;0.016512204772380405
53:09.0;-0.09311777042415283;-0.20342234376928553;-0.9513517740590139;0.975;0.018020728972975228
53:09.1;-0.09638154831501622;-0.2114023080132524;-0.9480071885499524;0.9590000000000001;0.019315913580704346
53:09.1;-0.09817864004331348;-0.21953097439318603;-0.944751497491663;0.95;0.020362467587762244
53:09.1;-0.09859578760383324;-0.2277519800871134;-0.9418504470990426;0.951;0.021149615207333508
53:09.1;-0.09781525399899625;-0.2360491843896519;-0.9395182418672232;0.9620000000000001;0.02169273485654628
53:09.1;-0.09609243587785544;-0.24444401085883166;-0.9379177370858928;0.973;0.022030956480225607
53:09.1;-0.09372407570393776;-0.25298216895439307;-0.9371823552288058;0.988;0.022221080934965217
53:09.1;-0.09101185550964669;-0.26171286334458277;-0.9374510882221095;1.006;0.022329122443917947
53:09.1;-0.08822824792858575;-0.27066568796291346;-0.9389033154528408;1.015;0.02242134863679177
53:09.1;-0.0855917677679597;-0.279830106900017;-0.9417789460356344;1.016;0.022556692122424282
53:09.2;-0.08325647368405446;-0.289140836298346;-0.9463720463717172;1.0090000000000001;0.022781868936303313
53:09.2;-0.08131641790481008;-0.2984709947700836;-0.9529927968870114;0.997;0.023129699488641135
53:09.2;-0.07982148754590647;-0.30763387964786315;-0.9619018302920108;0.9840000000000001;0.02362026308996047
53:09.2;-0.07879816899366146;-0.3163933819766453;-0.9732300076149414;0.981;0.024263810633833552
53:09.2;-0.07826802856959197;-0.3244823976377047;-0.9869027062809596;0.992;0.02506397087081686
53:09.2;-0.07825822350795354;-0.3316279134813184;-1.0025884881725728;1.021;0.02601978940228808
53:09.2;-0.07880144905715687;-0.33758025982938555;-1.0196866996224312;1.055;0.027125515562340226
53:09.2;-0.0799265273711723;-0.34214272394226203;-1.0373586602332876;1.093;0.02836790016533838
53:09.2;-0.08164378730220657;-0.34519732029379674;-1.0545964011844966;1.128;0.02972191879526817
53:09.2;-0.08392933914443118;-0.3467230523337851;-1.0703153113029045;1.153;0.031146428847443106
53:09.2;-0.08670992260951431;-0.34680367506822674;-1.0834544267619377;1.166;0.03258090458390322
53:09.3;-0.08984907908737866;-0.3456226470107194;-1.0930701939041811;1.167;0.03394406685723592
53:09.3;-0.09313781482333529;-0.3434445233344656;-1.0984148523422481;1.159;0.03513573447404771
53:09.3;-0.09629555326640243;-0.3405849962512836;-1.0989967476071074;1.173;0.03604359922428362
53:09.3;-0.09898574760620737;-0.33737475664906674;-1.094623634824093;1.173;0.03655527647371519
53:09.3;-0.10084517788203404;-0.33412300719983673;-1.0854292098705;1.17;0.03657320518895852
53:09.3;-0.10152136469846963;-0.3310847538962328;-1.0718794476148834;1.16;0.03602820069375214
53:09.3;-0.1007117721677668;-0.32843470167806266;-1.0547528054778308;1.135;0.03488831258124998
53:09.3;-0.09820032551413763;-0.3262512400146209;-1.0350891725779938;1.0979999999999999;0.03316216410682494
53:09.3;-0.093888941569746;-0.3245146978092139;-1.014106926198222;1.062;0.030898156146071772
53:09.4;-0.08782200719400231;-0.3231223009100028;-0.9930946597644599;1.028;0.0281812944755251
53:09.4;-0.08019867273185954;-0.32191802459023405;-0.9732912171778547;0.997;0.025127847016355374
53:09.4;-0.07136437825009495;-0.3207308731118917;-0.9557715650259555;0.9690000000000001;0.021876425340902735
53:09.4;-0.06177460615130377;-0.31941302790571285;-0.9413558409863946;0.9470000000000001;0.018574470089549405
53:09.4;-0.05193184290977438;-0.31787167889842;-0.9305551086995898;0.9620000000000001;0.01536128929427594
53:09.4;-0.04230712734436079;-0.3160928389383548;-0.9235598567281776;0.987;0.012350747483228845
53:09.4;-0.033264457072162495;-0.3141566122996649;-0.9202665023286672;0.9940000000000001;0.009617014228007913
53:09.4;-0.025005367081814;-0.3122403000658801;-0.9203273641880207;0.9840000000000001;0.007185624611123102
53:09.4;-0.01754335470160616;-0.31060462284829593;-0.923207259001212;0.9670000000000001;0.005030599810204526
53:09.4;-0.010709360763886712;-0.3095634622328808;-0.9282367641042937;0.9540000000000001;0.003077315393734091
53:09.5;-0.004183320558683588;-0.309444501196431;-0.934663232982853;0.943;0.0012099267365202806
53:09.5;0.002457123744411616;-0.3105514020867565;-0.9417089532735937;0.968;0.0007185834698865175
53:09.5;0.009678944759560021;-0.3131374618993078;-0.9486458631772186;1.047;0.0028751940137654226
53:09.5;0.01792899969132769;-0.31739665914840737;-0.9548846613480084;1.103;0.005433871050060694
53:09.5;0.027558106360495473;-0.3234703857090193;-0.960056857364725;1.101;0.00855816888178598
53:09.5;0.03873220054637699;-0.33145966405664024;-0.9640563377019532;1.073;0.012376711615305173
53:09.5;0.05134256875182576;-0.3414279873973979;-0.9670165955044614;1.013;0.016951597765202473
53:09.5;0.06494403201576512;-0.3533834733678462;-0.9692270759125367;0.951;0.022243904458099123
53:09.5;0.07875499274266462;-0.3672424805749608;-0.9710192998948576;0.9359999999999999;0.028083993899608972
53:09.5;0.0917390095444057;-0.382792367524745;-0.9726657683647125;1.001;0.0341570966462331
53:09.6;0.1027606534595398;-0.39967455854235323;-0.9743260635327275;1.077;0.04001636921425643
53:09.6;0.11078146844169492;-0.41739766580883575;-0.9760480743882657;1.126;0.0451323910663925
53:09.6;0.11504629058865765;-0.4353764863176307;-0.9778028618442971;1.138;0.04897662952103102
53:09.6;0.11521354224340129;-0.4529861602060624;-0.979518685760575;1.102;0.051121217444895846
53:09.6;0.11140379521695172;-0.469619900733953;-0.9810900758888;1.102;0.05132812044523855
53:09.6;0.10416595803381828;-0.4847401980708514;-0.9823602255803658;1.073;0.04960273446531352
53:09.6;0.094377001203107;-0.4979177744604852;-0.9830923136851857;1.0659999999999998;0.04619746063395609
53:09.6;0.08309909454786406;-0.5088576313091847;-0.982950887808963;1.077;0.041564676333620876
53:09.6;0.07142341121818056;-0.5174126524160587;-0.981511363766801;1.1079999999999999;0.036272122127388375
53:09.6;0.0603309337146476;-0.5235831905216028;-0.9783058795952391;1.14;0.03090298318573813
53:09.7;0.05059247206399213;-0.5275008546470904;-0.9728982758486534;1.148;0.025964293031009462
53:09.7;0.042715907991103474;-0.5293981138594893;-0.96496689553578;1.137;0.021821492267883894
53:09.7;0.03693652033581815;-0.5295699825450537;-0.95436983355061;1.12;0.0186679248167268
53:09.7;0.03324035160167798;-0.5283367132599163;-0.9411749431447962;1.074;0.01652900669285038
53:09.7;0.031409620022999636;-0.5260150925678905;-0.9256508729185676;1.074;0.015293542799649057
53:09.7;0.031080263225609115;-0.5229014817811555;-0.9082275790438631;1.042;0.01476043804633075
53:09.7;0.03180328905378481;-0.519265498711337;-0.8894393040758886;1.0170000000000001;0.014688512639389662
53:09.7;0.033103067987923084;-0.5153513341685605;-0.8698614739845878;0.998;0.014839584706119006
53:09.7;0.03452685358146259;-0.5113831621131423;-0.85005109249846;0.9790000000000001;0.015008885940184196
53:09.7;0.03568158492247066;-0.5075706192515409;-0.8304989120041633;0.9670000000000001;0.015041102806096555
53:09.8;0.03625705386386339;-0.5041103651729669;-0.8115984670680875;0.95;0.014834036969772126
53:09.8;0.036037355591379126;-0.5011811675037717;-0.7936326544465178;0.93;0.014333992977879522
53:09.8;0.034903198077076515;-0.498932881132127;-0.77677545041361;0.912;0.013527042032975277
53:09.8;0.03282640427552299;-0.49747315746694526;-0.7611054340306638;0.9009999999999999;0.012429045806843328
53:09.8;0.029856972474542314;-0.4968577020283408;-0.7466280490852548;0.892;0.011075978281857352
53:09.8;0.02610365628671947;-0.4970889293077789;-0.733303671245756;0.888;0.009515230049568418
53:09.8;0.02171037306923702;-0.49812456567722196;-0.7210782397612954;0.888;0.0077980791038983165
53:09.8;0.016831564788677925;-0.49989387706871913;-0.7099127425392778;0.887;0.005973203103394201
53:09.8;0.011609864355202004;-0.5023163902921215;-0.6998073080500699;0.8809999999999999;0.0040811538625196596
53:09.8;0.006159350595190961;-0.5053174424273156;-0.6908155468489843;0.868;0.0021501131602136604
53:09.9;0.0005568450893476827;-0.5088367152570127;-0.6830461367790215;0.858;0.00019353649601838247
53:09.9;-0.005157893779135444;-0.5128288163901369;-0.6766515862545005;0.851;0.0017898223173836076
53:09.9;-0.010973665920860768;-0.5172573306743344;-0.6718070425699008;0.848;0.0038133172766524953
53:09.9;-0.016892585311161487;-0.5220847885185348;-0.6686832469063162;0.841;0.005897359503931479
53:09.9;-0.022910685757546838;-0.5272611184003896;-0.6674174220981797;0.841;0.008062344924790455
53:09.9;-0.02899797718704814;-0.5327132117946312;-0.6680852945615384;0.8440000000000001;0.010320318112733687
53:09.9;-0.03508199977785931;-0.5383383225426812;-0.6706771128931447;0.8440000000000001;0.012666397834826735
53:09.9;-0.04103860974915829;-0.5440036322563923;-0.6750804310304089;0.848;0.015071273752289952
53:09.9;-0.046692838322089;-0.5495533077617719;-0.6810728459084032;0.858;0.017476467993709527
53:09.9;-0.05183104617146254;-0.5548229987480989;-0.6883283108751655;0.878;0.01979429610236543
53:10.0;-0.056222810051325546;-0.5596597908636709;-0.6964396171869204;0.905;0.0219139225349343
53:10.0;-0.059647709052141736;-0.5639430130061837;-0.7049563195275613;0.9279999999999999;0.023713256357309056
53:10.0;-0.06192065026740759;-0.5675992712214951;-0.7134325370543093;0.9390000000000001;0.02507438268075864
53:10.0;-0.06291118418759782;-0.5706059620749676;-0.721475033061266;0.9329999999999999;0.0258991476751858
53:10.0;-0.06255628162350532;-0.5729821864262858;-0.7287816001286982;0.9329999999999999;0.02612218168381969
53:10.0;-0.06086910365906429;-0.5747718280335583;-0.735163816084931;0.935;0.02572032804026672
53:10.0;-0.05794596642026882;-0.5760261872437948;-0.7405540206030162;0.9420000000000001;0.02471850395441485
53:10.0;-0.05397053771675408;-0.5767915051858693;-0.7450001379231157;0.946;0.023191666319088092
53:10.0;-0.04921131413824108;-0.5771028126529402;-0.7486523420486169;0.953;0.02126171738326214
53:10.0;-0.044008143204930315;-0.5769829264027532;-0.7517437762967976;0.9590000000000001;0.01908823831469655
53:10.1;-0.038745916710101386;-0.5764445035479304;-0.75456544605156;0.955;0.016853121689199866
53:10.1;-0.03381700452452598;-0.5754930235652035;-0.7574345369288267;0.948;0.014740774506367866
53:10.1;-0.029577275607185677;-0.5741293082600727;-0.7606567493937524;0.943;0.012916849776459453
53:10.1;-0.02630278677490413;-0.5723516086420998;-0.7644861442945883;0.9390000000000001;0.011508912565546542
53:10.1;-0.024154892094252988;-0.5701583664359327;-0.7690884636136257;0.9390000000000001;0.010591973856917241
53:10.1;-0.02316066347340049;-0.5675526553676773;-0.7745146194778503;0.945;0.010180914165653865
53:10.1;-0.023212931225921205;-0.5645481160379324;-0.7806899985055931;0.956;0.010230799245087366
53:10.1;-0.024089973569462863;-0.5611745508158611;-0.7874226418936003;0.965;0.010644914796901486
53:10.1;-0.025490457950808596;-0.5574803996667138;-0.7944296506996766;0.973;0.011289187486253835
53:10.1;-0.02707683219969293;-0.553530268374349;-0.8013773539453422;0.982;0.01201092052446639
53:10.2;-0.028520585559188516;-0.5493981467268456;-0.8079280376764955;0.991;0.012659551145690078
53:10.2;-0.029544153860354336;-0.5451588676462612;-0.8137850417535512;0.993;0.013107031402897906
53:10.2;-0.029955068588047484;-0.5408803589791448;-0.8187289781786561;0.992;0.013265135532802395
53:10.2;-0.02966836357612937;-0.5366179988977265;-0.8226405945597199;0.9890000000000001;0.013096913663461354
53:10.2;-0.028714027420181174;-0.5324110256416213;-0.8255097079615256;0.985;0.012620115695447374
53:10.2;-0.027227375336813128;-0.52827986167527;-0.8274330790251901;0.9890000000000001;0.011901527728988863
53:10.2;-0.02542200855814528;-0.5242228535087343;-0.8286049492394235;0.996;0.011042650671165553
53:10.2;-0.023548709439481147;-0.5202120908514053;-0.8293011436204846;0.988;0.01015920718408141
53:10.2;-0.02184842773151902;-0.5161905384888797;-0.8298535377785187;0.973;0.009359048097114379
53:10.2;-0.02050996534314023;-0.5120748059877323;-0.8306114310986438;0.963;0.008723609953428493
53:10.3;-0.019640697422666525;-0.5077669746596167;-0.8318920049164236;0.9540000000000001;0.008296373704846097
53:10.3;-0.01925364320540201;-0.5031747044617804;-0.833929393150807;0.951;0.008079063120203633
53:10.3;-0.019270449933618577;-0.4982343976697612;-0.8368353910139343;0.955;0.008034624806010783
53:10.3;-0.019538695862289953;-0.4929307124003421;-0.8405827058085881;0.9670000000000001;0.008095839717192337
53:10.3;-0.01986129713360832;-0.48730731556469603;-0.845015384025336;0.98;0.008178528199532019
53:10.3;-0.020034136848591372;-0.4814666053785427;-0.8498831280029201;0.9940000000000001;0.008197775361000205
53:10.3;-0.019886109470298008;-0.4755589347479917;-0.8548894423613531;0.9990000000000001;0.008084704020288084
53:10.3;-0.01931473447944659;-0.4697641121682474;-0.8597404641952378;0.993;0.007800742557122445
53:10.3;-0.018310587078966004;-0.46426931915240394;-0.8641831248963789;0.9890000000000001;0.007346458592881885
53:10.3;-0.01696520858545701;-0.459247742419264;-0.8680268461706339;0.986;0.0067630000533178665
53:10.4;-0.015460161303247665;-0.4548409180326082;-0.8711492529714542;0.977;0.00612584659330185
53:10.4;-0.014038916977251613;-0.45114577310272824;-0.8734908010847036;0.968;0.005532339637261942
53:10.4;-0.012966887357285834;-0.44820643225781137;-0.8750452663044701;0.97;0.005085625110534738
53:10.4;-0.012486951485114806;-0.44601139693492037;-0.8758527864336372;0.988;0.004877906783739877
53:10.4;-0.012778392560093511;-0.4444966436173772;-0.8759989839942692;0.988;0.004975632710052867
53:10.4;-0.013926767459681355;-0.4435533996967259;-0.875618739433179;0.987;0.005408929039314291
53:10.4;-0.015910179331902644;-0.44303781126575753;-0.8748999710515926;0.993;0.006167004564390701
53:10.4;-0.018603193976389026;-0.4427801972563444;-0.8740827943027453;0.993;0.007199930022352549
53:10.4;-0.02179536101291116;-0.4425930822675695;-0.8734506138903982;0.985;0.00842572039267267
53:10.4;-0.0252193219821171;-0.44227840201760404;-0.8733110241003105;0.975;0.009740877475905962
53:10.5;-0.02858325781343961;-0.44163528009615033;-0.8739670237107967;0.97;0.011032413539548975
53:10.5;-0.03160232179355375;-0.4404702800238957;-0.8756827124424001;0.968;0.012189401366267963
53:10.5;-0.03402377755209783;-0.4386110851902405;-0.8786501654967955;0.972;0.013112277416719675
53:10.5;-0.035642067876552566;-0.435922465621969;-0.8829641363974107;0.977;0.013718771050723678
53:10.5;-0.03630337659386345;-0.4323216641551385;-0.8886089249619119;0.983;0.01394648264758942
53:10.5;-0.03590312748901144;-0.42778997693821125;-0.8954585992389594;0.991;0.01375334690690872
53:10.5;-0.0343822636975523;-0.42237824074377656;-0.9032891402684285;0.9990000000000001;0.013117853995703194
53:10.5;-0.031727521166001596;-0.4162053859407138;-0.9117994529127236;1.008;0.012040462397539902
53:10.5;-0.02797726775317523;-0.40945039287306356;-0.9206374521132759;1.011;0.010546181218487913
53:10.5;-0.023230020617840807;-0.40233899760653735;-0.9294275623755057;1.011;0.008686748986573274
53:10.6;-0.017650117304336466;-0.39512759975041856;-0.9377970429390833;1.021;0.006540242047274333
53:10.6;-0.011465090770112141;-0.3880870927021575;-0.9454000323291203;1.031;0.004206513713934249
53:10.6;-0.004951765252718069;-0.3814878631819309;-0.9519387276252976;1.034;0.001798248758801212
53:10.6;0.001587938151779371;-0.37558504908036255;-0.9571804086964922;1.035;0.0005708679748378432
53:10.6;0.007856937272625037;-0.37060218034542525;-0.9609687840342993;1.031;0.0027981470642041467
53:10.6;0.013592583840147231;-0.3667124562078019;-0.9632292705053749;1.031;0.004801283538238876
53:10.6;0.018590291967236418;-0.3640196750519146;-0.9639689336521258;1.034;0.006523401454371677
53:10.6;0.022717299207048236;-0.3625431926129932;-0.9632717022413732;1.0270000000000001;0.007933507841584198
53:10.6;0.02591495670958826;-0.3622111843847827;-0.9612890141803194;1.021;0.00902331924939733
53:10.6;0.028190314245051442;-0.3628643356645099;-0.9582267187123616;1.02;0.009801949909951197
53:10.7;0.029600318581108703;-0.3642695503973017;-0.9543304684892919;1.021;0.010290063257812032
53:10.7;0.030234036759431034;-0.3661410941019163;-0.9498721243919108;1.0190000000000001;0.010515011560131593
53:10.7;0.03019794237713662;-0.3681653800489593;-0.9451382566947848;1.018;0.01050789301610382
53:10.7;0.029606290877442182;-0.3700260127691893;-0.9404200566787694;1.012;0.010302393662272159
53:10.7;0.028575708546488596;-0.37142697394866514;-0.9360032742323038;1.012;0.009934541212824805
53:10.7;0.02722221308318221;-0.3721127453520517;-0.9321570904289251;1.0090000000000001;0.009442501922700124
53:10.7;0.025659334898615434;-0.3718845970278311;-0.9291212402319347;1.003;0.008865964220090432
53:10.7;0.023996780134918627;-0.3706125449790534;-0.9270911815572884;0.992;0.00824509261472337
53:10.7;0.022339521894994357;-0.36824257565000823;-0.9262025605565992;0.985;0.007619278550063248
53:10.7;0.020786849735667128;-0.3647986517346853;-0.9265186182084298;0.983;0.007025804354864506
53:10.8;0.019430424303921508;-0.3603789155288994;-0.928025675669208;0.991;0.006498328330841588
53:10.8;0.018350984733576443;-0.3551456703290778;-0.9306404099087714;0.998;0.006065237406259246
53:10.8;0.017614545308575758;-0.34930952158357487;-0.9342284248610365;1.006;0.005748240602417364
53:10.8;0.017269249877167173;-0.3431094890779773;-0.9386291244705706;1.012;0.005561606120664905
53:10.8;0.017343516210179207;-0.3367922938807088;-0.9436795973443859;1.012;0.005512185978302436
53:10.8;0.017845614851399207;-0.3305943200561068;-0.9492309807871545;1.01;0.005600139011343089
53:10.8;0.01876468656595139;-0.3247283479532856;-0.9551540999269882;1.008;0.005820160509794201
53:10.8;0.020073169375150603;-0.3193751046419285;-0.9613354420255528;1.0070000000000001;0.0061629970928756585
53:10.8;0.021730440093087684;-0.31467877021875035;-0.967667618413516;1.008;0.00661701584229093
53:10.8;0.023687126387787517;-0.3107458274543823;-0.9740394685585181;1.016;0.007169588636724616
53:10.9;0.025889202879781102;-0.3076465964780087;-0.9803301685491738;1.026;0.007808060350211287
53:10.9;0.02828101478304881;-0.3054179321294962;-0.9864095201900709;1.037;0.008520140889352363
53:10.9;0.03080695552635659;-0.30406483757079;-0.992143726144816;1.043;0.009293719760377517
53:10.9;0.03341213431389312;-0.3035593908564005;-0.9974037689263463;1.044;0.010116234691563347
53:10.9;0.036042355901446575;-0.30383748319747195;-1.0020731852643305;1.045;0.010973722196212942
53:10.9;0.0386434603451161;-0.30479613188809257;-1.0060535291807413;1.048;0.011849677986261959
53:10.9;0.04116021408711825;-0.3062949757387363;-1.009267746646315;1.058;0.012724006802815609
53:10.9;0.04353525314085885;-0.3081641610970883;-1.0116624430621335;1.058;0.013572468153963804
53:10.9;0.04570867520681313;-0.31021791929127684;-1.013209455126578;1.065;0.014366955568139108
53:10.9;0.04761910656473902;-0.31227072457207566;-1.0139063981921366;1.067;0.015076841787356741
53:11.0;0.04920733521087097;-0.31415211603546156;-1.013775729970597;1.063;0.015671541821601697
53:11.0;0.050422844858331574;-0.31571686386210035;-1.0128622971680639;1.062;0.016124101758934153
53:11.0;0.05123160018697135;-0.31684906414387154;-1.0112299910244438;1.061;0.01641497747590166
53:11.0;0.05162191526175868;-0.3174612750329623;-1.0089584234154934;1.058;0.016534769314625355
53:11.0;0.05160588292296554;-0.31749129217612376;-1.0061400902757227;1.057;0.016485020261519354
53:11.0;0.05121619491704648;-0.3168989349383393;-1.002877869526074;1.051;0.01627706647240062
53:11.0;0.050500223806212975;-0.3156641719503528;-0.9992825540305315;1.048;0.015929674445022367
53:11.0;0.0495136473452336;-0.3137870748825041;-0.9954704122443986;1.042;0.015466367528330286
53:11.0;0.04831497701474057;-0.311289665596376;-0.9915611634251013;1.038;0.014913033332431536
53:11.0;0.046961160962547155;-0.30821929360025274;-0.9876769744919538;1.038;0.014295968248527429
53:11.1;0.045503797469160855;-0.3046524697577527;-0.9839427588597532;1.0390000000000001;0.013640245248805263
53:11.1;0.043985705932244004;-0.3006973326819873;-0.9804868723038764;1.038;0.012968296321229944
53:11.1;0.042438294094088995;-0.296492604001187;-0.9774397813265254;1.031;0.012298773208095637
53:11.1;0.040880506922467474;-0.2922014523033335;-0.9749277859995052;1.02;0.011645847285259477
53:11.1;0.039319741339018985;-0.2880002729620499;-0.9730603135289236;1.01;0.01101902863620294
53:11.1;0.037754488199813176;-0.28406427181028104;-0.9719121227420779;1.003;0.010423467107171066
53:11.1;0.03617815987252878;-0.280552657270405;-0.9715044177272397;0.997;0.00986065217849727
53:11.1;0.034583362785296556;-0.27759586188463137;-0.9717900302955486;0.998;0.009329377093253625
53:11.1;0.032965613442724126;-0.27528639689635415;-0.9726471602070218;1.002;0.00882675833677048
53:11.1;0.03132567393522931;-0.273674246140737;-0.9738840658624447;1.0090000000000001;0.008349137507036114
53:11.2;0.0296704555697914;-0.2727668805499832;-0.9752543185230076;1.013;0.007892847899729322
53:11.2;0.028013003859754703;-0.2725331133267967;-0.9764798232797393;1.016;0.007454907044790616
53:11.2;0.026371933886651072;-0.2729096469688678;-0.9772777487389782;1.0190000000000001;0.007033619598825579
53:11.2;0.02477046893176142;-0.2738091677944683;-0.9773878556551268;1.024;0.0066290172949642154
53:11.2;0.02323534766839099;-0.27512866345824777;-0.9765975595262946;1.021;0.006243105130264686
53:11.2;0.021795553710170886;-0.27675657436677603;-0.9747626729766535;1.02;0.005879829640218107
53:11.2;0.020479885200649594;-0.27857814297027234;-0.971822282309973;1.0190000000000001;0.005544487509028524
53:11.2;0.019312229630599843;-0.2804793264960537;-0.9678067901923382;1.016;0.005242300806885013
53:11.2;0.018305004509944413;-0.28234972658507057;-0.9628385678357418;1.01;0.004976347388736641
53:11.2;0.017453366513803872;-0.28408447491976;-0.9571250001276891;1.002;0.004745646331245703
53:11.3;0.01673340630861143;-0.28558516007774054;-0.9509443467632686;0.995;0.004544384749460995
53:11.3;0.016105880596010674;-0.28676081672109754;-0.9446256004925278;0.988;0.004362786845263046
53:11.3;0.015524287804407613;-0.28753059225534056;-0.9385239123800865;0.981;0.004189296383113267
53:11.3;0.014944321736334542;-0.28782901776742303;-0.9329932406174981;0.972;0.004013185938777616
53:11.3;0.01433207821167538;-0.2876130532648333;-0.9283582012232778;0.966;0.0038267786330299864
53:11.3;0.01367006357622637;-0.2868685583267859;-0.9248877592281476;0.961;0.003626957919601728
53:11.3;0.012961247031094669;-0.2856138535382307;-0.9227737171756233;0.958;0.0034160268304109774
53:11.3;0.01223126768757577;-0.28389951301745053;-0.9221163690441454;0.956;0.0032020038525586497
53:11.3;0.01152822488245716;-0.28180516518736626;-0.9229185971188285;0.956;0.0029982979372603345
53:11.3;0.010919307646444186;-0.27943477131197675;-0.9250888608491799;0.9590000000000001;0.0028226628027042313
53:11.4;0.010484082566288353;-0.27691137709169644;-0.928453063547192;0.966;0.002695449412380268
53:11.4;0.010305310654908018;-0.2743712092728421;-0.932774682695218;0.9740000000000001;0.002637402269419996
53:11.4;0.010459325538295414;-0.27195625107610527;-0.9377813765606354;0.9840000000000001;0.0026674993967503537
53:11.4;0.01100832516853966;-0.2698048378907116;-0.9431946300352523;0.993;0.0028013817930044576
53:11.4;0.011995573657505382;-0.26804101727060725;-0.9487576385466673;0.996;0.0030505459056628945
53:11.4;0.013442452149174462;-0.26676436166405487;-0.954256621426846;0.998;0.0034219329131134784
53:11.4;0.015345719747796503;-0.2660419568248515;-0.9595325081416957;1.001;0.003917392513422595
53:11.4;0.017674845224012383;-0.26590360462886325;-0.9644824908180558;1.004;0.0045328796870808714
53:11.4;0.020370963076111782;-0.26634050008551396;-0.9690528530763619;1.004;0.0052577052659461805
53:11.4;0.023348927304562752;-0.2673072433196716;-0.9732253900160476;1.0070000000000001;0.006074228017798217
53:11.5;0.02650240390827317;-0.2687270088794767;-0.9770001355156465;1.011;0.0069581087257175964
53:11.5;0.029710747491973267;-0.2704995226098875;-0.9803771819096242;1.013;0.007879039466779236
53:11.5;0.03284636068679746;-0.2725109033254107;-0.9833401151096186;1.008;0.00880186893497093
53:11.5;0.0357817805306767;-0.2746440143379254;-0.9858436602794298;1.008;0.009688133929464784
53:11.5;0.038396338591713;-0.27678833185875473;-0.9878088878474418;1.0170000000000001;0.010498095531490588
53:11.5;0.04058275225257498;-0.2788487023603791;-0.9891293644043012;1.0290000000000001;0.01119343082352996
53:11.5;0.04225410738950619;-0.28075177838489884;-0.9896892037512364;1.0390000000000001;0.011740599686005583
53:11.5;0.043351015635199205;-0.28244829757487594;-0.989389669534265;1.044;0.01211450321575514
53:11.5;0.043847522998295536;-0.28391027937843694;-0.988177435043954;1.045;0.0123015862011667
53:11.5;0.04375367320582547;-0.2851243612711471;-0.9860668347909397;1.04;0.012301418572244484
53:11.6;0.04311328900632574;-0.28608413425961426;-0.9831504963934321;1.031;0.012126205711855976
53:11.6;0.04199711717243413;-0.2867844586593897;-0.9795963989407444;1.021;0.011798377083483379
53:11.6;0.04049316865481679;-0.2872195333560989;-0.975633162725176;1.0170000000000001;0.011347032234141496
53:11.6;0.03869725795772221;-0.28738459471526023;-0.9715278364604554;1.012;0.010804356983780542
53:11.6;0.03670651502036496;-0.2872795648834107;-0.9675607954706162;1.0070000000000001;0.010202959224537771
53:11.6;0.03461669473391245;-0.2869127497487564;-0.9640010797185534;1.004;0.009574430838414031
53:11.6;0.03252184266805582;-0.2863035542056204;-0.9610839463954032;1.0;0.008948767133407753
53:11.6;0.030513951968850112;-0.28548387862097424;-0.95899151722217;0.995;0.008354006568831382
53:11.6;0.028680760660049216;-0.2844978408683611;-0.9578373293298104;0.992;0.007815583344035575
53:11.6;0.027100999779406505;-0.28339942199855417;-0.9576560030559769;0.993;0.007355188514029557
53:11.7;0.025837734055882175;-0.28224818757223485;-0.9583993118310025;0.9940000000000001;0.00698927419956499
53:11.7;0.02493145861417024;-0.2811040071041508;-0.9599392026752201;0.996;0.006727573514726104
53:11.7;0.02439468567331368;-0.28002204237276274;-0.9620772955558231;0.998;0.006571997826265947
53:11.7;0.024208937318593998;-0.2790491749105924;-0.9645597966431132;1.001;0.0065160682580411005
53:11.7;0.024324200591459507;-0.27822265216371106;-0.967096692159271;1.004;0.006544869029911155
53:11.7;0.024660683135520146;-0.2775710152814885;-0.9693842580548119;1.01;0.006635523320239235
53:11.7;0.02511321247643519;-0.2771164645267707;-0.9711299261682558;1.016;0.006758369592591252
53:11.7;0.025559298728214237;-0.2768771547235934;-0.9720779926566089;1.022;0.006879187840490829
53:11.7;0.02587151717567575;-0.27686803767432827;-0.9720335271566752;1.023;0.006962672453604183
53:11.7;0.02593282517950454;-0.2770999956540151;-0.9708808634318447;1.0190000000000001;0.00697673604426505
53:11.8;0.025651208067157205;-0.2775783614203123;-0.9685933175582347;1.015;0.006896597805738241
53:11.8;0.024969810657969736;-0.27830222847933567;-0.9652325979350983;1.0090000000000001;0.006707549921400984
53:11.8;0.023870433187253542;-0.279265089811781;-0.9609387270883871;1.001;0.006405789243660671
53:11.8;0.022370380411708024;-0.2804563406177699;-0.955913055360252;0.99;0.0059973172839593285
53:11.8;0.020514486891587306;-0.2818626037047201;-0.9503979410082537;0.99;0.005495454355518875
53:11.8;0.018365592141993282;-0.28346758508911946;-0.9446568004028882;0.9840000000000001;0.004917930586014495
53:11.8;0.015996860263003117;-0.28524950625642065;-0.9389570659931975;0.976;0.00428455169366663
53:11.8;0.013487635508672585;-0.28717635284089127;-0.9335568488120858;0.973;0.0036159737247761655
53:11.8;0.010922201281017854;-0.2892006701695104;-0.9286952146504717;0.968;0.0029334769392521235
53:11.8;0.008389282893012807;-0.2912564542796842;-0.924585892193638;0.9670000000000001;0.0022591634855731145
53:11.9;0.005979933238989041;-0.2932602064717902;-0.9214140150787011;0.968;0.0016158620647976185
53:11.9;0.0037826023299332968;-0.295116583954962;-0.9193349676667281;0.972;0.0010262616024595665
53:11.9;0.0018761674550478156;-0.2967272357601607;-0.9184736750032668;0.972;0.000511323463776136
53:11.9;0.0003232124165866394;-0.29800051547696893;-0.918922070832371;0.968;8.85082460045019e-05
53:11.9;-0.0008342486540763071;-0.2988603217466839;-0.920732895191869;0.965;0.0002295606437098213
53:11.9;-0.001575956591825744;-0.2992536843046284;-0.9239098249943752;0.966;0.00043572586685298754
53:11.9;-0.0019023601720254486;-0.2991574890950993;-0.928396181000005;0.9690000000000001;0.0005283551800674414
53:11.9;-0.0018323327644270433;-0.29858414616711765;-0.9340656357743432;0.9740000000000001;0.0005110324597331474
53:11.9;-0.0013998336328758367;-0.2975848290491789;-0.9407181034469879;0.98;0.00039187423701246023
53:11.9;-0.0006494468785618832;-0.2962486671550012;-0.9480828795005162;0.988;0.00018240903384077049
53:12.0;0.00036849009120116475;-0.29469738215271085;-0.9558296980159462;0.997;0.00010379647674178175
53:12.0;0.0016017572424871576;-0.2930762090402474;-0.9635870732912508;1.0070000000000001;0.00045234336752460674
53:12.0;0.0029980586103702236;-0.2915424630162084;-0.9709663110937846;1.016;0.0008486841650075459
53:12.0;0.004504838623764014;-0.2902529606209038;-0.9775889360946686;1.022;0.0012782393235899873
53:12.0;0.006068282827938046;-0.2893513314447192;-0.9831149961519776;1.03;0.0017262179164783122
53:12.0;0.007633126294236378;-0.2889563130595246;-0.9872696930627816;1.037;0.0021775615565113337
53:12.0;0.009144388157209625;-0.2891522956432521;-0.9898657484512973;1.041;0.0026173246423149255
53:12.0;0.01055086539410417;-0.28998334576557644;-0.9908188486740541;1.042;0.0030314848243622704
53:12.0;0.011808894869822211;-0.29145132023260434;-0.9901539443902573;1.042;0.003407830653473728
53:12.0;0.012884399430974365;-0.2935176695766611;-0.9880012393866106;1.037;0.0037364219952468747
53:12.1;0.0137519384584176;-0.2961078939955223;-0.9845819657097351;1.028;0.004009274412567217
53:12.1;0.01439095021166675;-0.29911775434131466;-0.9801854531013116;1.021;0.004219295235274564
53:12.1;0.014780820895904845;-0.30242085525938833;-0.9751405800873786;1.015;0.004358906181352659
53:12.1;0.014897282216160017;-0.3058774720059086;-0.9697857224103626;1.0090000000000001;0.00441906432540469
53:12.1;0.014712392721826452;-0.30934426843490737;-0.9644411935218428;1.005;0.004389359323845689
53:12.1;0.014198715241018048;-0.3126841295968109;-0.9593872245258538;1.004;0.004259403852681973
53:12.1;0.013336130120049743;-0.3157750111860862;-0.9548492579579801;1.002;0.004021077081739731
53:12.1;0.012118599511334512;-0.3185165650247156;-0.9509909536074775;1.003;0.003670801010640537
53:12.1;0.01055872376849889;-0.32083345088858484;-0.9479140426049517;1.001;0.00321114582231302
53:12.1;0.008689277889194925;-0.32267487749519724;-0.9456632999705816;0.997;0.002651461804308536
53:12.2;0.006562054803663382;-0.32401098575707;-0.9442347414381188;0.997;0.0020076109882225385
53:12.2;0.004244847880626167;-0.324827760272976;-0.9435856131307587;1.0;0.0013010577666701223
53:12.2;0.0018172326041593393;-0.32512257427841784;-0.9436450513805223;1.002;0.0005575275232269337
53:12.2;-0.0006345832444928934;-0.3249019275064091;-0.944323907430137;1.005;0.00019469817178391396
53:12.2;-0.003023375888015074;-0.3241818208762895;-0.9455217348688403;1.005;0.000926728072644852
53:12.2;-0.00526587219101322;-0.3229902499746099;-0.9471292444855177;1.0;0.0016109014527188796
53:12.2;-0.0072859582600836624;-0.32137091239995097;-0.9490259527219227;0.998;0.002222139574179756
53:12.2;-0.009015986730898847;-0.319387249694467;-0.9510748610505182;0.995;0.0027387068054283647
53:12.2;-0.010396970197156036;-0.3171259222314383;-0.9531177818826208;0.997;0.003142571114751641
53:12.2;-0.011378592819888527;-0.31469854017461585;-0.9549753011241547;1.003;0.0034196009125351985
53:12.3;-0.01191971720295909;-0.3122402648784795;-0.9564538800957636;1.008;0.0035597450258791513
53:12.3;-0.01199008072188734;-0.30990437483790256;-0.9573597529948191;1.01;0.0035573367585792675
53:12.3;-0.011573921206424732;-0.30785319195255106;-0.9575166166733314;1.011;0.003411697378212719
53:12.3;-0.010675472349636884;-0.30624700860638604;-0.956783190462349;1.0090000000000001;0.003128041396972426
53:12.3;-0.00932465253161376;-0.3052328966901341;-0.9550675791329123;1.008;0.0027183044643248563
53:12.3;-0.00758030500993707;-0.30493477646378037;-0.9523367250712045;1.004;0.0022013250198085763
53:12.3;-0.005529394648075253;-0.3054457420814313;-0.9486202039705203;0.996;0.0016021531699861313
53:12.3;-0.003282893074647071;-0.306823163985072;-0.9440085323172215;0.996;0.0009508692466644063
53:12.3;-0.0009703016786870483;-0.3090858472051032;-0.9386472278677465;0.9890000000000001;0.0002815064202397597
53:12.3;0.0012662245494131615;-0.3122115630810163;-0.9327282083222059;0.9840000000000001;0.0003687353920270746
53:12.4;0.003278825312369911;-0.31613408659492176;-0.926479423828058;0.978;0.0009603408063069034
53:12.4;0.004922922599549891;-0.3207407766268482;-0.9201529595433664;0.971;0.0014529049767936493
53:12.4;0.006068028910678481;-0.32587311188681956;-0.9140118289779754;0.9670000000000001;0.0018073738129351154
53:12.4;0.006608781630793944;-0.33133262374442857;-0.908316026727736;0.9640000000000001;0.0019889441066887475
53:12.4;0.006474105411190904;-0.3368928935662509;-0.9033088756117151;0.9640000000000001;0.0019701890174735133
53:12.4;0.005632929277626802;-0.34231556370690214;-0.8992048724517978;0.9620000000000001;0.001733882228657286
53:12.4;0.004096067992799041;-0.34736715330493434;-0.8961796797716739;0.958;0.0012751198281208528
53:12.4;0.0019151503182172028;-0.3518346995567424;-0.8943621958192308;0.9590000000000001;0.0006026358585735827
53:12.4;-0.0008199271010006617;-0.3555399092386405;-0.8938286189358604;0.96;0.00026056606506182615
53:12.4;-0.003984103222485208;-0.35835201384954046;-0.894598766803735;0.9640000000000001;0.0012772288695663593
53:12.5;-0.007421007651072419;-0.3601989261243717;-0.896634860440864;0.968;0.0023967399387721487
53:12.5;-0.010948279021163966;-0.361075276994646;-0.899842659088555;0.97;0.003557215599486056
53:12.5;-0.014364837125143417;-0.3610453693461175;-0.9040747800717815;0.971;0.004688855400819529
53:12.5;-0.01746036603923155;-0.36023958012835877;-0.9091364376853349;0.976;0.0057183908535860676
53:12.5;-0.020027137810395515;-0.35884394449754653;-0.9147942845542026;0.982;0.0065742762747771875
53:12.5;-0.02187382477017446;-0.3570838252722819;-0.9207888545084962;0.988;0.007192087476623059
53:12.5;-0.022840184516580927;-0.35520332784652103;-0.926850179079404;0.9940000000000001;0.0075194516682697745
53:12.5;-0.02281090104843554;-0.3534425640872743;-0.9327151226699976;1.001;0.007519869572019506
53:12.5;-0.021726650787385123;-0.3520152720369423;-0.9381443194820834;1.006;0.007175033660046714
53:12.5;-0.01959077451212408;-0.35108972618267265;-0.9429363047401831;1.008;0.0064856287349768
53:12.6;-0.016470755758236418;-0.3507758641594759;-0.9469368043472082;1.008;0.005470968658840574
53:12.6;-0.01249459702481072;-0.35112058070212193;-0.9500425185202811;1.014;0.004167941188273459
53:12.6;-0.007842654197887065;-0.35211136226841816;-0.9522003517551014;1.0170000000000001;0.0026294895149521253
53:12.6;-0.0027354559015024846;-0.35368652910849624;-0.953403621411334;1.018;0.0009224121911298931
53:12.6;0.0025820969844800204;-0.3557491261658683;-0.9536863368870508;1.016;0.0008760359993237641
53:12.6;0.007859399081552143;-0.35818164677791636;-0.9531163183658775;1.0170000000000001;0.002683110604906635
53:12.6;0.012859960032753767;-0.36085996844601986;-0.9517881427177137;1.0170000000000001;0.0044169106682086685
53:12.6;0.017379763651366738;-0.3636658302779774;-0.949817088919157;1.016;0.006003248793410169
53:12.6;0.021261540102441502;-0.36649720285984566;-0.9473350299517089;1.016;0.0073819139945167965
53:12.6;0.02440331587765684;-0.36927552224178145;-0.9444887207866913;1.018;0.00851130470154862
53:12.7;0.026761017729996072;-0.37194864770327785;-0.9414401692857707;1.02;0.009370835942581654
53:12.7;0.028345913101336998;-0.374488871939814;-0.9383676092080437;1.0170000000000001;0.009960987078029187
53:12.7;0.02921765942869595;-0.3768865407053112;-0.9354645120022619;1.012;0.010301094407862654
53:12.7;0.02947303100526703;-0.37914140791468043;-0.9329341500235552;1.0090000000000001;0.010425022720266134
53:12.7;0.029230341733422552;-0.3812545994373775;-0.9309787415377785;1.005;0.010375015366591037
53:12.7;0.028610941129455853;-0.3832233221479525;-0.9297841535617509;1.0;0.010194506693399838
53:12.7;0.027720937706986137;-0.3850390018152767;-0.9295024922860364;1.001;0.009921177011873042
53:12.7;0.026636971195444722;-0.3866885512763546;-0.9302353684231325;1.003;0.009581621320429308
53:12.7;0.02539892693050539;-0.38815808379692135;-0.9320201840702835;1.006;0.009188599479597718
53:12.7;0.024010596919149026;-0.389438023718426;-0.9348208095499959;1.0090000000000001;0.008741172305396921
53:12.8;0.022447396416924784;-0.3905281930813581;-0.938523164666118;1.014;0.008227414249980606
53:12.8;0.020668926555335095;-0.39144138480556934;-0.9429357902682997;1.018;0.007628985359011289
53:12.8;0.018633574903550654;-0.3922041745237593;-0.9477954538694618;1.0190000000000001;0.006926646381524384
53:12.8;0.016312441729723723;-0.39285429848469094;-0.9527781339001928;1.024;0.006105795638679276
53:12.8;0.013700450505325255;-0.39343497148025464;-0.9575160283361458;1.031;0.005161237705311722
53:12.8;0.010823134796965029;-0.3939876533675203;-0.9616208192770243;1.042;0.004100525689051848
53:12.8;0.007738079935437167;-0.3945451837349286;-0.964711922931089;1.05;0.0029452868882587097
53:12.8;0.00453045234455225;-0.3951266276700876;-0.9664464244721852;1.054;0.001730038022094149
53:12.8;0.0013027201236639017;-0.39573432020804766;-0.966546084961077;1.053;0.0004982845301926875
53:12.8;-0.001840132408118495;-0.3963532446165518;-0.9648172163420002;1.0490000000000002;0.0007036821528339365
53:12.9;-0.0048069212214805835;-0.39695289160027786;-0.9611612442783954;1.042;0.001834012222336213
53:12.9;-0.007533906729033935;-0.3974915551248643;-0.9555763094112274;1.036;0.0028616302615250017
53:12.9;-0.009991896808774617;-0.3979225628271663;-0.9481520640886981;1.03;0.0037698537309952254
53:12.9;-0.012185039051636537;-0.39820146936587547;-0.9390602829889408;1.021;0.004556414826027113
53:12.9;-0.01414248796790459;-0.3982929706499602;-0.9285433202051726;1.011;0.005230348533013381
53:12.9;-0.015906458203521226;-0.39817645811753377;-0.9169016592046964;1.0;0.005807267432994988
53:12.9;-0.017520651671136256;-0.3978496009029256;-0.9044813388167332;0.9890000000000001;0.006304763397315174
53:12.9;-0.019021587004622312;-0.3973295755963442;-0.8916618265052814;0.977;0.006739036608952077
53:12.9;-0.020433161078398394;-0.396651540192704;-0.878844692510462;0.966;0.00712289984730834
53:12.9;-0.02176352691989454;-0.3958642873050933;-0.8664429929505396;0.9570000000000001;0.007464755624382672
53:13.0;-0.023003785526647755;-0.39502380840059886;-0.8548705520315313;0.9440000000000001;0.007768245436992376
53:13.0;-0.02412897648791766;-0.394186108855361;-0.8445298236486442;0.9309999999999999;0.008032582721019779
53:13.0;-0.02510202614631498;-0.3934006348842093;-0.8357974642739817;0.9209999999999999;0.008253627855807497
53:13.0;-0.025880641078103336;-0.39270533559656323;-0.8290080671749966;0.915;0.008425595171843013
53:13.0;-0.026426173117130736;-0.3921238922008314;-0.8244374641762084;0.9159999999999999;0.008543096249382796
53:13.0;-0.026712535535236104;-0.3916648699524998;-0.8222867471962012;0.9079999999999999;0.008603061416750359
53:13.0;-0.026733008962135867;-0.3913218082092089;-0.822667428321012;0.907;0.008606096239108948
53:13.0;-0.02650371744696488;-0.39107355714775227;-0.8255881165878068;0.907;0.008557140795609762
53:13.0;-0.026063664889102535;-0.3908854975937837;-0.8309436988652441;0.91;0.008465578471817652
53:13.0;-0.025471348961601848;-0.39071304963670134;-0.8385086294663756;0.914;0.008344828179867207
53:13.1;-0.024797765567764685;-0.3905081250422407;-0.8479364880377452;0.924;0.00821118710603815
53:13.1;-0.024116333630156375;-0.3902277168080213;-0.858768267224638;0.9359999999999999;0.008081749489901603
53:13.1;-0.02349153004849095;-0.3898427118951414;-0.8704512470117585;0.951;0.007971594070120032
53:13.1;-0.022968370379461745;-0.3893446211632242;-0.8823687016448186;0.9670000000000001;0.00789068046691683
53:13.1;-0.02256413007397463;-0.3887483279974267;-0.8938786877911892;0.977;0.007840896325511115
53:13.1;-0.022263223048289486;-0.38809019236659204;-0.9043584657780238;0.9940000000000001;0.00781378241199715
53:13.1;-0.022016552364492688;-0.38742248612801083;-0.9132500774788488;1.002;0.007789755992341782
53:13.1;-0.021746822821454598;-0.38680612522880453;-0.9201022548729109;1.013;0.0077397200778526
53:13.1;-0.021360075126835756;-0.3863032506211387;-0.9246041669014099;1.0170000000000001;0.007629340267347957
53:13.1;-0.020761494265830044;-0.3859700067971964;-0.9266075443653797;1.015;0.007425197284586685
53:13.2;-0.019871994077552788;-0.3858493513822185;-0.9261352077544496;1.011;0.007101230638049032
53:13.2;-0.018642166544669245;-0.38596454973036415;-0.9233757313398913;1.004;0.006643887297277236
53:13.2;-0.017061402472558117;-0.3863151171696374;-0.9186657471432311;0.997;0.0060549973153993675
53:13.2;-0.015161264947502395;-0.386876856140706;-0.9124627873083601;0.993;0.005352089275055463
53:13.2;-0.013013081195609745;-0.3876061674028114;-0.9053120309383592;0.986;0.004566349096756751
53:13.2;-0.010720626100044442;-0.3884472196898841;-0.8978097199595272;0.9790000000000001;0.0037388364651973903
53:13.2;-0.008409850576957388;-0.3893398931425423;-0.890564944837289;0.971;0.002915968182644711
53:13.2;-0.006217918166135017;-0.3902266509540576;-0.8841609290680047;0.9620000000000001;0.0021453257634487756
53:13.2;-0.004282657990645185;-0.3910570924877295;-0.8791173062126848;0.951;0.0014723138245225824
53:13.2;-0.0027319378831875147;-0.39178978411333426;-0.8758558975530092;0.945;0.0009374682902508469
53:13.3;-0.00167217159116542;-0.3923922100475477;-0.8746733950881582;0.945;0.0005739144170888206
53:13.3;-0.0011766569191113728;-0.3928407716417183;-0.8757242196653023;0.95;0.00040479372299137957
53:13.3;-0.0012762504480739111;-0.3931225610631331;-0.8790153902817633;0.9570000000000001;0.00044102210215145494
53:13.3;-0.0019550874765246916;-0.3932389637349752;-0.8844131941341894;0.972;0.0006799515212776876
53:13.3;-0.0031522109620227266;-0.39320929196759685;-0.8916595841880414;0.972;0.001105193009206618
53:13.3;-0.0047676670961311444;-0.39307200517878055;-0.9003953113866863;0.978;0.0016873736469049244
53:13.3;-0.006670866780312376;-0.3928819284597046;-0.9101875553747572;0.9890000000000001;0.0023854768916268024
53:13.3;-0.008709964593284885;-0.39270356284210856;-0.9205613095128424;1.004;0.003148719319984768
53:13.3;-0.010722085285443522;-0.3926020148331457;-0.9310337101505025;1.0190000000000001;0.003919197841817485
53:13.3;-0.012544518391028209;-0.39263357885274436;-0.9411485525216158;1.031;0.004635532281416944
53:13.4;-0.014026878094133588;-0.39283768691987303;-0.950506465055831;1.042;0.005237562795427622
53:13.4;-0.01504381966407268;-0.3932311902360837;-0.9587861908660845;1.045;0.0056718906180964045
53:13.4;-0.015507058546487911;-0.39380520700239274;-0.9657541101693007;1.046;0.005897628956986269
53:13.4;-0.015374766154084592;-0.39452462856628706;-0.971261839467532;1.044;0.005891406158870771
53:13.4;-0.014656715720440588;-0.3953308009330087;-0.9752346173740202;1.047;0.005650754317681668
53:13.4;-0.013414431542162588;-0.39614784077211374;-0.9776552080197175;1.047;0.005195355674215481
53:13.4;-0.011756073307498869;-0.3968918329634037;-0.9785484322890243;1.054;0.004565798839278884
53:13.4;-0.009826101868844262;-0.3974807795185019;-0.9779700879030154;1.054;0.003819644697309103
53:13.4;-0.00779076143591087;-0.39784289059589645;-0.976001662960989;1.055;0.003025116226761283
53:13.4;-0.005821645504889712;-0.3979216512726469;-0.9727500501684953;1.054;0.002253432681554256
53:13.5;-0.004080208027346938;-0.3976775110629841;-0.9683501289195375;1.05;0.001571251671426901
53:13.5;-0.002705821234349949;-0.3970873877801886;-0.9629675660080346;1.046;0.001034658080154384
53:13.5;-0.001808683801618697;-0.3961436138883808;-0.9567994102566187;1.038;0.0006855453781819766
53:13.5;-0.00146685559487068;-0.39485329232869465;-0.9500709871078806;1.031;0.0005502742381741903
53:13.5;-0.0017252135338075708;-0.3932381384837255;-0.9430288238162633;1.023;0.0006397693869321671
53:13.5;-0.002594123497582951;-0.39133455471212775;-0.9359302204153218;1.015;0.0009501284351596111
53:13.5;-0.004046964144676605;-0.3891938184661051;-0.9290303519026069;1.006;0.0014632724410953612
53:13.5;-0.006017434085794182;-0.38688238998626095;-0.9225677935268236;0.9990000000000001;0.002147774062436261
53:13.5;-0.0083987309464963;-0.38448217595844986;-0.9167495704980854;0.991;0.0029603331970629843
53:13.5;-0.011046635436422784;-0.38209016797579753;-0.9117372267834608;0.9840000000000001;0.0038482703239692507
53:13.6;-0.01378733742681741;-0.3798165717029146;-0.9076356836851514;0.9790000000000001;0.004752978784409104
53:13.6;-0.016429081708707757;-0.3777806535177957;-0.9044865971398801;0.976;0.005613776767615151
53:13.6;-0.018775585353097417;-0.37610403865528186;-0.902267368772233;0.9740000000000001;0.006371427322665264
53:13.6;-0.020639574815302153;-0.3749019997068186;-0.900895976282836;0.973;0.00697096898551338
53:13.6;-0.021856013591807198;-0.37427409996575745;-0.900240793309439;0.973;0.0073640955572596475
53:13.6;-0.022295104820909267;-0.37429578789449813;-0.9001340119317777;0.976;0.0075115857673422135
53:13.6;-0.021874398374286397;-0.37501191748442475;-0.900387137709892;0.978;0.007386019822949928
53:13.6;-0.02056808861383566;-0.37643229488125146;-0.900806965982349;0.98;0.006974491446711138
53:13.6;-0.018411028393844293;-0.37852903796385895;-0.9012104183228876;0.9790000000000001;0.006280633516327874
53:13.6;-0.015495784127847285;-0.38123600574124233;-0.9014368516019364;0.98;0.0053252840359537795
53:13.7;-0.01196293767597756;-0.384451237786692;-0.9013569592313184;0.983;0.0041454904584126775
53:13.7;-0.007986691619881693;-0.3880432884724089;-0.9008778891435251;0.983;0.00279198461047654
53:13.7;-0.0037586194626503147;-0.3918612259633507;-0.8999445839744228;0.983;0.001325489887613516
53:13.7;0.0005279439826430991;-0.39574671079027507;-0.8985378082956044;0.982;0.00018773338637574763
53:13.7;0.004691174532970557;-0.39954595640613894;-0.896669946994319;0.981;0.0016806641829633729
53:13.7;0.008570642729285026;-0.4031196440731466;-0.8943801423034187;0.9790000000000001;0.0030900784247248824
53:13.7;0.012033095453450483;-0.406349677693876;-0.8917304191947873;0.976;0.004360244703288463
53:13.7;0.014973784856037209;-0.4091426766930894;-0.8888041613285763;0.978;0.005445182627164614
53:13.7;0.01731391141618839;-0.4114307608826723;-0.8857076228662903;0.983;0.006309316771145174
53:13.7;0.01899611556849321;-0.41317005747693764;-0.882573788466805;0.9840000000000001;0.006926991725414291
53:13.8;0.019980849458674933;-0.4143369061962743;-0.8795660219602374;0.978;0.007281754127286675
53:13.8;0.020245948969648604;-0.41492195640963075;-0.8768779714797942;0.972;0.007366203539673958
53:13.8;0.019789781064443925;-0.41492356301377625;-0.87472735165162;0.9640000000000001;0.007182601878918102
53:13.8;0.018636150965270062;-0.41434305659737414;-0.8733437879130656;0.965;0.006743750913052845
53:13.8;0.016838189931007667;-0.4131841186204743;-0.8729529372992031;0.965;0.006073371609208156
53:13.8;0.014478997670771532;-0.41145653249058517;-0.8737594145426838;0.9670000000000001;0.005205402642823678
53:13.8;0.011668087881610875;-0.40918257513015804;-0.8759299928585689;0.9690000000000001;0.004182021103135325
53:13.8;0.008534045408028339;-0.4064036080584163;-0.8795772941950675;0.9690000000000001;0.0030506087672097244
53:13.8;0.0052148344271894095;-0.4031849038942457;-0.8847437704200141;0.9670000000000001;0.0018602113942693046
53:13.8;0.001847417714440028;-0.39961776914972025;-0.8913865616006518;0.968;0.0006580758859802701
53:13.9;-0.0014420355946861431;-0.39581912598741753;-0.8993652565023906;0.973;0.000513344439620415
53:13.9;-0.004546121980617705;-0.3919292061909097;-0.9084355144644839;0.982;0.0016186122264044856
53:13.9;-0.0073805801446561;-0.3881074723988969;-0.9182512058495982;0.99;0.002630292292470098
53:13.9;-0.0098833266213342;-0.38452606519960497;-0.9283765223672577;0.996;0.003528199068976479
53:13.9;-0.012008081023711413;-0.38136026493430886;-0.9383082787160435;1.004;0.00429689358608229
53:13.9;-0.013714985954572335;-0.37877679789875374;-0.9475078775393532;1.0170000000000001;0.004922226166961208
53:13.9;-0.014961992024926303;-0.3769219612328421;-0.9554416945339135;1.033;0.005388216663792066
53:13.9;-0.01570032260578468;-0.3759113542900937;-0.9616270936989172;1.045;0.005675455344546079
53:13.9;-0.01587572590967633;-0.37582191988197095;-0.9656790165533604;1.054;0.0057616715036699455
53:13.9;-0.015435379935841362;-0.3766861177013641;-0.9673504385952976;1.0590000000000002;0.005624459215741319
53:14.0;-0.014338898984202169;-0.37848777124458627;-0.96656006065237;1.056;0.0052456160933992396
53:14.0;-0.012571118340389821;-0.38115933224702847;-0.9634023855258077;1.048;0.004616237976661303
53:14.0;-0.010154147618102983;-0.3845809809608764;-0.9581382727712336;1.036;0.0037416181535162686
53:14.0;-0.0071564864882641245;-0.38858292073381157;-0.9511675161314719;1.025;0.0026450907328039223
53:14.0;-0.003697372093509853;-0.3929526547898742;-0.94298802325922;1.014;0.0013700599247239026
53:14.0;5.541538571140009e-05;-0.39744815959937146;-0.9341479880004911;1.004;2.0574369419916688e-05
53:14.0;0.0038957595641680174;-0.40181596159778105;-0.9251978938449749;0.998;0.0014482847760182345
53:14.0;0.007597371079600568;-0.4058115324391662;-0.9166484460208872;0.993;0.0028261195575406484
53:14.0;0.0109373419758058;-0.40921906321146645;-0.9089386812293777;0.992;0.004068199424519997
53:14.0;0.01372056375768922;-0.41186818713430295;-0.9024159335052228;0.991;0.005099609943390605
53:14.1;0.015800217904577706;-0.4136459230547038;-0.8973268458693997;0.9890000000000001;0.005864655225634846
53:14.1;0.01709081278222143;-0.41450289331206874;-0.8938169830859707;0.9840000000000001;0.006331970537634616
53:14.1;0.017572255178424926;-0.41445370855331365;-0.8919363362427182;0.982;0.006495870947190904
53:14.1;0.0172856675292006;-0.4135720469139212;-0.8916489566332364;0.983;0.006374281497865872
53:14.1;0.016323549007957367;-0.4119813035239642;-0.8928460067225364;0.982;0.0060043867152742595
53:14.1;0.01481757458737885;-0.4098419986811797;-0.8953616609872119;0.987;0.005437409942254932
53:14.1;0.012926493987106323;-0.40733749720865076;-0.8989905870015006;0.9940000000000001;0.004733586128210564
53:14.1;0.01082499243605811;-0.4046596448805954;-0.9035047471313571;0.998;0.003957746161604566
53:14.1;0.00869310444511869;-0.4019954540134223;-0.9086665900603269;0.997;0.0031754157870648773
53:14.1;0.0067054264553295445;-0.3995154501128036;-0.9142362399418728;0.9940000000000001;0.0024491670904603453
53:14.2;0.005019907606875704;-0.3973642392694839;-0.9199724872703156;0.996;0.0018350983455006089
53:14.2;0.003767036445663575;-0.3956539682314767;-0.9256301207975607;1.001;0.0013795988584147712
53:14.2;0.0030412901528736767;-0.39446097934084884;-0.9309575288915825;1.002;0.0011168420906759926
53:14.2;0.0028969188510622637;-0.393825260394178;-0.9356979694695163;1.011;0.0010675189317878209
53:14.2;0.003348859049481392;-0.3937521400690775;-0.9395964032854764;1.011;0.0012389710016033992
53:14.2;0.004377658036764267;-0.3942162224202341;-0.9424122017616349;1.026;0.0016263620277117273
53:14.2;0.005936349674042517;-0.395167633330224;-0.943936502743733;1.035;0.002214336513993491
53:14.2;0.007957388377208179;-0.3965395871569307;-0.9440112804105343;1.033;0.0029787516042639327
53:14.2;0.010357962755969119;-0.39825527499487445;-0.9425459051376919;1.03;0.0038881086545779486
53:14.2;0.01304230883220798;-0.4002325553857757;-0.9395275335448418;1.026;0.004904292942135244
53:14.3;0.01590104492731975;-0.40238635551501944;-0.9350240273022059;1.022;0.00598262362398162
53:14.3;0.01880969145641242;-0.4046295389034216;-0.9291802158178062;1.016;0.00707195046427876
53:14.3;0.02162952548237978;-0.4068730205906008;-0.922209034661835;1.005;0.008115873281681715
53:14.3;0.024212916885228364;-0.4090259295790367;-0.9143792228865906;0.997;0.009055747418647134
53:14.3;0.02641348648018262;-0.4109967071467086;-0.9060017272812649;0.995;0.00983542425777959
53:14.3;0.028100004798454245;-0.4126954288799168;-0.8974171433238199;0.99;0.01040711645219009
53:14.3;0.029171734262544255;-0.41403652036729666;-0.8889853873328664;0.985;0.010737310721429789
53:14.3;0.02957164264343788;-0.41494085379672446;-0.8810767483812364;0.977;0.01081123695136973
53:14.3;0.029293608465340827;-0.4153374565007486;-0.8740620744444645;0.97;0.010634479738107779
53:14.3;0.028381565178004636;-0.41516620568808144;-0.8683000251458497;0.965;0.010231237134864086
53:14.4;0.02692169372029218;-0.41438257498747455;-0.8641205938056197;0.9590000000000001;0.009640026312665433
53:14.4;0.025030855806920296;-0.4129643783984687;-0.8618053578424507;0.9540000000000001;0.00890835427229421
53:14.4;0.022844198314418244;-0.4109197852178144;-0.8615656704173505;0.9520000000000001;0.0080876315923005
53:14.4;0.020503571002816627;-0.40829556213000434;-0.8635205261948743;0.9540000000000001;0.007228976806569288
53:14.4;0.018147820538569347;-0.405183754285124;-0.8676762434973434;0.953;0.0063801987392844645
53:14.4;0.01590596713961738;-0.40172420805052;-0.8739103643980759;0.95;0.005584122979183396
53:14.4;0.01389373400155986;-0.3981006700649391;-0.881962570425377;0.955;0.004878227420569008
53:14.4;0.012212930392297372;-0.3945298865527124;-0.891435786602355;0.965;0.004295263922921398
53:14.4;0.010952426590936443;-0.3912450491281328;-0.9018099602007459;0.9740000000000001;0.003864330240785937
53:14.5;0.010189159646804717;-0.3884760386914563;-0.9124689632821881;0.985;0.003611775143268035
53:14.5;0.009987744551682904;-0.38642914203565876;-0.9227389085140668;0.9990000000000001;0.003561362082918158
53:14.5;0.010397743897459493;-0.3852686495510136;-0.9319347499209589;1.015;0.0037332604798618546
53:14.5;0.011448283759858555;-0.38510218836049387;-0.9394108966066796;1.025;0.004141636366196663
53:14.5;0.01314038558518492;-0.3859709386891887;-0.9446105036840872;1.031;0.004790882126178292
53:14.5;0.015438285607941301;-0.3878452351136571;-0.9471080120679544;1.036;0.005670965979395604
53:14.5;0.018262207303420163;-0.3906255095999807;-0.9466408524946651;1.035;0.006753036735675312
53:14.5;0.02148575189991116;-0.39414805833902744;-0.9431282098966035;1.031;0.007986944806035599
53:14.5;0.024940120277045542;-0.39819495743173955;-0.9366764607716597;1.026;0.009302162155915243
53:14.5;0.028425019666214097;-0.4025077832624688;-0.9275720300517531;1.0190000000000001;0.010612622126879558
53:14.5;0.03172401878463074;-0.4068050451693831;-0.9162629494998792;1.008;0.011824823151863078
53:14.6;0.034621330680082434;-0.4108026485423279;-0.9033307217688475;0.995;0.012847652210226403
53:14.6;0.03691717931486564;-0.41423558483346445;-0.8894547078575673;0.982;0.013601905503201773
53:14.6;0.03843957078063344;-0.41687841183269375;-0.875371985335047;0.972;0.014027509742565676
53:14.6;0.039051521646423164;-0.418562114767159;-0.8618357314406383;0.963;0.014087125162563179
53:14.6;0.038654624771556276;-0.4191850290356866;-0.8495743066642137;0.951;0.013766026309716241
53:14.6;0.03719152419117977;-0.4187157590799307;-0.8392519444265112;0.935;0.013069399689725805
53:14.6;0.034650005977183776;-0.4171874763368577;-0.8314313968326283;0.9209999999999999;0.0120187969218095
53:14.6;0.031069350651346122;-0.4146858267444575;-0.8265395421491343;0.912;0.010649151463902138
53:14.6;0.026546829434853224;-0.4113349218729905;-0.8248382583111473;0.907;0.009006935198844138
53:14.7;0.021240876170124455;-0.40728534658133697;-0.8264038874703482;0.905;0.007149300697971476
53:14.7;0.015367959899105842;-0.4027055046408867;-0.8311188631686962;0.907;0.005143596876483993
53:14.7;0.009191897177504803;-0.3977754603822397;-0.8386784155905612;0.92;0.0030664692267297357
53:14.7;0.003006767283585575;-0.3926816477913554;-0.8486135015754559;0.935;0.001001959939804591
53:14.7;-0.002883387282362679;-0.38761063903905935;-0.8603282292800197;0.948;0.0009615300043289431
53:14.7;-0.008184687189245603;-0.3827404782844205;-0.8731470691508848;0.96;0.0027352301915168353
53:14.7;-0.012631435661779768;-0.378229546771295;-0.8863655652264004;0.97;0.004234684334200462
53:14.7;-0.016001479601580385;-0.3742050093598139;-0.8992986888553957;0.978;0.005384851107079367
53:14.7;-0.018128402765671965;-0.37075390146855897;-0.911322938319598;0.988;0.006125161909370298
53:14.7;-0.018909257703034033;-0.3679189922796409;-0.9219107573924524;0.9990000000000001;0.006413802318308155
53:14.8;-0.01830655440142681;-0.36569955930102904;-0.9306574655045092;1.01;0.006230471489112204
53:14.8;-0.016344824615253745;-0.36405573546581543;-0.9373007871680064;1.018;0.005577340048274693
53:14.8;-0.013104068797554321;-0.3629150172043547;-0.9417317876872723;1.024;0.004478559351164516
53:14.8;-0.008712730259546235;-0.3621801934369352;-0.9439950576543323;1.021;0.0029788503482844897
53:14.8;-0.00334114697547185;-0.3617381652271884;-0.9442765983131678;1.01;0.0011412719379259545
53:14.8;0.0028054080813122713;-0.361468810480015;-0.9428803167554171;1.01;0.0009561443064141121
53:14.8;0.009495376023387694;-0.3612530041055019;-0.9401969748511291;1.003;0.0032250947964034306
53:14.8;0.01648180358341452;-0.3609793049122845;-0.9366705998765714;1.0;0.005572806035482784
53:14.8;0.023514678234966644;-0.36054927960780164;-0.9327662401485712;0.998;0.0079081790150301
53:14.8;0.030352235580683763;-0.3598817623165858;-0.9289410419989077;0.995;0.010147023681839213
53:14.9;0.03676855953321049;-0.3589162676193692;-0.9256191262140364;0.993;0.012215242097862108
53:14.9;0.042557216242507544;-0.3576150302176593;-0.923169928677663;0.99;0.014049815620825464
53:14.9;0.04753349184075799;-0.35596252513530213;-0.9218895361277647;0.985;0.015598501660591756
53:14.9;0.051538324385856954;-0.35396204837964385;-0.9219848576859512;0.982;0.016819410986495163
53:14.9;0.05444570841478592;-0.3516306041517396;-0.9235610469232908;0.981;0.017681370606347436
53:14.9;0.05617402889333845;-0.34899423507648825;-0.9266133558438332;0.981;0.018165710219495618
53:14.9;0.05670033628928361;-0.34608551189788206;-0.9310252370094341;0.985;0.01826966176070407
53:14.9;0.056074189640390064;-0.34294412993910633;-0.9365745822557648;0.991;0.018010623468154737
53:14.9;0.054425663584740935;-0.3396207834978996;-0.9429493266258215;1.002;0.01742955692699536
53:14.9;0.05196269123143858;-0.3361830204372918;-0.9497723683693162;1.013;0.016591549272674498
53:15.0;0.04895622956478694;-0.33271989531238755;-0.9566340602683969;1.024;0.015582336291188497
53:15.0;0.04571573053035443;-0.3293416576280534;-0.9631286930906533;1.032;0.014500956592391034
53:15.0;0.04255998650810877;-0.32617241122503554;-0.9688899582021245;1.035;0.01345002713649215
53:15.0;0.03978865581422907;-0.3233367008775997;-0.9736200551266925;1.037;0.012525751211825597
53:15.0;0.0376580922805271;-0.3209436189011039;-0.9771083147033852;1.034;0.011809452660804687
53:15.0;0.03636310689441191;-0.31907304068599096;-0.9792376116037145;1.034;0.01136159174235583
53:15.0;0.03602539905317603;-0.31776758190899274;-0.9799794453676333;1.031;0.011218514562199558
53:15.0;0.036689491836903274;-0.3170314074131219;-0.9793804457442217;1.025;0.011391880327246426
53:15.0;0.03832695925599286;-0.31683442858609134;-0.9775441186108567;1.02;0.011870611725557914
53:15.0;0.04084862302956938;-0.3171190113986488;-0.9746122447032425;1.0190000000000001;0.012625005144703568
53:15.1;0.04412218177216375;-0.317806598579673;-0.9707501367855309;1.018;0.0136121695540314
53:15.1;0.047990595547197604;-0.3188030257434134;-0.9661383300727103;1.0190000000000001;0.014781478854832336
53:15.1;0.05228616241766833;-0.32000269732578723;-0.9609706142712596;1.02;0.016078684525636044
53:15.1;0.05683730556294624;-0.3212924201059594;-0.955455794077557;1.016;0.01744795609697002
53:15.1;0.06146883834023043;-0.322555379724031;-0.9498192815463414;1.0090000000000001;0.01883216614376237
53:15.1;0.06600005933334134;-0.32367504539657393;-0.9443011942687096;1.001;0.02017270244195747
53:15.1;0.07024638954575418;-0.3245386078873112;-0.9391497098451864;0.993;0.021410420913447685
53:15.1;0.07402819466214303;-0.32504011297239754;-0.934610698174811;0.991;0.022488726694777545
53:15.1;0.07718588062501013;-0.3250841315189336;-0.9309157726722597;0.9890000000000001;0.02335845010157521
53:15.1;0.07959631072220447;-0.3245908853569327;-0.9282705279067688;0.986;0.023983017329842184
53:15.2;0.0811847122630241;-0.3235029485617234;-0.9268438236965049;0.983;0.024342157012794286
53:15.2;0.0819286523215079;-0.32179242017916504;-0.9267586565734542;0.982;0.02443308311998044
53:15.2;0.08185433080548414;-0.3194667334170285;-0.9280853874154641;0.982;0.02426918756796005
53:15.2;0.08102808822320577;-0.31657157164409144;-0.9308381068831926;0.986;0.023877104427867685
53:15.2;0.07954673955874299;-0.3131902742340295;-0.9349743262514394;0.9940000000000001;0.023293263323426
53:15.2;0.07752935971330026;-0.3094397218622466;-0.9403971188088283;0.996;0.022560750839205636
53:15.2;0.07511105202364192;-0.3054628853334157;-0.9469579778567828;0.996;0.021726661681106565
53:15.2;0.07243745012276577;-0.30141863968134003;-0.9544590194709895;0.998;0.02083965601486522
53:15.2;0.06965872664815685;-0.2974699755021732;-0.9626548924301658;1.002;0.019947537555291654
53:15.2;0.06692319004727007;-0.29377177519052045;-0.97125654887869;1.0090000000000001;0.019095043943678443
53:15.3;0.06437149592385273;-0.2904591461743149;-0.9799394541886768;1.02;0.01832221190654845
53:15.3;0.06213243922447357;-0.2876374095608156;-0.9883576214336869;1.032;0.017663545773977572
53:15.3;0.06032025822571806;-0.28537493890844906;-0.9961627774018839;1.04;0.017147836478373247
53:15.3;0.05903179025047208;-0.28369989041193405;-1.0030261553045092;1.048;0.016797992393210025
53:15.3;0.058341224026986556;-0.2826014978133153;-1.008659761756138;1.058;0.01663009353405497
53:15.3;0.05829193730170063;-0.2820355937201221;-1.0128344028423177;1.058;0.016651403877178096
53:15.3;0.058887724532371254;-0.28193243686294944;-1.015392679872249;1.06;0.016857914486384074
53:15.3;0.06008677369259931;-0.2822043459452417;-1.0162562871396668;1.06;0.01723240244521247
53:15.3;0.061800333207349636;-0.28275201177372067;-1.015427859687169;1.061;0.017743757563090556
53:15.3;0.06389613386048856;-0.2834700601617937;-1.0129877814124097;1.0590000000000002;0.018347883930473274
53:15.4;0.06620594243104165;-0.28425257128920467;-1.0090860539023034;1.052;0.018990201721389096
53:15.4;0.06853673257335496;-0.2849983985839196;-1.0039294429234187;1.044;0.019609612282260585
53:15.4;0.07068478134236827;-0.28561589143759136;-0.997765005732257;1.036;0.020143575212474164
53:15.4;0.0724513295008386;-0.28602707357094254;-0.9908622411290752;1.0270000000000001;0.020533679594833838
53:15.4;0.07365798354380544;-0.28617150411779646;-0.9834967136100264;1.022;0.020730946204778597
53:15.4;0.07416034583645328;-0.28600966077021767;-0.9759376650497125;1.0190000000000001;0.02070019938659882
53:15.4;0.0738590308171881;-0.285525062851129;-0.9684408184369457;1.018;0.02042306532051879
53:15.4;0.07270739519279219;-0.28472406671398626;-0.961245528201552;1.01;0.019899267788305287
53:15.4;0.07071490034089647;-0.2836329522052593;-0.9545735060170576;1.003;0.01914595330869516
53:15.4;0.06794499425480058;-0.28229331455596357;-0.9486258491811445;0.9940000000000001;0.018195039967289828
53:15.5;0.06450754024710288;-0.2807575762238183;-0.9435763841965464;0.985;0.017089093634034033
53:15.5;0.06054756735092501;-0.2790858675666541;-0.9395614449505071;0.978;0.01587668145116337
53:15.5;0.05623307131885543;-0.2773442722747657;-0.9366680046556701;0.972;0.014608199494501555
53:15.5;0.05174412079485521;-0.2756035784362437;-0.9349229910336755;0.9690000000000001;0.01333281042412158
53:15.5;0.047264176292685915;-0.2739375591280921;-0.9342865803536327;0.966;0.012096612983975158
53:15.5;0.04297318645697986;-0.2724201655248639;-0.9346516651324767;0.9670000000000001;0.01094174512724995
53:15.5;0.039041347570412416;-0.27112149207389563;-0.9358508594574888;0.971;0.00990593306294266
53:15.5;0.035622734561159296;-0.27010270121596724;-0.9376712978692175;0.975;0.009022082721109204
53:15.5;0.03284892142911417;-0.2694102895303225;-0.9398760518551518;0.982;0.008317750266065849
53:15.5;0.03082312279675482;-0.2690703702006812;-0.9422295558567078;0.986;0.007814464738029603
53:15.6;0.02961495847009531;-0.2690840288663988;-0.944523482028168;0.992;0.007526824831207001
53:15.6;0.029255704732982737;-0.269424903421494;-0.9465992609340416;0.996;0.007461299293188423
53:15.6;0.029734594900346047;-0.2700396708093231;-0.9483637735249005;0.9990000000000001;0.007614906094047205
53:15.6;0.030997576237158684;-0.2708513084382144;-0.9497954421217082;0.9990000000000001;0.00797422996458478
53:15.6;0.032949809453080646;-0.2717643613530058;-0.9509391647140294;0.99;0.008515264555832744
53:15.6;0.03546213311468428;-0.2726713423542521;-0.951890579301663;0.99;0.009204313037791519
53:15.6;0.038380661919705746;-0.2734597036986171;-0.9527726512636703;0.9840000000000001;0.009999886754500848
53:15.6;0.041538332620449744;-0.2740191650491841;-0.9537093276803146;0.982;0.010855404938651876
53:15.6;0.04476719058360115;-0.2742492987335483;-0.9548013809135658;0.98;0.011722450425614537
53:15.6;0.047909821210568776;-0.2740671868624986;-0.9561091001927655;0.985;0.012554200026849783
53:15.7;0.05082781347136532;-0.27341485158220297;-0.9576453764530051;0.991;0.01330847352383237
53:15.7;0.05340556945173966;-0.2722659191609773;-0.959380549139874;1.002;0.013949888661464795
53:15.7;0.055549578790285846;-0.2706304072120609;-0.9612572843373327;1.013;0.014450970188139385
53:15.7;0.05718519750978505;-0.26855618337129167;-0.9632105442965632;1.018;0.014792446589247128
53:15.7;0.05825336943360701;-0.26612651080835725;-0.9651856003673174;1.012;0.014963046460993975
53:15.7;0.05870894135090435;-0.26345482658902014;-0.9671474938766624;1.012;0.014959019192553064
53:15.7;0.058521689994394534;-0.2606786659367222;-0.9690787007827049;1.004;0.014783640646205683
53:15.7;0.05768067978181538;-0.25795347234793153;-0.9709663529554518;0.995;0.01444694198755664
53:15.7;0.05620096874939473;-0.2554451496757806;-0.9727843450332895;0.991;0.013965549722688438
53:15.7;0.05412967229088587;-0.25331948861847164;-0.9744780268855832;0.9940000000000001;0.013362141033203387
53:15.8;0.0515478796713092;-0.25172768498976344;-0.9759587966532266;1.002;0.012664069078012048
53:15.8;0.04856634872010786;-0.2507893587279926;-0.9771120778385765;1.016;0.011901150311391013
53:15.8;0.04531520409577203;-0.2505765152483226;-0.9778163478284595;1.02;0.011103032202818455
53:15.8;0.041930116917509586;-0.25110262737448796;-0.9779661849952687;1.0190000000000001;0.010296773718421222
53:15.8;0.03853897963736614;-0.2523198731303382;-0.977491476771424;1.012;0.009505274186330756
53:15.8;0.035252774565798714;-0.25412498706242065;-0.9763682618570938;1.012;0.00874690333399709
53:15.8;0.03216185765717203;-0.2563717746249596;-0.9746213226585029;1.006;0.008036135366414288
53:15.8;0.029336114435078827;-0.25888740225754575;-0.9723213931750914;1.0070000000000001;0.007384538346555533
53:15.8;0.026826509943964533;-0.26148964853373186;-0.9695800965149906;1.0070000000000001;0.006801463455017775
53:15.8;0.024666431270871984;-0.26400249119458924;-0.9665445463471327;1.008;0.006294137413474787
53:15.9;0.0228724850439325;-0.2662679532232202;-0.9633917243358747;1.008;0.005867257699379427
53:15.9;0.021445018235631323;-0.268153327663128;-0.9603210478342662;1.003;0.005522377084200784
53:15.9;0.02036841844396084;-0.2695541967678578;-0.9575429987412766;0.996;0.005257287064461068
53:15.9;0.019610786484978104;-0.270394518744263;-0.9552627661766084;0.9890000000000001;0.005065423317830351
53:15.9;0.01912279010503152;-0.2706253236738557;-0.9536600614320276;0.982;0.00493529692377077
53:15.9;0.01883667050555519;-0.2702232024307016;-0.952868433148374;0.98;0.004850200782921849
53:15.9;0.01866740862669274;-0.2691891318347;-0.9529584151742738;0.9790000000000001;0.004788676569906509
53:15.9;0.018517732907363603;-0.2675478828406829;-0.9539282584977715;0.982;0.00472612330891253
53:15.9;0.018287105350405015;-0.2653482217854476;-0.9557042617511207;0.9890000000000001;0.004637507992006562
53:15.9;0.017883164183210485;-0.2626636207103966;-0.9581505689282934;0.996;0.004500679135547816
53:16.0;0.017233108856053184;-0.2595922503077413;-0.9610863134161355;1.0;0.004299497959041502
53:16.0;0.016292405944319376;-0.25625454658966085;-0.96430670399293;1.003;0.0040259834767047585
53:16.0;0.015049107204708506;-0.25278724415985204;-0.9676045503555828;1.004;0.0036809828441788286
53:16.0;0.013523863621558116;-0.24933409933217585;-0.970789644200842;1.0070000000000001;0.0032734641938454464
53:16.0;0.011767233364737338;-0.24603475289814156;-0.9737045497107633;1.0090000000000001;0.0028190191235866993
53:16.0;0.00985566319455571;-0.24301395619854885;-0.976235968685936;1.012;0.002338147335011481
53:16.0;0.007885934349348655;-0.24037374270859027;-0.9783208819388209;1.01;0.00185447723478793
53:16.0;0.005967049619696356;-0.23819059319456554;-0.9799468700545279;1.01;0.0013927936734355903
53:16.0;0.004209675391872069;-0.2365177291408813;-0.981146960656974;1.011;0.0009768915929564543
53:16.0;0.0027150968444214223;-0.23539033580132304;-0.9819904509968287;1.012;0.0006275975190584271
53:16.1;0.0015662337554719129;-0.2348305717434969;-0.9825713719287618;1.013;0.0003613893264010945
53:16.1;0.0008222052890159148;-0.234850086689382;-0.9829956192907628;1.0090000000000001;0.00018981152279104701
53:16.1;0.0005164478946103518;-0.23544932054264112;-0.98336731061392;1.0070000000000001;0.00011957481566277065
53:16.1;0.0006575699747326569;-0.2366142738749999;-0.983775236962882;1.005;0.0001530660240395643
53:16.1;0.0012319960970243607;-0.23831252159543304;-0.9842809251904658;1.0070000000000001;0.0002889849745969892
53:16.1;0.0022075621242226957;-0.24049059513778767;-0.984910029850691;1.008;0.0005228866951561403
53:16.1;0.003537294413149492;-0.24307427974361176;-0.9856482854317268;1.011;0.000847485324552104
53:16.1;0.005162714235067829;-0.24597223925768416;-0.9864424064147729;1.014;0.0012526678047086908
53:16.1;0.007016386754023158;-0.24908216140441947;-0.9872055971532862;1.018;0.0017252965530866545
53:16.1;0.00902400387146424;-0.2522977351219223;-0.9878268942013237;1.02;0.002249020793481475
53:16.2;0.01110666104354666;-0.255514670446076;-0.9881832481960777;1.023;0.0028043799010368923
53:16.2;0.013183866316053668;-0.25863470332697114;-0.9881529507742409;1.025;0.003369409221483535
53:16.2;0.015177166907764994;-0.26156759862017603;-0.9876288281668608;1.025;0.0039207433423031545
53:16.2;0.017013548297976168;-0.2642319593758006;-0.9865297194964159;1.024;0.004434967244158198
53:16.2;0.01862777255410549;-0.26655585844368973;-0.9848092303074195;1.023;0.004889914538743998
53:16.2;0.019963720538221968;-0.2684780786473113;-0.982461392963365;1.022;0.0052658175326119605
53:16.2;0.020975739054295495;-0.26995042061678487;-0.9795231944131133;1.021;0.0055464615203226885
53:16.2;0.021631171116245577;-0.2709411859252237;-0.976073776090183;1.0190000000000001;0.005720548936538924
53:16.2;0.021914532503486957;-0.2714394685006382;-0.9722297771679801;1.015;0.005783278744014558
53:16.2;0.021832486115157066;-0.2714593980591193;-0.9681362480977759;1.006;0.005737788758253967
53:16.3;0.02141750292028426;-0.2710431821513214;-0.9639533037676401;0.998;0.005595814617209123
53:16.3;0.020727833639358574;-0.27026172503417517;-0.9598402336222371;0.992;0.005376967470896353
53:16.3;0.019842690963373388;-0.26921175477160025;-0.9559401393317649;0.987;0.005106522916035289
53:16.3;0.01885359232224778;-0.2680089333696405;-0.9523682060250005;0.985;0.004812250992085175
53:16.3;0.017854003193215385;-0.2667775268902474;-0.9492054302788909;0.983;0.004521109903346757
53:16.3;0.016929121945149082;-0.2656385335331032;-0.9464978813904417;0.983;0.004256426648745903
53:16.3;0.016146880661191396;-0.2646987298589199;-0.9442601742218719;0.982;0.004035823509200765
53:16.3;0.015551030312933875;-0.2640421958954258;-0.9424812882296383;0.976;0.003869948988280437
53:16.3;0.015157446672828838;-0.2637242422149241;-0.9411313985440177;0.973;0.003762065606298689
53:16.3;0.014954840819724459;-0.26376691518072665;-0.940169661316884;0.973;0.0037085859409475967
53:16.4;0.014910215793384021;-0.2641559632718402;-0.9395538028509585;0.9790000000000001;0.0037005476684698756
53:16.4;0.014977669688873027;-0.2648402380745658;-0.9392516508246783;0.987;0.0037257197609355808
53:16.4;0.015107570330753918;-0.2657347619053537;-0.9392523747595269;0.99;0.003770728787294275
53:16.4;0.01525297663023999;-0.2667278800997521;-0.9395729078183682;0.988;0.0038225528951660597
53:16.4;0.015371570311617809;-0.26769170549996124;-0.9402551490055782;0.9740000000000001;0.003869001258365759
53:16.4;0.01542339926925767;-0.2684943872533823;-0.941352901115428;0.9740000000000001;0.003898232861575497
53:16.4;0.015366551836587576;-0.26901280790622945;-0.9429121021768653;0.972;0.0038978093477694178
53:16.4;0.015153802741357924;-0.269144485481288;-0.9449504598532454;0.975;0.003854039455020866
53:16.4;0.014732839680323457;-0.26881730088822936;-0.9474418911534384;0.978;0.0037522888451982104
53:16.4;0.014050987663949965;-0.2679956989835256;-0.9503088213585695;0.983;0.003578486946412243
53:16.5;0.013063040822818449;-0.2666828113898613;-0.9534230700811662;0.9890000000000001;0.003321428939045168
53:16.5;0.01173908582672357;-0.2649189806490105;-0.9566141994995294;0.992;0.00297498086143292
53:16.5;0.010069211510517453;-0.2627775310689943;-0.9596832162001527;0.9890000000000001;0.0025392858408556165
53:16.5;0.008063626978547537;-0.26035854181459156;-0.9624199263636488;0.992;0.002020537271473638
53:16.5;0.005748690076440548;-0.2577814519670603;-0.9646235320944069;0.9990000000000001;0.0014294810862693203
53:16.5;0.0031606864526287346;-0.25517724996699465;-0.9661265095426111;1.0070000000000001;0.000779215111981077
53:16.5;0.0003396455969959264;-0.25268035516700416;-0.9668202974935892;1.016;8.297422928001717e-05
53:16.5;-0.0026749510641125305;-0.2504198324536137;-0.9666786493149145;1.0190000000000001;0.0006475401307597621
53:16.5;-0.0058455875102199975;-0.2485100769288657;-0.9657725114700366;1.016;0.0014029655604744305
53:16.5;-0.009134856014493972;-0.2470419992176374;-0.9642704664247091;1.0070000000000001;0.0021760625007723232
53:16.6;-0.012500295758620357;-0.24607622234036508;-0.9624215091932954;0.993;0.002960433160250364
53:16.6;-0.015886764849832535;-0.24563993284355662;-0.9605214345221852;0.978;0.0037483617552976833
53:16.6;-0.019218514525641484;-0.24572871090259527;-0.9588689348356122;0.971;0.004528297666468627
53:16.6;-0.022394164592051416;-0.24631328441603415;-0.9577209176680022;0.9670000000000001;0.005282769650033223
53:16.6;-0.02528776953604553;-0.24734909087281134;-0.9572569437275227;0.978;0.005987552971399297
53:16.6;-0.02775751256455146;-0.2487852275327463;-0.957559623370227;0.978;0.006612580306920547
53:16.6;-0.029660706260391887;-0.2505696386650433;-0.9586128802223578;0.987;0.007124480377523162
53:16.6;-0.03087169889783808;-0.25264897558295313;-0.9603158126639055;0.9940000000000001;0.00749017822201642
53:16.6;-0.031299141266456124;-0.2549638621572115;-0.9625076030110375;1.001;0.007680954989936638
53:16.6;-0.030899866866245247;-0.2574424481566293;-0.9649978838809163;1.006;0.007676497732083701
53:16.7;-0.029687385110935362;-0.2599959941529303;-0.9675968728537299;1.01;0.0074684943894582885
53:16.7;-0.02773369915539683;-0.26251915037405105;-0.9701407210450363;1.015;0.007063232862293704
53:16.7;-0.02516396081240485;-0.26489528269973195;-0.972509337801477;1.018;0.006482566858185275
53:16.7;-0.022144448670885372;-0.26700532137502525;-0.974635439416112;1.018;0.005762712961064343
53:16.7;-0.018865603185905504;-0.2687381747714639;-0.9765045716577782;1.014;0.004950788111521874
53:16.7;-0.015523138900177594;-0.27000134239314183;-0.9781470274398535;1.012;0.004099676669150626
53:16.7;-0.012300859382169727;-0.27073093524347747;-0.9796241425022374;1.014;0.003262367012190923
53:16.7;-0.009357990250910978;-0.27090016557208146;-0.9810125670396255;1.016;0.0024869464257989706
53:16.7;-0.00682184727655018;-0.27052463072080896;-0.9823898421855243;1.018;0.0018129785615125665
53:16.7;-0.004784850209172494;-0.2696625357226212;-0.9838231447972188;1.0170000000000001;0.0012694219276553785
53:16.8;-0.0033044099690961205;-0.2684093902515197;-0.9853615390972188;1.0190000000000001;0.0008739513065299975
53:16.8;-0.0024046807920652504;-0.26688881690530714;-0.9870313448869276;1.02;0.0006334593568751564
53:16.8;-0.0020794891852318658;-0.26524196980293735;-0.9888341650154555;1.024;0.0005454090925515215
53:16.8;-0.002295657422679086;-0.2636172306242045;-0.9907470463691687;1.0270000000000001;0.0005995751973823435
53:16.8;-0.0029960137342046407;-0.2621606293991029;-0.9927238737140478;1.028;0.0007797219085645087
53:16.8;-0.004102020221954443;-0.26100690494505935;-0.9946968328646956;1.026;0.0010649777365518
53:16.8;-0.005516778176919189;-0.2602713141756254;-0.9965772679727397;1.025;0.0014309445451730104
53:16.8;-0.007129422527946147;-0.26004282405074447;-0.9982564423944408;1.026;0.0018507226903845498
53:16.8;-0.008821303018640307;-0.26037956408378904;-0.9996077505642161;1.028;0.002295986082001177
53:16.8;-0.010473356921630235;-0.2613069046706653;-1.0004921513935157;1.0290000000000001;0.002738107379185596
53:16.9;-0.011973419892835995;-0.262817721492866;-1.000767998573002;1.035;0.003149243693307855
53:16.9;-0.0132222855121556;-0.26487422673218397;-1.0003052034914768;1.04;0.003503311547349355
53:16.9;-0.014138046554459858;-0.267411178131303;-0.9990019464803408;1.044;0.0037768983729208274
53:16.9;-0.01465918043989022;-0.2703405435213144;-0.9968005361678991;1.042;0.0039502914259300454
53:16.9;-0.014747342350312281;-0.2735574872743286;-0.9936985758713828;1.033;0.0040088244227615075
53:16.9;-0.014390476772535856;-0.27694711370610836;-0.9897530525977829;1.033;0.003944562812513038
53:16.9;-0.013605877268043725;-0.2803911548764052;-0.9850774440625656;1.0270000000000001;0.0037580385722816288
53:16.9;-0.01244202786393771;-0.2837741994402049;-0.9798334093414868;1.022;0.0034595237805195305
53:16.9;-0.01097793178568139;-0.2869899256265333;-0.974218449730172;1.0190000000000001;0.0030693296132817418
53:16.9;-0.009318871500232718;-0.2899479374952915;-0.9684503350116583;1.013;0.002616740768599705
53:17.0;-0.007588004212125888;-0.29258073867104006;-0.9627489688140106;1.005;0.0021374027186487443
53:17.0;-0.00591431771766602;-0.29484930519140945;-0.957316780389482;0.993;0.0016694000854654144
53:17.0;-0.004419087044621318;-0.296745854691348;-0.9523197607245589;0.986;0.0012488204823060667
53:17.0;-0.0032038668581732717;-0.2982935697503017;-0.947872483399468;0.983;0.0009058749855509892
53:17.0;-0.0023424122320534397;-0.2995440933153694;-0.9440306325717749;0.988;0.0006623845198409552
53:17.0;-0.001877286838889318;-0.3005736559551092;-0.9407928472102925;0.988;0.0005308545646552902
53:17.0;-0.0018204280531547235;-0.3014778741912835;-0.938110824986083;0.9890000000000001;0.00051485283808271
53:17.0;-0.0021563573846789465;-0.30236464576116584;-0.9359044524187197;0.987;0.0006102155399818351
53:17.0;-0.0028469918724410986;-0.3033448481264557;-0.9340783563807132;0.9840000000000001;0.0008066890463925108
53:17.0;-0.0038373409347210547;-0.3045214075500982;-0.932537362252481;0.98;0.00108971883121138
53:17.1;-0.0050612794646538424;-0.3059782375661331;-0.9311998704978126;0.982;0.0014420946435867977
53:17.1;-0.006446475726794512;-0.30777120232249927;-0.9300090209802159;0.987;0.0018451747121977149
53:17.1;-0.007917925754541913;-0.30992308155209214;-0.9289409755770651;0.99;0.002279572802082952
53:17.1;-0.009400408437281568;-0.3124232611057068;-0.928008247457803;0.987;0.0027254732310130767
53:17.1;-0.010821078138617582;-0.3152313729809611;-0.9272555777513781;0.976;0.0031630016688394638
53:17.1;-0.012113388188572029;-0.31828337337403634;-0.92674784175113;0.976;0.003573067087964647
53:17.1;-0.013222067873706124;-0.3214986876579747;-0.9265528310613336;0.9740000000000001;0.003938662553879693
53:17.1;-0.014107318366391945;-0.32478761293355446;-0.9267237223654365;0.973;0.004246138980752956
53:17.1;-0.014746555900035483;-0.32805860795118735;-0.9272855669371279;0.975;0.004485961471845832
53:17.1;-0.015133624301533463;-0.3312250530418063;-0.9282286725853857;0.982;0.0046528720074490194
53:17.2;-0.015276685524947094;-0.3342107409135325;-0.9295101892497692;0.9890000000000001;0.004745737327205546
53:17.2;-0.015195997269727982;-0.336953281398941;-0.9310631170083874;0.996;0.004767360785831805
53:17.2;-0.014921958726437532;-0.3394050891981349;-0.9328096330593263;1.0;0.004724297157213283
53:17.2;-0.014493126164153452;-0.34153254030963376;-0.9346743168795966;1.003;0.004626520282665993
53:17.2;-0.013953807983455266;-0.34331456366289187;-0.9365932292638148;1.002;0.004486792479101882
53:17.2;-0.013351275281160127;-0.3447418248532562;-0.9385165446302477;1.0;0.004319750460446912
53:17.2;-0.012733276970480177;-0.34581694613903113;-0.9404047571523245;1.0;0.0041409622796434505
53:17.2;-0.012146770689856673;-0.3465554249370512;-0.9422205188342037;1.001;0.003966304860399037
53:17.2;-0.011638054431745053;-0.3469863901698977;-0.9439191736302439;1.002;0.003811778295298722
53:17.2;-0.011253315458948867;-0.34715219498949773;-0.9454407966219516;1.005;0.003693471460432056
53:17.3;-0.011038123522744383;-0.34710617741869026;-0.9467054269147905;1.006;0.0036272079886042574
53:17.3;-0.011034947297231083;-0.3469087086953339;-0.9476118538729115;1.006;0.003627571243211435
53:17.3;-0.011278686677427948;-0.34662249424924263;-0.9480395072728761;1.004;0.0037063097411405036
53:17.3;-0.011790808392533636;-0.3463084517290626;-0.9478531372422215;1.005;0.0038703275775767844
53:17.3;-0.012572991095660015;-0.3460232604272781;-0.9469105409865686;1.005;0.0041195791658387056
53:17.3;-0.013601598934922764;-0.3458190332287619;-0.9450736673537906;1.006;0.004445335253895642
53:17.3;-0.014824685218152361;-0.34574459988821377;-0.9422228526497871;1.006;0.004829414920866121
53:17.3;-0.01616305569905654;-0.3458469850409532;-0.9382731966101276;1.005;0.005244894703222664
53:17.3;-0.017516123185989475;-0.3461714753327755;-0.9331914350531433;1.002;0.005658482979824233
53:17.3;-0.01877213586817961;-0.34675935207623604;-0.9270112045001729;0.996;0.006034299407499828
53:17.4;-0.019820994715859266;-0.34764334783026823;-0.9198445330089925;0.992;0.006338314736925231
53:17.4;-0.02056677714500272;-0.348841579823376;-0.9118877026344296;0.985;0.0065423812096671455
53:17.4;-0.02093719249969352;-0.35035114613067725;-0.9034199035060395;0.9790000000000001;0.006626918705615245
53:17.4;-0.020888874349535895;-0.35214300063071335;-0.8947931283302604;0.9690000000000001;0.006581982728158868
53:17.4;-0.02040965132883446;-0.35415985091441343;-0.8864120292963991;0.9570000000000001;0.0064072335203861075
53:17.4;-0.019519874826971532;-0.3563181240895131;-0.8787037644567142;0.9440000000000001;0.006111635271246519
53:17.4;-0.01827369292304172;-0.3585137629311353;-0.8720803585745915;0.93;0.005713321458477282
53:17.4;-0.016759107455589416;-0.360630733701545;-0.8668989404600157;0.919;0.0052394064832908815
53:17.4;-0.015094535531371422;-0.3625511759054338;-0.8634270549150598;0.9209999999999999;0.004725140482325674
53:17.4;-0.013420003640255133;-0.36416639002989526;-0.8618199136389825;0.9259999999999999;0.004211812406612581
53:17.5;-0.011882826692990123;-0.3653875260305851;-0.8621134994529851;0.935;0.0037431559863172568
53:17.5;-0.010620187560071133;-0.36615439107073966;-0.8642328950224935;0.943;0.003360680501252785
53:17.5;-0.009742985071062048;-0.36644103806030853;-0.8680113049199256;0.948;0.0030989996220569136
53:17.5;-0.00932489724741;-0.36625750875844615;-0.8732137315104102;0.9520000000000001;0.0029822987637280287
53:17.5;-0.009398007655306883;-0.3656478870110671;-0.8795602359648036;0.955;0.0030224870560618174
53:17.5;-0.00995387946352561;-0.36468566935703733;-0.8867459557606209;0.961;0.003218920801798393
53:17.5;-0.010948305902362296;-0.3634679734596828;-0.8944571802579112;0.9670000000000001;0.0035593658360509794
53:17.5;-0.012308463655625134;-0.3621096648220903;-0.9023841116334915;0.973;0.004021938302022733
53:17.5;-0.013941356874345537;-0.3607374019320443;-0.9102314632790942;0.98;0.004577707728930609
53:17.5;-0.01574199289518907;-0.3594829606398443;-0.9177279813741824;0.985;0.005193402651445724
53:17.6;-0.01759967447296159;-0.35847555468404324;-0.9246355410434343;0.9940000000000001;0.00583357469788356
53:17.6;-0.019401848759143574;-0.35783366397352906;-0.9307578852876833;1.001;0.006461911925933831
53:17.6;-0.021036570292906908;-0.3576571413152436;-0.9359484139426493;1.006;0.007041963172735575
53:17.6;-0.022395622632207717;-0.3580198046782722;-0.9401159137835441;1.008;0.007537921259582377
53:17.6;-0.023379924670825433;-0.35896211438447717;-0.9432272172699012;1.013;0.007916041206504154
53:17.6;-0.023907213632372238;-0.3604838903598785;-0.9453063139325375;1.013;0.008146806146207993
53:17.6;-0.023920367943066838;-0.36253833338400704;-0.946429679458779;1.015;0.008207485812190494
53:17.6;-0.023394399002697595;-0.3650296903085172;-0.9467175259903046;1.016;0.00808463653185457
53:17.6;-0.022341008206757808;-0.36781668050003696;-0.9463209046160145;1.013;0.007776293121981907
53:17.6;-0.020810388711025418;-0.37072240856393085;-0.9454053311507244;1.011;0.007293686247812136
53:17.7;-0.01888990760959242;-0.3735498127627924;-0.9441327423609817;1.008;0.0066621041222014
53:17.7;-0.016698957768422156;-0.37610042422841;-0.9426447559111315;1.008;0.005920266344918638
53:17.7;-0.014379587373818458;-0.37819359120379226;-0.9410506908533655;1.0090000000000001;0.005117685659821109
53:17.7;-0.012083802402611364;-0.3796834160909169;-0.9394229724840404;1.015;0.004310090799632173
53:17.7;-0.009959790704206137;-0.3804712705323076;-0.9378004103283255;1.018;0.0035537142136696353
53:17.7;-0.0081395728516715;-0.380512501060025;-0.9361973048501661;1.015;0.0028995989274571607
53:17.7;-0.0067297536618243555;-0.3798167995489929;-0.9346148119844189;1.012;0.002388944151365856
53:17.7;-0.005805963045864463;-0.37844289019491795;-0.9330512658080076;1.011;0.002050123973804556
53:17.7;-0.005410742392030101;-0.37648923857817373;-0.9315095741528191;1.0070000000000001;0.001897565376286154
53:17.7;-0.00555428254136122;-0.374082806346459;-0.9300010830044259;1.002;0.0019323205385166084
53:17.8;-0.006217633351200267;-0.3713676615990426;-0.9285461010014023;0.997;0.0021440389077970507
53:17.8;-0.007358088592588404;-0.36849484875520594;-0.9271720767230148;0.9940000000000001;0.0025139508196903304
53:17.8;-0.008915599169765998;-0.36561409856139554;-0.9259112506610794;0.993;0.003018163972376175
53:17.8;-0.010818075318430419;-0.3628669422398007;-0.9247997578624013;0.992;0.0036303217134410087
53:17.8;-0.012983938691619089;-0.36038053903717227;-0.9238792326009345;0.992;0.004322977664007376
53:17.8;-0.015322212449927701;-0.3582622542941895;-0.9232004266634918;0.996;0.005067789070546552
53:17.8;-0.017731993894000275;-0.3565957019035702;-0.9228268980482148;0.9990000000000001;0.005835175492412087
53:17.8;-0.020103223609500637;-0.35543867701351267;-0.9228358585462743;0.996;0.006594089670082943
53:17.8;-0.0223199006148491;-0.3548226067094602;-0.92331323790399;0.993;0.007312276428767395
53:17.8;-0.024266264173308873;-0.35475296786010074;-0.9243414134152945;0.987;0.007957220079913872
53:17.9;-0.02583583594572023;-0.35521061630579825;-0.9259806555401432;0.982;0.008497875604319428
53:17.9;-0.026942081981133768;-0.35615423024952847;-0.9282481616856952;0.981;0.008907039088025414
53:17.9;-0.027528209524013098;-0.35752383080786193;-0.9311003998307178;0.983;0.009163881684752202
53:17.9;-0.027573295241740518;-0.35924506949324125;-0.9344244849440714;0.9890000000000001;0.009256007486650966
53:17.9;-0.02709310541548425;-0.3612339126546159;-0.9380422336994145;1.01;0.009180571008777066
53:17.9;-0.02613597935301817;-0.3634013620306306;-0.9417268055055934;1.01;0.00894438040572365
53:17.9;-0.024775537668440942;-0.365657788061675;-0.9452279893937445;1.0170000000000001;0.008563168485164231
53:17.9;-0.023102007190463514;-0.36791656127625644;-0.9483006423352952;1.025;0.00806018661271516
53:17.9;-0.02121334921693261;-0.37009706791549823;-0.9507318452932837;1.031;0.007464194144748566
