Time;AccX;AccY;AccZ;Acc-old;Acc-trns
59:55.1;-0.044035538166526535;-0.22771754308370518;-0.8804375711599983;0.909;0.008828732629305572
59:55.1;-0.042949904311012525;-0.23265739732829124;-0.9007707935291087;0.8909999999999999;0.009001053898652071
59:55.1;-0.04178236150330961;-0.23744240125372046;-0.9205057773816323;0.894;0.009132249674737759
59:55.1;-0.040437002659269757;-0.24191856290405742;-0.9390581321430997;0.924;0.009186300091073865
59:55.1;-0.0389320679582149;-0.24591311347511835;-0.955810027920561;0.975;0.009150835404781978
59:55.1;-0.03740189248659984;-0.24924914066104403;-0.9701506346637482;1.023;0.009044122149557224
59:55.2;-0.0360597147911394;-0.2517760181615483;-0.9815486768150631;1.075;0.008911452370552414
59:55.2;-0.0351367804418631;-0.25340457339455486;-0.9896354078171227;1.075;0.008811536386262487
59:55.2;-0.03481899809557095;-0.2541338543921685;-0.9942712985906056;1.069;0.008797994711041044
59:55.2;-0.0351988988763827;-0.2540593414802278;-0.9955768581915054;1.051;0.008903054641311199
59:55.2;-0.03625187013420426;-0.25335927724613355;-0.9939220018012203;1.03;0.009128922736556253
59:55.2;-0.0378379078338728;-0.2522635206568945;-0.9898806019059133;1.012;0.009448532936424352
59:55.2;-0.0397257800820939;-0.2510147351764035;-0.9841628480630059;1.002;0.00981383194948768
59:55.2;-0.041633712848142324;-0.24983272080161278;-0.9775386730072818;0.997;0.010167833079254812
59:55.2;-0.04327819788647486;-0.24888921633063643;-0.9707627828159204;0.992;0.010456548750853617
59:55.2;-0.044421212425767125;-0.24829502400914827;-0.9645077023020898;0.98;0.010638101365615738
59:55.3;-0.04490727967300776;-0.24809734812972917;-0.959308174060791;0.9670000000000001;0.01068801402504345
59:55.3;-0.044685006980836564;-0.2482843939926913;-0.9555198309644466;0.961;0.010601100645607191
59:55.3;-0.043811348579453055;-0.24879525855408557;-0.9532963230708147;0.961;0.010390983112955013
59:55.3;-0.04243948784291378;-0.2495338325075753;-0.9525893353216844;0.9670000000000001;0.010088004937596344
59:55.3;-0.040792681200239295;-0.25038526484007745;-0.9531736259507484;0.98;0.009735607026140621
59:55.3;-0.03912758601911634;-0.25123317884483665;-0.9546949651270752;0.998;0.009384792626492633
59:55.3;-0.03769247892911533;-0.25197564991849214;-0.9567340517758667;1.013;0.009086664773206167
59:55.3;-0.036687648765864146;-0.252537957597399;-0.958875518492874;1.021;0.008884004584821218
59:55.3;-0.03623536597892515;-0.25288028893731723;-0.960769601751543;1.022;0.008803733448086099
59:55.4;-0.03636475492536611;-0.25299898862960907;-0.9621759369141917;1.02;0.008852255524531113
59:55.4;-0.0370136430341691;-0.2529209784285165;-0.9629835548599234;1.0;0.00901499636776413
59:55.4;-0.038045673612170774;-0.25269277718781274;-0.9632069369489058;1.0;0.009260143313102672
59:55.4;-0.03927738599948201;-0.2523673380919132;-0.9629630478508273;1.0;0.009545206884004774
59:55.4;-0.04050871660883021;-0.25199228788386446;-0.9624363570702842;0.99;0.009824438861186783
59:55.4;-0.04155206827805859;-0.2516018854603506;-0.9618379504545622;0.9790000000000001;0.010055610572312476
59:55.4;-0.04225697339720155;-0.2512134474990593;-0.9613641741091501;0.9740000000000001;0.01020538058676305
59:55.4;-0.04252776337009629;-0.2508280769137853;-0.9611613451307726;0.976;0.01025285906846223
59:55.4;-0.042332109528149746;-0.25043501302202886;-0.9613032652460396;0.983;0.010191201196333873
59:55.4;-0.04169990861592936;-0.2500184075313276;-0.9617854276146725;0.992;0.010027329369075954
59:55.4;-0.04071386677199416;-0.24956491457426683;-0.9625351352448798;1.0;0.009780081457864201
59:55.5;-0.03949430466818702;-0.2490703768303103;-0.9634327949237986;1.002;0.00947715482019805
59:55.5;-0.03818099893644509;-0.24854410450821546;-0.9643380188324497;1.003;0.009151242035585677
59:55.5;-0.036914719107906314;-0.24800981308257206;-0.9651149542207224;1.003;0.0088358325757677
59:55.5;-0.03582089804226902;-0.24750320096282;-0.9656533368165988;1.005;0.008561276729392955
59:55.5;-0.034997432970306275;-0.2470669315940526;-0.9658835893436651;1.008;0.008351713723804893
59:55.5;-0.034507782695492616;-0.24674402177068025;-0.9657849644869755;1.006;0.008223262116763583
59:55.5;-0.03437952847460393;-0.24657060773954526;-0.965385725366428;0.998;0.008183556673430781
59:55.5;-0.03460763020771679;-0.24656911610177398;-0.9647551542293211;0.991;0.008232422431751225
59:55.5;-0.03516084706119657;-0.24674294434311705;-0.9639894249930894;0.987;0.008363274310524946
59:55.5;-0.03598935912466928;-0.24707370732341521;-0.9631956115010633;0.987;0.00856475886318724
59:55.6;-0.03703168295857748;-0.24752182380249418;-0.9624784263931742;0.9890000000000001;0.008822221343558655
59:55.6;-0.0382195880903013;-0.2480305732329793;-0.9619324685760235;0.998;0.00911876036907499
59:55.6;-0.03948084290162613;-0.24853288587516137;-0.9616399023987462;0.998;0.00943588750453835
59:55.6;-0.04074090231872724;-0.2489595565716211;-0.9616709261044007;1.001;0.00975407142764935
59:55.6;-0.04192528294532446;-0.24924762620606233;-0.9620833514651238;1.0;0.010053556720802508
59:55.6;-0.04296382809607724;-0.24934801408107865;-0.9629184789499993;0.9990000000000001;0.010315692909651465
59:55.6;-0.04379692776654248;-0.2492316020537837;-0.9641923482543829;0.9940000000000001;0.01052471723975154
59:55.6;-0.044382833301259285;-0.24889296774972824;-0.9658835366853411;0.9890000000000001;0.010669705023425687
59:55.6;-0.044704546429285896;-0.24835121546843633;-0.967920774310281;0.9840000000000001;0.010746271134961665
59:55.6;-0.04477418935055309;-0.24764778321498399;-0.9701754014672642;0.985;0.010757526767365034
59:55.7;-0.04463249951410211;-0.24684148188227567;-0.972464236873632;0.992;0.010713786623555573
59:55.7;-0.044341841491457;-0.2460014494599971;-0.9745665383739964;1.0190000000000001;0.01063072507906757
59:55.7;-0.04397351466543368;-0.24519923137923677;-0.9762537414339527;1.0190000000000001;0.010526233378237533
59:55.7;-0.043593141877417405;-0.24450144913000735;-0.9773246544040652;1.024;0.010416899231855178
59:55.7;-0.04324888512139431;-0.24396410827255186;-0.9776363545619873;1.02;0.010315212940283473
59:55.7;-0.04296516305523314;-0.24362876349795481;-0.9771238814724081;1.015;0.010228092644466457
59:55.7;-0.04274174234175425;-0.2435202721202944;-0.9758067214470145;1.011;0.010156665452442985
59:55.7;-0.042556926157245135;-0.24364612933615828;-0.9737835655780097;1.0090000000000001;0.010096996574156194
59:55.7;-0.04237389061556917;-0.2439977439666474;-0.9712181209149012;1.005;0.010041554016907836
59:55.8;-0.0421494545488628;-0.2445535036321568;-0.9683185679884755;1.002;0.009981231023041031
59:55.8;-0.041843980419563845;-0.245282314029037;-0.9653129241747158;0.9840000000000001;0.0099075744783166
59:55.8;-0.041430485666669216;-0.24614594698020628;-0.9624232571896391;0.9840000000000001;0.009814740529416157
59:55.8;-0.040901304437450374;-0.2470996937422872;-0.9598429488966873;0.9840000000000001;0.009700844539793413
59:55.8;-0.04027143515580055;-0.24809229943064023;-0.957721051132273;0.9840000000000001;0.009568622577980556
59:55.8;-0.039578245705877195;-0.24906658553251976;-0.9561554093646903;0.987;0.009425415270710875
59:55.8;-0.038877470698519954;-0.24996166959778762;-0.9551934007126153;0.991;0.009282452443122575
59:55.8;-0.03823588654417788;-0.2507170474574156;-0.9548375064084398;0.99;0.009153443368405055
59:55.8;-0.03772180447421221;-0.25127830876669427;-0.9550526583615147;0.988;0.009052630157768514
59:55.8;-0.03739513761001261;-0.2516038141599389;-0.9557732387458108;0.9890000000000001;0.00899264030450276
59:55.8;-0.037298780131999255;-0.25167114708168953;-0.9569092846502789;0.99;0.00898253308158632
59:55.9;-0.037452480490915464;-0.25148169850461105;-0.958352666501105;0.99;0.009026353273404978
59:55.9;-0.03784977821299167;-0.25106183449320335;-0.9599841538607853;0.995;0.009122378783108778
59:55.9;-0.03845811076673524;-0.2504600055306651;-0.9616816938267974;0.995;0.009263128332539429
59:55.9;-0.03922184624486001;-0.2497403675938938;-0.9633294561081682;0.996;0.009436080116109911
59:55.9;-0.040067798271724644;-0.24897421542172046;-0.964826787031234;1.0;0.009624965989676553
59:55.9;-0.04091270738224915;-0.24823070336357722;-0.9660962072267155;1.002;0.009811470325987304
59:55.9;-0.04167204882865827;-0.24756835752184372;-0.9670894224864893;1.004;0.009977152763778325
59:55.9;-0.04226930251463191;-0.24702880286185044;-0.9677900088274909;1.003;0.01010540699944183
59:55.9;-0.04264464518160246;-0.24663374954457978;-0.9682116976114679;1.0;0.010183271812132862
59:56.0;-0.042761960263023625;-0.24638559480700492;-0.968392304241156;0.997;0.010202914512475512
59:56.0;-0.04261309883035803;-0.24627112761462527;-0.9683848226130959;0.997;0.010162594344459047
59:56.0;-0.04221863924455464;-0.24626707122181807;-0.9682481116327423;0.9990000000000001;0.010066934329010265
59:56.0;-0.041625100145114946;-0.24634587790790974;-0.9680392574453768;0.9990000000000001;0.00992644089201973
59:56.0;-0.04089930812019365;-0.2464803807909519;-0.9678084836540791;1.0;0.00975635832155185
59:56.0;-0.040120929120038624;-0.2466465524555312;-0.9675963242582429;1.002;0.009575032156073382
59:56.0;-0.039374081299230264;-0.2468244773112117;-0.9674320965048897;0.998;0.009401976288375238
59:56.0;-0.03873875976401523;-0.24699825543262816;-0.9673326658167087;0.997;0.009255831760340364
59:56.0;-0.03828258025906266;-0.24715566947315892;-0.967301215709367;0.998;0.009152368810008886
59:56.0;-0.03805331447553707;-0.24728819274855843;-0.9673266270662162;0.997;0.009102674502618317
59:56.1;-0.03807323512796691;-0.24739153637987085;-0.96738433157543;0.993;0.009111789278485095
59:56.1;-0.038336881477159766;-0.24746661980977702;-0.9674393412497119;1.002;0.009178192297284508
59:56.1;-0.0388132298827192;-0.24752059035472887;-0.9674517931732483;1.002;0.009294380556453385
59:56.1;-0.03945141753518846;-0.24756719198931795;-0.9673843319286181;1.002;0.009448323451974648
59:56.1;-0.04018792693213527;-0.24762561752592527;-0.9672095094701224;1.004;0.009625243682385435
59:56.1;-0.040953622959224584;-0.24771734060565698;-0.9669152621843129;1.004;0.00980928046431554
59:56.1;-0.04168010393966753;-0.24786124110830043;-0.966507177455545;0.9990000000000001;0.009984871884675048
59:56.1;-0.042305112402154156;-0.24806818761700297;-0.9660070170970806;0.996;0.010137811414771887
59:56.1;-0.04277656017404104;-0.24833668259181801;-0.9654479936337773;0.995;0.010255943461154193
59:56.1;-0.04305492397516034;-0.24865095438522886;-0.9648683918135362;0.9940000000000001;0.010329541308687882
59:56.2;-0.04311430401856481;-0.24898211413238175;-0.9643055166521673;0.992;0.010351521330311654
59:56.2;-0.04294267111832528;-0.2492921161021837;-0.9637915464508013;0.995;0.010317648106025406
59:56.2;-0.042541595536904925;-0.24953968126858642;-0.9633520745210563;1.0;0.010226768550272772
59:56.2;-0.04192557154437253;-0.24968710177534223;-0.9630069529003229;1.0;0.010081021079437934
59:56.2;-0.04112123893675874;-0.24970670980359944;-0.9627717701418124;0.998;0.009885980533585156
59:56.2;-0.040166849090413466;-0.24958573391258745;-0.9626580190014389;0.995;0.009650716442039733
59:56.2;-0.03911175212436985;-0.24932842462883947;-0.9626713172389977;0.991;0.00938765448827532
59:56.2;-0.03801502670134497;-0.24895484415168403;-0.9628088572795532;0.992;0.009112047141590768
59:56.2;-0.036942562152259925;-0.24849661138665355;-0.9630580258094161;0.995;0.00884097043769935
59:56.2;-0.035962912985665965;-0.24799079329486706;-0.963397372543825;0.996;0.008592031837286386
59:56.3;-0.03514293488576805;-0.24747346649843305;-0.963799663093636;0.996;0.008382111619182207
59:56.3;-0.03454379577426418;-0.2469741706121966;-0.9642358785840336;0.998;0.008226306380466925
59:56.3;-0.03421721139190823;-0.246511984095903;-0.9646790326524254;0.998;0.008137021982596993
59:56.3;-0.03420178561747285;-0.24609365299283387;-0.9651069280960268;0.998;0.008123152875758072
59:56.3;-0.03451982008693827;-0.2457140399501519;-0.9655032162768317;0.996;0.008189402578797378
59:56.3;-0.03517490747140367;-0.24535888956270308;-0.9658566852318585;0.995;0.008335803170873231
59:56.3;-0.03615007247631582;-0.24500943666108874;-0.9661595751525801;0.995;0.008557380564831527
59:56.3;-0.03740613701029182;-0.24464775369565203;-0.9664063231261206;0.998;0.008843900658558583
59:56.3;-0.038880863485150775;-0.24426124964261114;-0.966593861671198;1.0;0.00917982725652701
59:56.3;-0.04049043151488545;-0.24384499167058998;-0.9667234256280547;1.001;0.009544836374270999
59:56.4;-0.04213467539151858;-0.24340158555304295;-0.9668025676533534;1.002;0.009915185656341953
59:56.4;-0.04370616793093216;-0.24293943612019828;-0.9668456945361965;0.997;0.01026592097499962
59:56.4;-0.04510159278678896;-0.24247059483372538;-0.9668721875894791;0.997;0.010573530567698405
59:56.4;-0.04623286696887831;-0.2420090627276675;-0.9669024975772975;0.997;0.010818452367418293
59:56.4;-0.04703579952617708;-0.24156978520383135;-0.9669535030329071;0.995;0.010986939546370636
59:56.4;-0.04747535789017909;-0.2411680964264733;-0.9670344204733003;0.996;0.011072100912429246
59:56.4;-0.04754765843829894;-0.24081918981025172;-0.9671441616115988;0.995;0.011074176465735183
59:56.4;-0.047279055887733276;-0.24053719809298402;-0.9672707638914515;0.995;0.011000162595468337
59:56.4;-0.046722630424899984;-0.24033361478556384;-0.9673933382502161;0.996;0.010862877849002351
59:56.4;-0.045952338572274015;-0.24021514113093848;-0.9674866205033946;1.002;0.010679550262963024
59:56.5;-0.045055148051977634;-0.2401814870738646;-0.9675273236848733;1.005;0.010470012235388692
59:56.5;-0.0441217856425295;-0.24022387239847665;-0.9675002502980283;0.998;0.010254637905483352
59:56.5;-0.043237341437219974;-0.24032481821892132;-0.967401842709179;0.998;0.010052278565961748
59:56.5;-0.04247335268809619;-0.24045947228323422;-0.9672403021412563;0.998;0.009878541248953016
59:56.5;-0.04188255522427918;-0.24059840320186418;-0.9670331934229495;0.996;0.00974467348998333
59:56.5;-0.041496488192834066;-0.24071152105511728;-0.9668039888932414;0.997;0.009657098366459498
59:56.5;-0.04132536182760114;-0.2407724337611083;-0.9665786164570641;0.998;0.009617464911561976
59:56.5;-0.04135953628921661;-0.2407623156950125;-0.9663825616355052;0.997;0.009623061409177553
59:56.5;-0.04157243476196932;-0.2406725311166913;-0.9662385479321984;0.998;0.009667548187393057
59:56.5;-0.041925026888383655;-0.2405056970941538;-0.9661644919700269;0.996;0.009742037358405557
59:56.6;-0.042371692557126854;-0.24027520093068155;-0.9661715047908572;0.998;0.009836463534332665
59:56.6;-0.04286667392286049;-0.2400032727117891;-0.9662619648785752;0.993;0.009941040334554046
59:56.6;-0.04336998620025674;-0.23971781728038366;-0.9664279750115757;0.993;0.010047524908087422
59:56.6;-0.043851594748956994;-0.23944851518070984;-0.9666509219260078;0.993;0.01015002728633176
59:56.6;-0.04429289247691559;-0.2392229012086476;-0.9669031397252876;0.996;0.010245184071999338
59:56.6;-0.044685300566303696;-0.23906295901673405;-0.9671522572030412;1.001;0.010331700874885224
59:56.6;-0.04502696990298639;-0.2389825008598149;-0.9673675659389066;1.003;0.010409511415042524
59:56.6;-0.04531923748866072;-0.23898549957168258;-0.9675263990040374;1.002;0.010478930709688888
59:56.6;-0.04556408468698186;-0.23906553705614364;-0.9676181135838466;1.0;0.01054007288686635
59:56.6;-0.04576284831485782;-0.23920652770476192;-0.9676442526340442;0.997;0.010592581052571881
59:56.7;-0.045915897026680856;-0.23938479397650608;-0.9676151958729463;0.992;0.010635607787823133
59:56.7;-0.046023016155418484;-0.23957237377142904;-0.9675451929512937;0.992;0.010668001613945011
59:56.7;-0.0460841654428882;-0.23974116378021146;-0.9674484326682421;1.001;0.010688632902947014
59:56.7;-0.04610006966958201;-0.23986714290478145;-0.9673380075062459;1.001;0.010696719213874365
59:56.7;-0.046072308472741096;-0.23993358186322164;-0.9672273818008241;1.002;0.01069201583996093
59:56.7;-0.04600307820416896;-0.23993223951407594;-0.9671321290399255;0.9990000000000001;0.01067483845633338
59:56.7;-0.04589499034797205;-0.23986229764401948;-0.9670698797506545;0.996;0.0106459673363388
59:56.7;-0.045751085299083165;-0.23972778949722634;-0.9670579853371555;0.996;0.01060650490179568
59:56.7;-0.045575182975108326;-0.23953487720986608;-0.9671097933043008;0.995;0.010557788541032946
59:56.7;-0.04537282651392084;-0.23929014136190319;-0.9672309199759466;0.995;0.01050148731872208
59:56.8;-0.0451528503890913;-0.23900019311232606;-0.9674167336479844;0.9940000000000001;0.01043991634161612
59:56.8;-0.04492892613091428;-0.23867210319910445;-0.9676519567614539;0.995;0.0103764041271805
59:56.8;-0.04472001994427295;-0.23831397939984592;-0.9679129163335364;1.001;0.01031544083660205
59:56.8;-0.04454901368560641;-0.23793531025969977;-0.9681721456380658;1.001;0.01026241503094638
59:56.8;-0.04443941914981162;-0.23754687610804895;-0.9684039317265792;1.001;0.010222903031985146
59:56.8;-0.044410654346750636;-0.2371600779375771;-0.9685889688832773;0.998;0.01020159962629402
59:56.8;-0.044472830961289664;-0.23678575162571847;-0.9687170194774914;0.9990000000000001;0.010201106256556167
59:56.8;-0.044622581991874;-0.23643288857168418;-0.9687875812596185;1.0;0.010220947261277093
59:56.8;-0.044841691235898304;-0.23610782710641245;-0.9688089614264423;0.9990000000000001;0.010257239962774271
59:56.8;-0.04509962652923806;-0.235814253529614;-0.9687959336318941;0.997;0.010303275313432794
59:56.9;-0.04535968848242417;-0.23555394522435472;-0.9687661498027542;0.996;0.010350930706974779
59:56.9;-0.04558709553804047;-0.2353278830058087;-0.9687360019022137;0.997;0.010392517181034596
59:56.9;-0.04575663492209184;-0.2351372955792026;-0.9687170696884553;0.997;0.010422515484204599
59:56.9;-0.04585778094978757;-0.23498429511974597;-0.9687140833063249;0.997;0.010438725726156194
59:56.9;-0.0458961031064545;-0.2348718608428973;-0.9687247101549193;0.998;0.010442564801838894
59:56.9;-0.04589085911665251;-0.23480301117945532;-0.9687409452245824;0.998;0.010438485841103986
59:56.9;-0.04586966827422491;-0.23477921729831402;-0.9687515636457876;0.998;0.010432722753966502
59:56.9;-0.04586192754306692;-0.23479853046340993;-0.968744993344671;0.997;0.010431749490869766
59:56.9;-0.045892863388202594;-0.23485430160568607;-0.9687121110830902;1.0;0.01044091124594145
59:56.9;-0.045979624061943496;-0.23493536717366484;-0.9686485854996835;1.0;0.010463574362070049
59:57.0;-0.04612978598565888;-0.23502799992658602;-0.9685562488810994;1.001;0.010500884748759296
59:57.0;-0.04634168673922213;-0.2351190572596652;-0.9684428615377592;0.9990000000000001;0.01055197299642369
59:57.0;-0.04660576251010108;-0.23519916782294623;-0.9683199691509518;0.996;0.010614371573812037
59:57.0;-0.04690644082679754;-0.23526485669119068;-0.9681993335844139;0.996;0.01068450282571054
59:57.0;-0.04722441690469977;-0.23531903135693955;-0.9680891567287165;0.995;0.010758185094308394
59:57.0;-0.04753912702044183;-0.2353697964390564;-0.96799146533176;0.996;0.010831122364154719
59:57.0;-0.04783120337515114;-0.23542798117973968;-0.967901487835023;0.996;0.010899348605126338
59:57.0;-0.048084616707751014;-0.23550408737764916;-0.9678090553958548;0.997;0.010959589533542306
59:57.0;-0.048288005244198524;-0.2356055059919983;-0.9677014672409647;0.998;0.011009462088529015
59:57.0;-0.04843471543573756;-0.2357347000879431;-0.9675670118957341;0.998;0.011047431590394369
59:57.1;-0.04852156511949437;-0.2358886730670213;-0.9673983473457305;0.997;0.011072539279283868
59:57.1;-0.04854690818691507;-0.23605960540522583;-0.9671951969655651;0.998;0.011084022128765133
59:57.1;-0.04850884080714996;-0.23623623575442387;-0.9669661729595015;0.9990000000000001;0.01108099329411462
59:57.1;-0.04840434575091964;-0.23640548906591843;-0.9667296044023701;0.9990000000000001;0.011062338129003821
59:57.1;-0.04822987240566452;-0.23655394790000453;-0.9665129976652775;0.9990000000000001;0.011026914628940917
59:57.1;-0.047983296058707284;-0.23666892530177486;-0.9663506432554654;0.998;0.010974027796086572
59:57.1;-0.04766664339151263;-0.23673914241701194;-0.9662791188754982;0.996;0.010904034962713884
59:57.1;-0.04728879114829361;-0.23675527764586854;-0.9663309370077677;0.993;0.010818916396012455
59:57.1;-0.04686751203059564;-0.23671070027928146;-0.9665273203378847;0.99;0.010722694292705589
59:57.1;-0.046430286640945256;-0.23660245263593918;-0.9668718872390415;0.992;0.010621590160615901
59:57.2;-0.046013181828755745;-0.2364322711543146;-0.9673473036368666;0.995;0.010523772363717992
59:57.2;-0.045657469351465835;-0.2362073625589466;-0.9679161752460087;0.997;0.0104386182243021
59:57.2;-0.045404580126171136;-0.23594066933469895;-0.9685259786017035;0.998;0.010375612537743429
59:57.2;-0.045290439535722836;-0.2356503949357878;-0.9691167315253623;0.998;0.010343101796256618
59:57.2;-0.04533980190585604;-0.23535874486547262;-0.9696299029839771;1.003;0.010347035953690051
59:57.2;-0.04556093889682903;-0.23509010132490096;-0.9700171929587135;1.006;0.010389782121965823
59:57.2;-0.04594164192749608;-0.23486889137556324;-0.9702475895432168;1.004;0.010469226188424993
59:57.2;-0.046448014786669864;-0.23471723511132397;-0.9703109132448053;1.001;0.01057847474163264
59:57.2;-0.04702693339973409;-0.234652404640641;-0.9702168593235531;0.998;0.010706326553919104
59:57.2;-0.047611932284701314;-0.2346842971099463;-0.9699902366409879;0.996;0.01083845058285707
59:57.3;-0.048131648320021286;-0.23481327053203244;-0.9696644309490117;0.996;0.010959098680823499
59:57.3;-0.048519637243845684;-0.23502869445432126;-0.9692752883898595;0.996;0.011053137532996853
59:57.3;-0.048723875832950174;-0.23530859498543236;-0.9688568719508828;0.996;0.011108086230707543
59:57.3;-0.048713963624827675;-0.2356208478764631;-0.9684395931665069;0.996;0.011115774261034932
59:57.3;-0.0484845626913743;-0.23592631031726;-0.9680505250132445;1.001;0.011073320840374169
59:57.3;-0.04805478583698892;-0.23618392948098882;-0.9677151174912628;1.003;0.010983342218144322
59:57.3;-0.047464418868222905;-0.23635718320685745;-0.9674587943125336;1.002;0.010853490996664038
59:57.3;-0.046768527004115115;-0.2364204266237883;-0.9673065101335633;0.997;0.010695542041659473
59:57.3;-0.046031792623571384;-0.23636335786860338;-0.9672791908971121;0.995;0.010524219174718064
59:57.3;-0.04532305465218434;-0.23619227543768168;-0.9673878584472522;0.991;0.010355843887001477
59:57.4;-0.044709820720207016;-0.23592793091889008;-0.9676277787626577;0.991;0.010206823738855496
59:57.4;-0.04425248510354623;-0.23560091835211494;-0.967975281344447;0.99;0.010092038778729674
59:57.4;-0.04399834419416219;-0.23524608400141564;-0.9683891392170487;0.9990000000000001;0.010023251914055167
59:57.4;-0.04397597118068261;-0.23489733758276882;-0.9688168447697619;0.9990000000000001;0.010007721589014616
59:57.4;-0.04419092763957255;-0.2345838071017226;-0.9692041607575376;1.002;0.010047231715253544
59:57.4;-0.04462391795069078;-0.2343277615139561;-0.9695050588385785;1.005;0.010137748706231934
59:57.4;-0.04523220447477518;-0.23414422312066346;-0.9696892654979735;1.004;0.010269842650063319
59:57.4;-0.04595442317064145;-0.23404176450860026;-0.9697455789211151;1.0;0.010429860293857791
59:57.4;-0.046718132169536276;-0.23402380086107477;-0.9696804176204443;0.996;0.01060166617001555
59:57.4;-0.047448863161762306;-0.2340898674332418;-0.9695126779837956;0.995;0.010768666313874587
59:57.5;-0.04807915779100179;-0.23423665521398432;-0.9692672505506197;0.997;0.010915791921440803
59:57.5;-0.04855600112766483;-0.234458597032966;-0.9689695417986449;0.997;0.011031109625472095
59:57.5;-0.04884543064107241;-0.23474772116546241;-0.9686421758460808;0.997;0.011106793634583693
59:57.5;-0.04893392363485098;-0.23509280598787904;-0.9683037730251053;0.997;0.011139379594979694
59:57.5;-0.04882701944107482;-0.23547849573508997;-0.967969126796465;0.997;0.011129431299121108
59:57.5;-0.048546089738126116;-0.2358852922531581;-0.96765013088803;0.998;0.011080860232367137
59:57.5;-0.04812423402074395;-0.2362908702630998;-0.9673569209224839;0.9990000000000001;0.01100012233297152
59:57.5;-0.04760220217135966;-0.23667239668320472;-0.9670986806517367;0.997;0.01089545682399151
59:57.5;-0.04702504757827757;-0.23700908033938983;-0.9668836720499986;0.997;0.01077626977395966
59:57.5;-0.04643971471412443;-0.23728422417990802;-0.9667184525739715;0.996;0.010652668604739696
59:57.6;-0.04589305164737781;-0.23748640813635175;-0.9666066878222825;0.9940000000000001;0.010535023086361674
59:57.6;-0.04542932069502158;-0.23760984620903194;-0.9665482153588205;0.995;0.010433360156418325
59:57.6;-0.04508665086611651;-0.23765421874881482;-0.9665390478378604;0.997;0.010356497588066272
59:57.6;-0.044892812477800144;-0.23762425872300902;-0.9665726601939225;0.997;0.010311031085344268
59:57.6;-0.04486142057855605;-0.23752921635751997;-0.966642151742641;1.0;0.010300440243687493
59:57.6;-0.044989740997811306;-0.23738223468465028;-0.966742195923363;0.9990000000000001;0.010324579715477412
59:57.6;-0.04525881290524198;-0.23719954947271626;-0.9668696228065019;0.996;0.010379703172361395
59:57.6;-0.04563594883326577;-0.2369993010302663;-0.9670221639128358;0.995;0.010459009990116409
59:57.6;-0.04607908067374096;-0.23679991618099763;-0.9671959945184645;0.9940000000000001;0.010553580799264977
59:57.6;-0.046541999790784126;-0.23661836286754054;-0.9673834944850678;0.995;0.010653496272408384
59:57.7;-0.04697940483748194;-0.2364686254360821;-0.9675725939590488;0.996;0.010748914196502412
59:57.7;-0.047350955376834064;-0.23636055902636519;-0.9677483314716065;0.9990000000000001;0.010830940889664454
59:57.7;-0.0476240866342041;-0.23629923417285648;-0.9678962209300455;1.001;0.010892254192032443
59:57.7;-0.047775776259798425;-0.2362849118312985;-0.9680060450040342;1.001;0.010927525078826635
59:57.7;-0.04779356678849169;-0.23631362241747536;-0.96807431626534;0.9990000000000001;0.010933693575399467
59:57.7;-0.0476760077793252;-0.23637809777117896;-0.9681043168859227;0.996;0.010910113585123523
59:57.7;-0.047432440525951046;-0.23646888088016516;-0.9681039515084084;0.996;0.010858540603373186
59:57.7;-0.04708193694977211;-0.2365756844330595;-0.9680826525360134;0.997;0.01078293195209381
59:57.7;-0.046651391284561555;-0.23668900907467746;-0.9680486680371466;0.998;0.010689069070910771
59:57.7;-0.04617310086904656;-0.23680167936411056;-0.9680074173425137;0.997;0.010584065157009733
59:57.8;-0.04568233852191834;-0.23690971962157295;-0.9679608829678651;0.998;0.010475843782935881
59:57.8;-0.04521521590677464;-0.2370120947924642;-0.9679077401501307;0.996;0.01037263463374989
59:57.8;-0.04480669670753022;-0.2371093481690419;-0.9678440575561746;0.995;0.01028245913109707
59:57.8;-0.0444884328481776;-0.23720182817854762;-0.967764615996293;0.9990000000000001;0.010212566055418527
59:57.8;-0.04428640412567949;-0.23728834970475862;-0.9676648992262028;0.9990000000000001;0.010168849565369238
59:57.8;-0.04421868244111145;-0.2373656250064579;-0.9675434521242334;0.998;0.010155331424059265
59:57.8;-0.04429363400900058;-0.2374283040803193;-0.9674038915520264;0.9990000000000001;0.010173763395680548
59:57.8;-0.044508684510292405;-0.2374694094588106;-0.9672559001216464;0.997;0.010223363866378279
59:57.8;-0.04484956908708244;-0.23748101853584885;-0.9671149568058812;1.0;0.01030066533911817
59:57.8;-0.045289998734721545;-0.2374549832205951;-0.967000844325788;0.997;0.01039945188541994
59:57.9;-0.045792249431074274;-0.23738359629140693;-0.9669349215329873;0.997;0.010510900575760606
59:57.9;-0.04630972477148178;-0.23726054164448124;-0.9669361907250091;0.993;0.010624182757540788
59:57.9;-0.04679186162853618;-0.23708253849092695;-0.9670167862148177;0.993;0.0107276329539681
59:57.9;-0.04719024168666956;-0.23685150818545983;-0.967178299226487;0.9940000000000001;0.0108102291426282
59:57.9;-0.04746420021086121;-0.23657663212232463;-0.9674104486018376;0.997;0.010862975146174179
59:57.9;-0.047584978553214766;-0.2362756964711471;-0.9676926848631957;1.001;0.010879937185309883
59:57.9;-0.04753827191481565;-0.23597505553046536;-0.9679979519314815;1.001;0.010858852296645549
59:57.9;-0.047325222618795265;-0.23570739693217937;-0.9682969160384265;0.9990000000000001;0.010801260141876677
59:57.9;-0.04696198605533765;-0.23550703998638425;-0.9685610960658004;0.995;0.010712167875503588
59:57.9;-0.04647817019289066;-0.2354037186350972;-0.9687644559241984;0.995;0.010599381822380276
59:58.0;-0.04591449787472592;-0.23541670300533996;-0.9688843080519711;0.997;0.010472708959949091
59:58.0;-0.04531999414629518;-0.23555109920652167;-0.9689026752073171;1.0;0.010343205070501021
59:58.0;-0.04474890315294653;-0.2357973419297207;-0.9688083622254812;1.0;0.01022254847376591
59:58.0;-0.0442572752698691;-0.23613361258589266;-0.9685989931378687;1.0;0.010122469979148358
59:58.0;-0.04389888528688506;-0.23652987541855988;-0.9682821716494059;0.997;0.010054059036649946
59:58.0;-0.043720198939879;-0.2369521228270747;-0.9678755891748744;0.997;0.010026798097219918
59:58.0;-0.04375460969144092;-0.2373660584298268;-0.9674065534985188;1.0;0.010047348293062653
59:58.0;-0.04401681755029917;-0.23773999326940834;-0.9669113416660544;1.001;0.010118299726910371
59:58.0;-0.044498535477212144;-0.23804683537857252;-0.9664339395385435;0.9990000000000001;0.010237179147430407
59:58.0;-0.04516656300946539;-0.23826507790491;-0.9660230583517364;0.995;0.010395967901002235
59:58.1;-0.04596402211140236;-0.23837908010361725;-0.9657267870700098;0.992;0.010581334468098284
59:58.1;-0.04681534331105481;-0.23837948748823354;-0.9655855549317585;0.993;0.010775758617198367
59:58.1;-0.04763487714938178;-0.23826453659969807;-0.9656251079671869;0.993;0.01095955715153329
59:58.1;-0.04833767091532636;-0.2380420370049134;-0.9658512974750812;0.993;0.011113469098316602
59:58.1;-0.04885019272610023;-0.2377309722896448;-0.9662478507709523;0.996;0.011221233225178076
59:58.1;-0.04911933750970073;-0.23736161558818802;-0.9667774523339782;0.996;0.011271702119441236
59:58.1;-0.0491188396520315;-0.2369734756683519;-0.9673857676571102;0.996;0.0112602369844367
59:58.1;-0.048852339761966526;-0.23661093970852023;-0.9680077410357986;0.997;0.011189199560079018
59:58.1;-0.04835239518906147;-0.2363171843166965;-0.9685755573423173;1.0;0.011067430432751196
59:58.1;-0.04767534164397626;-0.23612752640073112;-0.9690275874733574;1.002;0.010908789782319536
59:58.2;-0.046892881197783606;-0.23606355242110527;-0.9693171438896184;1.002;0.010730050102879142
59:58.2;-0.04608203223287433;-0.23612917565858177;-0.9694193963695685;1.003;0.01054855518589034
59:58.2;-0.04531533554535154;-0.23630942424455223;-0.9693349131000474;1.0;0.010380065582875898
59:58.2;-0.04465302944852315;-0.23657229271407068;-0.9690890596065641;1.0;0.010237136593369077
59:58.2;-0.04413836986209977;-0.2368734124475887;-0.9687275170119752;1.0;0.010128246028296916
59:58.2;-0.043796344285740536;-0.23716278413539843;-0.9683089103253945;0.996;0.010057691940706798
59:58.2;-0.043634985181048795;-0.23739249523543948;-0.9678957997183923;0.996;0.010026062864402616
59:58.2;-0.043647976866306115;-0.2375241273796454;-0.9675454487278732;0.995;0.010030976756807466
59:58.2;-0.043817522346961596;-0.23753448519171153;-0.9673018864747989;0.995;0.010067845003370053
59:58.2;-0.04411701865939693;-0.23741858766487736;-0.9671904828316024;0.9940000000000001;0.010130546808774486
59:58.3;-0.04451349351596332;-0.23718953291826111;-0.9672156462995641;0.995;0.010211993112022243
59:58.3;-0.044969939064613954;-0.2368755271510093;-0.9673617014608916;0.996;0.01030460579167952
59:58.3;-0.045447710305314665;-0.23651480673904743;-0.9675965843764174;0.997;0.010400750276868277
59:58.3;-0.04590902963075748;-0.23614947380134033;-0.9678776440018603;0.997;0.010493142098467455
59:58.3;-0.04631946153310059;-0.23581948706955586;-0.9681586163028375;0.9990000000000001;0.010575227217849141
59:58.3;-0.04665016478420095;-0.2355579109384866;-0.9683967934028485;1.001;0.010641533559375013
59:58.3;-0.046879778410729336;-0.2353879038606739;-0.9685593909058146;1.001;0.010687987765840514
59:58.3;-0.0469958294740803;-0.23532132661093497;-0.9686280558438632;1.001;0.010712174812569641
59:58.3;-0.04699557040867473;-0.2353587550006677;-0.9686006110674389;1.0;0.010713515986061546
59:58.3;-0.046886200242708835;-0.23549082898720983;-0.9684896658281389;0.998;0.010693356050691091
59:58.4;-0.04668441126087752;-0.23570068216906118;-0.9683184915288947;0.996;0.01065493859495493
59:58.4;-0.04641512413926179;-0.23596677246348505;-0.968115327663451;0.996;0.010603212489280577
59:58.4;-0.04610934503436172;-0.23626538269686762;-0.9679076799768843;0.996;0.01054442696661721
59:58.4;-0.04580135388996068;-0.23657241896956327;-0.9677178947819237;0.996;0.010485549590080086
59:58.4;-0.04552559052388089;-0.2368644738480688;-0.9675605977046506;0.995;0.010433588156052801
59:58.4;-0.04531344432044078;-0.23711935909105958;-0.9674420245241567;0.996;0.010394869363220318
59:58.4;-0.04518997757248934;-0.2373165583439185;-0.9673609843850207;0.997;0.010374298376471797
59:58.4;-0.04517078483068341;-0.23743816229982212;-0.9673109698552188;0.998;0.01037466952630412
59:58.4;-0.045259565850402174;-0.2374706389802894;-0.9672827567929885;0.997;0.010396179046279782
59:58.4;-0.045447072282977424;-0.23740727783569615;-0.9672669341164125;0.998;0.010436293424163306
59:58.5;-0.04571175862410454;-0.23725056827139246;-0.9672560854253712;1.0;0.010490028349287157
59:58.5;-0.04602217287363489;-0.23701353045028042;-0.9672463662445137;1.0;0.010550605041462421
59:58.5;-0.04634103946740882;-0.23671932082686747;-0.9672379346304125;0.997;0.010610425449216632
59:58.5;-0.046630647387402004;-0.2363990270215775;-0.9672337319735256;0.997;0.010662242692909274
59:58.5;-0.04685847221860592;-0.23608804534654781;-0.9672367935005136;0.9940000000000001;0.01070027476665862
59:58.5;-0.047001669234251205;-0.23582166642767596;-0.9672470446453896;0.993;0.010720977814706397
59:58.5;-0.04704950655078822;-0.23563055006079323;-0.9672589225768984;0.992;0.010723323665716959
59:58.5;-0.04700343073081944;-0.23553673238799885;-0.9672611673086116;0.995;0.010708581739625973
59:58.5;-0.04687499610832164;-0.2355507396308992;-0.9672395778118538;1.0;0.010679717767430586
59:58.5;-0.04668251197559766;-0.23567029446878945;-0.9671821845994402;1.002;0.010640630196394234
59:58.6;-0.04644766368175252;-0.23588093845169697;-0.9670847158953063;1.003;0.0105954947450896
59:58.6;-0.0461930172286876;-0.23615859877881681;-0.9669536438624293;0.995;0.010548379547303947
59:58.6;-0.04594051300640488;-0.2364736414533485;-0.9668052663256473;0.995;0.010503102095440319
59:58.6;-0.04571057034443285;-0.23679542218294727;-0.9666615511350283;0.995;0.010463196638712492
59:58.6;-0.045521404195229195;-0.23709625212016233;-0.966544958687504;0.995;0.01043187559307781
59:58.6;-0.04538821946280917;-0.23735417444724766;-0.9664741290159853;0.9940000000000001;0.010411906357390612
59:58.6;-0.04532203273629659;-0.23755444600866427;-0.9664612200576209;0.995;0.010405356768647145
59:58.6;-0.045328194188709335;-0.23768975898912909;-0.966511045506605;0.997;0.010413235963943918
59:58.6;-0.04540511460293468;-0.23775932580265208;-0.9666218234488448;0.998;0.010435155683635433
59:58.6;-0.0455438132809694;-0.23776727640321435;-0.9667868634985657;0.998;0.010469169083676648
59:58.7;-0.04572859171243987;-0.23772111949498814;-0.9669961682738838;0.997;0.010511878844960474
59:58.7;-0.04593869881705102;-0.23763090907415219;-0.9672371565446559;0.996;0.010558800663138539
59:58.7;-0.04615057957579157;-0.23750920879859422;-0.9674944779222393;0.996;0.010604888513791426
59:58.7;-0.046340325916933794;-0.23737129421374423;-0.9677496261523822;0.996;0.010645113438742304
59:58.7;-0.0464861774494006;-0.23723475350571102;-0.9679812615966245;0.996;0.010675029819798341
59:58.7;-0.046571047460824404;-0.2371179333059808;-0.9681668520052118;0.9990000000000001;0.010691302467396097
59:58.7;-0.04658488678958545;-0.23703726110538204;-0.9682856998555188;0.9990000000000001;0.010692153445290203
59:58.7;-0.046526388974673746;-0.23700403010750806;-0.9683227686790413;1.0;0.010677638710564324
59:58.7;-0.04640342053840081;-0.23702156644704883;-0.9682722022303554;1.0;0.010649649705489069
59:58.7;-0.04623181060316708;-0.23708368404266014;-0.9681393987238038;0.9990000000000001;0.010611590045116963
59:58.8;-0.046032620121833547;-0.2371750429785241;-0.9679409631588332;0.997;0.01056777486706926
59:58.8;-0.045828472560255774;-0.23727364552146185;-0.9677025696585669;0.996;0.010522690088509975
59:58.8;-0.045639766667762996;-0.23735517408189527;-0.9674554642873885;0.997;0.01048028518468749
59:58.8;-0.0454815810540052;-0.23739818988816605;-0.9672326579906007;0.997;0.010443447995291465
59:58.8;-0.045361979009457876;-0.23738877484930568;-0.9670655389376247;0.998;0.01041377236038549
59:58.8;-0.04528222861930302;-0.2373233259841954;-0.9669809315653978;0.9990000000000001;0.010391688723993273
59:58.8;-0.04523889500762771;-0.2372087465422527;-0.9669981005010863;0.996;0.010376916163945503
59:58.8;-0.04522692748683578;-0.23706005318215698;-0.9671252661233227;0.992;0.010369031447200158
59:58.8;-0.045242411898100486;-0.23689636397473807;-0.9673560180228374;0.99;0.01036789241794428
59:58.8;-0.04528393072910528;-0.23673685122640162;-0.9676671331758854;0.993;0.010373754709223254
59:58.9;-0.04535213733709824;-0.2365979275999776;-0.9680196901106156;0.996;0.010387065890841351
59:58.9;-0.045447937639393546;-0.23649197195242974;-0.968364420987623;0.998;0.010408050900075561
59:58.9;-0.04557039484186602;-0.2364272091292824;-0.9686505297580369;1.004;0.010436319531180153
59:58.9;-0.04571556302370409;-0.23640823384214918;-0.9688357553313113;1.004;0.010470726832524048
59:58.9;-0.045876740096175775;-0.2364367463975875;-0.9688948184015436;1.005;0.010509550902352805
59:58.9;-0.04604581889711213;-0.2365121858849263;-0.9688237163873825;1.001;0.010550875164017653
59:58.9;-0.046215010016219686;-0.23663216412838312;-0.9686386618691186;0.997;0.010592991563893402
59:58.9;-0.046378051476342184;-0.23679280779943973;-0.9683703997753144;0.995;0.010634633106679793
59:58.9;-0.04653015481354985;-0.23698919366770427;-0.9680562422175588;0.9940000000000001;0.010674895457665352
59:58.9;-0.046666632730188444;-0.23721597956860468;-0.9677325604855482;0.995;0.010712868149967456
59:59.0;-0.04678101639832236;-0.2374680582659962;-0.9674296369655276;0.997;0.010747173058417353
59:59.0;-0.04686369621527274;-0.23774078145880462;-0.9671693912694449;0.998;0.010775632430059636
59:59.0;-0.04690162918464988;-0.23802934777774096;-0.9669652971934495;0.996;0.010795165964895867
59:59.0;-0.04687912643256733;-0.23832747952495062;-0.9668233170116695;0.996;0.010801914765983642
59:59.0;-0.04677957364958801;-0.2386262912615977;-0.9667429848907744;0.996;0.010791593555738874
59:59.0;-0.046587905998196254;-0.23891448928179385;-0.9667183905876432;0.997;0.010760083957093634
59:59.0;-0.04629345533021307;-0.23918021227464192;-0.9667391723988286;0.998;0.0107041986752053
59:59.0;-0.04589253730755162;-0.23941367024510574;-0.9667915917733346;0.998;0.010622430023596304
59:59.0;-0.0453902140994567;-0.23960936467598395;-0.9668596097333901;0.996;0.010515488117543373
59:59.0;-0.04480107478414759;-0.23976714107343522;-0.9669259285341569;0.997;0.010386549709848475
59:59.1;-0.04414913754372196;-0.23989187956617644;-0.9669731974305281;0.997;0.010241232073693419
59:59.1;-0.0434667560505345;-0.23999176851629864;-0.9669857383333205;0.996;0.01008726998266859
59:59.1;-0.04279211067782249;-0.2400751660547133;-0.9669520349742817;0.998;0.009933810655069587
59:59.1;-0.04216526557338531;-0.24014665476877073;-0.9668678324921981;0.998;0.009790356200188944
59:59.1;-0.041623851064999454;-0.24020376946161942;-0.9667391257988336;1.001;0.009665656855802424
59:59.1;-0.04119996098851355;-0.2402359690122668;-0.966583863397534;1.001;0.009566969236675518
59:59.1;-0.04091904874607938;-0.2402263960912876;-0.9664311498300816;0.998;0.009499859332908459
59:59.1;-0.040800314985058116;-0.240155764396461;-0.9663172460700368;0.996;0.009468392698210261
59:59.1;-0.04085740445915692;-0.24000724149911287;-0.9662787532427463;0.993;0.009475399933758276
59:59.1;-0.041098290476489316;-0.2397712936133714;-0.9663446038524354;0.993;0.009522543595499837
59:59.2;-0.04152376370126968;-0.23944954084063966;-0.9665290922481213;0.9940000000000001;0.009610050065891355
59:59.2;-0.04212473082085326;-0.23905669280721856;-0.9668277414723363;0.995;0.00973614759623371
59:59.2;-0.04287918220708965;-0.23861996481865952;-0.9672166987397612;0.995;0.009896395818807094
59:59.2;-0.04374994557392742;-0.23817602357714143;-0.9676553846280731;0.995;0.01008315109333515
59:59.2;-0.04468428929202106;-0.23776596963664756;-0.9680918118921898;0.997;0.010285397909745399
59:59.2;-0.04561615671967613;-0.23742896830467625;-0.9684700373122257;1.0;0.01048910870779869
59:59.2;-0.0464712718903137;-0.2371954048832541;-0.9687389362603248;1.001;0.01067818856864795
59:59.2;-0.04717466962173425;-0.23708097798619102;-0.9688609005473071;1.002;0.010835950370546148
59:59.2;-0.047659563387405963;-0.23708329093301933;-0.9688187997212492;1.003;0.010946960828418355
59:59.2;-0.04787599181735898;-0.23718191625723659;-0.9686198085339304;1.003;0.010998987382454781
59:59.3;-0.04779753756745854;-0.23734200535272104;-0.9682951380711583;1.001;0.010984691941370252
59:59.3;-0.04742474065557865;-0.23752070462767783;-0.9678952860972038;0.998;0.010902718832274845
59:59.3;-0.04678461623924578;-0.23767500027410587;-0.9674814334217365;0.9940000000000001;0.010757942381276087
59:59.3;-0.04592673462432417;-0.23776927540522605;-0.9671148576315746;0.9940000000000001;0.010560861763192106
59:59.3;-0.04491714836722146;-0.23778105558971904;-0.9668469092499148;0.993;0.010326357125759036
59:59.3;-0.043831545228012754;-0.23770406244480588;-0.9667116709750019;0.9940000000000001;0.010072107382158794
59:59.3;-0.04274845076874866;-0.2375483699310005;-0.9667223247836284;0.9940000000000001;0.009816895835711763
59:59.3;-0.041742684839631915;-0.2373379388906478;-0.9668712812626055;0.996;0.009578912499405408
59:59.3;-0.04087902794233743;-0.23710626431269644;-0.9671334709556821;0.997;0.009374109065614335
59:59.3;-0.04020624266240391;-0.23689127404999943;-0.9674716667446419;0.998;0.00921469167714713
59:59.4;-0.039751981676869996;-0.23673055370792276;-0.9678424542809579;0.998;0.009107889771736157
59:59.4;-0.03951938752757625;-0.23665743343108922;-0.9682017306608833;0.998;0.009055161702176222
59:59.4;-0.039486287586045186;-0.2366979839121849;-0.9685091887135966;0.998;0.009052001317584647
59:59.4;-0.03960780618157066;-0.23686881550215058;-0.9687317185044417;1.0;0.009088499678828098
59:59.4;-0.03982274247161667;-0.2371756258843886;-0.9688457592008645;1.0;0.009150732568304261
59:59.4;-0.04006314265319244;-0.2376125338071595;-0.9688384294864408;0.998;0.009222862116836036
59:59.4;-0.040265502946180476;-0.23816228094294875;-0.9687072174802079;0.998;0.009289634876638923
59:59.4;-0.04038134003601888;-0.2387973548536104;-0.9684584618510451;0.996;0.00933880348409311
59:59.4;-0.040384610487710484;-0.23948205117112736;-0.9681054827802793;0.996;0.00936292506101129
59:59.4;-0.04027395394498214;-0.24017550479809285;-0.9676674186313616;0.9990000000000001;0.009360070069155521
59:59.5;-0.04006922638426635;-0.2408356738252624;-0.9671692688338543;1.001;0.009333279325453993
59:59.5;-0.03980380895783182;-0.24142399054118394;-0.9666425482858793;0.9990000000000001;0.00928904281623717
59:59.5;-0.039515593623547396;-0.24190995997328982;-0.966125198359091;0.9990000000000001;0.009235399137068476
59:59.5;-0.039239477500613656;-0.24227475017147218;-0.9656596751938409;0.9990000000000001;0.009180270254024606
59:59.5;-0.039002940514649545;-0.24251305171771792;-0.9652889483077058;0.996;0.009130399937368824
59:59.5;-0.03882494590924753;-0.24263300471884716;-0.9650507391283693;0.992;0.009090983792478266
59:59.5;-0.038717526398362366;-0.2426544157254681;-0.9649709024292007;0.992;0.009065881119342221
59:59.5;-0.038688758177305424;-0.24260562167446112;-0.9650575609499914;0.991;0.00905813664480997
59:59.5;-0.03874540557766021;-0.24251926275183397;-0.9652978074540703;0.993;0.009070427793750037
59:59.5;-0.038893839976650774;-0.24242721170211806;-0.96565814621312;0.9940000000000001;0.00910511840809999
59:59.6;-0.03913895661364522;-0.2423552339403308;-0.966088799135437;0.996;0.00916386523969765
59:59.6;-0.03948192470040431;-0.24231838782794074;-0.9665311001591124;0.996;0.009246992805626119
59:59.6;-0.039917887043299606;-0.24231830631299858;-0.9669267270159492;1.002;0.009352922474719838
59:59.6;-0.04043428350728244;-0.24234316635848727;-0.9672273157573968;1.002;0.00947783366967892
59:59.6;-0.04101006190158651;-0.24237042066834485;-0.9674027155943841;1.004;0.009615621140590856
59:59.6;-0.04161608079391483;-0.2423716517331312;-0.9674459754442044;1.003;0.009758200176029996
59:59.6;-0.04221721010646064;-0.2423186257514281;-0.967373654835077;1.0;0.00989624829203385
59:59.6;-0.04277642116622857;-0.24218959060851292;-0.9672212365123609;0.998;0.010020415811395504
59:59.6;-0.043260331810598095;-0.2419746939100767;-0.9670347853905826;0.996;0.01012282879540642
59:59.6;-0.043644703078161;-0.24167920491895853;-0.9668609688216199;0.9940000000000001;0.010198466070019403
59:59.7;-0.043918012904166824;-0.24132347177685776;-0.9667378114461828;0.992;0.010245919793521654
59:59.7;-0.04408185732554945;-0.24093940087976426;-0.9666881925936217;0.995;0.01026724971197759
59:59.7;-0.044148274726939045;-0.24056437438159528;-0.966717232681004;0.995;0.010267022389850061
59:59.7;-0.044135280289331016;-0.24023436902953418;-0.96681353995563;0.995;0.010250941441595772
59:59.7;-0.044062189439771735;-0.23997809383389207;-0.966953419102557;0.997;0.0102245269996943
59:59.7;-0.04394588364268591;-0.23981326195507657;-0.9671069108182094;1.001;0.01019215182989864
59:59.7;-0.04379869814637766;-0.2397453158965699;-0.9672443852142406;1.001;0.010156581318043223
59:59.7;-0.04362820174427827;-0.2397684076218324;-0.9673421039961819;1.0;0.010119041167576231
59:59.7;-0.043438586699383296;-0.23986804513909152;-0.9673853538187567;0.9990000000000001;0.010079699627546573
59:59.7;-0.04323292624333594;-0.2400245436584333;-0.9673687355817654;0.997;0.010038349956253944
59:59.8;-0.043015499543063246;-0.2402164102878897;-0.9672943603273222;0.996;0.009995080567470236
59:59.8;-0.04279358488564196;-0.2404230067012983;-0.9671693486287659;0.998;0.009950782142249297
59:59.8;-0.04257835901573776;-0.2406261427337782;-0.9670038649295849;0.998;0.009907405504198354
59:59.8;-0.042384830716248365;-0.2408105899798373;-0.9668101376620555;0.998;0.009867956588993346
59:59.8;-0.04223098754128969;-0.2409637893695985;-0.9666021569230507;0.998;0.009836277700439685
59:59.8;-0.04213634412317731;-0.24107519894402102;-0.9663954654914919;0.997;0.009816671755186157
59:59.8;-0.04211997824961791;-0.2411358531999446;-0.9662065580801146;0.996;0.009813409173074075
59:59.8;-0.042198182062375716;-0.24113872273284614;-0.9660516745703182;0.997;0.00983017061011789
59:59.8;-0.04238196249493171;-0.24108009051646437;-0.9659451221878846;0.996;0.009869493433332833
59:59.8;-0.042674654654119945;-0.2409614485116167;-0.9658975160580582;0.995;0.00993227257888093
59:59.9;-0.043070003413577446;-0.24079092050556178;-0.9659144236192485;0.996;0.010017368830858783
59:59.9;-0.04355124836093876;-0.24058333245366043;-0.9659958497655496;0.997;0.010121419026513123
59:59.9;-0.04409161340490513;-0.2403586587616348;-0.966136660818706;0.997;0.010238924128747202
59:59.9;-0.0446560353437794;-0.24013926725459733;-0.9663275066913387;0.997;0.010362574980244905
59:59.9;-0.04520360310764054;-0.23994671489613142;-0.9665555778343118;0.996;0.010483702611435653
59:59.9;-0.04569043819471665;-0.2397987044962589;-0.9668048902738255;0.995;0.010592805405436124
59:59.9;-0.04607312986645632;-0.23970661217728187;-0.9670563924070834;0.996;0.010680203554547338
59:59.9;-0.04631277213503284;-0.23967398809774143;-0.9672885539094123;0.995;0.010736870831962673
59:59.9;-0.046379257172092216;-0.2396963470361656;-0.9674790374014283;0.998;0.010755404980503753
59:59.9;-0.04625520436075452;-0.2397622373734925;-0.9676076278323622;1.0;0.010731011740558741
00:00.0;-0.045938861002105924;-0.23985525237623498;-0.9676599115949894;1.001;0.010662332108031606
00:00.0;-0.045445397772911574;-0.23995652448309082;-0.9676305255750876;1.002;0.010551933183896488
00:00.0;-0.044806330440744696;-0.24004726782907249;-0.9675246591888834;0.997;0.010406344219914945
00:00.0;-0.044067312134809127;-0.24011105450861395;-0.967357179639461;0.997;0.010235653511300154
00:00.0;-0.043284831402876575;-0.24013572365560296;-0.9671498438462841;0.997;0.01005278209198512
00:00.0;-0.0425221673231786;-0.2401149555751915;-0.9669277321614708;0.997;0.009872533573593557
00:00.0;-0.04184460744495671;-0.2400493770198491;-0.966715902878463;0.998;0.009710440783694381
00:00.0;-0.041313832280529386;-0.23994677593620506;-0.9665366920948767;0.996;0.009581395041734208
00:00.0;-0.04098162825242236;-0.23982108948857295;-0.9664076108639936;0.996;0.00949810404450536
00:00.0;-0.040883631926118456;-0.2396904047537505;-0.9663396579311464;0.996;0.00946956264729496
00:00.1;-0.04103435961355823;-0.23957468371278606;-0.9663359904473147;0.995;0.009499849791879969
00:00.1;-0.041424901914871505;-0.23949374607040783;-0.9663910671234879;0.995;0.009587570551089336
00:00.1;-0.04202415772076836;-0.2394655820480742;-0.9664905131282757;0.995;0.00972612204955306
00:00.1;-0.042783485074454196;-0.23950492450594799;-0.9666120303124411;0.995;0.009904733666610585
00:00.1;-0.04364349900157746;-0.23962201198182853;-0.9667276186947852;0.996;0.01010998237216703
00:00.1;-0.044541123510202375;-0.2398213514716654;-0.966807177420513;0.997;0.010327349611975943
00:00.1;-0.04541542696315117;-0.24010033878793127;-0.9668232401295918;0.9990000000000001;0.010542491404371006
00:00.1;-0.04621181590555704;-0.24044793687807076;-0.9667561818602509;1.0;0.010742145918695333
00:00.1;-0.04688491212945792;-0.24084389543182785;-0.9665988372104186;1.0;0.01091478078528221
00:00.1;-0.04740049768044466;-0.24125902193010093;-0.9663593322266151;1.0;0.01105108983791907
00:00.2;-0.047736635375843425;-0.24165691896158684;-0.9660611891267654;0.9990000000000001;0.011144373897744411
00:00.2;-0.0478839245656869;-0.2419974239861913;-0.9657403616284173;0.996;0.011190793023817085
00:00.2;-0.0478449070949895;-0.24224152836237317;-0.9654397023387253;0.996;0.011189468759782634
00:00.2;-0.04763276640415901;-0.24235688523474347;-0.9652021500293094;0.996;0.01114241803529285
00:00.2;-0.04726956497555502;-0.24232270629774205;-0.9650640961218258;0.995;0.011054315986846336
00:00.2;-0.0467843218751041;-0.242133133859799;-0.965049905022371;0.9940000000000001;0.010932118590448845
00:00.2;-0.04621126914724668;-0.2417985739747309;-0.9651681167954216;0.9940000000000001;0.010784613823658659
00:00.2;-0.04558849429232035;-0.2413446835542967;-0.9654098261083472;0.993;0.010621960931641297
00:00.2;-0.04495677262230768;-0.24080896970225943;-0.9657497502227609;0.9940000000000001;0.010455201094430894
00:00.2;-0.044358118095577735;-0.24023545558382517;-0.9661501936377284;0.997;0.010295675879794247
00:00.3;-0.04383383291979192;-0.23966843400802496;-0.9665674563700513;0.998;0.010154357627061726
00:00.3;-0.04342230160729733;-0.23914664665582844;-0.9669594548934094;1.0;0.010041194958958902
00:00.3;-0.04315687113365075;-0.2386990311175292;-0.96729284484612;1.0;0.009964570458075713
00:00.3;-0.04306382134741101;-0.23834258067159583;-0.9675480316725478;1.0;0.00993085718264927
00:00.3;-0.043160097879507975;-0.23808228474180865;-0.9677210359416439;0.9990000000000001;0.009943967223681724
00:00.3;-0.04345055886460015;-0.23791283695082086;-0.9678219673722467;0.996;0.010004807060698279
00:00.3;-0.043925016868847304;-0.23782172317023462;-0.9678706778099478;0.996;0.010110689918171422
00:00.3;-0.04455599730633503;-0.23779313899287896;-0.9678908640421839;0.996;0.010254910618169586
00:00.3;-0.04529831955118636;-0.23781184630311925;-0.9679041729093503;0.995;0.010426725447544968
00:00.3;-0.0460911328548926;-0.23786595003660388;-0.967925590314373;0.995;0.010611862958024323
00:00.4;-0.04686248976584016;-0.2379480342796889;-0.9679609235862635;0.995;0.010793574792221554
00:00.4;-0.04753637247828589;-0.23805485724712297;-0.9680067803951149;1.0;0.010954220633448367
00:00.4;-0.04804175173412203;-0.2381862382185333;-0.9680528492445909;1.0;0.01107731657882573
00:00.4;-0.048322381060228625;-0.23834369028906388;-0.9680854258428618;1.0;0.011149763795452782
00:00.4;-0.04834546097202;-0.23852911168698657;-0.9680906774738274;0.9990000000000001;0.01116382793872165
00:00.4;-0.04810760632210767;-0.2387437640127912;-0.9680566244612827;0.998;0.011118508852712618
00:00.4;-0.04763700318508996;-0.23898772929534642;-0.9679738299600134;0.997;0.011020052189560297
00:00.4;-0.046990845045127703;-0.23925979725910826;-0.9678355837506988;0.997;0.010881394881469579
00:00.4;-0.04624763941124456;-0.2395574471896744;-0.9676385172722314;0.9990000000000001;0.010720434654949212
00:00.4;-0.045495103682143205;-0.239876617439333;-0.9673840032918256;1.0;0.010557266308312174
00:00.5;-0.044815833024282214;-0.2402112197693088;-0.9670797720200344;0.9990000000000001;0.01041087090752937
00:00.5;-0.04427407865621828;-0.24055258557823792;-0.9667406776657865;0.998;0.010296024193558996
00:00.5;-0.04390700919385028;-0.2408892091239957;-0.9663878749147776;0.995;0.01022121852543586
00:00.5;-0.04372238897810002;-0.24120716653845087;-0.9660465037168214;0.995;0.010188074774008413
00:00.5;-0.04370243791498989;-0.2414912785190787;-0.9657427077814091;0.995;0.010192214448161811
00:00.5;-0.04381207202399283;-0.2417267150124565;-0.9655009590879352;0.998;0.010225184490951396
00:00.5;-0.044009258243292645;-0.24190064154641205;-0.9653421521354077;0.997;0.010276904936330093
00:00.5;-0.044255228621627694;-0.24200356766332026;-0.9652821791809466;0.998;0.010338098019053724
00:00.5;-0.044522329939358764;-0.24203007333003054;-0.9653303631257202;0.995;0.010402151690811951
00:00.5;-0.04479762786556525;-0.24197871890711203;-0.9654875204150096;0.993;0.010465954816645645
00:00.6;-0.04508137305892046;-0.24185139640595954;-0.9657442472982063;0.992;0.0105295027933831
00:00.6;-0.045380873134929105;-0.24165282641275748;-0.966080615042051;0.9990000000000001;0.010594442163465622
00:00.6;-0.045701721023416284;-0.24139079737357846;-0.9664681202937132;0.9990000000000001;0.010662052024615605
00:00.6;-0.04603925922998933;-0.24107713273010395;-0.9668734564269652;0.9990000000000001;0.010731340683401138
00:00.6;-0.04637312681909649;-0.24072882828400047;-0.967262656756912;1.0;0.010797890111995414
00:00.6;-0.04666662948994225;-0.2403686622115608;-0.9676043506823437;0.9990000000000001;0.010853806975139922
00:00.6;-0.046871147716953054;-0.24002476859617825;-0.9678716646931279;0.997;0.01088878501775298
00:00.6;-0.04693455145991957;-0.23972906076557624;-0.9680429170423932;0.997;0.010892008393255602
00:00.6;-0.04681173578563996;-0.23951479302242384;-0.9681017468015478;0.998;0.010854456700710982
00:00.6;-0.04647484177683771;-0.2394136474297401;-0.9680375624221871;1.0;0.010771074565470912
00:00.7;-0.04592062136870702;-0.2394525766993808;-0.9678467073086731;1.001;0.010642259577363158
00:00.7;-0.04517305002859911;-0.2396505731982305;-0.9675337625794687;0.997;0.01047427604931559
00:00.7;-0.044280797580427966;-0.24001561320672077;-0.9671120040372924;0.997;0.010278546440839522
00:00.7;-0.04331089349476338;-0.24054206636883563;-0.9666026662163477;0.997;0.010070155327692794
00:00.7;-0.04234062964509118;-0.241208886432541;-0.9660334807819413;0.9940000000000001;0.00986603823629601
00:00.7;-0.04144915312917517;-0.24197902641305236;-0.9654371366679463;0.996;0.00968316622424407
00:00.7;-0.040709515350536886;-0.24280060979660367;-0.9648500521122771;0.997;0.009536862692147728
00:00.7;-0.04018191311109387;-0.24361014055442975;-0.9643114290140881;0.998;0.009439376018598998
00:00.7;-0.0399089484601448;-0.24433749681847397;-0.9638620145268018;0.997;0.009398861943782748
00:00.7;-0.039913483434618896;-0.2449120545602294;-0.9635417378420178;0.993;0.009418903029281887
00:00.8;-0.04019914103748536;-0.24526925484403603;-0.9633858978434708;0.992;0.0094986124765679
00:00.8;-0.04075278364399268;-0.24535708170194137;-0.9634206295135657;0.9940000000000001;0.009633227523478071
00:00.8;-0.04154765057830325;-0.24514195731593308;-0.9636590405373576;0.9940000000000001;0.009814937081989304
00:00.8;-0.04254579232627253;-0.2446133825579701;-0.9640990637032559;0.9940000000000001;0.010033639430979343
00:00.8;-0.04369914116455331;-0.2437865188076277;-0.964723259152539;0.997;0.010277449154295355
00:00.8;-0.04494955071020651;-0.24270212314860046;-0.965500284797063;0.997;0.010532981875872009
00:00.8;-0.046228918501901604;-0.24142372483225608;-0.9663874877818008;0.998;0.010785616595150496
00:00.8;-0.047460733844150914;-0.2400323903582725;-0.9673339298939299;0.996;0.011019977818024804
00:00.8;-0.04856389983965297;-0.23861978101127113;-0.968283416244669;0.996;0.011220765630651022
00:00.8;-0.04945884938830979;-0.23728049724228156;-0.9691776436056464;0.9990000000000001;0.011373900902154763
00:00.9;-0.050075418683902834;-0.23610478751078073;-0.969959735390055;1.004;0.011467878654900879
00:00.9;-0.05036157645828059;-0.23517233270478122;-0.9705778635113105;0.9990000000000001;0.011495183944789846
00:00.9;-0.050291525271056854;-0.23454719364555823;-0.9709881448153957;0.9990000000000001;0.011453519928473902
00:00.9;-0.04987118671328017;-0.23427367728256718;-0.9711564584864181;0.9990000000000001;0.011346512602726476
00:00.9;-0.04913928890266932;-0.2343729692118812;-0.9710598233879564;0.997;0.011183619316007502
00:00.9;-0.04816321665735243;-0.23484069160396953;-0.9706883872914962;0.9990000000000001;0.010979148746904784
00:00.9;-0.04703003333292228;-0.2356460256129386;-0.9700486230247887;1.003;0.010750506087942945
00:00.9;-0.045834257462015096;-0.23673336335069348;-0.9691672166017782;1.005;0.010515946873359586
00:00.9;-0.04466475526307823;-0.23802700208407732;-0.9680937779995363;1.004;0.010292209417771626
00:00.9;-0.043593383064740816;-0.23943835857690451;-0.9668999019420117;0.9990000000000001;0.010092431642672374
00:01.0;-0.04266788335632085;-0.24087467813385802;-0.9656729994233184;0.995;0.009924813054053117
00:01.0;-0.04191073174602395;-0.24224849078946875;-0.9645053050872517;0.99;0.00979244056618335
00:01.0;-0.041323772384932525;-0.24348696199043687;-0.9634805177003699;0.99;0.009694348076439397
00:01.0;-0.04089635129530895;-0.244539430288866;-0.9626616374129398;0.99;0.009627358053561273
00:01.0;-0.040613833403408205;-0.2453811511490359;-0.9620830803441923;0.99;0.009587994131608277
00:01.0;-0.04046415151068944;-0.24601229771820843;-0.9617484966786453;0.991;0.009573897455801209
00:01.0;-0.04044120356054291;-0.24645267886391822;-0.9616341220563376;0.992;0.009584456273720902
00:01.0;-0.040544756905737576;-0.2467335765441022;-0.9616966075352613;0.993;0.00962057520872485
00:01.0;-0.0407772562295303;-0.24688856918774948;-0.961883852731656;0.997;0.00968370647949165
00:01.1;-0.04113874249043019;-0.24694526032527295;-0.9621469908605095;1.0;0.009774468092471409
00:01.1;-0.04162174068897313;-0.24691953041177528;-0.9624511204995115;1.003;0.009891322545460298
00:01.1;-0.04220803955970453;-0.24681343544544374;-0.9627819862108271;0.996;0.010029792169902655
00:01.1;-0.04286847987864877;-0.24661712123371204;-0.9631465754598652;0.996;0.010182482969242552
00:01.1;-0.04356559407842519;-0.2463141293505243;-0.9635677547625509;0.996;0.010339873459130004
00:01.1;-0.044258168225317654;-0.2458887813690844;-0.9640750043352391;0.995;0.010491630157938853
00:01.1;-0.04490675588375833;-0.2453341690474886;-0.9646936400408306;0.9940000000000001;0.010628185764792662
00:01.1;-0.04547904992424704;-0.24465907635299952;-0.9654344523742409;0.992;0.010742256257467381
00:01.1;-0.04595371511539505;-0.24389183681163046;-0.966285618249382;0.992;0.010829874098158849
00:01.1;-0.04632171860897431;-0.24307957868948277;-0.9672087485921038;0.993;0.010890638817526695
00:01.2;-0.04658519965760182;-0.24228279714972623;-0.9681404103757026;0.995;0.010927199902272354
00:01.2;-0.04675424056885117;-0.24156672299555335;-0.9689995122359506;0.998;0.010944140842333649
00:01.2;-0.046841627554489416;-0.24099167939298644;-0.9696997505218108;1.008;0.010946399866194329
00:01.2;-0.04685620583767789;-0.24060462121416204;-0.9701647459862403;1.008;0.010937462383932183
00:01.2;-0.046796807879411144;-0.24043365609711895;-0.9703419880137978;1.008;0.010917829671337908
00:01.2;-0.046649342810357555;-0.24048659520412394;-0.9702115500719054;1.0070000000000001;0.01088435865563027
00:01.2;-0.04638857585121678;-0.24075346358793306;-0.9697872770046484;1.001;0.01083078826272999
00:01.2;-0.045984290574670794;-0.24121165142563786;-0.9691107030853326;0.997;0.010749324235127622
00:01.2;-0.0454101515764788;-0.24183165343767654;-0.9682401515578778;0.992;0.010632837704599407
00:01.2;-0.04465307272911;-0.24258167677636358;-0.9672387366593931;0.992;0.010477146686015699
00:01.3;-0.04372103838193424;-0.24343043798744968;-0.9661649519464399;0.996;0.01028292403957829
00:01.3;-0.04264777867866778;-0.24434830987037282;-0.9650680581920106;0.998;0.010056889925936527
00:01.3;-0.041493288449002845;-0.24530723679116914;-0.9639881707959995;0.997;0.009812053788368502
00:01.3;-0.040340047203731876;-0.24627976413132274;-0.9629591309295856;0.997;0.009566938598244897
00:01.3;-0.03928585814330756;-0.2472374563260168;-0.9620119149429295;0.997;0.009343959811806314
00:01.3;-0.038434679367377975;-0.24814906712292378;-0.961177043695023;0.9940000000000001;0.009167254726328901
00:01.3;-0.03788632780237149;-0.24897899650687438;-0.9604852602220646;0.993;0.009060161293551652
00:01.3;-0.03772544100799357;-0.2496866148173499;-0.9599664576107341;0.99;0.009042440197667622
00:01.3;-0.03801036278349921;-0.25022690596191194;-0.9596475363797634;0.9890000000000001;0.009127414497413874
00:01.3;-0.03876333916421481;-0.2505526692515888;-0.959550314332594;0.991;0.009319400309566492
00:01.4;-0.03996397262542208;-0.25061829806338476;-0.9596904370535942;0.995;0.009611974200635488
00:01.4;-0.04154787975576236;-0.25038495155056795;-0.9600772830998777;0.997;0.009987649278583357
00:01.4;-0.04341161316919716;-0.24982665720448782;-0.9607136882413934;0.995;0.010419303292734425
00:01.4;-0.04542318161647215;-0.2489364824766647;-0.961594090310295;0.995;0.010873212727870516
00:01.4;-0.0474358087221803;-0.2477316371574425;-0.962700761125456;0.995;0.011313034123197254
00:01.4;-0.049302264165198846;-0.246256401428716;-0.9639991108407182;0.992;0.011703911426726653
00:01.4;-0.05088815499582159;-0.2445820096049325;-0.9654337765647587;0.991;0.01201610468653928
00:01.4;-0.05208327569763622;-0.2428029846191899;-0.9669275020093708;0.9940000000000001;0.012227740812360211
00:01.4;-0.052809866776241526;-0.241029938412085;-0.968384614496768;0.998;0.01232633431586871
00:01.4;-0.05302668166435397;-0.23937947424980724;-0.9696996858211258;1.003;0.01230888216490151
00:01.5;-0.05272879570488371;-0.23796245909909997;-0.9707700368615576;1.005;0.01218071169194585
00:01.5;-0.051944302033936275;-0.23687243383545217;-0.9715092814164082;1.005;0.011953618509287901
00:01.5;-0.05072948247322619;-0.23617606437463534;-0.9718589161416348;1.005;0.011643928673439862
00:01.5;-0.049163625187251536;-0.23590711269471054;-0.9717959279674978;1.005;0.011270936661833176
00:01.5;-0.047343906366203524;-0.23606450183518207;-0.9713356864241574;1.005;0.01085585712067683
00:01.5;-0.04538009907547049;-0.23661417540150384;-0.9705302046496835;1.002;0.010421140592753697
00:01.5;-0.04338862598971061;-0.23749403736400027;-0.9694621429902553;0.9990000000000001;0.009989861394063035
00:01.5;-0.041485888694286606;-0.23862111175485065;-0.9682352493063109;0.997;0.009584956627205328
00:01.5;-0.03978150223902689;-0.23989990063976188;-0.9669625036630635;0.9940000000000001;0.009228282496873838
00:01.5;-0.03837224086650296;-0.241230826299192;-0.9657537272951906;0.993;0.008939564440674326
00:01.6;-0.037337127677050455;-0.24251778912870098;-0.9647045147391312;0.991;0.008735319943965486
00:01.6;-0.03673383407421809;-0.2436743227310836;-0.96388803118994;0.99;0.008627850579198876
00:01.6;-0.03659655564997549;-0.24462838788135705;-0.9633506242914298;0.995;0.008624450807217285
00:01.6;-0.036935309186292314;-0.24532604646588232;-0.9631113973253368;0.995;0.008726938615400992
00:01.6;-0.037736035454989714;-0.24573397757711093;-0.9631649539230694;0.995;0.00893145374703505
00:01.6;-0.03896066634332142;-0.24584055952374287;-0.9634859338754412;0.997;0.009228376197859389
00:01.6;-0.04054690382125944;-0.2456554082578559;-0.9640340689998677;0.998;0.00960232517470753
00:01.6;-0.04240841192618287;-0.24520755446005263;-0.9647588477344198;0.9990000000000001;0.010032395063394097
00:01.6;-0.04443667501826541;-0.2445425001972098;-0.9656031043698543;0.995;0.010492876390571644
00:01.6;-0.046505665197370274;-0.2437182894706059;-0.9665053071615023;0.995;0.010954642906174508
00:01.7;-0.04847988693423082;-0.24280077379187567;-0.9674011873418045;0.996;0.011387234934731972
00:01.7;-0.05022549670242437;-0.2418585174226003;-0.9682260050689856;0.996;0.011761490704323247
00:01.7;-0.0516231564814548;-0.24095793190192655;-0.9689185523568865;1.004;0.012052386616308563
00:01.7;-0.05258044387559245;-0.24015905838532467;-0.9694269447155488;1.004;0.012241603440964215
00:01.7;-0.0530414688868561;-0.23951210565847364;-0.9697149057559504;1.004;0.01231932982495508
00:01.7;-0.05299199445749491;-0.2390545891666682;-0.969766585797964;1.003;0.012284983193916004
00:01.7;-0.052459486870824606;-0.23880885396236146;-0.9695885071856369;1.002;0.012146801145363139
00:01.7;-0.05150855101787361;-0.23878005049474813;-0.9692082999351188;0.9990000000000001;0.011920500691721668
00:01.7;-0.050232793964539516;-0.2389550805163911;-0.9686707108633967;0.997;0.011627323922169393
00:01.7;-0.048744315365509515;-0.23930318414580176;-0.9680319420102692;0.997;0.011291773032947369
00:01.8;-0.04716204828022293;-0.23977852383007728;-0.9673536088353335;0.998;0.010939266355491084
00:01.8;-0.04560039630161723;-0.2403246192856806;-0.966697174118343;0.997;0.010593935612494422
00:01.8;-0.04415978209679812;-0.2408801776912462;-0.9661189050726482;0.996;0.01027681562786188
00:01.8;-0.04292032469085545;-0.24138581050620023;-0.9656650296784408;0.9940000000000001;0.010004634800122664
00:01.8;-0.041938958043009934;-0.24179100686043284;-0.9653671969132517;0.9940000000000001;0.009789270237353279
00:01.8;-0.0412493691192992;-0.2420603498535503;-0.9652390957938077;0.9940000000000001;0.009637754767508517
00:01.8;-0.04086364105249475;-0.24217776038108227;-0.9652753292848147;0.996;0.009552620525205158
00:01.8;-0.04077471465732714;-0.24214796785853523;-0.9654530100708514;0.997;0.009532414095393484
00:01.8;-0.04095943901739268;-0.24199510497627805;-0.9657355345347859;0.997;0.009572354920068506
00:01.8;-0.04138235339729336;-0.24175881679384423;-0.9660774340911564;0.997;0.009665168827639488
00:01.9;-0.0420000622365016;-0.24148853464984127;-0.9664294146733861;0.998;0.009802042698918918
00:01.9;-0.04276549556584271;-0.24123670501086136;-0.9667432206500008;0.997;0.009973510107890412
00:01.9;-0.043631155571331195;-0.24105185996342984;-0.9669762532966465;0.997;0.010170048200235973
00:01.9;-0.0445509280142931;-0.24097249446722052;-0.9670958848761994;1.0;0.010382304538752777
00:01.9;-0.04548089625676728;-0.2410225576676193;-0.9670832329620509;1.0;0.010601090910007492
00:01.9;-0.04638020292578974;-0.24120882606063415;-0.9669358013309507;1.0;0.01081741471758936
00:01.9;-0.047212808013937166;-0.24151992232485206;-0.9666681630895161;0.998;0.011022756330249716
00:01.9;-0.047950089393805635;-0.24192678276790364;-0.9663101821126572;0.996;0.01120959513116896
00:01.9;-0.04857344681063317;-0.24238480040591817;-0.9659030292044932;0.996;0.01137202571078792
00:01.9;-0.049076024434753285;-0.2428380784452168;-0.9654938968582889;0.996;0.011506300039341414
00:02.0;-0.04946303597888454;-0.2432258565061754;-0.965130438760134;0.996;0.011611184434357085
00:02.0;-0.049750496151033996;-0.24349039458086996;-0.9648556308576837;0.996;0.011688037206277506
00:02.0;-0.049962585766623366;-0.2435849758504087;-0.9647033861584962;0.995;0.011740570683161035
00:02.0;-0.05012830574565964;-0.243480609836296;-0.9646951245167407;0.995;0.011774364899430364
00:02.0;-0.050277917549029986;-0.24317034297208268;-0.9648375341871613;0.995;0.011796198685395299
00:02.0;-0.05043908990760507;-0.24267050904367068;-0.965121797581435;0.995;0.011813167648847489
00:02.0;-0.05063248367165397;-0.24201876166325448;-0.9655245145966515;0.995;0.0118315480208495
00:02.0;-0.050866930280499704;-0.24126937662795717;-0.9660104135305919;0.998;0.011855490854156893
00:02.0;-0.05113509181757182;-0.24048679915435406;-0.9665365828288238;0.9990000000000001;0.011885804388610224
00:02.0;-0.05141112996566952;-0.23973845919701942;-0.9670574048509382;0.998;0.011919200183498964
00:02.1;-0.05165190920963391;-0.23908773962138766;-0.9675290881418828;0.998;0.011948343947210845
00:02.1;-0.051802427884331655;-0.2385879665429907;-0.9679130963402237;0.998;0.01196285990090824
00:02.1;-0.05180496655465123;-0.2382782123586856;-0.9681784937998948;0.9990000000000001;0.011951190314183239
00:02.1;-0.051610294258828515;-0.23818125661075615;-0.9683035610052099;0.9990000000000001;0.011902972944370583
00:02.1;-0.05118842253902013;-0.23830337104755733;-0.9682768709676954;0.9990000000000001;0.011811403068382983
00:02.1;-0.05053631716672968;-0.2386352069164297;-0.9680978101209052;0.997;0.011675012244820808
00:02.1;-0.04968084991371162;-0.23915323364797947;-0.9677765983664764;0.998;0.011498478848362146
00:02.1;-0.04867653082729136;-0.23982156134135124;-0.9673340649990758;0.998;0.01129234989854077
00:02.1;-0.04759866079785036;-0.24059418067382757;-0.9668013703881091;0.9990000000000001;0.01107177139103958
00:02.1;-0.0465334007190676;-0.2414176906083564;-0.9662194277633219;0.9990000000000001;0.01085449565751841
00:02.2;-0.04556679713593462;-0.2422345706865984;-0.965637333134931;0.9990000000000001;0.010658563457624615
00:02.2;-0.044774832714647675;-0.24298701248864268;-0.9651090432752384;0.996;0.010500099595181457
00:02.2;-0.04421601440726383;-0.24362131009570792;-0.9646879871777623;0.9940000000000001;0.010391583648921428
00:02.2;-0.043927078600938765;-0.24409270786336998;-0.9644201362250533;0.9940000000000001;0.01034078231797803
00:02.2;-0.04392148286020908;-0.2443702103909015;-0.9643368381373277;0.9940000000000001;0.010350325653057265
00:02.2;-0.04418989464252845;-0.24444049440119295;-0.9644489171376341;0.99;0.010417784017973762
00:02.2;-0.0447020322711964;-0.24431016050198634;-0.9647432762701057;0.993;0.01053611633407376
00:02.2;-0.04540962478020143;-0.24400582199607437;-0.965182967170971;0.995;0.010694432687484054
00:02.2;-0.04625042370237372;-0.24357161739160219;-0.9657112252767591;0.996;0.010879017497873936
00:02.2;-0.04715303802405585;-0.24306403462750853;-0.9662590302495193;0.9990000000000001;0.011074495405872705
00:02.3;-0.04804226641293593;-0.24254468760674114;-0.9667548261976694;1.001;0.011265010552220943
00:02.3;-0.04884469700147582;-0.242072415855804;-0.9671345485664314;1.002;0.011435354225364562
00:02.3;-0.04949426254834153;-0.2416962919036554;-0.9673500435255353;1.0;0.011572002020984231
00:02.3;-0.049937221400929425;-0.2414507440706867;-0.9673745026030018;1.0;0.011664001268282265
00:02.3;-0.05013622081259255;-0.2413532220291579;-0.9672046292955979;1.0;0.011703696789835547
00:02.3;-0.050073601130997285;-0.24140411391804115;-0.9668600985589958;1.001;0.011687379067542136
00:02.3;-0.04975420284934593;-0.24158839598095513;-0.966380836452443;0.9990000000000001;0.011615934434308157
00:02.3;-0.04920731220264199;-0.2418785537184312;-0.9658222152853674;0.998;0.011495402900599867
00:02.3;-0.048486486315884404;-0.24223823104591058;-0.9652482875388295;0.9940000000000001;0.011337112058005487
00:02.3;-0.04766578917541907;-0.24262601573972725;-0.9647237990036182;0.992;0.011156992643089204
00:02.4;-0.046831941541083784;-0.24299913811660587;-0.9643063581303873;0.993;0.01097392345202657
00:02.4;-0.04607340030418434;-0.24331733672731568;-0.9640401710366082;0.995;0.010807330937650938
00:02.4;-0.04546845909313615;-0.2435470775276334;-0.9639520229216415;0.9940000000000001;0.010674525475604298
00:02.4;-0.04507474971324052;-0.24366573183471818;-0.9640493063101906;0.9940000000000001;0.01058831922828174
00:02.4;-0.044922134850972816;-0.2436648575305917;-0.9643196892474072;0.9940000000000001;0.010555390848356081
00:02.4;-0.04501014389124668;-0.24355177298758132;-0.9647324188578229;0.995;0.010575686530141631
00:02.4;-0.04531008137848412;-0.24334903233309946;-0.9652414915358111;0.997;0.010642911427733678
00:02.4;-0.04577097516001871;-0.24309186976191463;-0.9657906560860021;0.997;0.0107459198908401
00:02.4;-0.046327932808694135;-0.2428240046267915;-0.9663197488582067;0.9990000000000001;0.010870647034591072
00:02.4;-0.04691145160567703;-0.24259240190856768;-0.9667715077286475;1.001;0.011002209460512764
00:02.5;-0.04745647433374211;-0.24244156548722334;-0.9670978441886081;1.0;0.011126868744960773
00:02.5;-0.04791004507290141;-0.24240769639789847;-0.9672646451230231;0.997;0.011233582985559628
00:02.5;-0.048236496488112866;-0.2425130830022442;-0.9672546884969793;0.9990000000000001;0.01131492742915268
00:02.5;-0.04841962242978653;-0.24276163894908334;-0.9670688984281322;1.0;0.01136734067224209
00:02.5;-0.048461983332184724;-0.24313677051234622;-0.9667262690062851;1.0;0.011390829403828814
00:02.5;-0.04838186704329888;-0.24360215593348125;-0.9662623685547096;0.9990000000000001;0.011388297854424616
00:02.5;-0.04820861241750238;-0.24410526501961693;-0.9657261244429759;0.996;0.01136464196163645
00:02.5;-0.047977251263379754;-0.2445832607609858;-0.9651749474988073;0.996;0.011325780326500072
00:02.5;-0.04772352975085938;-0.24497089358189472;-0.9646688369510513;0.997;0.011277823491420957
00:02.5;-0.047480122803723816;-0.2452095559295622;-0.96426430834837;0.997;0.01122652418541279
00:02.6;-0.04727440240533716;-0.24525606961527535;-0.9640086422255056;0.995;0.011177038299609646
00:02.6;-0.04712763831692703;-0.2450895499313441;-0.9639346627282831;0.993;0.01113391928689125
00:02.6;-0.04705510593661259;-0.24471493025823843;-0.9640565247920176;0.995;0.011101194724635482
00:02.6;-0.047066436001084115;-0.2441623423213753;-0.9643673491135754;0.993;0.011082366134802265
00:02.6;-0.04716567483238863;-0.2434825347789554;-0.9648393508375206;0.993;0.011080232532670039
00:02.6;-0.04735075236209702;-0.2427395996116522;-0.9654265956748505;0.995;0.01109651932541296
00:02.6;-0.04761240391794268;-0.24200271097281023;-0.9660701717933063;0.9990000000000001;0.011131380118673036
00:02.6;-0.047933133640846476;-0.2413381152483122;-0.9667052259880198;0.997;0.011182935117581694
00:02.6;-0.04828722019511284;-0.2408020144581497;-0.9672688670714322;0.9990000000000001;0.011247073413877427
00:02.6;-0.04864259996431866;-0.24043487868693006;-0.9677078025603827;1.002;0.011317708178155472
00:02.7;-0.048964758991353406;-0.24025783628874015;-0.9679847254280903;1.002;0.011387534011457456
00:02.7;-0.049222004879179534;-0.24027165632476025;-0.9680824815065504;1.001;0.011449175235594819
00:02.7;-0.049390984416683686;-0.24045837856892993;-0.9680051548329329;1.001;0.011496490017088514
00:02.7;-0.04946106030574357;-0.24078509737534853;-0.9677758485526291;0.997;0.011525713134328139
00:02.7;-0.04943627453493074;-0.24120903222801246;-0.9674318784867776;0.997;0.011536118156214041
00:02.7;-0.049334272118104726;-0.24168292881844405;-0.9670187859661095;0.996;0.011530008070997152
00:02.7;-0.049182527224450975;-0.2421600000917538;-0.9665846387524344;0.997;0.011512062481474527
00:02.7;-0.04901309064965531;-0.24259790088081593;-0.9661754899314999;0.998;0.01148828348671575
00:02.7;-0.04885748032247029;-0.2429615014059194;-0.9658319918541936;0.998;0.01146489588526686
00:02.7;-0.048742942479907736;-0.2432244996310879;-0.9655865397415272;0.996;0.011447489781271364
00:02.8;-0.048690345944320215;-0.24337020965424302;-0.9654603408333574;0.993;0.011440492348548072
00:02.8;-0.04871316208657383;-0.24339203156928912;-0.965460559618339;0.992;0.01144688221943992
00:02.8;-0.04881673577492397;-0.24329390331872014;-0.965578695886612;0.9940000000000001;0.011467998760691364
00:02.8;-0.04899742536706985;-0.24309048217711096;-0.9657916676468101;1.0;0.011503358887540206
00:02.8;-0.04924200177051052;-0.24280638633135437;-0.9660660822696744;1.0;0.011550549338052756
00:02.8;-0.04952821344545643;-0.2424739190017479;-0.966364504052028;1.001;0.011605361253273124
00:02.8;-0.0498271004339053;-0.2421291983097623;-0.9666515886618132;1.0;0.011662260776054183
00:02.8;-0.05010690922177861;-0.24180729785696103;-0.9668983296405897;0.998;0.01171514932415897
00:02.8;-0.05033791343099609;-0.24153752512072527;-0.9670837768807425;0.996;0.011758283294666721
00:02.8;-0.050497124685855474;-0.24133993584080662;-0.9671948111998946;0.997;0.011787176887179647
00:02.9;-0.050571797092682086;-0.24122366475535623;-0.9672253292154304;0.998;0.01179929227527626
00:02.9;-0.050560978999234236;-0.24118703601770727;-0.9671759629675192;1.0;0.01179437493237099
00:02.9;-0.05047499515701542;-0.2412189764524277;-0.9670544575800343;1.0;0.011774397337883356
00:02.9;-0.050333218065267665;-0.24130115537231914;-0.966875964811475;0.9990000000000001;0.011743156906678652
00:02.9;-0.05016067749070002;-0.24141049023692085;-0.9666623718673226;0.9990000000000001;0.011705617945118386
00:02.9;-0.049984098355328625;-0.24152191071661042;-0.9664402383405364;0.997;0.011667112941739688
00:02.9;-0.04982792078022081;-0.24161133671829954;-0.9662375086517606;0.995;0.01163252423146524
00:02.9;-0.049710826272877304;-0.24165870982218002;-0.966079656156493;0.996;0.011605567214214563
00:02.9;-0.04964335147573592;-0.2416507625830152;-0.9659861599810824;0.996;0.011588311684321716
00:02.9;-0.04962713998891392;-0.2415831119938156;-0.9659680282215894;0.996;0.011581066922492313
00:03.0;-0.049656021746614716;-0.2414612259403633;-0.9660266327592091;0.997;0.011582663081012544
00:03.0;-0.04971853749834356;-0.2412998726065687;-0.9661538009238738;0.997;0.011591021316031184
00:03.0;-0.049801114287390265;-0.24112092537497934;-0.9663329257349226;0.997;0.011603813478225353
00:03.0;-0.04989102898891857;-0.2409498370840312;-0.9665407375007958;0.996;0.011619013639138526
00:03.0;-0.04997845560039302;-0.24081152056501254;-0.9667494741383301;0.996;0.011635204912375767
00:03.0;-0.05005711793831651;-0.24072657821497268;-0.9669294245286151;0.997;0.011651575678961003
00:03.0;-0.05012342603990735;-0.240708720454337;-0.9670519711670185;0.993;0.011667622976912234
00:03.0;-0.05017459012513085;-0.24076384832825293;-0.9670933052761916;1.004;0.011682707051348875
00:03.0;-0.05020678305674114;-0.24089069307462693;-0.9670387226280531;1.0;0.011695701649146904
00:03.0;-0.05021441036969327;-0.24108217831871728;-0.9668865805464554;1.004;0.011704935020406794
00:03.1;-0.050190931183044345;-0.24132636012491512;-0.9666502898914722;0.998;0.011708449880595764
00:03.1;-0.05013097428161972;-0.2416064837811263;-0.9663571020347818;0.997;0.011704486706833946
00:03.1;-0.05003305791832276;-0.24190078375676205;-0.9660437364814202;0.996;0.01169206204697312
00:03.1;-0.049902065170046146;-0.2421829554038306;-0.9657500825733287;0.9940000000000001;0.011671504656960945
00:03.1;-0.0497506874447918;-0.24242367551873098;-0.9655126316256699;0.9940000000000001;0.011644801171166686
00:03.1;-0.04959926759531049;-0.24259310215988814;-0.9653590252299522;0.9940000000000001;0.01161562473373301
00:03.1;-0.04947385673546634;-0.24266428554736177;-0.9653045862736516;0.995;0.011589000986667462
00:03.1;-0.04940280466930321;-0.24261730083869393;-0.965351181370264;0.997;0.011570675244599656
00:03.1;-0.04941253936136502;-0.24244343342851538;-0.9654882866888201;0.997;0.0115663041481487
00:03.1;-0.049523171383526556;-0.242148369340251;-0.9656957302073078;0.9990000000000001;0.01158057992872488
00:03.2;-0.049744454840744814;-0.24175337427311006;-0.9659473291207812;0.9990000000000001;0.01161637614142647
00:03.2;-0.050072665820658245;-0.24129375343718643;-0.966214630720397;0.996;0.011674019166036826
00:03.2;-0.05048897474570883;-0.24081445196492096;-0.9664702683845272;0.998;0.011750804387309039
00:03.2;-0.05095975407531273;-0.24036357514781498;-0.9666908502277831;0.998;0.011840869276853367
00:03.2;-0.051439012457867084;-0.23998543340071068;-0.9668593619121563;0.998;0.011935505323492683
00:03.2;-0.05187294047540559;-0.2397147308493549;-0.9669668036781675;0.9990000000000001;0.012023949815032905
00:03.2;-0.05220647289716236;-0.239572800537435;-0.9670126562054205;0.9990000000000001;0.01209466993219264
00:03.2;-0.05239147544201864;-0.23956609809888452;-0.9670038810187979;0.997;0.012137079752419412
00:03.2;-0.05239534407594314;-0.23968682256790927;-0.9669524213315155;0.996;0.012143446396681759
00:03.2;-0.05220793523667685;-0.2399153365037574;-0.9668717122570835;0.9940000000000001;0.012110536500791809
00:03.3;-0.051844669911401346;-0.24022386804244647;-0.966773383890017;0.995;0.012040511996595435
00:03.3;-0.05134462440093092;-0.2405807659907894;-0.9666655355922323;0.998;0.011940764127325998
00:03.3;-0.050763903340470984;-0.24095439776716615;-0.9665532661734857;0.9990000000000001;0.011822672475252618
00:03.3;-0.050165898036709344;-0.24131588940293833;-0.9664409248417317;1.0;0.01169956790057144
00:03.3;-0.04961083869652018;-0.24164047642884354;-0.9663346837700368;1.0;0.011584407335490607
00:03.3;-0.04914713086513822;-0.24190793201790436;-0.9662440123664648;0.9990000000000001;0.01148775312800334
00:03.3;-0.04880607862193167;-0.24210284515718394;-0.9661812185292237;0.997;0.011416484713034221
00:03.3;-0.04860013244886956;-0.24221534566774697;-0.9661590355691442;0.995;0.011373332271333018
00:03.3;-0.04852382200484142;-0.24224244003197964;-0.9661870403105375;0.995;0.011357073625460085
00:03.3;-0.048556596824550075;-0.24218957941934963;-0.9662681739522451;0.996;0.011363218802365429
00:03.4;-0.0486672685438793;-0.2420716086337894;-0.9663965338513923;0.997;0.011385082759787458
00:03.4;-0.04881972602737822;-0.2419121173403331;-0.9665570504293891;0.997;0.011415119271323777
00:03.4;-0.04897911307035939;-0.24174058298130371;-0.966727079278702;0.997;0.011446280002404118
00:03.4;-0.049117370320633874;-0.24158755082658467;-0.9668795534478241;0.997;0.01147313317096696
00:03.4;-0.04921714925809682;-0.24147910064243283;-0.9669871311310237;0.997;0.011492557866654218
00:03.4;-0.04927340206782874;-0.2414322484151613;-0.9670267330782927;0.9990000000000001;0.01150393205783807
00:03.4;-0.04929237958820866;-0.24145241031654993;-0.9669838935295727;1.001;0.011508813958963844
00:03.4;-0.04928832356489503;-0.24153322641315378;-0.966856164234604;1.001;0.011510198145834913
00:03.4;-0.049278703472225724;-0.24165851141783334;-0.9666545119941042;0.9990000000000001;0.011511519442821598
00:03.4;-0.049279195155308264;-0.24180582745414472;-0.9664018755320384;0.997;0.011515641425193913
00:03.5;-0.0492994829534027;-0.24195092800614934;-0.9661290290553739;0.995;0.011524040824425024
00:03.5;-0.049340581267967365;-0.24207212578613405;-0.9658689703506014;0.9940000000000001;0.011536319080195753
00:03.5;-0.04939418806644651;-0.24215368969909165;-0.9656514632177342;0.995;0.01155014256053523
00:03.5;-0.04944443876516724;-0.24218775447235386;-0.9654989980380515;0.996;0.011561693700299032
00:03.5;-0.04947179611470451;-0.24217472755048386;-0.9654246241191851;0.996;0.011566577434025671
00:03.5;-0.04945795077320178;-0.24212247500150252;-0.9654313559774403;0.996;0.01156092603566271
00:03.5;-0.049390285543738;-0.2420445578008926;-0.9655125988479561;0.995;0.011542365019978146
00:03.5;-0.049264797056076885;-0.24195771618094541;-0.9656532838502072;0.996;0.011510585003419577
00:03.5;-0.04908694673388102;-0.24187892213873194;-0.9658317464008336;0.996;0.011467414751559457
00:03.5;-0.04887052767463665;-0.24182256496163448;-0.9660224662521948;0.997;0.011416449983383176
00:03.6;-0.04863519811313985;-0.2417983889590422;-0.9661996059610264;0.998;0.011362422872391609
00:03.6;-0.048403506306521696;-0.24181052475051737;-0.9663410042617362;1.0;0.011310516309540625
00:03.6;-0.048197897118896174;-0.2418575801578123;-0.966431977321422;1.0;0.01126572342702986
00:03.6;-0.04803788950991876;-0.24193354841323814;-0.9664680488735136;1.0;0.011232269500399917
00:03.6;-0.04793780719718875;-0.24202922933547663;-0.9664557785113015;1.0;0.011213158715934396
00:03.6;-0.04790570579746776;-0.24213385943193086;-0.9664112400827594;0.997;0.011209977474574332
00:03.6;-0.047943819027946304;-0.24223668950428068;-0.9663563018174733;0.995;0.011223022436348842
00:03.6;-0.048050050167750435;-0.24232825126925192;-0.9663135755134855;0.996;0.011251643790214053
00:03.6;-0.0482194522086497;-0.24240101614104664;-0.9663014261716151;0.995;0.01129456031288582
00:03.6;-0.04844483407100859;-0.24244925886323346;-0.9663303446006873;0.995;0.011349950070451375
00:03.7;-0.048716486074922856;-0.2424682759122602;-0.9664013950137831;0.996;0.011415328865069085
00:03.7;-0.04902174283948995;-0.2424534065751354;-0.9665068592868429;0.997;0.011487406207312372
00:03.7;-0.0493450932563974;-0.24239929635162724;-0.9666327765116269;0.9990000000000001;0.011562103320170188
00:03.7;-0.04966902348706846;-0.24229968659132758;-0.966762702301069;0.9990000000000001;0.011634784965319809
00:03.7;-0.049975305703473735;-0.24214797961357473;-0.9668817584204997;0.9990000000000001;0.0117006415786139
00:03.7;-0.0502463358492399;-0.24193880416025343;-0.9669800937282497;1.001;0.011755130649952077
00:03.7;-0.050466344760760985;-0.24167052319931825;-0.967055103543337;1.001;0.011794424475569668
00:03.7;-0.05062255797450652;-0.2413481325514786;-0.96711184186823;1.002;0.011815843503566972
00:03.7;-0.05070634531126607;-0.24098561214065298;-0.9671611082539395;0.9990000000000001;0.011818224837585429
00:03.7;-0.05071409946550258;-0.2406066895161601;-0.9672151622682448;0.995;0.01180210602452196
00:03.8;-0.05064739517159038;-0.24024319550111367;-0.967282061657889;0.992;0.011769590261251217
00:03.8;-0.05051224252818893;-0.23993086859348509;-0.9673607028507678;0.993;0.011723876017791039
00:03.8;-0.05031782223936988;-0.23970346415851845;-0.9674388336666353;0.996;0.011668624471009336
00:03.8;-0.05007544479813424;-0.23958672149239296;-0.9674951465135017;1.0;0.011607437538672952
00:03.8;-0.04979820370503041;-0.23959374464382613;-0.9675047017449294;1.0;0.011543625712010425
00:03.8;-0.04950110322588861;-0.23972289613728445;-0.9674456296256037;1.0;0.011480239834265256
00:03.8;-0.04920101530865952;-0.23995866348895015;-0.9673050190129574;1.0;0.011420206068348133
00:03.8;-0.048916007480178436;-0.24027517302097023;-0.9670827240439813;1.001;0.01136641547017359
00:03.8;-0.048664069938721445;-0.24064125482079954;-0.9667926096375313;1.0;0.011321704958511657
00:03.8;-0.04846163091829032;-0.24102552611585323;-0.9664611412339399;0.9990000000000001;0.011288739781116212
00:03.9;-0.04832231189675097;-0.2414000536863308;-0.9661234832928525;0.996;0.011269838824478828
00:03.9;-0.048256153911890656;-0.24174182126074684;-0.9658177010035532;0.9940000000000001;0.011266775881044268
00:03.9;-0.048269215348998196;-0.24203227452736367;-0.965578223994902;0.992;0.011280568423329045
00:03.9;-0.04836321853827317;-0.2422560939480339;-0.9654300897229902;0.9940000000000001;0.01131125351287092
00:03.9;-0.04853496183562825;-0.24240047356097932;-0.9653852770169515;0.9940000000000001;0.011357659057261028
00:03.9;-0.04877551157692023;-0.2424555347801993;-0.9654417427872831;0.995;0.011417210500358045
00:03.9;-0.04906950309582351;-0.24241572861079283;-0.9655850684861245;0.996;0.0114858461864242
00:03.9;-0.04939503314752148;-0.24228173347666948;-0.96579218043068;1.0;0.011558131687752469
00:03.9;-0.04972467505000706;-0.24206222163188815;-0.9660362436363862;1.002;0.011627661737174623
00:03.9;-0.050028007670263136;-0.24177464968282744;-0.9662914050638083;1.0;0.011687781582951522
00:04.0;-0.05027554061207579;-0.24144428153638461;-0.9665359500996495;0.998;0.011732530321217792
00:04.0;-0.05044330444405354;-0.241101266610768;-0.9667531211092486;0.995;0.011757597894517972
00:04.0;-0.050517112261327525;-0.24077636960699553;-0.9669301237123754;0.996;0.011761087177703734
00:04.0;-0.0504955886969347;-0.2404963819383275;-0.9670567863023991;0.996;0.011743943787957505
00:04.0;-0.05039127323962131;-0.2402802799024745;-0.9671252346778438;0.996;0.011709980618923584
00:04.0;-0.05022939800418711;-0.24013695753544162;-0.9671310685748553;0.9990000000000001;0.011665471907254995
00:04.0;-0.05004434326509423;-0.24006492824468176;-0.9670756098049181;1.001;0.01161834161771835
00:04.0;-0.04987423633121367;-0.24005387828889627;-0.966968120054182;1.001;0.011577029547916357
00:04.0;-0.04975454978366338;-0.24008754759728024;-0.9668265748880666;0.9990000000000001;0.011549176420038798
00:04.0;-0.04971175533856531;-0.24014725800403142;-0.9666759821264552;0.996;0.011540314886565557
00:04.1;-0.04975811848400648;-0.24021556091799015;-0.966544307155609;0.997;0.011552789340409148
00:04.1;-0.049888589727368;-0.24027970925497497;-0.9664570643244034;0.997;0.011585129425155428
00:04.1;-0.050080420948874084;-0.24033454359159093;-0.9664318790015813;0.995;0.011632027357291826
00:04.1;-0.050295723454324315;-0.2403839999731629;-0.9664739948211762;0.9940000000000001;0.011684948154700147
00:04.1;-0.05048681442484366;-0.24044046388572643;-0.9665734555810204;0.9940000000000001;0.011733305814894028
00:04.1;-0.05060379170627116;-0.24052180764381054;-0.9667046975335912;0.9940000000000001;0.011766067825340792
00:04.1;-0.05060332000442234;-0.24064662778931717;-0.9668292026663943;0.995;0.011773580321987701
00:04.1;-0.050457238338817136;-0.24082863622499343;-0.9669014998142381;0.997;0.011749349886496698
00:04.1;-0.05015935502062249;-0.24107146848567662;-0.9668781445599333;1.001;0.011691480249116693
00:04.1;-0.049728752059037096;-0.241365291785355;-0.9667283344013021;1.004;0.01160344177765094
00:04.2;-0.049208279149657815;-0.24168626708999014;-0.9664437544338973;1.006;0.011493882033567486
00:04.2;-0.04865796624566383;-0.24199919772156342;-0.9660446722151201;1.004;0.011375358398977195
00:04.2;-0.04814481367353485;-0.2422629807617322;-0.9655797099937742;1.001;0.011262237923334356
00:04.2;-0.047731839993016736;-0.24243791278539362;-0.965118280141938;0.991;0.011168356131876075
00:04.2;-0.04746914807590883;-0.24249332089367934;-0.9647371156407151;0.991;0.011105042010356485
00:04.2;-0.04738832086985684;-0.2424136257556957;-0.9645046119270378;0.9890000000000001;0.011079818759233528
00:04.2;-0.04750008223945307;-0.24220134952264682;-0.9644673207780536;0.99;0.011095795327238077
00:04.2;-0.047794633668767156;-0.2418766713412708;-0.9646416071079575;0.992;0.011151649490622643
00:04.2;-0.0482439934715513;-0.24147411480242015;-0.9650114672295885;0.993;0.011242070560948848
00:04.2;-0.04880554462059711;-0.2410373514963662;-0.9655319777282229;0.995;0.011358478805504828
00:04.3;-0.049426057931677474;-0.24061314387347105;-0.9661370714290827;0.997;0.011489842305897356
00:04.3;-0.05004595004463253;-0.2402453944814341;-0.9667501029941614;0.9990000000000001;0.011623535224396709
00:04.3;-0.050604067228922404;-0.2399701259480353;-0.9672955666016053;1.002;0.011746319264156318
00:04.3;-0.051043293537718346;-0.23981197419115624;-0.9677101848112598;1.003;0.011845540049007506
00:04.3;-0.05131671186433125;-0.23978243403587365;-0.9679515806978112;1.003;0.011910495211004827
00:04.3;-0.05139335575194392;-0.23987970796732988;-0.96800309632071;1.001;0.011933758199954519
00:04.3;-0.05126235104869709;-0.24008978590689442;-0.9678741033330777;1.0;0.011912175266288875
00:04.3;-0.050934580138512896;-0.24038842506809535;-0.9675961791319371;0.998;0.011847328412541738
00:04.3;-0.05044152781316391;-0.2407438653480526;-0.9672163593784581;0.998;0.011745380620867071
00:04.3;-0.049831500182608394;-0.24112025363733647;-0.9667889694210265;0.995;0.011616340678940917
00:04.4;-0.04916396629496985;-0.24148169226782348;-0.9663673823425998;0.9940000000000001;0.011472904690836342
00:04.4;-0.04850305955794332;-0.2417964865636538;-0.9659968434113103;0.996;0.011329084809422732
00:04.4;-0.04791103987874965;-0.2420408245424557;-0.965709310055049;0.9940000000000001;0.011198778093743334
00:04.4;-0.047442052421292805;-0.24220114135990142;-0.965520925053048;0.993;0.011094336770669316
00:04.4;-0.04713633477502421;-0.24227480592020867;-0.9654323879838832;0.997;0.01102518608441206
00:04.4;-0.04701534044622849;-0.24226924007433132;-0.9654320888069137;0.998;0.010996629475412746
00:04.4;-0.04707875517933949;-0.2421998512266856;-0.9655011355570527;1.0;0.011009095319763079
00:04.4;-0.04730443897865363;-0.24208718952144437;-0.9656186791524749;0.9990000000000001;0.011058070719387112
00:04.4;-0.04765172386002916;-0.24195376135308985;-0.9657659272842719;0.998;0.011134811608302927
00:04.4;-0.048067720591476314;-0.24182101237282283;-0.9659279865011803;0.998;0.011227739101367701
00:04.5;-0.04849568041168954;-0.24170693517078234;-0.9660935899969392;0.996;0.011324300081590194
00:04.5;-0.04888392446044377;-0.24162451413866923;-0.9662534010545409;0.995;0.011412954704415258
00:04.5;-0.04919354138662524;-0.24158099723661183;-0.9663978994847251;0.996;0.011484889869983512
00:04.5;-0.04940332187636417;-0.24157790489627132;-0.9665158949331807;0.996;0.011535126537585184
00:04.5;-0.049511125614088415;-0.2416116824954377;-0.9665943735448773;0.997;0.011562852679096501
00:04.5;-0.04953161459227473;-0.2416748589953739;-0.9666198154676932;0.998;0.011570966938889985
00:04.5;-0.04949089417907553;-0.24175748513361525;-0.966580634993335;0.9990000000000001;0.011564938292030265
00:04.5;-0.04941919128261338;-0.24184864311457707;-0.9664700866697944;0.9990000000000001;0.011551216026553497
00:04.5;-0.04934321891519874;-0.24193797386936697;-0.9662888655436158;0.998;0.011535554939045555
00:04.5;-0.049280022905553146;-0.24201717108976128;-0.9660467890192592;0.9990000000000001;0.01152166497032219
00:04.6;-0.04923364659115828;-0.24208111612389344;-0.9657632284818735;1.0;0.011510483919746845
00:04.6;-0.04919516468632458;-0.2421281380262476;-0.9654660203936127;0.998;0.011500180966094214
00:04.6;-0.04914602554758622;-0.24215911186144035;-0.965188547827579;0.9940000000000001;0.011486861309156193
00:04.6;-0.0490641279014318;-0.2421756162937907;-0.9649651211495776;0.9940000000000001;0.011465846237787236
00:04.6;-0.04893133312653623;-0.2421777981658245;-0.9648256448997798;0.9940000000000001;0.011433263507451382
00:04.6;-0.048740485329646706;-0.24216268653721051;-0.96479097309209;0.992;0.011387550258971906
00:04.6;-0.04849998126691321;-0.24212346202797985;-0.9648700276723621;0.9940000000000001;0.01133045269171254
00:04.6;-0.04823456741106168;-0.24204985493073855;-0.9650592017156886;0.997;0.011267230283034694
00:04.6;-0.04798216207298412;-0.24192955701410757;-0.9653439400486197;0.998;0.01120600516274692
00:04.6;-0.04778764593001325;-0.2417502210008512;-0.9657016591248219;0.995;0.011156436415030358
00:04.7;-0.04769510107524051;-0.24150145924228547;-0.9661049870426321;0.996;0.011128018953678761
00:04.7;-0.04773985474966491;-0.2411765532076994;-0.9665249950029096;0.998;0.011128311328723836
00:04.7;-0.047941457609407455;-0.24077404813966888;-0.9669346667734716;1.002;0.011161383735919494
00:04.7;-0.0482986966567866;-0.24029938720102106;-0.9673123925081485;1.002;0.011226770024765742
00:04.7;-0.04878764910224687;-0.2397662718457322;-0.9676443601795247;1.001;0.011319148345761181
00:04.7;-0.04936337421306494;-0.23919712512528676;-0.9679246008248376;0.997;0.011428844446323472
00:04.7;-0.049965270543015305;-0.2386222519831922;-0.9681524273197631;0.997;0.01154311233014657
00:04.7;-0.050525564965493125;-0.23807785356214056;-0.9683282443084852;0.996;0.011648037935888995
00:04.7;-0.05097960807811815;-0.23760335341373562;-0.9684493529507052;0.9940000000000001;0.01173075518732198
00:04.7;-0.051275708928391485;-0.2372382710436049;-0.9685074009489142;0.996;0.011781466905217535
00:04.8;-0.051382202258168454;-0.23701873772022441;-0.9684886948600825;1.001;0.011794782881668029
00:04.8;-0.05129074839693896;-0.23697400953712217;-0.968377459208622;1.001;0.011770215778185643
00:04.8;-0.05101618895256558;-0.23712334597976412;-0.9681606547307673;0.9990000000000001;0.011711964743084646
00:04.8;-0.05059362785475281;-0.237473243210345;-0.9678324472334979;0.9990000000000001;0.011628151554907512
00:04.8;-0.05007341379132577;-0.23801499095006345;-0.9673972584682846;0.998;0.011529656382144057
00:04.8;-0.04951479840510749;-0.23872296087885192;-0.966871365569674;0.9990000000000001;0.011428728246224165
00:04.8;-0.048978953748988543;-0.23955430465224697;-0.9662832578515671;0.9990000000000001;0.011337516653002797
00:04.8;-0.04852200360558753;-0.24045065254620307;-0.9656726236205826;0.997;0.011266644868715406
00:04.8;-0.04818906481040643;-0.24134214856469902;-0.9650876307284058;0.996;0.01122401975328027
00:04.8;-0.04801050352558837;-0.2421537502244544;-0.9645804729767026;0.995;0.011214138768054435
00:04.9;-0.048001114890884156;-0.24281316296387545;-0.9642017219210963;0.996;0.01123806277129764
00:04.9;-0.048161865170142884;-0.24325928122389906;-0.9639942891465532;0.9940000000000001;0.011293984251023362
00:04.9;-0.04848289091126805;-0.24344978762997194;-0.9639877077724766;0.993;0.011378091027178934
00:04.9;-0.048946278803106376;-0.24336665305813313;-0.9641934080711462;0.993;0.011485367794157077
00:04.9;-0.049527708219893135;-0.24301863123255008;-0.9646017778623823;0.9940000000000001;0.01161009734087948
00:04.9;-0.05019671500910526;-0.2424403430441017;-0.9651817195255594;0.9940000000000001;0.011745980471977694
00:04.9;-0.05091577373538338;-0.2416880309201216;-0.9658830619495942;0.995;0.011885899163148193
00:04.9;-0.0516387941290968;-0.2408325095223465;-0.9666417906690687;0.997;0.012021447667479236
00:04.9;-0.052310184099010455;-0.23995034843077162;-0.9673876189777553;1.0;0.012142501287365921
00:04.9;-0.052866054727283895;-0.23911477302511858;-0.9680528092465372;1.001;0.01223720849176177
00:05.0;-0.05323887150533892;-0.23838782767147285;-0.9685806072541125;1.002;0.012292739736553494
00:05.0;-0.05336570901280214;-0.23781493723933603;-0.968931609590764;1.001;0.012296868740870789
00:05.0;-0.053198726677423154;-0.23742241056876962;-0.9690870052555128;1.0;0.012240121185171452
00:05.0;-0.052715307682367735;-0.2372178484097547;-0.9690486587153494;0.9990000000000001;0.012117964976615594
00:05.0;-0.05192512907990158;-0.23719283389439824;-0.9688368641925201;0.9990000000000001;0.011932454968364035
00:05.0;-0.0508724157568506;-0.2373268364174516;-0.9684868132037029;1.0;0.011692918514145485
00:05.0;-0.049633023891209015;-0.23759126414886503;-0.9680443985578688;0.9990000000000001;0.01141554052171835
00:05.0;-0.048306898787590105;-0.23795304102102824;-0.9675614192841796;0.997;0.011121899331824281
00:05.0;-0.0470069044252654;-0.23837752264854203;-0.9670901192724068;0.995;0.010836621394812543
00:05.0;-0.04584549825294434;-0.238830741246397;-0.9666774243898777;0.9940000000000001;0.010584454975901977
00:05.1;-0.044921277970709786;-0.2392810982241082;-0.9663597704442595;0.9940000000000001;0.010387220198892034
00:05.1;-0.04430773726225878;-0.23970087633001072;-0.9661594853890244;0.995;0.010261196763737438
00:05.1;-0.044046192212822535;-0.2400680213737891;-0.966083235560967;0.995;0.010215443557984876
00:05.1;-0.044143672351571184;-0.2403682647836894;-0.966122452649015;0.996;0.010251272147866614
00:05.1;-0.044575108417584164;-0.24059712655248058;-0.96625535473693;0.996;0.010362743727393013
00:05.1;-0.04528815335857855;-0.2407611329629114;-0.9664502099048277;0.9990000000000001;0.010537812711512086
00:05.1;-0.04620901203972101;-0.2408777125956706;-0.9666694872521079;0.9990000000000001;0.010759728479202618
00:05.1;-0.04724860352028836;-0.24097342267537275;-0.9668743117582567;0.997;0.011008499959289065
00:05.1;-0.04830931111080962;-0.24108036859793064;-0.9670286187224553;0.998;0.011262427759687426
00:05.1;-0.04929267919358833;-0.24123108015905212;-0.9671028217808565;1.0;0.011499748325904077
00:05.2;-0.05010788221920473;-0.24145269071186864;-0.9670770011583012;1.0;0.01170035806171024
00:05.2;-0.05068029118654838;-0.24176170325477286;-0.9669431621447618;1.0;0.01184752284372724
00:05.2;-0.05095905906234771;-0.2421605571856985;-0.9667057558499021;0.998;0.011929414036227359
00:05.2;-0.0509221888406921;-0.24263668928100615;-0.9663801144620259;0.996;0.011940197745609591
00:05.2;-0.0505776990580533;-0.24316418176420804;-0.9659893476800326;0.996;0.011880398514005238
00:05.2;-0.0499607415178527;-0.24370760191197927;-0.9655607817580735;0.996;0.011756487040925596
00:05.2;-0.0491278392667896;-0.2442272955716166;-0.9651229234766817;0.996;0.01157989162519818
00:05.2;-0.04814969039228202;-0.24468515776596725;-0.9647034741917838;0.997;0.011365668056231558
00:05.2;-0.04710358177391831;-0.24504971132295522;-0.9643283926398788;0.9990000000000001;0.01113097177180264
00:05.2;-0.04606617048245839;-0.24529947518805556;-0.9640214586415555;0.997;0.0108934496581221
00:05.3;-0.04510724883562443;-0.24542431983779636;-0.963803459919174;0.995;0.010669705113659883
00:05.3;-0.0442848349448178;-0.24542525681029867;-0.9636904515024366;0.995;0.01047398241346521
00:05.3;-0.04364161869624924;-0.2453133174258403;-0.9636913297764018;0.995;0.010317154347475868
00:05.3;-0.043202721667868905;-0.24510797889894156;-0.9638054440231363;0.993;0.010206055628679921
00:05.3;-0.04297488760767471;-0.24483535207205168;-0.9640209584608982;0.993;0.010143208475266884
00:05.3;-0.04294735653315928;-0.24452618995449799;-0.9643146278918568;0.995;0.010126994481603152
00:05.3;-0.04309461575236226;-0.24421370266570727;-0.9646535510444094;0.996;0.010152299197869976
00:05.3;-0.04338091627832945;-0.24393109987943323;-0.9649989757774752;0.997;0.010211575371519965
00:05.3;-0.04376592424980888;-0.24370877833609542;-0.9653115446029215;0.998;0.010296148012392247
00:05.3;-0.04421036721147284;-0.24357130535861776;-0.9655569527383321;0.9990000000000001;0.010397481139234553
00:05.4;-0.04468045109997786;-0.24353470884365314;-0.9657109339450674;1.0;0.010508133070241198
00:05.4;-0.04515035031202439;-0.24360464074468652;-0.9657626335626149;0.9990000000000001;0.010622263727522866
00:05.4;-0.04560283166528696;-0.2437756342513999;-0.9657156991106278;0.9990000000000001;0.010735725466666495
00:05.4;-0.046028546671375466;-0.24403137447380532;-0.9655868571389515;0.996;0.010845866996131921
00:05.4;-0.04642456418471566;-0.24434589133047688;-0.9654023783533193;0.996;0.010951188152123639
00:05.4;-0.04679248271518507;-0.24468558268194351;-0.9651934848610932;0.9940000000000001;0.011050930586308561
00:05.4;-0.04713632892815914;-0.2450118963497172;-0.9649919933868508;0.996;0.011144655222768767
00:05.4;-0.047460627465918725;-0.24528455338670693;-0.9648270412339031;0.997;0.011231897777974958
00:05.4;-0.04776912699845141;-0.24546526410997566;-0.9647229442251463;0.996;0.011312014564655703
00:05.4;-0.04806431207890924;-0.24552171581228344;-0.9646977521421325;0.997;0.011384236461662402
00:05.5;-0.048347352385938215;-0.24543135319429138;-0.9647621321492982;0.996;0.011447825125782943
00:05.5;-0.048618045166124176;-0.24518439993958402;-0.9649184884969586;0.996;0.011502201063633075
00:05.5;-0.04887463954009433;-0.24478565678496042;-0.9651604430442807;0.995;0.011546996874268247
00:05.5;-0.04911384423494958;-0.24425474092750696;-0.9654729801658556;0.997;0.011582093180979445
00:05.5;-0.049331369837757995;-0.24362461566617036;-0.9658336144299902;0.997;0.011607712914742416
00:05.5;-0.04952296248228586;-0.24293851138028486;-0.966214703840584;0.998;0.011624562711286677
00:05.5;-0.04968555192148573;-0.2422455625179466;-0.9665866237120001;0.9990000000000001;0.011633937586395662
00:05.5;-0.049818272947473326;-0.24159561357880505;-0.9669211822232565;1.0;0.01163774366391039
00:05.5;-0.04992344109272012;-0.2410337211259458;-0.9671945358304471;0.997;0.011638476991248033
00:05.5;-0.050007630623813845;-0.24059495135852382;-0.9673890912384294;0.997;0.01163922258710204
00:05.6;-0.050082722510121684;-0.24030016000781199;-0.9674944300837754;0.998;0.011643685396934703
00:05.6;-0.050166307629245996;-0.240153443969316;-0.9675077087857143;0.997;0.011656157045520798
00:05.6;-0.05028054480680864;-0.24014175229938572;-0.9674339433199202;0.997;0.011681240648421116
00:05.6;-0.05044893121667879;-0.24023683536213605;-0.9672863306001246;1.001;0.011723211999225644
00:05.6;-0.05069140149603399;-0.24039935858911;-0.9670864500951606;1.001;0.011785089948699555
00:05.6;-0.05101911920451991;-0.2405845327445913;-0.9668637286697706;1.0;0.011867682743041045
00:05.6;-0.05143061300279082;-0.24074827033656754;-0.9666532780172642;0.9990000000000001;0.01196893764268303
00:05.6;-0.05191044164697119;-0.24085295770273835;-0.9664916089006174;0.996;0.012083835250118294
00:05.6;-0.05243073331961324;-0.24087214508103663;-0.9664106228559955;0.9940000000000001;0.012204899492395367
00:05.6;-0.0529551038090868;-0.24079353473488022;-0.9664311949664052;0.993;0.01232320251643706
00:05.7;-0.05344382352156065;-0.24061983247568963;-0.9665581806191161;0.9940000000000001;0.012429593975262073
00:05.7;-0.05385890118160268;-0.24036745702459675;-0.9667784526504958;0.9940000000000001;0.012515843384521337
00:05.7;-0.054168116733864215;-0.24006351897411038;-0.967062671783504;1.0;0.01257547866222524
00:05.7;-0.05434769565726045;-0.23974171082683396;-0.9673703565206904;1.0;0.012604264548450119
00:05.7;-0.054383783352425843;-0.2394378358616982;-0.9676568435596814;1.0;0.012600377835603693
00:05.7;-0.0542729827027927;-0.23918560904300898;-0.9678803916618497;1.0;0.012564361623148742
00:05.7;-0.054022141632645085;-0.23901309420221173;-0.9680081760619551;1.0;0.012498920821088713
00:05.7;-0.05364751922627113;-0.23893993736976407;-0.9680206272664105;1.0;0.01240860617901549
00:05.7;-0.05317347607607597;-0.23897550946657378;-0.9679139056006439;1.0;0.012299435447074855
00:05.7;-0.05263085794562432;-0.23911803538882787;-0.967700373667935;1.001;0.012178496963897412
00:05.8;-0.05205520178653878;-0.23935473722783157;-0.9674069186159356;0.9990000000000001;0.012053560460429396
00:05.8;-0.051484797581182636;-0.23966302624635755;-0.9670710096506286;0.997;0.011932691503234899
00:05.8;-0.050958510581890715;-0.24001276764817936;-0.9667347682781614;0.995;0.011823836317902897
00:05.8;-0.05051318981993609;-0.24036949329967489;-0.9664380923255128;0.9940000000000001;0.011734326869812859
00:05.8;-0.05018062071200491;-0.24069820440962872;-0.9662124193398768;0.9940000000000001;0.01167028588392037
00:05.8;-0.049984259345972476;-0.2409672712320774;-0.9660765709897183;0.9940000000000001;0.011635977444154141
00:05.8;-0.049936142883642703;-0.2411519277433359;-0.9660354752345672;0.996;0.011633189618129114
00:05.8;-0.05003441501056489;-0.24123686498936622;-0.966081789075389;0.9990000000000001;0.0116607476805225
00:05.8;-0.05026205022762126;-0.24121752943320507;-0.9661996414351663;1.0;0.011714289072673795
00:05.8;-0.05058750025428204;-0.24110006471619344;-0.9663690448086172;0.9990000000000001;0.011786464609455084
00:05.9;-0.05096779106998172;-0.24090020019494737;-0.9665694484332412;0.9990000000000001;0.011867685709687444
00:05.9;-0.05135400889265168;-0.2406414973952612;-0.9667815903973004;0.997;0.011947395627218731
00:05.9;-0.051698398908882365;-0.2403531945917103;-0.9669877888297765;0.995;0.012015669712557728
00:05.9;-0.05196173611404669;-0.2400676702524201;-0.9671715704911208;0.998;0.012064820171869018
00:05.9;-0.0521193819569569;-0.23981753823097474;-0.967317737451209;0.998;0.01209064163864273
00:05.9;-0.05216465702005869;-0.23963253364139997;-0.9674134465850285;1.0;0.012093005640195062
00:05.9;-0.052108814793164;-0.2395364144434539;-0.9674500026632531;0.9990000000000001;0.012075670935427598
00:05.9;-0.05197775496193564;-0.2395441531312518;-0.967424540354156;0.9990000000000001;0.012045371311382504
00:05.9;-0.05180639810807134;-0.23965983317583398;-0.9673408173145562;0.998;0.012010419166030246
00:05.9;-0.051632104734210225;-0.23987570079287446;-0.9672087428371349;0.997;0.011979158165425382
00:06.0;-0.05148849954579005;-0.24017261956410352;-0.9670427769505009;0.996;0.01195857458073477
00:06.0;-0.05140070740737039;-0.24052189692061313;-0.9668597540441249;0.996;0.011953282932133397
00:06.0;-0.05138259141542973;-0.24088827598507678;-0.9666768763741572;0.997;0.01196500810327036
00:06.0;-0.0514361348825696;-0.2412337874877746;-0.9665104798915782;0.9990000000000001;0.011992591190695732
00:06.0;-0.05155265212662007;-0.24152204669587984;-0.9663756370762144;0.9990000000000001;0.01203244167994973
00:06.0;-0.051715274757620576;-0.2417225166709892;-0.9662859822956195;0.9990000000000001;0.012079295980484786
00:06.0;-0.05190216156694459;-0.2418143024265481;-0.966252861003179;0.9990000000000001;0.012127135282751618
00:06.0;-0.052089858751817326;-0.24178908177370886;-0.9662832662650198;0.996;0.012170104977709073
00:06.0;-0.05225615375947568;-0.24165277602272492;-0.9663768275410194;0.9940000000000001;0.012203256422795855
00:06.0;-0.05238185237754064;-0.24142562105223178;-0.966523006961948;0.9940000000000001;0.01222296043393485
00:06.1;-0.05245116283421599;-0.24114039675660895;-0.9667001590049478;0.995;0.012226914689898834
00:06.1;-0.052450603653706684;-0.24083872372900458;-0.9668777239085042;0.9990000000000001;0.012213731331891558
00:06.1;-0.05236672374045664;-0.2405657585526742;-0.9670215760251293;1.0;0.012182190286106996
00:06.1;-0.052183672825185705;-0.24036424561330516;-0.9671011211004692;1.002;0.012130435580921034
00:06.1;-0.05188230019530563;-0.2402692165837541;-0.9670959294097049;1.002;0.012055546704072025
00:06.1;-0.05144215291365861;-0.24030437187736015;-0.9669998180727262;1.0;0.011953833444942075
00:06.1;-0.050846553324077;-0.2404805504307255;-0.9668211695124381;0.998;0.011821909426615325
00:06.1;-0.050089694863822976;-0.24079609897007;-0.9665795709043264;0.9940000000000001;0.011658305853982948
00:06.1;-0.04918387942486034;-0.24123861625372206;-0.9663001829325292;0.995;0.011465200965760274
00:06.1;-0.04816469706265943;-0.24178741268937726;-0.966007991728891;0.996;0.011249759559850352
00:06.2;-0.047092241276879936;-0.24241593751628962;-0.9657237701044363;0.997;0.01102461546945927
00:06.2;-0.046047361388135186;-0.24309346880410668;-0.9654624153632182;0.996;0.01080720555181486
00:06.2;-0.045123198465013906;-0.2437857484702656;-0.9652332576246679;0.996;0.010617944891749173
00:06.2;-0.04441345938838428;-0.24445490580430718;-0.9650415576810114;0.997;0.010477541145538933
00:06.2;-0.043999788446451873;-0.2450595964218912;-0.9648905114579679;0.997;0.010403999867446943
00:06.2;-0.0439409706571459;-0.24555643785255796;-0.9647831866206907;0.997;0.010409999228479253
00:06.2;-0.04426619847311205;-0.24590338677233503;-0.9647238689203864;0.998;0.010501220095460888
00:06.2;-0.044973226958157184;-0.24606483147905123;-0.9647184472460978;0.997;0.010675892224039746
00:06.2;-0.04603065360845662;-0.24601733941248743;-0.9647737322689303;0.998;0.010925424737068304
00:06.2;-0.04738261369557109;-0.24575461628331116;-0.9648958740906675;0.998;0.011235726191861858
00:06.3;-0.04895407252465396;-0.24529032340226506;-0.9650882097936224;0.996;0.011588740891278499
00:06.3;-0.05065540524480146;-0.24465789588708597;-0.9653489325136432;0.996;0.011963805698395323
00:06.3;-0.05238591657602403;-0.24390735920998954;-0.965669054826407;0.9940000000000001;0.01233865342314459
00:06.3;-0.05403703157604022;-0.24309997842535247;-0.966031253672931;0.996;0.012690174129941998
00:06.3;-0.05549632706145432;-0.24230193765677957;-0.9664101373649269;0.996;0.012995189144946422
00:06.3;-0.05665307601648225;-0.24157805749512704;-0.9667741503041526;0.998;0.01323140642279564
00:06.3;-0.05740540509967809;-0.24098606224448518;-0.9670888783801517;0.9990000000000001;0.013378613277993456
00:06.3;-0.05766919415854955;-0.2405715228016015;-0.9673211515900033;1.0;0.01342019370190133
00:06.3;-0.05738872167981732;-0.24036359169970237;-0.9674431497344435;1.0;0.013345064888252562
00:06.3;-0.05654793911747697;-0.2403718815399303;-0.9674357786987009;0.998;0.01314990422062497
00:06.4;-0.0551798063395754;-0.24058506824308168;-0.9672909790263642;0.998;0.012841210911080533
00:06.4;-0.05337058446089016;-0.24097188431224653;-0.9670131391585737;1.001;0.012436572544567823
00:06.4;-0.051256636389820004;-0.24148491253449478;-0.9666198368474536;1.002;0.011964534564570578
00:06.4;-0.04901281224493609;-0.2420668357995743;-0.9661415606918986;0.9990000000000001;0.011462667106390535
00:06.4;-0.04683373963082975;-0.24265784153251113;-0.9656196707625977;0.9990000000000001;0.010973856368115167
00:06.4;-0.044911489808344265;-0.24320246273349602;-0.9651022868140763;0.996;0.010541411690408545
00:06.4;-0.04341365269012925;-0.2436546314589635;-0.9646385512523605;0.993;0.01020388635009456
00:06.4;-0.04246479632165602;-0.243980632530636;-0.9642722272994536;0.991;0.009990427138491681
00:06.4;-0.042133217805631215;-0.2441603312925398;-0.9640359452971761;0.992;0.00991728882143413
00:06.4;-0.04242442157641786;-0.24418737530736817;-0.9639474603420544;0.995;0.009986021575131442
00:06.5;-0.04328213759869943;-0.2440690314409861;-0.9640085854877606;0.996;0.010183622239551333
00:06.5;-0.0445966435696822;-0.24382581925882035;-0.9642063382494194;0.996;0.010484599564577625
00:06.5;-0.04621911299731263;-0.24349045254460797;-0.9645152654206087;0.996;0.01085457063337012
00:06.5;-0.047979949546535124;-0.24310543220107608;-0.964900225030891;0.996;0.01125477605465898
00:06.5;-0.04970855349545413;-0.24271908492782068;-0.9653195065379697;0.996;0.011646787020841971
00:06.5;-0.05125178822933959;-0.24238041911419306;-0.9657285121888897;0.997;0.011996694756086992
00:06.5;-0.05248882185795079;-0.242133407563452;-0.9660842154995323;0.9990000000000001;0.012278251507231542
00:06.5;-0.05334085148541306;-0.24201127415906074;-0.966350250778492;1.0;0.012474699877924694
00:06.5;-0.0537750642146138;-0.2420314217292804;-0.966501878668012;1.001;0.012579268646067574
00:06.5;-0.05380299961905498;-0.24219183344800949;-0.9665296607593389;1.0;0.012594506943017978
00:06.6;-0.05347422826838012;-0.242469815636592;-0.9664408784655227;0.996;0.012530762516421356
00:06.6;-0.05286672394602503;-0.24282374779649737;-0.9662584951624017;0.998;0.012404146355783794
00:06.6;-0.05207544586580751;-0.24319817451293305;-0.9660182632964945;0.998;0.012234286455199587
00:06.6;-0.05120054478251635;-0.24353193698660972;-0.9657648034354245;1.0;0.01204209028050246
00:06.6;-0.05033640122495137;-0.24376803530532234;-0.965547018292396;1.0;0.011847653570198926
00:06.6;-0.04956256985886852;-0.24386318732054899;-0.9654125845952066;0.997;0.011668445936605766
00:06.6;-0.0489374576258661;-0.243795201440287;-0.9654011922303288;0.995;0.011517928744076967
00:06.6;-0.04849496357491978;-0.24356694970224338;-0.9655369769282431;0.992;0.01140470103964108
00:06.6;-0.04824367369847627;-0.2432063423857073;-0.9658217442359802;0.99;0.011332148226335019
00:06.6;-0.04816802052607322;-0.24276234815010836;-0.9662312477211316;0.991;0.011298510856404301
00:06.7;-0.048231125001084785;-0.24229792295867003;-0.9667164589021482;0.998;0.011297339916470433
00:06.7;-0.04837945015679491;-0.24188133465327846;-0.9672103352763208;1.001;0.011318378498071456
00:06.7;-0.04854946303480935;-0.2415774223843925;-0.9676385068004779;1.001;0.011348903849264702
00:06.7;-0.048676029355787964;-0.24143995038435762;-0.9679309124162971;1.001;0.011375451352323717
00:06.7;-0.04870149184373578;-0.24150578792187835;-0.9680317531078882;1.001;0.011385691481830315
00:06.7;-0.04858396191487828;-0.24179132683735458;-0.9679065168870463;1.001;0.011370172671740411
00:06.7;-0.0483036317907227;-0.24229126182164998;-0.9675459355218373;1.001;0.01132372019906544
00:06.7;-0.04786640761587017;-0.2429795753501398;-0.9669671231387754;1.001;0.011246368559684255
00:06.7;-0.04730443057512798;-0.2438123331128097;-0.966212094875313;1.001;0.011143714038996973
00:06.8;-0.04667322314528607;-0.2447317023807402;-0.9653436928377064;0.998;0.011026558551518585
00:06.8;-0.04604542142902408;-0.24567051436045031;-0.9644390128802025;0.995;0.01090973639596095
00:06.8;-0.045501434924672485;-0.24655695338592212;-0.9635808944482593;0.993;0.01081012032617639
00:06.8;-0.04511802791203914;-0.2473195414171814;-0.962848626217467;0.991;0.010744013768913095
00:06.8;-0.044956457026240494;-0.24789285507432457;-0.9623093351107666;0.993;0.010724345225192502
00:06.8;-0.04505200771688084;-0.24822393368502052;-0.9620113497487995;0.993;0.01075816001009663
00:06.8;-0.04540657574198825;-0.24827858495800725;-0.9619801741650514;0.9940000000000001;0.010844864612673892
00:06.8;-0.045985592347899104;-0.24804643944033766;-0.9622169416561166;0.9940000000000001;0.010975587632996012
00:06.8;-0.04672017984443238;-0.24754368989132752;-0.9626988141553964;0.995;0.011133886839422388
00:06.8;-0.047514806873573755;-0.24681274255978483;-0.9633808545490866;0.993;0.01129781756443052
00:06.9;-0.048259714717546275;-0.24591849488015388;-0.9641992784691154;0.993;0.011443075004228196
00:06.9;-0.04884626096809669;-0.24494159975113441;-0.9650764758314726;0.995;0.011546639451424269
00:06.9;-0.04918266692422177;-0.24396963600924793;-0.9659283333181458;0.9990000000000001;0.011590248783593797
00:06.9;-0.04920768470707639;-0.24308737749673354;-0.9666737747935225;1.002;0.011563126486282464
00:06.9;-0.04890023128152465;-0.24236733784498196;-0.9672452759693172;1.004;0.01146361581917162
00:06.9;-0.04828384812051011;-0.24186167628564315;-0.9675981235486699;1.004;0.011299622927542078
00:06.9;-0.047425617785051465;-0.24159652089635603;-0.9677160442370347;1.001;0.011087959075378061
00:06.9;-0.046429639083540766;-0.24156958310311666;-0.9676117749131994;0.998;0.01085272259508275
00:06.9;-0.04542551377055861;-0.24175147172472902;-0.9673227919379764;0.996;0.010622834008545684
00:06.9;-0.04455282246341794;-0.2420905950440654;-0.9669038430716382;0.996;0.01042885013287257
00:07.0;-0.04394317302117407;-0.24252101825252562;-0.9664183979405353;0.995;0.010299259128797367
00:07.0;-0.04370192445147596;-0.24297203323028757;-0.9659306908865308;0.997;0.010256585746980821
00:07.0;-0.04389224233081988;-0.2433777934168331;-0.9654991477008519;0.998;0.010313845282506503
00:07.0;-0.04452471954728433;-0.2436854867370589;-0.9651711005120008;0.995;0.010472133421634413
00:07.0;-0.04555566387180756;-0.24386103313667115;-0.9649783097821254;0.993;0.01072018650093052
00:07.0;-0.04689519952506168;-0.2438918726342725;-0.9649332870884997;0.993;0.011036287479230725
00:07.0;-0.048422932845062945;-0.24378678216526883;-0.9650272946017908;0.992;0.01139202270620983
00:07.0;-0.05000664907213973;-0.24357284166581056;-0.9652312879259813;0.993;0.011756769607549266
00:07.0;-0.05151992278628754;-0.2432900444350655;-0.96550060283319;0.9990000000000001;0.012101859051562767
00:07.0;-0.05285622100027944;-0.24298464907562684;-0.965783017733281;1.001;0.012403793043070741
00:07.1;-0.05393835374491304;-0.24270256982519353;-0.9660283765803424;1.003;0.012646255322948175
00:07.1;-0.0547229224681712;-0.24248361104796728;-0.9661971018745648;1.001;0.012820867270325423
00:07.1;-0.055200095730862916;-0.24235677619916463;-0.9662653840262457;0.998;0.012926811599430476
00:07.1;-0.055389551570020304;-0.2423367902022471;-0.9662263661455646;0.995;0.012969585145573165
00:07.1;-0.0553336235642718;-0.2424221720735327;-0.9660883135856312;0.997;0.01295920255492578
00:07.1;-0.05508874619632394;-0.242595198246529;-0.965871552396576;0.997;0.012908163676441924
00:07.1;-0.05471647906835969;-0.24282381420623178;-0.9656054690069803;0.998;0.01282948244441209
00:07.1;-0.054275483726888146;-0.2430652519020194;-0.9653257464288316;0.998;0.012735044584424591
00:07.1;-0.05381552951244537;-0.24327095162573348;-0.9650712924303307;0.996;0.012634476992086308
00:07.1;-0.053374111246399784;-0.24339232482986944;-0.9648803805066938;0.995;0.01253461534744207
00:07.2;-0.05297575965424236;-0.2433868872992936;-0.9647861602341411;0.9940000000000001;0.012439571895475322
00:07.2;-0.05263352917034716;-0.24322424024481556;-0.9648123973350954;0.996;0.012351287246383458
00:07.2;-0.05235166770845695;-0.24289115420909327;-0.9649704746462731;0.997;0.012270330062448128
00:07.2;-0.05212855538044446;-0.24239478103826065;-0.9652581129727956;0.998;0.012196702060877907
00:07.2;-0.051959538601506414;-0.24176314136310498;-0.965659452060397;0.996;0.012130518703094
00:07.2;-0.05183962670071826;-0.24104257236199414;-0.9661458603658886;0.996;0.012072530639750598
00:07.2;-0.05176586996424123;-0.24029244437328845;-0.9666773577110419;0.995;0.012024448833195684
00:07.2;-0.05173894507701642;-0.23957786835964512;-0.9672052085275914;0.995;0.01198899813259877
00:07.2;-0.05176338285991787;-0.23896136738765583;-0.967676368330226;0.997;0.011969623243501822
00:07.2;-0.051846080185405895;-0.23849472794377677;-0.9680399685896633;1.0;0.011969830463811197
00:07.3;-0.05199326145634701;-0.23821239140423411;-0.9682551661514721;1.002;0.011992265440514302
00:07.3;-0.052206724092862526;-0.2381275688525268;-0.9682987597274946;1.004;0.012037754896027668
