Time;AccX;AccY;AccZ;Acc-old;Acc-trns
57:19.4;-0.02893517995288176;-0.23923483926019137;-0.9408547537514054;0.971;0.006512881802057289
57:19.4;-0.0178261394870287;-0.23594779929701545;-0.9391008841235918;1.0070000000000001;0.003949894363124515
57:19.4;-0.0077227452324646565;-0.23275975735057422;-0.9375797151095713;0.982;0.0016853410786808218
57:19.4;0.000570522596599318;-0.22984108637453118;-0.9365565516372575;0.9640000000000001;0.00012281022362228348
57:19.4;0.006509459372460644;-0.2273570641345045;-0.9362762011710285;0.955;0.0013856621612971375
57:19.4;0.009872384703240991;-0.2254587759173998;-0.936931592721554;0.934;0.002085437115032751
57:19.4;0.010772527911193019;-0.22427464115482032;-0.9386315063225827;0.93;0.0022677382543796424
57:19.4;0.009621775360108834;-0.22390406639542412;-0.9413807355700838;0.956;0.0020280679453942986
57:19.5;0.007053013370303865;-0.2244138970859598;-0.9450819013271976;0.981;0.001495870167661683
57:19.5;0.003812361036532854;-0.22583553612355076;-0.9495592330534959;0.9940000000000001;0.0008175387830341371
57:19.5;0.0006374492942401432;-0.22815976856179418;-0.954594823240714;0.9940000000000001;0.0001388365416660278
57:19.5;-0.0018571639448904456;-0.23132856747271655;-0.9599643134134374;0.9940000000000001;0.0004124151404405862
57:19.5;-0.00326724189869068;-0.2352258296997048;-0.9654634320918887;1.0;0.0007419969633780242
57:19.5;-0.0034474415924620034;-0.23966983338844577;-0.970923566554962;1.0070000000000001;0.0008022234143092488
57:19.5;-0.0025205139007517985;-0.24440931386367568;-0.9762180264320478;1.015;0.0006013864956780552
57:19.5;-0.0008535777688031743;-0.24912368914230665;-0.9812604660764406;1.015;0.0002086615475067657
57:19.5;0.000988062819233045;-0.2534273933791269;-0.9859961973949075;1.002;0.00024689560200561616
57:19.5;0.002297912832361899;-0.25687915477706497;-0.990388660000643;1.0;0.0005846124675878665
57:19.6;0.002287207107802103;-0.25899884361522446;-0.9944067306536445;1.011;0.0005890706327830046
57:19.6;0.00014240611835784634;-0.25929560742209906;-0.9980197103169657;1.045;3.6852158207292426e-05
57:19.6;-0.004916670768350229;-0.2573100591289692;-1.0012021130969695;1.045;0.0012666296500348866
57:19.6;-0.01357302349573141;-0.2526707171972281;-1.0039426330266263;1.045;0.0034430268631707272
57:19.6;-0.0263389820388069;-0.24516238690604616;-1.0062481975648385;1.051;0.006497674364553056
57:19.6;-0.04347403917652958;-0.2348022349183553;-1.008137096046811;1.047;0.010290863421294347
57:19.6;-0.06490111884451669;-0.2219168268587972;-1.0096200566236222;1.041;0.014541204665492318
57:19.6;-0.09013314307753487;-0.2072099648882127;-1.0106714850479437;1.034;0.01887579124718639
57:19.6;-0.1182246114187229;-0.1918078822355248;-1.011195838945051;1.021;0.022930293804801914
57:19.6;-0.1477641271079696;-0.1772659240099052;-1.0109972403505072;1.004;0.026481601232109866
57:19.7;-0.17692344133142293;-0.16551920564693592;-1.0097636507120265;0.996;0.02957014843788312
57:19.7;-0.20357434532945065;-0.15876157836355748;-1.0070781579828114;1.0590000000000002;0.03254854891863526
57:19.7;-0.22547113990224163;-0.1592496772234937;-1.0024638552740497;1.0590000000000002;0.03599467394829187
57:19.7;-0.24047612726584333;-0.1690518820589741;-0.9954545059286459;1.0590000000000002;0.04046815419813399
57:19.7;-0.24679692463061365;-0.18977851278282507;-0.9856714370593956;1.0590000000000002;0.04616564994795421
57:19.7;-0.24321592390861393;-0.22232751995333616;-0.9728872163579307;1.07;0.05260750754323776
57:19.7;-0.22930231583591681;-0.26667400054888013;-0.9570644774624373;1.006;0.058523503095577876
57:19.7;-0.2055849664290103;-0.3217367389285055;-0.9383693797658197;0.977;0.06206772634060918
57:19.7;-0.17364150529628325;-0.38535827639884307;-0.9171744499294198;1.021;0.06137198649924803
57:19.7;-0.13605004664912634;-0.45442040565349645;-0.8940746480981783;1.034;0.05527519718225586
57:19.8;-0.09616228120703972;-0.5250918356194753;-0.8699298023464864;1.04;0.043926260455698626
57:19.8;-0.057687719620245215;-0.593182785531046;-0.8459235226506112;1.338;0.028946963427999295
57:19.8;-0.024141104070000752;-0.6545575757223498;-0.8236068099991306;1.338;0.013014422778415148
57:19.8;0.0017094558125660985;-0.7055320266340895;-0.8048737299736721;1.338;0.0009707387469983181
57:19.8;0.018221997952947613;-0.7431870123791545;-0.791809711283064;1.052;0.010722966000010421
57:19.8;0.024991555960067597;-0.7655717094885968;-0.7863920547295689;1.033;0.015045904096028637
57:19.8;0.022723123010681915;-0.7718094333322081;-0.7901024132784998;1.006;0.013856753464542232
57:19.8;0.012975623259635232;-0.7621251092373469;-0.8035709221828444;1.011;0.007946551657258607
57:19.8;-0.002118019139622521;-0.7378013696009149;-0.8263639852481606;1.06;0.001291340342146235
57:19.8;-0.020102124476646693;-0.7010609640390182;-0.856972140251679;1.135;0.012077149631187063
57:19.9;-0.0384229382512216;-0.6548693789138056;-0.8929926049970216;1.202;0.022469485024691392
57:19.9;-0.0546552555340409;-0.6026566180877237;-0.9314506438575557;1.146;0.030680448675829572
57:19.9;-0.06674376201051394;-0.5479821025778964;-0.9691752100974175;1.146;0.03544698924414161
57:19.9;-0.07322579856860327;-0.4942019093828433;-1.0031509114112669;1.146;0.03630235568896478
57:19.9;-0.0733726863605529;-0.44420465601057946;-1.030804185855437;1.179;0.03359647399109356
57:19.9;-0.06720841235490516;-0.400250156919418;-1.0502147225851484;1.25;0.028250962546596894
57:19.9;-0.05541342802725406;-0.36391143257506714;-1.0602475406866771;1.2309999999999999;0.021380506577445828
57:19.9;-0.03915483300845314;-0.33610354203367754;-1.0605920585851618;1.054;0.013957474282788885
57:19.9;-0.019891867354905092;-0.31716055873338583;-1.0517112996824187;1.081;0.006635157998302952
57:19.9;0.0008049771045467818;-0.3069055346152877;-1.034740598816767;1.27;0.00025563466056323126
57:20.0;0.021405924268943957;-0.3046894442088989;-1.011370366809458;1.102;0.0065963185104153535
57:20.0;0.04054943191123244;-0.30943481147024665;-0.9836969644668471;0.951;0.01234284501576702
57:20.0;0.057148918153453014;-0.3197326263379008;-0.9540127058428938;0.951;0.017432076669578342
57:20.0;0.07046837810731156;-0.33399420248670286;-0.924557066570631;0.951;0.021760402621127394
57:20.0;0.0801514821839476;-0.35061991368639295;-0.8972878690489894;0.9179999999999999;0.025216216970542084
57:20.0;0.08619816338306753;-0.3681507548768275;-0.8737123359244181;0.909;0.027726316426294625
57:20.0;0.0888953090030238;-0.38538636978140295;-0.8547881117770015;0.917;0.029284220478119287
57:20.0;0.08871617310391611;-0.40145875397185776;-0.8408947412879502;0.9279999999999999;0.029949209823818147
57:20.0;0.0862070989672725;-0.4158531441311873;-0.8318721749424958;0.914;0.02982219583891431
57:20.1;0.08188122094657577;-0.4283772248568268;-0.82711489709619;0.917;0.029011923649218226
57:20.1;0.07613730766388187;-0.43909261689682927;-0.8257050734414005;0.9470000000000001;0.027604418516788576
57:20.1;0.06921763974434679;-0.44823046652843884;-0.8265666596820901;0.991;0.025644606666945808
57:20.1;0.06120948086096173;-0.45611116085345704;-0.8286193860125116;0.991;0.023133667284431184
57:20.1;0.052081097085407875;-0.46307887084590743;-0.8309089531596999;0.991;0.020039575992793313
57:20.1;0.041733866537858565;-0.46945323351905427;-0.8326943203570665;0.983;0.016314229222641786
57:20.1;0.030053470796836162;-0.4754979254422003;-0.8334843754378387;0.968;0.011910794293365239
57:20.1;0.016951275043657756;-0.48140532090698895;-0.8330285398715278;0.953;0.006797874421549555
57:20.1;0.0023936045495573143;-0.48729447894374245;-0.8312749572712362;0.9440000000000001;0.0009695910316431862
57:20.1;-0.013581705242349027;-0.4932184663458353;-0.8283141834249123;0.95;0.005548667838769706
57:20.2;-0.030863757617709254;-0.4991778574733431;-0.8243243798767862;0.965;0.012699957186575536
57:20.2;-0.04928485017575668;-0.5051383525367271;-0.8195264166585489;0.971;0.020402657605047052
57:20.2;-0.0686529788561558;-0.5110503733228751;-0.8141485609202964;0.958;0.028564508485242977
57:20.2;-0.08879031967223336;-0.5168672421354076;-0.8083974652245808;0.958;0.037099629382207414
57:20.2;-0.10956061039785149;-0.5225572918686928;-0.8024364901262488;0.958;0.04594084988367181
57:20.2;-0.13087168786704748;-0.5281061386034405;-0.7963766569889738;0.9520000000000001;0.055040889143177285
57:20.2;-0.15265264856529276;-0.5335086713410601;-0.7902841091564273;0.9520000000000001;0.06436193253227375
57:20.2;-0.17481733968638294;-0.5387531327760942;-0.7842041748726053;0.971;0.07385900718651948
57:20.2;-0.1972293681964467;-0.5437998909593429;-0.7781990425568444;0.986;0.08346442231198097
57:20.2;-0.2196806322660672;-0.5485568584602956;-0.7723913873898368;0.995;0.09307881415479648
57:20.3;-0.24189019060542963;-0.5528548338808215;-0.7670001739206823;0.995;0.10257105685632226
57:20.3;-0.26352585924193733;-0.5564290688406266;-0.7623523903681891;0.991;0.11178635995164031
57:20.3;-0.28424745681977753;-0.5589143237859499;-0.7588595688349867;0.988;0.12056000081758196
57:20.3;-0.3037640418144781;-0.5598568904062312;-0.7569600603381854;0.988;0.12873195232938606
57:20.3;-0.32188730372435653;-0.5587411395164962;-0.757041250320217;0.988;0.13615513985062677
57:20.3;-0.3385606942325697;-0.5550251417484139;-0.7593609671586076;0.988;0.14269128948542856
57:20.3;-0.3538558427262415;-0.5481808777482724;-0.7639818664730826;0.988;0.1481949154497196
57:20.3;-0.36794233599520815;-0.5377364498956705;-0.7707250076535285;0.986;0.1524925713720768
57:20.3;-0.381041473266901;-0.5233185170164096;-0.7791463310178864;0.985;0.1553664990280226
57:20.3;-0.3933724339866825;-0.5046931023268176;-0.7885407378213243;0.981;0.1565508489665358
57:20.4;-0.40509838073169707;-0.48180214027583;-0.7979791767100909;0.982;0.1557473947205147
57:20.4;-0.4162814357881773;-0.4547915388022293;-0.8063832446512061;0.998;0.1526655038199768
57:20.4;-0.4268560422466771;-0.424025382116254;-0.8126375792746123;1.045;0.14708561113864
57:20.4;-0.43662701031047046;-0.39008381374028694;-0.8157294917437545;1.045;0.1389359682892592
57:20.4;-0.4452919416990118;-0.3537488901009275;-0.8148910871226668;1.045;0.12836289094664335
57:20.4;-0.45248292801910567;-0.31598384533180346;-0.8097137893425007;1.0490000000000002;0.11577068776363654
57:20.4;-0.4578215925988529;-0.27790369974010637;-0.8002135550180527;1.021;0.10181142219539258
57:20.4;-0.4609790388681931;-0.24073172534758552;-0.7868378175617663;0.981;0.08731718611391837
57:20.4;-0.46172641516594787;-0.20574257417375663;-0.770416142817665;0.9470000000000001;0.07318705376780844
57:20.4;-0.4599598122549388;-0.17419839809549287;-0.7520667970124253;0.904;0.06025879744865838
57:20.5;-0.4556899331761684;-0.14728352355925325;-0.7330779757037098;0.847;0.049200982120974845
57:20.5;-0.44900049340523307;-0.12604040419339388;-0.7147818522102275;0.813;0.04045108016120827
57:20.5;-0.4399937574457986;-0.11130751832309606;-0.6984352422293357;0.772;0.034205595846662655
57:20.5;-0.42874820312508616;-0.10366024919213385;-0.6851172283015778;0.772;0.030449449831689873
57:20.5;-0.415306914286126;-0.10335940451787985;-0.6756517659084589;0.772;0.029002943485266896
57:20.5;-0.39970139352779693;-0.11031429131871964;-0.6705594969619573;0.775;0.029566829671500115
57:20.5;-0.3820035591308718;-0.12406359248536306;-0.6700372018175436;0.7929999999999999;0.03175489480077941
57:20.5;-0.36239219035915743;-0.1437713166324343;-0.6739589849968671;0.76;0.03511434303331362
57:20.5;-0.341217853173142;-0.1682342996243623;-0.6818941990978044;0.758;0.0391438272928611
57:20.5;-0.31905258326130237;-0.19590409802085748;-0.6931422607333136;0.787;0.043323961845118206
57:20.6;-0.2967183006693862;-0.22493383243996892;-0.7067861382663271;0.8029999999999999;0.04717230950240129
57:20.6;-0.27529794431060367;-0.2532626394098702;-0.7217588261610127;0.8340000000000001;0.050322962560790364
57:20.6;-0.25613688815632324;-0.2787445234789678;-0.7369082139271732;0.8859999999999999;0.0526128550853024
57:20.6;-0.2408327227062075;-0.29931437197785443;-0.7510468329097589;0.8859999999999999;0.05413898199256536
57:20.6;-0.23119528772134587;-0.3131666166621349;-0.7629833638705782;0.8859999999999999;0.05524201443172296
57:20.6;-0.22915035458377067;-0.31891626177777627;-0.7715428188462471;0.919;0.056384175194389326
57:20.6;-0.23656593479891916;-0.31572345703287535;-0.7755854678810826;0.8540000000000001;0.05792802468536315
57:20.6;-0.25499985001916814;-0.3033741415627087;-0.7740358731134874;0.7340000000000001;0.05987969425999005
57:20.6;-0.2854033687134586;-0.2823056394859747;-0.7659426384611865;0.8759999999999999;0.061712749399909825
57:20.6;-0.3278546446589173;-0.2535572640315323;-0.7505957563181811;0.8370000000000001;0.062396970203870264
57:20.7;-0.3814029291574157;-0.21863208627262318;-0.7277059646094225;0.943;0.06068115768062744
57:20.7;-0.4440718743948201;-0.1792824950941419;-0.6976033664023304;1.058;0.05553921321091367
57:20.7;-0.5130264315597486;-0.1372620559728817;-0.6613760534833234;0.961;0.04657348182106172
57:20.7;-0.5848665019666275;-0.09409745151716462;-0.6208754940673777;0.961;0.03416953966607119
57:20.7;-0.6559744595783288;-0.05092137560272941;-0.5785661216220753;0.961;0.019325914654187197
57:20.7;-0.7228427446085772;-0.008381377630000561;-0.5372467906746372;0.9309999999999999;0.00325486563226092
57:20.7;-0.7823509034526943;0.03338095134685942;-0.49968280640109064;0.878;0.013049525015478044
57:20.7;-0.8320020656730879;0.07468895056646233;-0.46818902205019897;0.903;0.029093903107677378
57:20.7;-0.8701329651422964;0.11622993401224024;-0.4442305167787617;1.028;0.04492747415045629
57:20.7;-0.8960914464232587;0.15889773455469847;-0.42813159745209756;1.095;0.06096033129168957
57:20.8;-0.9103459049989266;0.20359131078132395;-0.4189709547785155;1.4480000000000002;0.07765145503220787
57:20.8;-0.9144621486223793;0.25098765149705676;-0.4146872842046552;0.996;0.09517848930723209
57:20.8;-0.9108897525071916;0.30131780637520383;-0.4123519387828579;0.905;0.11317712414317577
57:20.8;-0.9025720826190402;0.3541993563943654;-0.4085304565122345;0.905;0.13060328579288644
57:20.8;-0.8924806462449884;0.4085881134444191;-0.39967329932474444;0.905;0.1457436597312008
57:20.8;-0.8831892480015178;0.46288575544904387;-0.382510851366377;0.948;0.15637644997579622
57:20.8;-0.8765553462634137;0.5152015119525389;-0.3544339348087742;1.2309999999999999;0.16006330056066953
57:20.8;-0.873536170894154;0.5637194250213112;-0.3138169795448663;1.183;0.15453267807334606
57:20.8;-0.8741507679990927;0.6070655857648328;-0.2602272880504116;1.1640000000000001;0.13809399471906345
57:20.8;-0.8775805666660746;0.644554209058789;-0.194497514051216;1.145;0.11001717806980825
57:20.9;-0.8823791033913307;0.6762527659283601;-0.11868875403739444;1.1179999999999999;0.07082292181677705
57:20.9;-0.8867500579292263;0.7028874381027359;-0.035969269595412016;1.517;0.022419123337526468
57:20.9;-0.8888470373348344;0.7256369859216437;0.04961523724074667;1.123;0.03200084986168597
57:20.9;-0.8870410317211114;0.7458500451685145;0.13350892840771902;1.123;0.08832945277324966
57:20.9;-0.8801110924571562;0.7647363503433066;0.21110668996794624;1.123;0.1420859793377357
57:20.9;-0.8673468871892414;0.783121203591422;0.2782063985619261;1.2209999999999999;0.1889682849194575
57:20.9;-0.848574088060478;0.8013405701733799;0.3313799860356394;1.369;0.22533734452343665
57:20.9;-0.8241104656688129;0.8192794696196747;0.3682473423553088;1.295;0.2486320567776963
57:20.9;-0.7946615795809145;0.8364843481094199;0.38765343759086235;1.222;0.25768175801648163
57:20.9;-0.7611867468534008;0.8522634417117896;0.38974451099467455;1.317;0.25283959449631216
57:21.0;-0.724778599801866;0.8657279059693888;0.37593669664699797;1.225;0.2358856379822641
57:21.0;-0.686572633041775;0.8757844686652652;0.3487586571963236;1.245;0.2097049704417608
57:21.0;-0.6476691375642911;0.8811272822993748;0.31153895644136265;0.992;0.1777887236149261
57:21.0;-0.6090577886977224;0.8802772217656846;0.26794797288559724;0.992;0.14365754529731764
57:21.0;-0.5715634010449717;0.8716950285068218;0.22150684594775055;0.992;0.1103611288491004
57:21.0;-0.535830926246532;0.8539726629137286;0.17524345442647768;1.051;0.08018876960242093
57:21.0;-0.5023412997217942;0.8260927302540281;0.13159931824210233;1.0959999999999999;0.05461115033190948
57:21.0;-0.4714306445575564;0.7877317207096288;0.092528066574555;1.052;0.0343613035646372
57:21.0;-0.4432908648316909;0.7395629339054421;0.0596355417409321;1.072;0.019551005014472662
57:21.0;-0.4179553350866148;0.6834931450123141;0.03425182726845014;1.0090000000000001;0.009784706016075175
57:21.1;-0.39530179157988493;0.6227548865882215;0.01741518913352034;0.943;0.004287203731464467
57:21.1;-0.37511529617806644;0.5617850097943465;0.00980434187027303;0.884;0.0020661096536494237
57:21.1;-0.35723637972258054;0.5058564089615127;0.011668947585638719;0.593;0.0021086991612097547
57:21.1;-0.3417742156956933;0.4605026327350573;0.022792039117020827;0.593;0.003587191768874989
57:21.1;-0.32930928595723025;0.4308690626041476;0.042489536395993135;0.593;0.006028805620029999
57:21.1;-0.3209835653372205;0.421165451589187;0.06963924564443934;0.5660000000000001;0.009414333810380595
57:21.1;-0.31840706597472906;0.43433374955478893;0.10273745319695972;0.556;0.014208069396481532
57:21.1;-0.3233857289103535;0.47193262855713647;0.13998233179314248;0.7190000000000001;0.021363582335600696
57:21.1;-0.3375580430932012;0.5341466074064823;0.17937428345759363;0.696;0.032342166910055155
57:21.1;-0.3620620324557576;0.6197929430602561;0.21882144237148432;0.682;0.04910429593840179
57:21.2;-0.3973114210655597;0.7262480400996847;0.25624695878510423;0.742;0.07393919918754155
57:21.2;-0.4428840699626133;0.8493161586339963;0.28969675311574833;0.7559999999999999;0.10896902724598047
57:21.2;-0.4974839424136047;0.983138877894552;0.3174431656985645;0.867;0.15526012064212713
57:21.2;-0.5589477597241157;1.1202575035478528;0.3380865335951031;0.867;0.21169809695479277
57:21.2;-0.6243060170629673;1.2519210673501733;0.3506675615740009;0.867;0.27407540334560293
57:21.2;-0.6899426603437996;1.3687195034255617;0.3548024207247438;1.187;0.3350533996747582
57:21.2;-0.7519009736870086;1.4615974766966882;0.3508301044115074;2.401;0.3855540633488194
57:21.2;-0.8063367829573627;1.52318063405447;0.339908383557214;3.2880000000000003;0.41747431158999015
57:21.2;-0.8500316493701962;1.5490986988526816;0.3239390961792324;2.9330000000000003;0.42655746962436947
57:21.2;-0.8808091205101062;1.5388112814969326;0.3052361111484529;2.28;0.41371672332054843
57:21.3;-0.8977179035546509;1.4955772421539468;0.2860103564411129;1.58;0.3839993540239268
57:21.3;-0.9009512278187568;1.4256071259353735;0.2679044268053841;1.1520000000000001;0.344097113004447
57:21.3;-0.8915854033168159;1.3367799404561984;0.2517870222191978;1.2570000000000001;0.30009323924436826
57:21.3;-0.871272521861993;1.2373683733066279;0.23783689437914043;1.28;0.2564084032802332
57:21.3;-0.8419901000130624;1.135053822440392;0.2257949503113837;1.28;0.2157931555894394
57:21.3;-0.80587370951771;1.036309276647598;0.21523882225197832;1.262;0.17975334488896363
57:21.3;-0.7651052988707793;0.9461055121869785;0.2057843655515545;1.186;0.14896119879535724
57:21.3;-0.7218242455295438;0.8678567965391438;0.19717997754542102;1.1;0.12352144039322413
57:21.3;-0.6780454979336445;0.8035239201556094;0.18931047251780886;1.031;0.10314122519733292
57:21.3;-0.6355856050071022;0.7538096913269954;0.18215452329996917;0.995;0.08727216089667546
57:21.4;-0.5960051237159948;0.7184016748759331;0.1757374604043085;0.968;0.07524569806175174
57:21.4;-0.5605739349201267;0.6962297233468357;0.17010098909526059;0.945;0.06638841491203738
57:21.4;-0.5302587896110807;0.6857126854775066;0.16529110106679426;0.919;0.060100700328062806
57:21.4;-0.5057265918820517;0.6849757347791288;0.16135477465839343;0.892;0.055894979110240745
57:21.4;-0.4873555861863748;0.6920291101650284;0.15833539876199565;0.892;0.05340086993031871
57:21.4;-0.47524814975454316;0.7049075118743032;0.15626225345494488;0.898;0.05234879103805494
57:21.4;-0.4692409791364873;0.7217732941656343;0.15513466352488112;0.89;0.0525418777243731
57:21.4;-0.4689122966058462;0.7409860487947832;0.1549034608172685;0.8909999999999999;0.05382236457327683
57:21.4;-0.4735924284142639;0.7611400923305313;0.15545382929364607;0.9009999999999999;0.056036470556290824
57:21.4;-0.4823886699416594;0.7810732059163054;0.15659629359743182;0.92;0.05900248694632138
57:21.5;-0.4942323012171194;0.7998538931229127;0.15807348515289935;0.94;0.062488603259787286
57:21.5;-0.5079474724889059;0.8167575104703241;0.15958579902429265;0.9670000000000001;0.0662073465699679
57:21.5;-0.522334279583594;0.8312421745874574;0.16083011750419102;1.023;0.069830230820741
57:21.5;-0.5362542137314564;0.842931690242945;0.161539233775815;1.023;0.07301988050489015
57:21.5;-0.5487063860575286;0.851605587906936;0.1615113310901035;1.023;0.07547124486254465
57:21.5;-0.5588882599004608;0.8571918955219994;0.16062584182840592;1.048;0.07695174275506812
57:21.5;-0.5662415470702947;0.8597593208190307;0.15884765795449043;1.067;0.0773320353220633
57:21.5;-0.5704857617849171;0.8595065801141912;0.15622388377879207;1.07;0.0766022358501693
57:21.5;-0.5716373365631539;0.8567455378285088;0.1528760294817767;1.061;0.07487068953476951
57:21.5;-0.5700071705835966;0.8518761937166999;0.14898683024512438;1.054;0.07234436038050852
57:21.6;-0.566169307567702;0.8453556725472883;0.14477909812520842;1.036;0.06929336636114154
57:21.6;-0.5608979213454193;0.8376655120359859;0.14048668962359476;1.0170000000000001;0.06600694683823204
57:21.6;-0.5550765472834402;0.82928068905999;0.13632211076476322;0.9670000000000001;0.06275101175810555
57:21.6;-0.5495914064149356;0.8206431535345292;0.13244793523607293;0.9670000000000001;0.05973645913352746
57:21.6;-0.545227209602592;0.8121431426376561;0.12895866812026183;0.9670000000000001;0.057103225728800326
57:21.6;-0.5425835442721977;0.804110554312885;0.12587645012179025;0.9590000000000001;0.054919537012459205
57:21.6;-0.542022067179094;0.7968153196104533;0.12315994774455037;0.9570000000000001;0.05319173293270049
57:21.6;-0.5436464739434576;0.7904730141704249;0.12072274893171708;0.961;0.05187913661236622
57:21.6;-0.5473134760916999;0.7852515402763555;0.11845621213524173;0.9640000000000001;0.05090996279484309
57:21.6;-0.5526710943522458;0.7812755411825483;0.1162516109423802;0.9620000000000001;0.050196098055306504
57:21.7;-0.5592174728686183;0.7786272406791995;0.11401691839218167;0.968;0.049645469833126
57:21.7;-0.5663705451683665;0.7773453625996998;0.11168469364101356;0.978;0.049170919364476276
57:21.7;-0.5735387112166901;0.7774247266497367;0.10920997513346449;0.992;0.04869489054053008
57:21.7;-0.580184409427648;0.7788167630786736;0.10656092264104043;0.992;0.04815033545097388
57:21.7;-0.5858738296400919;0.7814288579315647;0.10370835643667962;0.992;0.04747962674696348
57:21.7;-0.5903078978545618;0.7851209777157772;0.10062044443690289;0.991;0.04663386450243131
57:21.7;-0.5933335519817964;0.7897003723407154;0.09726525250608709;0.987;0.04557419109226718
57:21.7;-0.5949381012513939;0.7949173934506296;0.09362024134208954;0.9890000000000001;0.044275506614969505
57:21.7;-0.5952308426521251;0.800466753509644;0.08968689379784192;0.995;0.04273244165467965
57:21.7;-0.5944159411725898;0.8059980950843739;0.08550869448500653;1.0;0.04096705445272091
57:21.8;-0.592760482733394;0.8111373283897172;0.08118870460469602;1.0;0.03903635359159695
57:21.8;-0.5905617593043943;0.8155174678420979;0.07690031585982378;1.008;0.03703622493180472
57:21.8;-0.58811732667426;0.8188161169131928;0.07288535309295781;1.0270000000000001;0.03509866667899349
57:21.8;-0.5856997601981423;0.8207950350081963;0.0694381178330415;1.0270000000000001;0.03338164293551204
57:21.8;-0.5835362547279717;0.8213344351147731;0.06687860831080276;1.0270000000000001;0.03205347373276395
57:21.8;-0.5817924750814164;0.8204536152942438;0.06551953893820853;1.0170000000000001;0.03127468653375705
57:21.8;-0.5805610830807421;0.8183123379895565;0.0656306692079974;1.0;0.031179837835497326
57:21.8;-0.5798577250839596;0.8151919699417222;0.06740405351565282;1.004;0.03186158342273142
57:21.8;-0.5796282971135921;0.8114592885065556;0.07092576161389956;0.993;0.033359560719451384
57:21.8;-0.5797688456695073;0.80751855899494;0.07616032096470332;0.978;0.03565628993700606
57:21.9;-0.5801551620734883;0.8037600023817004;0.08295224498928576;0.9740000000000001;0.03868108927450658
57:21.9;-0.5806757981410275;0.800515717958155;0.09104535294489266;0.9840000000000001;0.04232153128152649
57:21.9;-0.5812608535735709;0.7980342533769254;0.1001158682248771;1.0090000000000001;0.04644035446814401
57:21.9;-0.5818997109473977;0.7964782594444801;0.1098110511878192;1.0090000000000001;0.05089417938954089
57:21.9;-0.5826436798064687;0.7959392035025605;0.11978386125328455;1.0090000000000001;0.055549639455643195
57:21.9;-0.5835927757852997;0.7964574779648039;0.12971725474859241;1.01;0.060293466022750854
57:21.9;-0.5848687215775363;0.7980381961582181;0.13933703122650382;1.005;0.06503522206764274
57:21.9;-0.5865795227584356;0.8006575074707001;0.1484149678457927;0.991;0.06970298555424655
57:21.9;-0.5887842876934203;0.8042580977119277;0.15676386170299136;0.99;0.07423310175795993
57:21.9;-0.5914675174375579;0.8087367788587081;0.16422720565375945;0.9940000000000001;0.07855669361687555
57:22.0;-0.5945285016707261;0.8139309837224827;0.17066892620997937;1.0070000000000001;0.08258757544686843
57:22.0;-0.5977865978901784;0.819611416571255;0.17596838817558233;1.02;0.08621619047415092
57:22.0;-0.6010003725114602;0.8254845181024177;0.18002151947172101;1.043;0.08931164668381343
57:22.0;-0.6038968066562826;0.8312040415236384;0.18274504874158418;1.043;0.09173097263560992
57:22.0;-0.6062040986379265;0.836389507484017;0.18408104925127763;1.043;0.09333327935306562
57:22.0;-0.6076805957280788;0.8406508666213366;0.1840014490155467;1.056;0.09399662860027436
57:22.0;-0.6081356035045961;0.8436199393357252;0.1825136055554037;1.0659999999999998;0.09363592620138371
57:22.0;-0.6074425829489932;0.8449869203602955;0.17966761184253568;1.071;0.09221997820481588
57:22.0;-0.6055477110354658;0.8445358939408719;0.17556467587213126;1.072;0.08978496512413539
57:22.0;-0.6024758120366083;0.8421717754825396;0.17036457346479605;1.068;0.08644096137886179
57:22.1;-0.5983323829718216;0.8379341718074439;0.1642886192700833;1.067;0.08236825963207446
57:22.1;-0.5932978288714302;0.8319975875563825;0.15761304303855087;1.054;0.07780132263768014
57:22.1;-0.5876110409457075;0.8246587291651875;0.15064883620845923;0.9990000000000001;0.07300119826528775
57:22.1;-0.5815442954197969;0.8163124379646812;0.14371042343896584;0.9990000000000001;0.06822247686898443
57:22.1;-0.5753768603254081;0.8074204833330197;0.1370830778915566;0.9990000000000001;0.06368483116913719
57:22.1;-0.5693756896182147;0.7984785973271556;0.1310001779450003;0.987;0.05955717446170897
57:22.1;-0.5637870865097174;0.7899840178203089;0.1256350943213471;0.973;0.055955708553874155
57:22.1;-0.558838246721794;0.7824028821788942;0.12110555996307326;0.961;0.05295178992888498
57:22.1;-0.554745741709716;0.776138027086674;0.11748578783755803;0.955;0.05058459451865198
57:22.1;-0.5517271426550024;0.7715007517366985;0.11482220745090772;0.958;0.048874980306838955
57:22.2;-0.550010288563113;0.7686911667098096;0.11314925015777891;0.953;0.047838150880463476
57:22.2;-0.5498343517407324;0.7677899662294284;0.11250072760913818;0.9520000000000001;0.047493003230422645
57:22.2;-0.5514397921538582;0.7687612563012555;0.112911977765714;0.9570000000000001;0.04786627198129722
57:22.2;-0.5550485343149482;0.7714632987337379;0.11441067225251747;0.9640000000000001;0.04899060103262219
57:22.2;-0.5608377141054364;0.7756627623703093;0.1169986542783854;0.9640000000000001;0.05089686345897422
57:22.2;-0.5689096489918545;0.7810489537583377;0.12062962875258922;0.9640000000000001;0.05360132753322583
57:22.2;-0.5792600854669618;0.7872472837423985;0.12518708905736098;0.973;0.057087932633750005
57:22.2;-0.5917478184373814;0.7938339434973869;0.13046586102708535;0.986;0.06128627354112614
57:22.2;-0.6060699296420433;0.8003544091489557;0.1361605724586866;0.9940000000000001;0.06604750970148815
57:22.2;-0.621747133998855;0.8063471574297394;0.14186478463781815;1.006;0.07112306343273513
57:22.3;-0.6381240250232413;0.8113726241598206;0.1470848141350031;1.0170000000000001;0.07615409867242884
57:22.3;-0.6543897068519274;0.8150468767745448;0.15127233540647014;1.031;0.08068235364704392
57:22.3;-0.669623550818138;0.8170787196927712;0.15387880724125363;1.1079999999999999;0.08419250483243686
57:22.3;-0.6828654095588635;0.8173064855762671;0.15442942480364305;1.1079999999999999;0.08618865693127163
57:22.3;-0.6932005114686965;0.8157271657662457;0.1526042611607301;1.1079999999999999;0.08629198527593421
57:22.3;-0.6998454418308193;0.8125090336559497;0.14830768619522516;1.1079999999999999;0.08433230989027293
57:22.3;-0.7022276742447121;0.807981424103965;0.14171036678149343;1.1179999999999999;0.08040460801326588
57:22.3;-0.7000564232693883;0.8026004829856224;0.1332548358449803;1.12;0.07487131141752836
57:22.3;-0.6933773141502788;0.7968956612550653;0.12361869902375101;1.097;0.06830543466867245
57:22.3;-0.6825950226714643;0.7914065277217003;0.11363307264316692;1.062;0.06138573998256518
57:22.4;-0.6684495748256151;0.7866210184808072;0.10416397872637763;1.03;0.05477113719422479
57:22.4;-0.6519435701635343;0.7829250060429512;0.0959786520371823;1.001;0.048989704176960504
57:22.4;-0.6342303939094065;0.7805706316069543;0.08962771438198017;0.9640000000000001;0.044371241403391146
57:22.4;-0.6164836634456128;0.7796665556843315;0.08536977500259618;0.9640000000000001;0.041033127015302345
57:22.4;-0.5997747366858786;0.7801870556970365;0.08314880760873745;0.9640000000000001;0.038908360838910194
57:22.4;-0.5849817443446004;0.781992687432024;0.08261932632349621;0.9640000000000001;0.03779433032386536
57:22.4;-0.5727388371682467;0.7848562613607023;0.08320984302144382;0.9640000000000001;0.03740429412998985
57:22.4;-0.5634203465951672;0.7884911806755512;0.08421663452093148;0.97;0.037413406155116034
57:22.4;-0.5571511999895258;0.7925802623945549;0.08491761859628856;0.978;0.037498520203328195
57:22.4;-0.553837789702187;0.7968022924645511;0.08468932712874248;0.985;0.03737333404558445
57:22.5;-0.5532147176550392;0.8008534532501235;0.08310541504739993;0.991;0.03681934860840812
57:22.5;-0.5549012404946948;0.8044622269481732;0.07999740021726642;0.9940000000000001;0.03571060647773245
57:22.5;-0.5584594570964949;0.8073984190986936;0.07546646785192093;0.9990000000000001;0.03402777622915779
57:22.5;-0.563445848695164;0.8094783441526725;0.06984715535512866;0.9990000000000001;0.03185709286701217
57:22.5;-0.569448997321691;0.810568398569589;0.06363590199947781;0.9990000000000001;0.029372891762343287
57:22.5;-0.5761094552821173;0.8105886181125402;0.057402163433489174;1.002;0.026806108136476048
57:22.5;-0.583122170115778;0.8095168625549034;0.05169533776771616;1.004;0.024402640978468212
57:22.5;-0.5902258059202301;0.8073927275880406;0.04695651246322657;1.002;0.02237684537099592
57:22.5;-0.5971857096894689;0.8043184730692637;0.043445677597101724;1.001;0.020868153625917533
57:22.5;-0.6037779274968563;0.8004538311666509;0.04119713028673894;0.998;0.019910422913875573
57:22.6;-0.6097802721414504;0.7960033194331513;0.04001297873129843;0.996;0.01942178453899372
57:22.6;-0.6149734981313805;0.7911973337574634;0.03949794852571653;0.997;0.019218334809706396
57:22.6;-0.6191523985311994;0.7862702298143125;0.039130929176817486;0.9990000000000001;0.019049761934353128
57:22.6;-0.6221436783903807;0.7814394653139571;0.038360538590843866;0.9990000000000001;0.01864965187866471
57:22.6;-0.6238254067949011;0.7768897719890595;0.036704643779600386;0.9990000000000001;0.017788669892244726
57:22.6;-0.624143112172245;0.7727648501960597;0.03383232474726897;0.996;0.01631786675819201
57:22.6;-0.623120023169727;0.7691665797933096;0.029613403486919397;0.996;0.014193203736578354
57:22.6;-0.6208611415712757;0.766159848319864;0.024129724490832498;0.9940000000000001;0.01147800027355003
57:22.6;-0.6175513603210581;0.7637804225594347;0.017649134878085254;0.99;0.008324631672057072
57:22.6;-0.6134476193891536;0.7620431311828351;0.01056894604294792;0.9840000000000001;0.004940702670397275
57:22.7;-0.6088651975490164;0.7609479650073789;0.0033416672902463096;0.9790000000000001;0.0015482436884847578
57:22.7;-0.6041588085024732;0.7604828083123965;-0.003600485136336068;0.972;0.0016542514915316756
57:22.7;-0.5996999263412314;0.7606228934929712;-0.009906995878610351;0.963;0.004519031521190866
57:22.7;-0.5958525895719796;0.7613280891685648;-0.01534697493872883;0.963;0.006961991174662204
57:22.7;-0.5929505462691087;0.7625394900133091;-0.019821813811242678;0.963;0.00896239757731675
57:22.7;-0.5912780740701927;0.7641765396158271;-0.02335645175696374;0.9640000000000001;0.010553398608300395
57:22.7;-0.5910551153119696;0.7661354325982669;-0.026075571823592207;0.965;0.011807755985803215
57:22.7;-0.5924262021922071;0.7682890113800152;-0.028171819441418305;0.9670000000000001;0.01282253155256792
57:22.7;-0.5954528307529066;0.7704879647916819;-0.029873255121819795;0.9690000000000001;0.013705528004591893
57:22.7;-0.6001094822247007;0.7725632066682061;-0.03141581717267915;0.972;0.014565079883735049
57:22.8;-0.6062837914279188;0.7743298873419356;-0.03302350615292564;0.973;0.015503336061732485
57:22.8;-0.6137818012241558;0.7755941851516885;-0.03489589607788759;0.976;0.016612037645702467
57:22.8;-0.6223395137565151;0.7761643622673672;-0.037200546424800265;1.0070000000000001;0.017969268311087302
57:22.8;-0.631640422506066;0.7758668251596821;-0.040067163675065916;1.0070000000000001;0.019635668795043176
57:22.8;-0.6413354323649438;0.774566004228497;-0.04358115715943334;1.0070000000000001;0.02164922846641254
57:22.8;-0.6510607592330236;0.7721852804643459;-0.04777625210742456;1.0070000000000001;0.024019010766985375
57:22.8;-0.660453552079275;0.7687260497395504;-0.05262784074569505;1.023;0.026719567881789048
57:22.8;-0.6691692188891949;0.7642821510425;-0.05804947783257602;1.033;0.029688481871675554
57:22.8;-0.6769031908846295;0.7590462310235294;-0.06389404026859025;1.038;0.03282881001532063
57:22.8;-0.6834146443397692;0.7533044169876107;-0.06995973021410301;1.0390000000000001;0.036016617253274354
57:22.9;-0.6885457939069985;0.7474172898923634;-0.07600057433376092;1.035;0.03911225394488101
57:22.9;-0.692230405751381;0.7417878110156071;-0.08174076390269436;1.026;0.04197290770166417
57:22.9;-0.694488377350068;0.7368193981917756;-0.08689112405209433;0.995;0.04446327503338167
57:22.9;-0.695407917590335;0.7328701356401037;-0.09116511644811992;0.995;0.0464617267916633
57:22.9;-0.6951211611157675;0.7302116503518208;-0.0942923023991593;0.995;0.047861412083728475
57:22.9;-0.6937804857739995;0.729000733170397;-0.09602885643183796;0.995;0.04856817696373826
57:22.9;-0.6915405833615352;0.7292676976410942;-0.09616637241617776;0.997;0.04849845270809348
57:22.9;-0.688547984591576;0.730921180528393;-0.09454064414927499;0.9990000000000001;0.04757987704920648
57:22.9;-0.6849376514604255;0.7337670951997445;-0.09104113459333321;1.006;0.04575588231005825
57:22.9;-0.68083503688875;0.7375388794040292;-0.08562081855799483;1.012;0.042993835629009415
57:23.0;-0.676360880227924;0.7419355781757173;-0.07830582681974665;1.014;0.039295132509498454
57:23.0;-0.671635644788952;0.7466634806131115;-0.0692035481000469;1.02;0.034704597252162704
57:23.0;-0.6667815180371236;0.7514762501819879;-0.05850608611367394;1.025;0.02931567235148237
57:23.0;-0.6619214765540703;0.7562075619182959;-0.04648619914909572;1.025;0.02326866819115501
57:23.0;-0.6571758647108711;0.7607898081151776;-0.033486600319353146;1.015;0.016742385975866574
57:23.0;-0.6526572321321125;0.7652542827390045;-0.019906507080673;1.015;0.009942279920045252
57:23.0;-0.648464624534975;0.7697123166943205;-0.006187871371405991;1.006;0.0030885597153128856
57:23.0;-0.6446791530785894;0.7743206086576228;0.007199703808146311;0.9990000000000001;0.0035940082947210268
57:23.0;-0.6413629498372672;0.7792362712467477;0.01977757293758301;0.9940000000000001;0.009884302369830556
57:23.0;-0.6385632704276227;0.7845687799955798;0.031080492237216158;0.992;0.015571227340666467
57:23.1;-0.6363218347410754;0.7903376480580828;0.04067991759155959;1.003;0.020458300836684377
57:23.1;-0.6346857298233551;0.796445319757294;0.048202866624237006;1.03;0.02436618654645751
57:23.1;-0.633711886276332;0.8026722272704284;0.053341925423928835;1.025;0.027133060142263108
57:23.1;-0.6334574222612269;0.808693954654213;0.055856977388683164;1.025;0.028614031874112746
57:23.1;-0.6339558378342247;0.8141128300582856;0.05557576963072798;1.025;0.02868329834447852
57:23.1;-0.6351873810775353;0.8184947163045706;0.05240312628399223;1.024;0.027244255147705343
57:23.1;-0.6370527889467983;0.8214069229077094;0.04634482025010327;1.0290000000000001;0.024251297663114086
57:23.1;-0.6393555907907555;0.8224583670674518;0.037544315115661725;1.034;0.01974242862825003
57:23.1;-0.6417962398215922;0.821343343683114;0.026322552898250817;1.037;0.013875540753498354
57:23.1;-0.6439826645520551;0.8178864912004455;0.01320516910582481;1.046;0.00695522492158395
57:23.2;-0.6454628463721143;0.8120824202357322;-0.0010798589130668432;1.051;0.0005660285994894775
57:23.2;-0.6457817244904926;0.8041220754374006;-0.0156462856737046;1.063;0.00812491807740355
57:23.2;-0.6445562544672506;0.7944000972813844;-0.029536247333093648;1.058;0.015123608685119229
57:23.2;-0.6415533989642389;0.7835015229671667;-0.04183454957093737;1.058;0.02102847374388483
57:23.2;-0.6367524852929297;0.7721689838874005;-0.05178236196658539;1.058;0.025460378635589226
57:23.2;-0.6303770926736844;0.7612509440092455;-0.05886183069310303;1.03;0.02824633023807597
57:23.2;-0.6228886582366923;0.751629645479262;-0.06283656012261475;0.992;0.029418920085648306
57:23.2;-0.6149411449984185;0.7441298440663348;-0.06374733644753461;0.948;0.029170529887915624
57:23.2;-0.6073029376471363;0.7394174983901088;-0.06186997123947119;0.91;0.027782736503653493
57:23.2;-0.6007580457507108;0.7379059454129507;-0.05764664429781632;0.885;0.02555492653599603
57:23.3;-0.5960024174157019;0.7396901926417728;-0.05160654327131198;0.8759999999999999;0.022751113224280403
57:23.3;-0.5935523896627308;0.744526367806086;-0.04429324588703609;0.885;0.019573867685110588
57:23.3;-0.5936806740655849;0.7518639125311638;-0.0362128194496022;0.972;0.016164210273388945
57:23.3;-0.5963888862305556;0.7609240297969992;-0.027808682245791954;0.972;0.012619764503644154
57:23.3;-0.6014153555559321;0.7708043685514643;-0.019460242262687936;0.972;0.009021254239087976
57:23.3;-0.6082699334558012;0.7805867470589838;-0.011496490546775767;1.001;0.005458619345403861
57:23.3;-0.6162880991958521;0.7894334361688771;-0.00421451713028285;1.024;0.0020504402650960147
57:23.3;-0.6246994035229076;0.7966663418999592;0.0021056743477735483;1.041;0.0010479456683546923
57:23.3;-0.6327048135398832;0.80182488519318;0.007196419048518867;1.055;0.0036508762614333038
57:23.3;-0.6395556356797406;0.804697595618233;0.01081111310418272;1.064;0.0055639272754387115
57:23.4;-0.6446259802116381;0.8053242172023705;0.012746338445414633;1.069;0.006617043806006012
57:23.4;-0.6474708627109009;0.8039683267201987;0.012873652646471428;1.061;0.006701329241378308
57:23.4;-0.6478629981865409;0.8010641021359238;0.01117356038897948;1.018;0.005798852034832945
57:23.4;-0.6458046820147871;0.7971458150324047;0.007761927890313705;1.018;0.003995844355764885
57:23.4;-0.6415166568622686;0.7927732004959618;0.002900324019212551;1.018;0.0014750387071614467
57:23.4;-0.6354094288350193;0.7884654737118401;-0.003014670715752546;1.005;0.0015103451939868263
57:23.4;-0.6280415875207337;0.7846509756570249;-0.009484575201432987;0.993;0.004673936482197605
57:23.4;-0.6200676836916406;0.7816340023848516;-0.015961815697338417;0.9840000000000001;0.007736149132979911
57:23.4;-0.6121784797582344;0.7795788252863332;-0.021914325992959196;0.976;0.010458423181180771
57:23.4;-0.605037885169016;0.7785108910658733;-0.026890061545726388;0.972;0.012665987589665667
57:23.5;-0.5992220241543398;0.7783340934364352;-0.030568779228499456;0.97;0.014257123677113995
57:23.5;-0.5951665013658058;0.7788610365742074;-0.03279094601173532;0.97;0.015200308546215261
57:23.5;-0.5931277540872714;0.7798514344849412;-0.0335590315533724;0.981;0.015522781385558251
57:23.5;-0.5931628674717387;0.781052634059349;-0.033013928300016204;0.981;0.015295069724038535
57:23.5;-0.5951296921249826;0.7822359737467445;-0.031396145420586406;0.981;0.014615905793162891
57:23.5;-0.598706968225971;0.7832239529611716;-0.02900344986793013;0.986;0.013600345228982746
57:23.5;-0.6034330932779638;0.7839058636370222;-0.026152834321387704;0.9940000000000001;0.012371199186964842
57:23.5;-0.6087607696387503;0.784242079705352;-0.023149563546027565;1.002;0.011051967678340073
57:23.5;-0.6141220294085266;0.7842585194785476;-0.02026340512168293;1.01;0.00975947259422073
57:23.5;-0.6189952854082247;0.7840332806609652;-0.017711664533887783;1.0170000000000001;0.008595699355500135
57:23.6;-0.6229646130254508;0.7836777307169915;-0.015648843650885126;1.0170000000000001;0.007639820151377458
57:23.6;-0.625761945753722;0.7833146032602336;-0.014162853007165297;1.015;0.006942183993229642
57:23.6;-0.6272855925210887;0.7830560314775895;-0.013277573606058444;0.9990000000000001;0.006521941057407381
57:23.6;-0.6275936148648568;0.7829848159229248;-0.012961124630165497;0.9990000000000001;0.006369048311350932
57:23.6;-0.6268765325753834;0.7831419563578743;-0.013138260667082105;0.9990000000000001;0.006450009851009542
57:23.6;-0.6254169821906022;0.7835223463631281;-0.013704529874856253;0.9940000000000001;0.006715605850713698
57:23.6;-0.6235431381700299;0.7840791099707907;-0.014539940458912617;0.992;0.007108680833557808
57:23.6;-0.6215812974876569;0.7847357257062741;-0.015520438222006086;0.9940000000000001;0.007570513579475083
57:23.6;-0.6198132755631124;0.7854036528129267;-0.016526147278572562;0.997;0.008044988165990844
57:23.6;-0.618444237026232;0.7860017209976654;-0.017446525649286598;1.0;0.008480725318784358
57:23.7;-0.6175847118900942;0.7864727688960207;-0.018183920595610942;0.9990000000000001;0.008832176777940006
57:23.7;-0.6172478781616766;0.7867936801875928;-0.018657324949786405;0.9990000000000001;0.00906086884582157
57:23.7;-0.6173609372433456;0.7869770595991548;-0.018807317329842987;1.003;0.009137514344558475
57:23.7;-0.6177874210560652;0.7870653863815668;-0.01860186047574843;1.003;0.009044951807790705
57:23.7;-0.6183554773777378;0.7871203616694651;-0.0180412135546221;1.003;0.008781022834901824
57:23.7;-0.6188868611436927;0.7872105067117309;-0.017159402950015896;1.004;0.008359962271505025
57:23.7;-0.6192229754933959;0.7873991504834932;-0.01602037107775394;1.004;0.007811142759186212
57:23.7;-0.6192459278965718;0.7877340327001449;-0.014708782795246877;1.005;0.007174960309734485
57:23.7;-0.6188928277391069;0.7882395591493856;-0.013317407810378;1.004;0.006496708422251428
57:23.7;-0.6181615261035747;0.7889127397448339;-0.011934173444393887;1.005;0.005820004039331912
57:23.8;-0.6171069376891152;0.789723370588258;-0.01063198749374954;1.0;0.005181432876783399
57:23.8;-0.6158288329212521;0.7906182581700612;-0.009463431571916993;1.001;0.004607607794449393
57:23.8;-0.6144537158318014;0.7915287545543553;-0.008460939160893565;0.998;0.004115043624435419
57:23.8;-0.613114419800232;0.7923806155990131;-0.007641419411477063;1.001;0.003712354236307075
57:23.8;-0.6119310840435652;0.7931048260994613;-0.007012908612434626;1.001;0.003403543350699031
57:23.8;-0.6109963388265206;0.7936475738669176;-0.006580498270659295;1.002;0.003190987332935551
57:23.8;-0.610366212892525;0.7939775150982431;-0.00634966134594832;1.002;0.0030771541437011486
57:23.8;-0.6100570094404428;0.7940891131778666;-0.006326440845358025;1.001;0.0030647786599033023
57:23.8;-0.610047484907863;0.794001881546581;-0.006515046838354166;1.001;0.003155750900793328
57:23.8;-0.6102851068125789;0.7937563174513176;-0.0069139272771891564;1.001;0.0033492284659665844
57:23.9;-0.6106950372306947;0.7934076794556144;-0.007511444012159034;1.0;0.003639520961307958
57:23.9;-0.6111907996434875;0.7930185288403286;-0.008282258169023527;1.001;0.004014291508321953
57:23.9;-0.6116858515736145;0.7926507428623121;-0.00918543405268718;1.002;0.004453587503947367
57:23.9;-0.6121049299218745;0.792357893288428;-0.010164829918414262;1.002;0.004930005255327438
57:23.9;-0.6123933016504604;0.7921791421829756;-0.011151765694880834;1.002;0.005410002567320564
57:23.9;-0.61252193360005;0.7921356646422563;-0.012069796226566723;1.003;0.005856270789626051
57:23.9;-0.6124875909393909;0.7922299788403506;-0.012841565439882423;1.0;0.006231126040743445
57:23.9;-0.6123084019840882;0.7924478292711749;-0.013397482170081196;1.0;0.0065007593099198945
57:23.9;-0.6120166104756914;0.7927618711390774;-0.01368513067885537;1.001;0.006639798687774372
57:24.0;-0.611650592573012;0.793136341259669;-0.013677445184954905;1.0;0.006635233845733811
57:24.0;-0.6112478274403803;0.7935319369813041;-0.013377488215409976;1.001;0.0064886793901071695
57:24.0;-0.6108398014980221;0.7939102944146308;-0.012818525156832404;1.001;0.006216369497066941
57:24.0;-0.6104490722800371;0.7942378154927942;-0.01205954744025043;1.002;0.005846971936050466
57:24.0;-0.6100881556370771;0.7944888205392773;-0.011177654803780426;1.002;0.005417901154740146
57:24.0;-0.6097598093534828;0.7946478785830616;-0.010259206254217935;1.002;0.004971040312580778
57:24.0;-0.6094584858157697;0.7947109958529448;-0.009391208174945933;1.002;0.004548569323731652
57:24.0;-0.6091727808898497;0.7946854309898347;-0.008653422654720317;1.003;0.004189128258145573
57:24.0;-0.6088885435301372;0.7945881367527929;-0.008111090282930136;1.001;0.003924272119716687
57:24.0;-0.6085921126238978;0.7944430550564842;-0.007808522982625986;1.001;0.0037753566544596233
57:24.1;-0.6082730665786029;0.7942777254353516;-0.007764606198108771;1.001;0.0037513743508413916
57:24.1;-0.6079259676398607;0.7941197733755907;-0.007971447514907182;1.0;0.0038483440832883806
57:24.1;-0.607550809667688;0.7939937362329329;-0.008396653606147315;0.998;0.004050474641407812
57:24.1;-0.6071521902945868;0.7939185851945173;-0.008988585704307044;0.998;0.004332762645053217
57:24.1;-0.6067375985793703;0.7939062912023587;-0.00968321617597012;0.998;0.004664335480090431
57:24.1;-0.6063154683972588;0.7939616373305133;-0.010411162535442853;0.998;0.005011842255663809
57:24.1;-0.6058935788905924;0.7940832107242062;-0.01110395005403151;0.998;0.005342442584331282
57:24.1;-0.6054780680080994;0.7942653286968634;-0.011699190413127166;0.9990000000000001;0.005626260430836133
57:24.1;-0.6050730803689971;0.7945005279653605;-0.012144729505203728;1.0;0.0058383465243901705
57:24.1;-0.6046809908761294;0.7947820887772103;-0.01240178638157923;0.9990000000000001;0.005960169816503875
57:24.2;-0.6043031189727622;0.7951060781515261;-0.012446919636935363;0.9990000000000001;0.005980559214114942
57:24.2;-0.6039408420351631;0.7954726873527392;-0.012272547757409444;1.001;0.005895958305087614
57:24.2;-0.6035969339821305;0.795886813825187;-0.01188585503439403;1.003;0.0057099034349002275
57:24.2;-0.6032766854791762;0.7963575679382492;-0.011306233195775428;1.0;0.0054317852572358565
57:24.2;-0.6029881736652737;0.7968961629459947;-0.010561734781894464;1.0;0.005075113833213315
57:24.2;-0.6027412748572578;0.7975120763319062;-0.009685171929197402;1.0;0.0046555986658970774
57:24.2;-0.6025454341230958;0.7982081237874145;-0.0087104163030906;0.996;0.004189332736421083
57:24.2;-0.6024065071755867;0.7989756434702843;-0.007669292986939538;0.993;0.0036912930406672938
57:24.2;-0.6023233788781456;0.7997914243649127;-0.006589565416634622;0.996;0.003174411598688834
57:24.2;-0.6022856324273437;0.8006180693751964;-0.005494739412755442;1.0;0.0026495675221865265
57:24.3;-0.6022737535588957;0.8014084247856362;-0.004406091994487498;1.003;0.0021266763508572192
57:24.3;-0.6022627093308498;0.8021128837166086;-0.0033462785248974374;1.008;0.0016165291929361055
57:24.3;-0.6022282967163151;0.8026872544960503;-0.002342813193334958;1.011;0.0011325181890958825
57:24.3;-0.6021540369345156;0.8030991621807368;-0.0014295672399817876;1.006;0.0006913235675105151
57:24.3;-0.6020358562883046;0.8033319577609775;-0.0006454720924211374;1.006;0.00031217266503257663
57:24.3;-0.6018830547952334;0.8033860127461762;-3.111236023285971e-05;1.006;1.5044208417949805e-05
57:24.3;-0.6017158793411364;0.8032777555631336;0.00037539611276699904;1.004;0.00018144582700929839
57:24.3;-0.6015608514510786;0.8030369060747061;0.0005422215006851151;1.003;0.0002619339577795996
57:24.3;-0.6014451305273003;0.8027023378429314;0.00044687519730750714;1.0;0.00021574303890410656
57:24.3;-0.6013913413168273;0.8023170961656799;7.836539684516673e-05;1.001;3.7811817633543066e-05
57:24.4;-0.6014140862067126;0.8019233042440687;-0.0005614188171787951;1.002;0.00027076554234740295
57:24.4;-0.6015184523593434;0.8015577087957373;-0.0014568657591130093;1.001;0.0007024303788720789
57:24.4;-0.6016998386709019;0.8012483436457494;-0.002578570451681508;1.0;0.001243157176727895
57:24.4;-0.6019441821732782;0.8010125247443973;-0.003884764226083961;1.001;0.0018730966792327897
57:24.4;-0.6022282280754162;0.800856238548978;-0.005324701063502338;1.001;0.002568093916760184
57:24.4;-0.602520252893939;0.8007747189329661;-0.006843555894862508;1.001;0.003301899284123678
57:24.4;-0.6027819752190944;0.8007537737912546;-0.008387796422325625;1.001;0.004048621085855201
57:24.4;-0.6029721384279003;0.8007715580038907;-0.009910090576304164;1.002;0.004785017256862389
57:24.4;-0.6030517479017197;0.800800763124143;-0.011373144928117838;1.004;0.005492368052334641
57:24.4;-0.60299036022652;0.8008112338503052;-0.012751978453722397;1.005;0.0061576939018645836
57:24.5;-0.6027721358013237;0.8007728985474111;-0.014034136967621094;1.0070000000000001;0.00677404761898434
57:24.5;-0.6024000084380351;0.8006587210898941;-0.015217776224790007;1.003;0.007339789441394562
57:24.5;-0.601896825246187;0.8004472045722222;-0.01630846022682288;1.003;0.007857198112890314
57:24.5;-0.6013033808408386;0.8001240882033225;-0.017316094418407695;1.0;0.008331072927829591
57:24.5;-0.6006741550337089;0.7996832797104513;-0.01825290911740591;1.0;0.008767768071472249
57:24.5;-0.6000719175137315;0.7991273040857161;-0.019132291982014278;1.0;0.009174581704254552
57:24.5;-0.5995621872669895;0.7984674112814454;-0.019967681170082328;1.0;0.009559145329900974
57:24.5;-0.5992079678530184;0.7977231677955111;-0.020771007483158008;1.0;0.009928584745002474
57:24.5;-0.5990646881071643;0.7969211209539254;-0.02155063666554115;0.997;0.010288431323478196
57:24.5;-0.5991752905023501;0.7960921994838008;-0.022309048857262512;0.995;0.010641388973928047
57:24.6;-0.5995658133903657;0.7952679705344665;-0.023040820140952593;0.992;0.010986219890599364
57:24.6;-0.6002422538882624;0.7944764494619112;-0.023731711146237778;0.991;0.011317138890670894
57:24.6;-0.601189773685687;0.7937384792384747;-0.024359466809724662;0.993;0.011624032013476216
57:24.6;-0.6023751203135076;0.7930655722163814;-0.024896377167088566;0.998;0.011893571229564172
57:24.6;-0.6037520366923822;0.7924595981253738;-0.025313081061280877;0.998;0.012111020759974242
57:24.6;-0.6052678610539811;0.7919141181137694;-0.025582790170197572;0.998;0.012262347190424424
57:24.6;-0.6068690238092724;0.7914168287235916;-0.025685238811144383;0.9990000000000001;0.012336269809995254
57:24.6;-0.6085042836057447;0.7909525307245334;-0.02561006637902339;0.9990000000000001;0.012326073806834035
57:24.6;-0.6101259311639974;0.7905061576512931;-0.02535955868362837;1.0;0.012231125777635353
57:24.6;-0.6116896559556255;0.7900656032577299;-0.024950497061405393;0.9990000000000001;0.012057950395454747
57:24.7;-0.6131536655793708;0.789624262573108;-0.024414599377280608;1.0;0.011820597118326
57:24.7;-0.6144776679462325;0.7891831899718538;-0.02379709161240168;1.002;0.011540053238281717
57:24.7;-0.6156224591817102;0.7887525350613099;-0.023153288883381196;1.001;0.011242629894183823
57:24.7;-0.6165506501555261;0.7883517326282882;-0.022543435828460676;1.002;0.010957434764821153
57:24.7;-0.6172284189729157;0.788008213966357;-0.022026438962784608;1.002;0.010713242819822165
57:24.7;-0.6176276026102714;0.7877550082820082;-0.02165341629104009;1.002;0.01053523664522135
57:24.7;-0.6177274458171643;0.7876278283239565;-0.02146188064019204;1.002;0.010442048955216063
57:24.7;-0.6175158343667599;0.7876619017402994;-0.02147101919047504;1.0;0.010443368390648482
57:24.7;-0.6169903215352346;0.7878884924538676;-0.02167844603319642;1.0;0.010538316956991717
57:24.7;-0.6161593080675098;0.7883311990333282;-0.02205900591071431;1.0;0.010714888724554488
57:24.8;-0.6150433969974662;0.7890024979194961;-0.02256628357765722;0.9990000000000001;0.010950757955800482
57:24.8;-0.6136765095096667;0.7899012038960712;-0.023137104295103326;1.001;0.011215568173159923
57:24.8;-0.6121060801477863;0.7910113987741957;-0.02369847580683499;1.002;0.011474396425498147
57:24.8;-0.6103916874797453;0.7923029213258775;-0.02417560654114562;1.002;0.01169168878940488
57:24.8;-0.6086018325862164;0.7937329410708546;-0.02449948652297764;0.9990000000000001;0.011834901357763983
57:24.8;-0.6068091386917286;0.7952479943072568;-0.024613059010645245;0.9990000000000001;0.011877370066763437
57:24.8;-0.6050847061510788;0.7967863501913053;-0.024475703406212718;0.9990000000000001;0.01180030529459629
57:24.8;-0.6034923784439257;0.7982811644083523;-0.024066187988078924;0.9990000000000001;0.01159404486582227
57:24.8;-0.6020834813550189;0.7996648946285733;-0.023384397999408824;0.998;0.011258769736419545
57:24.8;-0.6008928031517973;0.8008748719666366;-0.022452095002780857;1.001;0.010804845004459345
57:24.9;-0.5999369761581064;0.8018592626954759;-0.02131273583151887;1.005;0.010252811718155248
57:24.9;-0.5992160250624771;0.8025822618454578;-0.02002991555773253;1.006;0.009632790049167438
57:24.9;-0.5987174601920005;0.8030273507013871;-0.018683430462371878;1.0070000000000001;0.008982741062958747
57:24.9;-0.598420956307657;0.8031979760313293;-0.01736193625690978;1.0;0.008345023358842898
57:24.9;-0.5983016170385378;0.8031159428927744;-0.016152432694545575;1.0;0.007761333835202852
57:24.9;-0.5983311959540039;0.8028185886766508;-0.015128799725047912;1.0;0.007267140223512522
57:24.9;-0.5984780611191902;0.8023559213044262;-0.014342439266103697;1.0;0.006887130564098036
57:24.9;-0.5987069451287035;0.8017883926205707;-0.01381690157363083;1.0;0.0066326140212782355
57:24.9;-0.5989790074363953;0.8011853281813147;-0.013546668129202433;1.001;0.00650095381824753
57:24.9;-0.5992523148647831;0.8006236388631255;-0.013499487827922076;1.002;0.006476724452826548
57:25.0;-0.5994825949017057;0.8001863089748015;-0.01362163704466448;1.001;0.006534268844727624
57:25.0;-0.5996238735698105;0.7999602042915469;-0.013845538744809876;1.001;0.006641362070488112
57:25.0;-0.5996285933316018;0.8000329317822873;-0.014099148543013727;0.9990000000000001;0.006763680500022788
57:25.0;-0.5994472983694377;0.8004886585657571;-0.014316392374650006;1.0;0.006869731815157966
57:25.0;-0.5990287674135308;0.8014027746065053;-0.014447629616634839;1.0;0.006935776986064783
57:25.0;-0.5983218717044082;0.8028351565229215;-0.01446867644729691;1.0;0.006950084197432566
57:25.0;-0.5972800099342778;0.8048219331226594;-0.01438680495491823;1.001;0.006915795440195992
57:25.0;-0.5958679909253016;0.8073662622284178;-0.014242633635543667;1.001;0.006851899066801449
57:25.0;-0.5940702053956356;0.8104294337337061;-0.014107589112885687;1.004;0.006792126713638054
57:25.0;-0.5918983144746063;0.8139240858808463;-0.014077170815420564;1.004;0.006781821958371353
57:25.1;-0.5893968759176461;0.8177111275663983;-0.014260257311292435;1.004;0.0068728220485278855
57:25.1;-0.586646096112421;0.8216014371892325;-0.014763977755071718;1.0070000000000001;0.007116078944432166
57:25.1;-0.5837612369813717;0.8253633168230682;-0.01567329752786229;1.005;0.0075516315847952735
57:25.1;-0.5808877266640047;0.8287369864432846;-0.017026259170733072;1.016;0.008196494696327342
57:25.1;-0.5781908440544765;0.831456765957724;-0.018789314883287646;1.016;0.009032788188539764
57:25.1;-0.5758397123906457;0.8332794225584077;-0.020839471258180427;1.016;0.009999515673250763
57:25.1;-0.5739859781884714;0.8340155971987836;-0.022959462366557454;1.016;0.010990999040207077
57:25.1;-0.5727371165056555;0.8335618912186719;-0.02485010101679321;1.023;0.01186373230165125
57:25.1;-0.572124828015326;0.8319313390262059;-0.02616176458129614;1.023;0.012452177787909566
57:25.1;-0.5720728555710229;0.8292767813570668;-0.026544126560645673;1.01;0.01259271245141976
57:25.2;-0.5723742005291437;0.8258980283137335;-0.02570829002429893;1.014;0.012152892881304918
57:25.2;-0.5726902555128903;0.8222244780450715;-0.02348881818126409;1.001;0.011060413446676494
57:25.2;-0.572580752820494;0.8187704014687348;-0.01988805000669127;0.982;0.009323759937587387
57:25.2;-0.5715647872524954;0.8160683525008988;-0.015086237288954795;0.993;0.007036763184653521
57:25.2;-0.5692021285437735;0.814594687012955;-0.009412217630741779;0.993;0.004364153816625159
57:25.2;-0.5651746466058623;0.8147050229098692;-0.0032865871111630515;0.993;0.0015133110842299338
57:25.2;-0.5593460616314117;0.8165934884834157;0.002841492832163728;0.986;0.0012978755824917582
57:25.2;-0.5517860045101256;0.8202816673380375;0.008548994712404017;0.995;0.0038694455062180354
57:25.2;-0.5427550248796371;0.8256364860433014;0.013481112417453695;0.997;0.006041133873218647
57:25.2;-0.5326544323539909;0.8324113947722174;0.01738039571342676;1.005;0.0077062522720873095
57:25.3;-0.521949338659513;0.8403006137349456;0.02010183623931366;1.004;0.00881655179143168
57:25.3;-0.5110786720125904;0.8489924354094227;0.0216137073310956;0.985;0.009378229248424809
57:25.3;-0.5003726356083369;0.8582072573388618;0.02198699296528032;0.9740000000000001;0.009441729874134946
57:25.3;-0.49000081540929286;0.8677116535977141;0.021378197336027416;0.99;0.009089569497010333
57:25.3;-0.4799658475182576;0.8773095903583286;0.020009260025829218;0.99;0.008425472020537072
57:25.3;-0.4701398016618359;0.8868200275038156;0.018146284245316245;0.99;0.007565719254562511
57:25.3;-0.4603264172707055;0.8960528818647984;0.01607798483036125;0.991;0.006631795938976295
57:25.3;-0.4503309015810167;0.9047936651431976;0.01409391760025246;1.024;0.005742658998660658
57:25.3;-0.4400232643694766;0.912803179889005;0.012461738119269239;1.018;0.0050053148750328885
57:25.3;-0.4293825658142047;0.9198337985489219;0.011404535780826787;1.03;0.00450434225529775
57:25.4;-0.4185117149757449;0.9256592334182568;0.011082388635550387;1.036;0.0042933088601127285
57:25.4;-0.407620632230185;0.9301108527625189;0.011582528004270079;1.035;0.004391311337410755
57:25.4;-0.3969841333396665;0.9331112691535791;0.012919626862982264;1.038;0.0047858221396647966
57:25.4;-0.38688409910940297;0.9346961723796627;0.015044247752953759;1.0270000000000001;0.0054402871308885875
57:25.4;-0.3775470831861925;0.9350177206336909;0.017855311263395308;0.988;0.006303160800931919
57:25.4;-0.3690916453727619;0.934327386928541;0.021212880832857904;0.988;0.007315313556780138
57:25.4;-0.36149967880563155;0.9329432260469149;0.02494972118452216;0.988;0.008414509947229183
57:25.4;-0.35461927336744103;0.9312114167701128;0.02888166717460983;0.985;0.009537463444707756
57:25.4;-0.3481971107380023;0.9294705191479703;0.03281716584944625;0.9840000000000001;0.0106209130739763
57:25.4;-0.3419309226034017;0.9280230343471997;0.036565745954843236;0.982;0.011603034181524016
57:25.5;-0.33552845350359783;0.9271171255740328;0.03994450799736928;0.995;0.012425704885464788
57:25.5;-0.32875900759670224;0.9269398242823116;0.042782379231789396;1.006;0.01303749440649354
57:25.5;-0.321486806007295;0.9276188673558983;0.044923320409011765;1.008;0.013396908033644713
57:25.5;-0.3136805437957155;0.9292259354512781;0.04623017449450709;0.97;0.013475175734032547
57:25.5;-0.30540107805276673;0.9317745173578562;0.04659045468102563;0.97;0.013258010038867155
57:25.5;-0.2967786437448787;0.9352113091250304;0.045925184730982796;0.97;0.012746569187528383
57:25.5;-0.287995005536087;0.9394055586108822;0.044201886359474515;0.97;0.011958559963575904
57:25.5;-0.2792790252493185;0.9441422030791371;0.04145194134331571;0.973;0.010930011174143606
57:25.5;-0.27091283240188024;0.9491237188138281;0.03778994575444306;0.977;0.009716921003527775
57:25.5;-0.2632392823891126;0.9539845366933648;0.03342862254778853;0.993;0.0083948031137716
57:25.6;-0.2566611801268982;0.9583198397407379;0.028679547317878366;0.995;0.007054121865597773
57:25.6;-0.25162530754921286;0.9617272684449415;0.0239307813771409;1.0;0.00579112751774155
57:25.6;-0.24858634596804716;0.9638572425152606;0.019600379136770627;1.035;0.004696285140887161
57:25.6;-0.24794862550472718;0.9644649175516852;0.016076853837393795;1.0090000000000001;0.0038445826642750426
57:25.6;-0.24999122413183034;0.9634536405120522;0.013664099720732063;1.0090000000000001;0.0032910661231594462
57:25.6;-0.2547918872009097;0.9608998968028322;0.012543855037967504;1.0090000000000001;0.003071105733404922
57:25.6;-0.26216921101828766;0.9570546587017701;0.012760088674906729;1.0;0.0032016372279506087
57:25.6;-0.271658999396598;0.9523205189037454;0.014223402136048256;1.001;0.0036796857209257764
57:25.6;-0.28253709472250155;0.9472048985960099;0.01673026055865637;0.983;0.004477361033057016
57:25.6;-0.2938980628674013;0.9422510928891942;0.019992029199919964;0.9420000000000001;0.0055363080987393875
57:25.7;-0.3047854306497672;0.9379568392262638;0.023671435301071124;0.975;0.006767085276584733
57:25.7;-0.3143425866845581;0.9347016840641281;0.027423993004165616;0.9890000000000001;0.008057622878623022
57:25.7;-0.3219355658066713;0.9327060850305637;0.030937714658299486;0.998;0.009289706599577174
57:25.7;-0.3272100689352342;0.9320309925445945;0.033961801245031294;0.997;0.010357327989439778
57:25.7;-0.33007747591711983;0.9326088692167833;0.03631835308711987;0.997;0.011179994180154248
57:25.7;-0.33065420617090685;0.9342885228162142;0.03789848973004237;0.997;0.011707845128871857
57:25.7;-0.32918859807235057;0.9368778257943787;0.03864979272317805;0.997;0.011919963173040588
57:25.7;-0.3259995900473385;0.9401755479320881;0.03856200849512973;0.9990000000000001;0.01181913387114686
57:25.7;-0.3214356979349149;0.943990418129165;0.037654933303182585;1.0090000000000001;0.011425719964536217
57:25.7;-0.31585244189836925;0.9481486669595783;0.03597068159881521;1.004;0.010772322452409023
57:25.8;-0.3096020245504894;0.9524918332776376;0.03357234645359057;0.996;0.009900263390017577
57:25.8;-0.3030284382501917;0.9568677519485231;0.03054924073354948;0.9890000000000001;0.008858001036326571
57:25.8;-0.29646303705505117;0.9611205386127305;0.02702424042060072;0.983;0.007700198259822537
57:25.8;-0.290217991183389;0.965087488951192;0.023155492897877644;1.02;0.006485523649560268
57:25.8;-0.2845770733092156;0.968607857878427;0.01912774544789873;1.02;0.005272440411993356
57:25.8;-0.27978498731312323;0.9715405740958039;0.015135281260697245;1.02;0.004114109494012009
57:25.8;-0.2760369572042589;0.9737821819599962;0.01136216282573008;1.02;0.0030541478960193743
57:25.8;-0.2734693118909512;0.9752779975375847;0.007964570910007268;1.015;0.0021242195800183147
57:25.8;-0.27215115363948267;0.9760248348835467;0.005057892893789615;1.012;0.0013435092982650432
57:25.8;-0.27207806639883947;0.9760670054305167;0.0027100106327321567;1.013;0.0007196878314175329
57:25.9;-0.27316997797589676;0.9754879826155709;0.0009414668519151276;1.011;0.00025087646682554006
57:25.9;-0.27527499781063686;0.9743997812007719;-0.0002681650644625841;1.0070000000000001;7.192935146041644e-05
57:25.9;-0.27817985430726516;0.9729316548371527;-0.0009699369526479023;1.011;0.00026251342264875765
57:25.9;-0.2816272114056305;0.9712192356022218;-0.0012337023438693173;1.011;0.00033744444256270036
57:25.9;-0.28533949644502304;0.9693946116597827;-0.0011364825472865389;1.011;0.0003143585396647439
57:25.9;-0.2890458743732447;0.967577586644266;-0.0007525240464754207;1.011;0.0002104616431219587
57:25.9;-0.2925065530970207;0.965868541326249;-0.00014702774532100054;1.0090000000000001;4.1538701719857366e-05
57:25.9;-0.29553029780565926;0.9643432115337547;0.0006247408027361199;1.006;0.0001780465284955432
57:25.9;-0.29798433193035706;0.9630495791222372;0.001512525337054289;1.006;0.0004340549703118068
57:25.9;-0.29979712079354004;0.9620074004020261;0.002461774192244111;1.011;0.0007099930296527781
57:26.0;-0.3009547038134917;0.9612107300004193;0.0034033963223396215;1.008;0.0009845375190197288
57:26.0;-0.3014918157642524;0.9606327484967548;0.0042470941574475046;1.005;0.0012300557758335039
57:26.0;-0.30147967948504956;0.9602316794351444;0.0048821781361004886;1.005;0.0014133434034217954
57:26.0;-0.30101259497923594;0.959957239984024;0.005187551095482608;1.0070000000000001;0.0014989907176211554
57:26.0;-0.3001953397618382;0.9597575949535808;0.005049154488895349;1.0070000000000001;0.001454735920169063
57:26.0;-0.2991330158984277;0.9595863406032512;0.004379920178178794;1.0070000000000001;0.0012572296152572478
57:26.0;-0.29792435428443226;0.9594084926247505;0.0031362970003452747;1.0070000000000001;0.0008964513961024004
57:26.0;-0.2966586128781673;0.9592045637526357;0.0013271870620762156;1.0070000000000001;0.00037765943361988227
57:26.0;-0.2954152434684202;0.9589722480883431;-0.0009861576499845016;1.0070000000000001;0.0002793735513219333
57:26.0;-0.294264778745964;0.9587254864330765;-0.003698412711202466;1.006;0.0010433930250748989
57:26.1;-0.2932692634342884;0.9584908783203159;-0.006674011306450444;1.0;0.0018760373075221272
57:26.1;-0.2924812478064749;0.9583018789440911;-0.009763214344058888;1.003;0.002736485747732768
57:26.1;-0.29194142782937993;0.9581917978517056;-0.012817914866986897;1.001;0.0035856307155804246
57:26.1;-0.2916755125749638;0.9581867282346421;-0.01570592080627;0.997;0.004389484544673974
57:26.1;-0.2916908474704669;0.9582993290258888;-0.018322591634267856;0.997;0.005121661699467072
57:26.1;-0.2919736244608049;0.9585244880112886;-0.020598018147551318;0.997;0.005764641050427445
57:26.1;-0.29248802566780974;0.9588380377941037;-0.02249827560309258;1.0;0.006309610898940413
57:26.1;-0.29317841045940934;0.9591991867819228;-0.024021241579122492;1.001;0.006755169311856745
57:26.1;-0.2939747259676428;0.9595563380917194;-0.025189535141147884;1.006;0.007105597867864373
57:26.1;-0.29480043565558056;0.9598551310085991;-0.026043457216342495;1.008;0.007369405382588267
57:26.2;-0.2955816385724879;0.960047074794465;-0.0266352814492896;1.011;0.007558354744391275
57:26.2;-0.2962556806830778;0.9600969807582177;-0.02702471615431599;1.01;0.007686753102218165
57:26.2;-0.2967776228280286;0.9599876121264332;-0.02727506544216243;1.0090000000000001;0.007770743645786056
57:26.2;-0.2971235402634895;0.9597207253167401;-0.027449769005572198;1.003;0.007827455887847034
57:26.2;-0.29729062254168365;0.9593148558985607;-0.027608972015160244;1.003;0.007873949352621937
57:26.2;-0.29729497761380447;0.958801255144993;-0.027805983463499134;1.003;0.007926006542736319
57:26.2;-0.29716838692170405;0.958219599384962;-0.028083875941641395;1.003;0.007996955924814909
57:26.2;-0.2969548549041378;0.9576143636575264;-0.0284726326683185;1.005;0.00809671228100922
57:26.2;-0.29670699653255633;0.9570317490138548;-0.028987246565309526;1.006;0.008231161019240001
57:26.2;-0.29648163090211727;0.9565164194867881;-0.029627232364338136;1.001;0.008401973435703813
57:26.3;-0.29633396215676505;0.9561073611280316;-0.030377987357980807;0.996;0.008606906532494723
57:26.3;-0.2963106760186145;0.9558330652864123;-0.03121412595397002;0.998;0.008840575304875782
57:26.3;-0.29644343810551116;0.9557073437497383;-0.032104350721984656;0.997;0.009095585399644602
57:26.3;-0.29674449441843487;0.9557272776269481;-0.033016879414835935;1.001;0.009363811774402597
57:26.3;-0.297205162951066;0.9558738853826657;-0.033924229396164206;1.001;0.009637556511050489
57:26.3;-0.2977969175302081;0.9561149546874229;-0.03480637292595624;1.001;0.009910351954615346
57:26.3;-0.2984743829247447;0.956408986690598;-0.035651838975003194;1.002;0.010177301663189335
57:26.3;-0.2991798647101479;0.9567095404993202;-0.036457031866880665;1.0;0.010435031734885001
57:26.3;-0.29984940992048514;0.9569699697905792;-0.037224491316018224;1.004;0.010681451670760837
57:26.4;-0.30042031420741266;0.9571488616909818;-0.037960834500226824;1.01;0.010915522626887863
57:26.4;-0.30083928889053985;0.9572158789571654;-0.03867491105589117;1.012;0.011137142369287525
57:26.4;-0.30106955043825073;0.95715654916162;-0.03937644588192645;1.0070000000000001;0.011347137656527938
57:26.4;-0.30109492325724707;0.9569742493932705;-0.040075067685171405;1.003;0.011547233536633911
57:26.4;-0.3009202469518341;0.956688906855565;-0.04077923635338618;1.004;0.011739814548745637
57:26.4;-0.3005689715395832;0.9563334785637999;-0.041494537906006365;1.004;0.011927363012107912
57:26.4;-0.30007935866933116;0.955949524309826;-0.04222122226953092;1.004;0.012111610226912501
57:26.4;-0.29950010816504086;0.9555823980571618;-0.04295147807542612;1.002;0.01229258552710582
57:26.4;-0.29888557253370424;0.9552760607620703;-0.04366749835558665;0.9990000000000001;0.012467866941573065
57:26.4;-0.29829074800441535;0.9550677915397074;-0.044341522843034636;0.998;0.012632362701815461
57:26.5;-0.29776664950683823;0.9549836109712382;-0.04493815495814888;1.001;0.012778715761278415
57:26.5;-0.29735668926736186;0.9550353341953824;-0.045417651431247055;0.997;0.01289798374989533
57:26.5;-0.29709417483939815;0.9552197729092088;-0.04573840824907771;1.001;0.012980113407027373
57:26.5;-0.2970007452056097;0.95552008896177;-0.04585863197911608;1.001;0.01301422935422841
57:26.5;-0.29708570300046017;0.9559088286886339;-0.04573935463785849;1.003;0.012989375078847308
57:26.5;-0.29734626226611566;0.9563518176059502;-0.04535061635141571;1.003;0.012896247670772373
57:26.5;-0.29776856129775375;0.9568121095576657;-0.04467985123112041;1.003;0.012729672311863942
57:26.5;-0.2983292403398095;0.9572535370320461;-0.043739367006417486;1.003;0.012490944987110708
57:26.5;-0.29899756881034306;0.9576437777244626;-0.04257005488564743;1.0070000000000001;0.012189218393227352
57:26.5;-0.29973823147503353;0.957956949335283;-0.04123984109097882;1.005;0.011841456283427686
57:26.5;-0.3005146858274576;0.9581755704931588;-0.039836813026081046;1.0070000000000001;0.011470844212634392
57:26.6;-0.3012926031641838;0.9582915998066331;-0.03845866725663359;1.0070000000000001;0.011104023727083717
57:26.6;-0.30204269385585136;0.9583063196640149;-0.03720149399108238;1.006;0.010767950945546853
57:26.6;-0.3027424286874854;0.9582289480315047;-0.03615065690214992;1.006;0.010487181171663758
57:26.6;-0.3033765678875469;0.9580741119722144;-0.03537495702644562;1.005;0.010281987228398874
57:26.6;-0.30393662304337904;0.9578586936413014;-0.034923789773303605;1.005;0.010167304827895286
57:26.6;-0.30441944205072735;0.9575987388178537;-0.03482630073531663;1.005;0.010152273218897293
57:26.6;-0.3048252353579527;0.9573069309858945;-0.035091509704889265;1.005;0.01024009943607667
57:26.6;-0.3051554802904709;0.9569907880879129;-0.03570874816981503;1.004;0.010428060850174625
57:26.6;-0.3054111120911301;0.9566515495898287;-0.03664833449601964;1.002;0.010707617686398451
57:26.6;-0.3055913335053831;0.9562838118218118;-0.03786301515719894;1.003;0.011064786359259102
57:26.7;-0.3056933454770461;0.9558761455799287;-0.0392910102012485;1.003;0.011481028724462815
57:26.7;-0.305713177639407;0.95541288600539;-0.04086115078195364;1.004;0.011934819282615312
57:26.7;-0.3056475461388554;0.954876951680052;-0.042499711504480696;1.004;0.012403787179596469
57:26.7;-0.30549650768637293;0.9542531750079254;-0.044137738730240274;1.003;0.012867078280284598
57:26.7;-0.30526658058842776;0.9535315530221077;-0.04571737573887504;1.003;0.013307473924962333
57:26.7;-0.30497376191876446;0.9527101030662907;-0.0471958687020822;1.003;0.013712834416732017
57:26.7;-0.30464566228934203;0.951797222829927;-0.04854654473586847;1.003;0.014076599576022291
57:26.7;-0.30432208064062166;0.9508133139847731;-0.049756968142999;1.001;0.014397352185597173
57:26.7;-0.30405363373481564;0.9497912092469365;-0.05082524288287726;1.002;0.014677693226057295
57:26.8;-0.3038982966256251;0.9487749539015113;-0.0517556421197122;0.9990000000000001;0.014922760828776695
57:26.8;-0.3039159437530568;0.9478166511816296;-0.052554517139579496;0.9990000000000001;0.01513867510399367
57:26.8;-0.304161404299208;0.9469713030146247;-0.05322706224260204;0.9940000000000001;0.015331103651283403
57:26.8;-0.3046770713218785;0.9462899997292346;-0.053775169431334174;0.99;0.015504073204331255
57:26.8;-0.30548635397773427;0.9458125042068812;-0.054196425804652844;0.991;0.015659125787036217
57:26.8;-0.30658902524469567;0.945560892165827;-0.05448425557790454;0.991;0.015794908991204015
57:26.8;-0.3079589872063205;0.9455358466137063;-0.05462909566825664;0.991;0.01590724214716839
57:26.8;-0.30954463948854577;0.9457164345490062;-0.05462037845115826;0.9940000000000001;0.015989648939778927
57:26.8;-0.3112721085244916;0.9460633173989774;-0.054449210960354225;0.998;0.016034373721403043
57:26.8;-0.3130515782235066;0.9465246442499727;-0.05411179464911582;1.0;0.016033921808377188
57:26.9;-0.3147863591442347;0.9470433292859256;-0.053613334019307346;1.002;0.015983009925355212
57:26.9;-0.31638339151883627;0.9475642579167985;-0.052971469727384514;1.005;0.015880507267938705
57:26.9;-0.3177631673313657;0.9480402987334673;-0.05221784217461878;1.005;0.015730744433877633
57:26.9;-0.31886701414334834;0.9484364838751479;-0.05139674311416573;1.005;0.015543665675443486
57:26.9;-0.31966059585714596;0.9487320914507179;-0.05056076723830995;1.003;0.01533367843396788
57:26.9;-0.3201339861056027;0.9489206902095856;-0.049764503145885625;1.003;0.015117548503206978
57:26.9;-0.3202996560917117;0.9490085784042356;-0.049058077518655686;1.003;0.014912042599414574
57:26.9;-0.3201896127704397;0.9490122734219824;-0.048482226497188224;1.004;0.014731997083167433
57:26.9;-0.3198521903458304;0.9489555469700395;-0.04806559495006481;1.003;0.014589134232168783
57:26.9;-0.3193482598778773;0.9488661381367591;-0.04782392757147652;1.003;0.014491546756195593
57:27.0;-0.31874629234932067;0.9487721338797294;-0.04776032319362414;1.001;0.014443562313458906
57:27.0;-0.31811605840672214;0.9486981851846166;-0.04786592234949678;0.998;0.014445749994172138
57:27.0;-0.31752156401734155;0.9486620416510827;-0.04812100741035929;0.9990000000000001;0.014495041380500078
57:27.0;-0.31701449660546094;0.9486721168713322;-0.048496854977224856;0.998;0.014585080615321567
57:27.0;-0.3166295654792483;0.9487267174771389;-0.04895844841231029;1.001;0.014706869601148307
57:27.0;-0.316382626542609;0.9488151107905343;-0.049467687097011444;1.001;0.014849636568678964
57:27.0;-0.3162716574562647;0.9489200139448736;-0.049986514824457255;1.001;0.015001778156427005
57:27.0;-0.31627998553224534;0.9490207626617455;-0.050479584518372436;1.003;0.01515176395588654
57:27.0;-0.3163809022838542;0.949096510321681;-0.05091644028022775;1.003;0.015288985545517405
57:27.0;-0.31654275143867633;0.9491290588858114;-0.05127341463877097;1.002;0.01540458078550591
57:27.1;-0.31673370602280654;0.9491051398293895;-0.051535400717955315;1.003;0.015492241736542492
57:27.1;-0.3169257450838904;0.9490181766869652;-0.05169733899695478;1.004;0.01554892038955662
57:27.1;-0.3170975439784722;0.948869583946357;-0.05176482097607957;1.004;0.01557521750460512
57:27.1;-0.31723610316511525;0.9486693365927551;-0.05175313932559351;1.003;0.015575219249658047
57:27.1;-0.3173371515982102;0.9484353131761667;-0.05168458909879958;1.001;0.01555570515432251
57:27.1;-0.3174045358806669;0.9481912381362957;-0.05158447813753825;1.001;0.015524874850296324
57:27.1;-0.3174487949589134;0.9479636341087512;-0.051476766614759396;1.001;0.015490898914997399
57:27.1;-0.3174850566696074;0.9477784334218456;-0.05138032670651036;0.9990000000000001;0.01546062236575112
57:27.1;-0.31753042652372626;0.9476577793890729;-0.05130646486815262;0.9990000000000001;0.015438637521583594
57:27.1;-0.3176011769942831;0.9476174853003247;-0.05125789587632834;0.9990000000000001;0.015426803347334999
57:27.2;-0.31771018103196264;0.9476656275369103;-0.051229111146617094;1.0;0.015424215397708354
57:27.2;-0.31786502636385144;0.9478025257125212;-0.05120795832465791;1.001;0.015427589301486576
57:27.2;-0.31806704931713836;0.9480219173824388;-0.05117804769179282;1.002;0.015431948759205807
57:27.2;-0.3183112460004545;0.9483127607571469;-0.05112141081455296;1.002;0.015431438340717684
57:27.2;-0.3185868236240813;0.9486610100105295;-0.05102092034676095;1.002;0.015420098566824062
57:27.2;-0.3188781030039249;0.9490509295687362;-0.05086233288949049;1.002;0.015392547151399988
57:27.2;-0.3191655215834258;0.9494658835325446;-0.050636090318601695;1.002;0.015344597455252285
57:27.2;-0.3194266090471274;0.949888829800293;-0.05033897282265094;1.002;0.01527383944890721
57:27.2;-0.31963704152474315;0.9503028687527212;-0.04997543649652423;1.003;0.015180138662782935
57:27.2;-0.3197720637317354;0.9506921582110904;-0.04955819950278005;1.004;0.015065930201353432
57:27.3;-0.31980838259098104;0.9510433251958575;-0.04910755909351922;1.0070000000000001;0.014936144025994517
57:27.3;-0.3197261108736874;0.9513471811821005;-0.048649129069071505;1.006;0.01479763158362853
57:27.3;-0.31951007488985694;0.9516001771714602;-0.04821011202908573;1.006;0.014658084195107505
57:27.3;-0.31915022394605397;0.951804920573875;-0.04781471172407315;1.005;0.014524615381970711
57:27.3;-0.31864156797872734;0.9519694268473549;-0.0474796470726338;1.005;0.014402335168270315
57:27.3;-0.31798431729083876;0.9521053159793577;-0.04721080991538321;1.005;0.01429328793080332
57:27.3;-0.3171845832424408;0.9522254347676421;-0.04700198932524918;1.005;0.014196068539289713
57:27.3;-0.31625552093743675;0.9523413794010707;-0.046836275353627756;1.0;0.014106300179447178
57:27.3;-0.3152185388702327;0.9524614753433942;-0.04669005559490117;1.005;0.014017919487563065
57:27.3;-0.31410418818213154;0.952589896806059;-0.04653852907260023;1.006;0.013924908522833358
57:27.4;-0.3129523302112792;0.9527271911710138;-0.04636099032485084;1.005;0.01382290917200159
57:27.4;-0.31181115770860374;0.9528716383622684;-0.04614428160896795;1.004;0.013710204776236069
57:27.4;-0.3107348263439122;0.9530206126183269;-0.04588370836221966;1.004;0.013587849728732013
57:27.4;-0.30977973700867634;0.953171594955183;-0.045581860204106345;1.004;0.013459103821611218
57:27.4;-0.3089997139169327;0.9533228699563954;-0.04524644080693685;1.003;0.013328537902822221
57:27.4;-0.3084406430903224;0.9534738819762562;-0.044888044684904024;1.003;0.013201129430183412
57:27.4;-0.3081355877662056;0.9536251021243983;-0.04451835488414162;1.003;0.013081533001341022
57:27.4;-0.30810147349899397;0.9537773216274426;-0.04414898289956483;1.003;0.012973628864458962
57:27.4;-0.30833790758099816;0.9539304138578032;-0.043791007799564706;1.005;0.012880376458999995
57:27.4;-0.30882797925602307;0.9540816392446787;-0.04345507077126325;1.003;0.012803910786991172
57:27.4;-0.3095404062315711;0.9542235990825483;-0.043151660312898736;1.003;0.01274573872327577
57:27.5;-0.31043225941740865;0.9543421798831483;-0.04289098193707782;1.001;0.012706822225209517
57:27.5;-0.31145166436291954;0.9544152349438522;-0.04268192303802692;1.0;0.012687381459776107
57:27.5;-0.31254036205557434;0.9544130512228612;-0.042530413797777486;1.002;0.012686507735472287
57:27.5;-0.31363670716683195;0.9543014623786399;-0.042438269025198594;1.0090000000000001;0.01270194232723409
57:27.5;-0.31467988487755044;0.954047438848887;-0.04240340902926208;1.0090000000000001;0.012730331877917696
57:27.5;-0.3156153584112256;0.953625549296576;-0.042421355228756896;1.008;0.012767931540738681
57:27.5;-0.31640062081075654;0.9530231993695282;-0.04248710100531003;1.008;0.012811438581058252
57:27.5;-0.3170101177291959;0.9522434888126172;-0.042596419718112635;1.008;0.012858616170470882
57:27.5;-0.3174384870196007;0.9513056463431149;-0.04274615087519034;1.005;0.012908526459016828
57:27.5;-0.317701547905308;0.950243351758798;-0.042933638241943246;1.004;0.012961398498606
57:27.6;-0.31783481496904914;0.9491012926002824;-0.043155917210393045;1.002;0.013018303235541357
57:27.6;-0.31788974466398595;0.9479304850534381;-0.04340910048066001;1.0;0.013080784600610997
57:27.6;-0.31792829047855686;0.9467830395154707;-0.04368794389275681;0.998;0.013150469249006628
57:27.6;-0.3180165392394558;0.9457070858547612;-0.04398543508270303;0.997;0.01322864135534098
57:27.6;-0.31821811388437304;0.9447425452086718;-0.04429240412744356;0.996;0.013315811075328567
57:27.6;-0.31858776198910493;0.943918266474639;-0.04459716414614533;0.996;0.013411295237286274
57:27.6;-0.3191654714271878;0.9432507172594867;-0.044885159677519555;0.996;0.013512814662690385
57:27.6;-0.3199716097700713;0.9427440657156253;-0.04513878197274495;0.995;0.013616173901403477
57:27.6;-0.321003695495749;0.9423912907712831;-0.04533767961963089;0.995;0.013715150741098811
57:27.6;-0.3222353679302947;0.9421759969804337;-0.045459794824478456;0.996;0.013801704132466341
57:27.7;-0.3236179262920463;0.9420747328595032;-0.04548305064103539;0.998;0.013866520961868392
57:27.7;-0.3250844505723857;0.942059586385672;-0.04538732118110075;0.998;0.013899818231683835
57:27.7;-0.32655613388699006;0.942100680783875;-0.04515628666413613;0.9990000000000001;0.013892275420017303
57:27.7;-0.327950121398205;0.9421681950335015;-0.04477908718483282;0.998;0.013836029263537483
57:27.7;-0.32918772185694767;0.9422338715356798;-0.04425199794114861;1.0;0.013725722812052813
57:27.7;-0.33020154430097065;0.942272361662311;-0.043580200317891477;1.0;0.013559534330310598
57:27.7;-0.3309405578492905;0.942262677250158;-0.04277926524412658;1.0;0.0133399838831263
57:27.7;-0.33137313824938525;0.9421895586665255;-0.04187577314006364;1.001;0.013074299405085777
57:27.7;-0.3314887558644565;0.9420443564579625;-0.04090676672068149;1.001;0.012774246960167586
57:27.7;-0.3312986650164331;0.9418251843926592;-0.03991814730976098;1.0;0.012455476930162733
57:27.8;-0.33083551872068767;0.941536326643208;-0.03896220307942284;0.9990000000000001;0.01213647920066544
57:27.8;-0.3301517972836092;0.9411870823799618;-0.03809417697850616;0.9990000000000001;0.011837179105847057
57:27.8;-0.3293170410176985;0.940790397675871;-0.03736776695527613;0.997;0.011577218405828142
57:27.8;-0.32841390040551643;0.940361646909949;-0.03682999129271814;0.996;0.011374126520163598
57:27.8;-0.32753321733924295;0.939917788706352;-0.03651638142775715;0.996;0.01124172494691439
57:27.8;-0.3267687133821185;0.9394769333494728;-0.03644741326853357;0.996;0.011189052221394012
57:27.8;-0.3262118769718425;0.9390581538467075;-0.036626607109722494;0.996;0.011219898987130435
57:27.8;-0.3259472085908348;0.9386811848159944;-0.037040341752861146;0.997;0.01133288192541616
57:27.8;-0.32604760930572374;0.9383655781855336;-0.037659236851783;0.992;0.011521913313267736
57:27.8;-0.3265697605453838;0.9381291284043751;-0.03844069037274725;0.992;0.011776866915195628
57:27.9;-0.32754981881729667;0.9379859743505076;-0.0393318781356865;0.993;0.012084213590008594
57:27.9;-0.32900021617495046;0.937945177239718;-0.04027249874197841;0.9940000000000001;0.012427455439933887
57:27.9;-0.3309082470618926;0.9380103354058089;-0.04119689307357204;0.993;0.012787324284046959
57:27.9;-0.3332365410419033;0.9381803506946226;-0.04203580936761533;0.9990000000000001;0.01314190624399251
57:27.9;-0.3359249986761544;0.9384511502616804;-0.04271846220064829;0.9990000000000001;0.013466961094187338
57:27.9;-0.33889346979634577;0.9388177818578652;-0.04317515156972351;0.9990000000000001;0.013736572356848192
57:27.9;-0.3420446715074719;0.9392760097852971;-0.04334017882301549;1.001;0.013924087963224275
57:27.9;-0.34526768136605884;0.9398227344878105;-0.04315493913480674;1.004;0.014003364170938774
57:27.9;-0.34844278486152297;0.9404550189684654;-0.042571492228890666;1.003;0.013950455177676822
57:28.0;-0.3514479046947287;0.9411679140929035;-0.041556765923480454;1.003;0.013745793441184007
57:28.0;-0.35416625829435716;0.9419516956571926;-0.04009696459212412;1.0070000000000001;0.013376648417695959
57:28.0;-0.35649485583925233;0.9427894161286792;-0.03820144255249688;1.008;0.01283948868228542
57:28.0;-0.3583532992734763;0.9436555150574233;-0.03590527582606333;1.011;0.012141802296671724
57:28.0;-0.35969184257256975;0.9445157459788601;-0.03326974378081655;1.014;0.01130288339523664
57:28.0;-0.360497312503696;0.9453282206838005;-0.030380331934107253;1.014;0.01035326115650316
57:28.0;-0.36079544737943825;0.9460451414515636;-0.02734277627768835;1.014;0.009332876470075186
57:28.0;-0.3606485339608252;0.9466149065441222;-0.024277960256229893;1.014;0.008288380997518201
57:28.0;-0.3601481176669764;0.9469846004751423;-0.021315792138299216;1.012;0.007269851547458378
57:28.0;-0.35940400137127165;0.9471030653719401;-0.018587910052663765;1.006;0.006327187615158169
57:28.1;-0.35853221425015164;0.9469247738375718;-0.0162197514234286;1.015;0.005506654849672604
57:28.1;-0.35764501480903965;0.9464146019984447;-0.01432300730843281;1.012;0.004848058164607037
57:28.1;-0.3568445829060284;0.9455530363092193;-0.012989082770858487;1.014;0.0043827175830462185
57:28.1;-0.35621993536524915;0.944340613813141;-0.012283479940654542;1.014;0.004132076083170856
57:28.1;-0.35584540898349964;0.9428002455817163;-0.012240581685924175;1.01;0.004106606691573371
57:28.1;-0.3557790537881924;0.9409766957950487;-0.012858357730801058;1.002;0.00430471840973034
57:28.1;-0.35605993524072493;0.9389336979221321;-0.01409329992143484;1.002;0.004711625122686709
57:28.1;-0.35670423147626973;0.9367503581570972;-0.01585722994123264;1.002;0.005298579475903298
57:28.1;-0.35770068728348225;0.9345183664775588;-0.018018417062145;1.006;0.006023157931582642
57:28.1;-0.35900635145824816;0.9323398734335872;-0.02040873954488101;0.998;0.006831130365068427
57:28.2;-0.36054398110402097;0.9303244010192826;-0.02283680530023206;0.997;0.007659986621553938
57:28.2;-0.36220297062310386;0.9285834145088655;-0.025105206965061844;0.997;0.008443776635371072
57:28.2;-0.3638453345601476;0.9272225831732916;-0.02702894357158284;0.9940000000000001;0.00911863606234426
57:28.2;-0.36531685750219484;0.9263327602091913;-0.028451443330221697;0.9940000000000001;0.009628109910863844
57:28.2;-0.36646179586711586;0.9259810638296956;-0.029255195852358962;0.996;0.009927361138314614
57:28.2;-0.36713847766279467;0.92620348282655;-0.029366105534853592;0.996;0.009985795497458105
57:28.2;-0.3672333673652606;0.9269999566939557;-0.028752820359733918;0.996;0.009788187946622597
57:28.2;-0.36667226425089633;0.9283322169921093;-0.027422896934157837;0.9940000000000001;0.009334580693481195
57:28.2;-0.36542809732515763;0.9301246931433521;-0.025417294328199967;0.998;0.008639178134166365
57:28.2;-0.3635248370190171;0.9322691480292663;-0.022804586642311858;1.003;0.007728542600964477
57:28.3;-0.3610372684971805;0.9346331174724865;-0.019676216908984016;1.005;0.006639491235145886
57:28.3;-0.35808713996901076;0.9370707269011344;-0.016143421825994955;1.0070000000000001;0.005416973245329431
57:28.3;-0.35483643956092076;0.939433691154703;-0.012335529575865232;1.006;0.004111990883271763
57:28.3;-0.3514777779997417;0.9415810517808786;-0.008398574675839616;1.0070000000000001;0.002779464749805628
57:28.3;-0.3482213222449514;0.9433873993388701;-0.004492542174336802;1.0070000000000001;0.0014758342816751147
57:28.3;-0.3452786280593758;0.9447497316643074;-0.0007858247073961729;1.0070000000000001;0.00025633750571100994
57:28.3;-0.3428453596469769;0.9455927348808351;0.0025528605654232452;1.0070000000000001;0.0008276171798961305
57:28.3;-0.3410853358890119;0.9458720565935749;0.005363595445337817;1.006;0.0017304197260615932
57:28.3;-0.340117164003528;0.9455755178036601;0.007504560153283871;1.004;0.002413515050769604
57:28.3;-0.3400037601543098;0.9447226556427696;0.008861542094471297;1.004;0.002846409336279157
57:28.4;-0.3407454662251908;0.9433629487504949;0.009357199183378451;1.003;0.0030078403102149084
57:28.4;-0.3422782620592148;0.9415726611704184;0.008958635656402054;1.001;0.0028871877919925664
57:28.4;-0.34447864764836666;0.9394499693667355;0.007681557430006576;0.9990000000000001;0.002485909110459508
57:28.4;-0.347175960198797;0.9371082710281111;0.005589699782201842;0.9990000000000001;0.0018185611093687892
57:28.4;-0.35017126285356964;0.9346681500983522;0.0027891838296346333;0.998;0.0009128829272448216
57:28.4;-0.35325975608834315;0.9322490477381894;-0.0005810101410785373;0.998;0.00019134178709896826
57:28.4;-0.35625209187034546;0.9299619782073597;-0.004359798791496339;0.998;0.0014444052638613084
57:28.4;-0.35899061438802676;0.9279041970356889;-0.008373419031670173;0.996;0.0027892603843489316
57:28.4;-0.3613591187307421;0.9261556705995561;-0.012442888208517225;0.996;0.004164321084474577
57:28.4;-0.36328682305142035;0.9247765617869084;-0.016390631349192074;0.991;0.005506582398428737
57:28.5;-0.3647476550781643;0.9238053704045546;-0.02004737040210047;0.9940000000000001;0.006755078585827764
57:28.5;-0.365755692464675;0.9232581381386128;-0.023259307128773634;0.991;0.007854363777242183
57:28.5;-0.36635761049879667;0.9231293112481802;-0.025895056854937062;0.992;0.008757590370880032
57:28.5;-0.36662308558750484;0.9233945076399352;-0.02785199733949925;0.993;0.009428952334220685
57:28.5;-0.3666340802248067;0.9240150264150006;-0.029061911738072665;0.997;0.009845460754171744
57:28.5;-0.36647407878898236;0.9249433680144169;-0.029495528315724922;0.997;0.009998033420548166
57:28.5;-0.36621862856659987;0.9261283470510024;-0.029165120614959312;0.997;0.00989180134907082
57:28.5;-0.36592842676996956;0.9275183690766053;-0.028124253428092865;0.997;0.00954552172940998
57:28.5;-0.3656455424300481;0.9290623818490106;-0.02646415895279449;0.9990000000000001;0.008990073768698283
57:28.5;-0.3653926392856595;0.9307090437315041;-0.02430684387191554;0.9990000000000001;0.008266131308173464
57:28.6;-0.36517466983266106;0.9324050643143076;-0.021795601134052243;0.9990000000000001;0.007421199737949474
57:28.6;-0.36498248806721;0.9340937012611299;-0.01908408667555481;0.9990000000000001;0.006506296509246321
57:28.6;-0.3647978614773136;0.9357145470052346;-0.016325487290379387;1.0;0.005572650652510531
57:28.6;-0.3645991509179242;0.9372058811346545;-0.013663240295757788;1.0070000000000001;0.004668790263208436
57:28.6;-0.36436672529109143;0.9385102073143531;-0.011224010717707171;1.014;0.0038381839284124183
57:28.6;-0.3640872776724272;0.9395818355700406;-0.009112708939592592;1.014;0.0031173647117449382
57:28.6;-0.36375638604550653;0.9403937280071712;-0.007409069481911074;1.014;0.002534451693288595
57:28.6;-0.3633787584930219;0.9409408511288242;-0.006165536499577784;1.013;0.002108107405129423
57:28.6;-0.3629658614205738;0.9412388559317295;-0.005406340417987404;1.006;0.001847009014594794
57:28.6;-0.36253118371785215;0.9413187599158407;-0.005127931043329261;1.0070000000000001;0.0017499444372149654
57:28.7;-0.3620839944573158;0.9412195522594788;-0.005301218355153096;1.006;0.0018066580523483935
57:28.7;-0.3616228751482569;0.9409808292032571;-0.005875609424482126;1.002;0.0019993535084610976
57:28.7;-0.3611306769772727;0.9406368945747232;-0.006784191595038202;1.001;0.0023045413000334046
57:28.7;-0.36057288029676904;0.9402132328620224;-0.007949631340865852;1.002;0.002695047396934842
57:28.7;-0.35990100833335326;0.9397260861551553;-0.00929075122893775;1.008;0.0031422097917207406
57:28.7;-0.3590612353516757;0.9391851855716181;-0.010729287971787526;1.008;0.003618184060701841
57:28.7;-0.35800628034669074;0.9385984799955784;-0.012195549287322081;1.008;0.004097999089912758
57:28.7;-0.3567075483263307;0.9379770205959008;-0.013631708913334825;1.0090000000000001;0.004560944652962016
57:28.7;-0.3551647428494732;0.9373384196855301;-0.014992436057649312;1.0090000000000001;0.0049911252731474585
57:28.7;-0.3534109485142771;0.9367078423826358;-0.01624363396178301;1.006;0.005377338183518466
57:28.8;-0.3515119667093218;0.9361158693707978;-0.017360593476176633;1.001;0.0057126062370428474
57:28.8;-0.34955977581938064;0.9355931883216719;-0.018326594512634527;0.997;0.005993634758773831
57:28.8;-0.34766128150552483;0.9351631881979348;-0.01913209545965436;0.991;0.006220227496214151
57:28.8;-0.34592451576710936;0.9348346585997496;-0.019774047595988813;0.987;0.006394575540454182
57:28.8;-0.34444492151221046;0.9345972554738091;-0.020255103356093367;0.993;0.0065204677442246796
57:28.8;-0.34329433555206434;0.9344216409265373;-0.020582882565927364;0.993;0.006602611161901076
57:28.8;-0.3425147584922604;0.9342643047073569;-0.020769473510753332;0.993;0.006646217248473504
57:28.8;-0.3421179799314893;0.9340753854177779;-0.020831250092576695;0.997;0.006656917270510453
57:28.8;-0.342090622854401;0.9338075302444284;-0.02078899806670976;0.9990000000000001;0.006640978900287383
57:28.8;-0.34240244028051575;0.9334243194561537;-0.020668109288451468;1.0;0.006605667544193447
57:28.9;-0.3430146131840513;0.9329070359689419;-0.02049836964900576;0.9990000000000001;0.006559493581096584
57:28.9;-0.3438853170166756;0.9322587252977431;-0.02031287519464537;0.996;0.0065121064317739405
57:28.9;-0.3449717700379593;0.9315049243043272;-0.020145881938578858;0.995;0.0064737361762973395
57:28.9;-0.3462299820982701;0.9306910279386249;-0.020029758271198884;0.992;0.0064542518599523665
57:28.9;-0.34761420350848227;0.9298768575826355;-0.019991446247559896;0.991;0.0064620031629109755
57:28.9;-0.3490773592404949;0.9291295813569085;-0.02004894991796495;0.991;0.0065026383364657605
57:28.9;-0.35057236323928215;0.9285165286710156;-0.02020849508758762;0.991;0.006578112376947897
57:28.9;-0.3520534658506126;0.9280992413468812;-0.020463029501641267;0.991;0.006686101607538178
57:28.9;-0.35347710391132714;0.92792935069464;-0.020792441714210935;0.995;0.006819957882782562
57:28.9;-0.35480215080360866;0.9280461016683367;-0.021165417735807063;0.9940000000000001;0.006969195364503897
57:29.0;-0.35598940391379114;0.9284749201502083;-0.021542530494302114;0.993;0.007120393004138986
57:29.0;-0.3570001537255234;0.9292264707394204;-0.021880003530822454;0.995;0.007258340935941426
57:29.0;-0.3577941645469654;0.9302960737216749;-0.02213356520049996;0.996;0.00736725692142364
57:29.0;-0.35832799987592867;0.9316636224963345;-0.0222619052670093;0.997;0.007431940331716734
57:29.0;-0.3585548248622672;0.9332940310387151;-0.022229347357413675;1.0;0.007438763842066065
57:29.0;-0.3584263919813559;0.9351380771320985;-0.022007568002177378;1.0;0.007376456302896097
57:29.0;-0.3578970984861732;0.9371335600556949;-0.021576702013182448;1.0;0.007236769368234383
57:29.0;-0.3569293934059201;0.9392070094824422;-0.020926522011860117;1.004;0.007015210282538075
57:29.0;-0.35549975513304843;0.9412765305315364;-0.020058037303722073;1.006;0.006711892172448567
57:29.0;-0.35360464594483154;0.9432562620153057;-0.018985148268720296;1.008;0.0063323024913085075
57:29.1;-0.35126581215185354;0.9450623503729592;-0.017735637305858063;1.012;0.005887665712973125
57:29.1;-0.34853398895821064;0.946619735214871;-0.01635096111277083;1.015;0.005394658739897202
57:29.1;-0.345489791347019;0.9478685744866862;-0.014884586448502015;1.012;0.004874388235618006
57:29.1;-0.3422407137399241;0.9487689842072813;-0.01339867996289766;1.012;0.004350650190232478
57:29.1;-0.338913938439782;0.9493032538475573;-0.011959213776329556;1.0070000000000001;0.003847663016844575
57:29.1;-0.3356459670476974;0.9494755695205609;-0.0106302773477266;1.0070000000000001;0.003387738061296487
57:29.1;-0.3325712855658706;0.949309857064149;-0.009468921691111328;1.0070000000000001;0.0029894635635233945
57:29.1;-0.3298121864898776;0.9488464454301719;-0.008521497149687952;1.003;0.0026667268690066014
57:29.1;-0.3274704453794092;0.9481381208455326;-0.00782166852126588;1.005;0.0024285280579444527
57:29.1;-0.3256205676037513;0.9472459550827624;-0.0073899634724424;0.997;0.00227938077078618
57:29.2;-0.3243047508413802;0.9462351576644903;-0.007234774920157987;0.997;0.0022201249402850967
57:29.2;-0.3235303943966401;0.9451713868985676;-0.0073547101648025245;0.996;0.002249009115249851
57:29.2;-0.32327100153631116;0.9441181983548645;-0.0077419047754261235;0.998;0.0023628760641198824
57:29.2;-0.32347091929079547;0.9431358743663791;-0.008385417835886278;1.0;0.0025581983544043754
57:29.2;-0.32405357199126916;0.9422809392491498;-0.009273435210197899;0.998;0.002831638843506872
57:29.2;-0.3249316229515565;0.9416052786176328;-0.010393385452187386;0.998;0.0031799324767572846
57:29.2;-0.32601674750534204;0.9411543076503366;-0.011730246501629077;0.998;0.003599215772078031
57:29.2;-0.32722725271895436;0.9409643264786709;-0.013264356739638132;0.996;0.0040842170936539225
57:29.2;-0.32849303936002955;0.9410594400863023;-0.014970102703339719;0.996;0.0046277299399501495
57:29.2;-0.32975821531767285;0.941448450690646;-0.016816061234227183;0.997;0.005220552279306579
57:29.3;-0.33098172575357027;0.9421222271535324;-0.01876629541399453;0.998;0.005851804582903624
57:29.3;-0.332136099991977;0.9430520167746208;-0.020782136129954595;1.0;0.006509414323678519
57:29.3;-0.33320428334841273;0.9441889747520501;-0.022823887871682994;0.998;0.007180573394464169
57:29.3;-0.3341747582997313;0.9454651912958668;-0.024852158491938208;1.0;0.00785205443111214
57:29.3;-0.3350357601437046;0.9467966769503359;-0.02682883068169842;1.005;0.00851039335094626
57:29.3;-0.3357699880529003;0.9480885198955368;-0.028717892899697187;1.005;0.009142044577457358
57:29.3;-0.3363513030530435;0.9492416738864528;-0.03048617695230071;1.005;0.009733586150341781
57:29.3;-0.33674445852033685;0.9501605202739294;-0.03210388836173418;1.0070000000000001;0.010272001531252267
57:29.3;-0.3369082378503393;0.9507608412497516;-0.03354506077474667;1.011;0.010745125677525455
57:29.3;-0.3368015975351887;0.9509781460300651;-0.03478819876212696;1.012;0.011142345536585
57:29.4;-0.3363917146654758;0.9507757795154502;-0.03581703473202847;1.013;0.011455473062525742
57:29.4;-0.3356625119019813;0.9501516045444978;-0.036621087581972155;1.016;0.011679573506551261
57:29.4;-0.3346221239333907;0.9491419352900423;-0.03719592500400215;1.013;0.011813570484615428
57:29.4;-0.33330763341392433;0.9478215850723127;-0.03754327697529789;1.014;0.011860528249475921
57:29.4;-0.33178558896372407;0.9462991886988187;-0.0376710990673035;1.001;0.011827535968349125
57:29.4;-0.33014778746082435;0.944707782219747;-0.0375935204292898;1.001;0.011725162788101994
57:29.4;-0.3285031891321475;0.9431919598228129;-0.03733054402673941;1.001;0.01156655424945694
57:29.4;-0.32696749511612005;0.9418936095500311;-0.03690740213079476;0.996;0.011366320749073573
57:29.4;-0.32565156019795094;0.9409375999761291;-0.036353551073114616;0.993;0.011139375050441982
57:29.4;-0.3246495746434618;0.9404181223342786;-0.03570126372585881;0.985;0.010899822283001924
57:29.5;-0.32402835531107294;0.9403869468203748;-0.034983619471571026;0.986;0.010659929906533265
57:29.5;-0.323819374764543;0.9408458693998655;-0.03423192447505909;0.988;0.010429239186455237
57:29.5;-0.32401496470006463;0.9417455299671257;-0.03347345908757423;0.9890000000000001;0.010214079411146599
57:29.5;-0.3245696993905855;0.9429913450284501;-0.03273090284987999;0.996;0.01001783017300024
57:29.5;-0.3254071686918001;0.9444556720242785;-0.03202386638964215;0.9990000000000001;0.0098419795987103
57:29.5;-0.3264310421728908;0.9459942664771307;-0.0313714025180795;1.011;0.009687548524296132
57:29.5;-0.3275380401284525;0.9474643451714652;-0.030793735523630038;1.011;0.009556238874235998
57:29.5;-0.32862997197668814;0.9487410666782777;-0.030312193362289387;1.011;0.009450879634130107
57:29.5;-0.32962270638548086;0.94972966367899;-0.029947409240933733;1.011;0.009375110195685073
57:29.5;-0.33045133499355006;0.9503719995135949;-0.02971642454478659;1.0090000000000001;0.009332493526744706
57:29.6;-0.3310719702812985;0.9506479789738163;-0.02962972138392327;1.008;0.009325448120844376
57:29.6;-0.3314611948796425;0.9505730840890678;-0.029689580844201723;1.0070000000000001;0.009354536433384728
57:29.6;-0.33161443973345367;0.9501932996348297;-0.029890772540237098;1.01;0.00941851722659348
57:29.6;-0.33154435791688003;0.9495782073401512;-0.030223268721983512;1.008;0.00951510999959021
57:29.6;-0.33127925206087666;0.9488125855350815;-0.030675492900333605;1.002;0.00964197993832665
57:29.6;-0.3308607249697059;0.9479870183424294;-0.031236594351405245;1.002;0.00979741005060968
57:29.6;-0.3303399510994645;0.9471886919303293;-0.03189716047944465;1.002;0.009980438621257507
57:29.6;-0.3297726160275068;0.9464938181381282;-0.03264864219552546;1.0;0.010190546982915247
57:29.6;-0.32921286505459374;0.9459625262210027;-0.03348213089851847;0.9990000000000001;0.010427106772176023
57:29.6;-0.3287069913865914;0.9456362780283709;-0.03438710037727083;1.0;0.010688791919515932
57:29.7;-0.3282881301792758;0.9455374495802084;-0.035350392296673826;1.001;0.010973070071577792
57:29.7;-0.3279730687693029;0.9456704946692146;-0.036355410945625465;1.001;0.011275792638375397
57:29.7;-0.32776138109705816;0.9460239991746703;-0.03738161054808067;1.001;0.011590920936471304
57:29.7;-0.32763645990483675;0.9465731195576423;-0.03840463582288856;1.002;0.011910501368227603
57:29.7;-0.3275681440543839;0.9472821686832854;-0.039397436834570906;1.004;0.012225003449667602
57:29.7;-0.32751687286726516;0.9481071668403211;-0.04033235057494339;1.004;0.012524045641328103
57:29.7;-0.3274390455594161;0.9489981758041891;-0.041183741990700816;1.004;0.012797397146748494
57:29.7;-0.32729285633257654;0.949901452191344;-0.04193062419990764;1.005;0.013036061643993697
57:29.7;-0.32704382678930133;0.9507617425992742;-0.042558936415154194;1.0070000000000001;0.013233307976883595
57:29.7;-0.3266694212469749;0.9515250279310307;-0.04306340867708833;1.008;0.013385577178566758
57:29.8;-0.3261622089141601;0.9521416883381818;-0.043448747365364214;1.008;0.013493123036840499
57:29.8;-0.325531083841753;0.9525697967921732;-0.043729683260345216;1.0090000000000001;0.0135601846396207
57:29.8;-0.3248002063364834;0.9527782651496203;-0.043929732385770505;1.01;0.01359460819600751
57:29.8;-0.3240056966615516;0.9527495821027818;-0.044078959373359074;1.008;0.013607011317883366
57:29.8;-0.32319069239869563;0.9524817316158751;-0.044211170872758464;1.008;0.013609667546788445
57:29.8;-0.32239984133855504;0.9519888738947792;-0.04436100016687709;1.005;0.013615325278152748
57:29.8;-0.3216743216191038;0.9513006953668002;-0.04456134297962589;1.005;0.013636172263996878
57:29.8;-0.3210481614291246;0.9504606886104453;-0.04484128802399742;1.004;0.013683034593805043
57:29.8;-0.3205461948090255;0.9495236757745833;-0.04522426039721945;1.004;0.013764736336948183
57:29.8;-0.32018353002959854;0.9485526862203862;-0.04572608097503203;1.002;0.013887511378073255
57:29.9;-0.3199660271439088;0.9476151699722473;-0.046352989442005194;1.002;0.01405444245924613
57:29.9;-0.3198910996643268;0.9467786418718313;-0.04709996635343854;1.001;0.01426498127737984
57:29.9;-0.3199482891107218;0.9461059938936419;-0.04794977092375246;0.998;0.014514635122828813
57:29.9;-0.32011958026603715;0.9456507626720875;-0.04887311871546904;0.996;0.014794935265418039
57:29.9;-0.3203800050271667;0.9454528009550539;-0.04983047252110509;0.9990000000000001;0.015093858075330173
57:29.9;-0.32069905268535215;0.9455350076181228;-0.0507756674995562;0.9990000000000001;0.015396816408993428
57:29.9;-0.32104266217127253;0.9459016488536854;-0.05166067975555006;0.9990000000000001;0.015688045740238972
57:29.9;-0.32137501052377293;0.9465384032895434;-0.05244011935731613;1.001;0.01595195861960762
57:29.9;-0.3216596367086795;0.9474138858203207;-0.05307456756486049;1.004;0.016174198813374892
57:30.0;-0.3218601262956765;0.9484820628344413;-0.05353297141805471;1.003;0.01634246824143021
57:30.0;-0.32194075999340194;0.9496848370020099;-0.053794538030440195;1.003;0.01644726353510336
57:30.0;-0.3218672440610296;0.9509545467100123;-0.05385003603135477;1.002;0.01648247929619116
57:30.0;-0.32160754036502837;0.9522169264262222;-0.05370213089435049;1.005;0.016445748276813093
57:30.0;-0.3211331043005428;0.9533953925366494;-0.05336461682923928;1.006;0.016338475143517082
57:30.0;-0.32042107950070764;0.954417045338986;-0.0528607452603516;1.012;0.016165626782407055
57:30.0;-0.3194577024706509;0.9552198692150061;-0.05222109468955719;1.012;0.015935389491169957
57:30.0;-0.31824243692268694;0.9557598208570498;-0.05148160534110579;1.012;0.015658816746084124
57:30.0;-0.31679176148899035;0.9560163294308137;-0.05068231842494753;1.015;0.01534955051036758
57:30.0;-0.31514140100181914;0.9559951878125459;-0.04986683221136917;1.01;0.015023563194459268
57:30.1;-0.31334610216225944;0.9557283708480245;-0.049081852747107635;1.008;0.014698726976745274
57:30.1;-0.31147676209116854;0.955270807350563;-0.048376080409495724;1.008;0.014394044300522513
57:30.1;-0.3096154776025486;0.9546945974724693;-0.0477981171620712;1.006;0.014128560551057342
57:30.1;-0.30784934310742373;0.954081330440247;-0.04739353775420992;1.003;0.013920112886545407
57:30.1;-0.3062635690636104;0.9535130722972501;-0.04720142683127121;1.003;0.013784058819131272
57:30.1;-0.3049342205292947;0.9530626698005259;-0.04725082644203028;0.996;0.013732102386907134
57:30.1;-0.3039210015841208;0.9527843424967244;-0.0475577086697106;0.996;0.013771341421203783
57:30.1;-0.30326097083775694;0.9527059524169594;-0.04812301111086236;0.996;0.013903629728114642
57:30.1;-0.3029642569529929;0.9528245092517836;-0.048932033637826944;0.995;0.014125296733119552
57:30.1;-0.30301243533792904;0.9531060708377569;-0.04995528608333157;0.997;0.014427236070092999
57:30.2;-0.3033598063502674;0.9534903994892722;-0.05115069976843857;1.001;0.01479537381816779
57:30.2;-0.30393775089376873;0.9538997745196263;-0.052467066928871736;1.004;0.015211574823805077
57:30.2;-0.3046620835610722;0.9542503860140272;-0.05384862137471589;1.008;0.01565508179950703
57:30.2;-0.3054425354878419;0.9544641629598606;-0.055240509435196296;1.008;0.016104484134779815
57:30.2;-0.30619272610545156;0.9544789727581936;-0.05659445084844132;1.01;0.016539983992622728
57:30.2;-0.3068388422077439;0.954255689478181;-0.057873529612378675;1.006;0.016945526361571123
57:30.2;-0.30732579152474304;0.9537815117793867;-0.059055164787543045;1.006;0.017310347818897252
57:30.2;-0.307620492075577;0.9530699111047539;-0.06013180212029136;1.006;0.01762967235328121
57:30.2;-0.3077126879572986;0.9521581430356273;-0.06110938624497716;1.003;0.017904508835575452
57:30.2;-0.30761393228436346;0.9511030838067337;-0.062004090903165596;1.002;0.018140695582299884
57:30.3;-0.3073552480676378;0.9499758055183838;-0.06283805152077775;1.002;0.018347457384933853
57:30.3;-0.30698366321026466;0.9488552264816822;-0.063634862474504;1.0;0.018535757036725192
57:30.3;-0.30655747955058366;0.9478211494477655;-0.06441542739818638;0.998;0.018716653684447436
57:30.3;-0.30614004933543376;0.94694696490942;-0.0651945328173449;0.995;0.01889979013676009
57:30.3;-0.3057922002913708;0.9462924934748896;-0.06597836546034144;0.993;0.01909208464196937
57:30.3;-0.3055641566147852;0.9458977764581965;-0.06676312536535715;0.992;0.019296710115098006
57:30.3;-0.30548842570526563;0.9457787436983833;-0.06753483175983797;0.992;0.019512464762143657
57:30.3;-0.3055752460598856;0.9459254529520771;-0.06827038455097705;0.992;0.019733650440549793
57:30.3;-0.30581174732651506;0.9463031926167765;-0.06893996929875396;0.9940000000000001;0.019950581342977825
57:30.3;-0.3061651324748231;0.9468564149162181;-0.06951082634004821;0.997;0.020150800665234295
57:30.4;-0.3065891713343939;0.9475151801966474;-0.06995200028981287;1.0;0.020320908759909145
57:30.4;-0.3070324843225108;0.9482033480592192;-0.07023909650018861;1.003;0.020448654051727494
57:30.4;-0.30744693506723986;0.9488472547470861;-0.07035787796153575;1.003;0.020524812845798324
57:30.4;-0.30779488121970555;0.9493834814368117;-0.07030599395398857;1.004;0.020544492451343717
57:30.4;-0.30805454384094005;0.9497647125806391;-0.07009283589555969;1.004;0.02050771533493145
57:30.4;-0.30822301833821125;0.949963261797083;-0.06973798588621688;1.004;0.020419320195290563
57:30.4;-0.30831656795793894;0.9499722351527315;-0.06926884380483522;1.002;0.020288302612497908
57:30.4;-0.30836814430683074;0.9498045225945455;-0.06871789501545941;1.002;0.020126747031937703
57:30.4;-0.308422632696404;0.949489954794588;-0.06811986450813537;1.002;0.019948506652188103
57:30.4;-0.308530730212696;0.9490709910017741;-0.06750886008648865;0.9990000000000001;0.01976778008568792
57:30.5;-0.3087424097217262;0.9485973269794687;-0.06691566833492033;0.998;0.01959774064498934
57:30.5;-0.3091008197842878;0.9481200361868548;-0.06636558745971956;0.998;0.01944940968104683
57:30.5;-0.309637350500256;0.9476860730100851;-0.06587722872099398;0.997;0.019330948431763344
57:30.5;-0.31036841084961747;0.947333817978496;-0.06546236910740387;0.997;0.019247408872967293
57:30.5;-0.31129420809861025;0.947089991013252;-0.06512653457588843;0.997;0.019200841251614205
57:30.5;-0.3123994678770343;0.9469680594978336;-0.0648699557797197;0.9990000000000001;0.019190629379325717
57:30.5;-0.31365558670786736;0.9469681998819002;-0.06468871830474095;0.9990000000000001;0.019213963841217797
57:30.5;-0.3150234046813786;0.9470787503210949;-0.06457598951281096;0.9990000000000001;0.01926637384260707
57:30.5;-0.31645598887188214;0.9472789368528406;-0.06452313896206392;1.001;0.01934223639418376
57:30.5;-0.3179014676786276;0.94754251762982;-0.06452050118430763;1.003;0.019435198101698817
57:30.6;-0.3193064105445281;0.9478417946115342;-0.06455753424058878;1.003;0.01953846434824672
57:30.6;-0.32062005672080746;0.9481512760207081;-0.06462234493738246;1.005;0.01964495478563242
57:30.6;-0.32179906151230797;0.9484503515370034;-0.06470096461928794;1.006;0.019747409427981588
57:30.6;-0.3228118055094714;0.9487246007591017;-0.06477700368611852;1.006;0.019838572844767782
57:30.6;-0.32364114667841115;0.9489656060113908;-0.0648321343231923;1.005;0.019911524966395002
57:30.6;-0.3242849834064315;0.9491694186196228;-0.06484746854870935;1.004;0.019960140903253265
57:30.6;-0.3247547547868284;0.9493341858632798;-0.06480557904861314;1.004;0.019979611265101737
57:30.6;-0.32507246159034997;0.9494577153932694;-0.06469265204692175;1.004;0.019966905528684225
57:30.6;-0.32526685072610517;0.9495357179032013;-0.06450014345216612;1.005;0.019921030079183086
57:30.6;-0.325369348480906;0.9495611451106005;-0.06422552271803006;1.004;0.019842994900623256
57:30.7;-0.3254103213325783;0.9495246971185795;-0.0638721102825367;1.005;0.019735532733518826
57:30.7;-0.325416183779392;0.9494164148577386;-0.06344826994524183;1.005;0.019602689842120876
57:30.7;-0.3254076370675968;0.9492281871165049;-0.06296620203857939;1.0070000000000001;0.019449384668136317
57:30.7;-0.325399036749416;0.9489567651777795;-0.06244057053551896;1.0070000000000001;0.019280999880011918
57:30.7;-0.3253987526973709;0.9486065228455942;-0.06188728681972543;1.008;0.019103081735064625
57:30.7;-0.3254103502360764;0.94819102779256;-0.06132270012566266;1.004;0.018921191143892273
57:30.7;-0.32543432190027327;0.9477328063152505;-0.060763180655858465;1.004;0.01874087081825031
57:30.7;-0.3254699779028317;0.9472613998925632;-0.06022491177372009;1.004;0.018567650270908616
57:30.7;-0.3255171131024265;0.9468103365755212;-0.05972369630608166;1.002;0.018407020426681946
57:30.7;-0.3255772061151187;0.9464136337521878;-0.059274634329387725;1.002;0.018264334965671425
57:30.8;-0.3256539972294806;0.9461023121514287;-0.058891629902550896;1.002;0.01814462894093372
57:30.8;-0.32575327296810586;0.9459014060890102;-0.058586736867031156;1.002;0.018052359290289713
57:30.8;-0.3258817945116049;0.9458277866956826;-0.058369295085491886;1.002;0.017991054379234383
57:30.8;-0.32604567275993573;0.9458886757978692;-0.05824477907026833;1.003;0.01796285933757199
57:30.8;-0.3262487213791097;0.9460804231772884;-0.05821342090536698;1.001;0.017968010615392965
57:30.8;-0.3264910482914201;0.9463873359933075;-0.05826895997101227;0.9990000000000001;0.018004350751047327
57:30.8;-0.326767722289245;0.9467810451299019;-0.058398103993974736;1.002;0.018067058578848945
57:30.8;-0.32706738823357945;0.9472213795014315;-0.05858118584543888;1.002;0.018148757325267724
57:30.8;-0.3273712137449841;0.9476593370093735;-0.05879409382400399;1.002;0.01824006726685911
57:30.8;-0.3276529432777444;0.9480419675257785;-0.05901119670554693;1.004;0.018330573738175572
57:30.9;-0.32788067959141765;0.9483186451839093;-0.05920883093445535;1.0070000000000001;0.018410119271445435
57:30.9;-0.3280204274435921;0.9484480916221982;-0.05936872541094821;1.0090000000000001;0.018470224847968522
57:30.9;-0.32804077660807085;0.9484051263192469;-0.05948050825122649;1.011;0.018505311287300513
57:30.9;-0.3279176349526679;0.9481857359874606;-0.05954253464419811;1.01;0.018513371192263567
57:30.9;-0.3276377880228883;0.9478091549162434;-0.05956073184367287;1.008;0.01849587620262284
57:30.9;-0.3272003725006656;0.9473163103271997;-0.059545714845309704;1.002;0.018456923728386438
57:30.9;-0.3266161451771254;0.9467649936744522;-0.05950894974630257;1.002;0.018401877109750844
57:30.9;-0.3259053215958085;0.9462230177262619;-0.059459016602844125;1.002;0.01833591903133709
57:30.9;-0.3250950183064261;0.945760798351634;-0.059398832843397704;1.002;0.018262891312337257
57:30.9;-0.32421676520188353;0.9454441642490838;-0.05932423230017914;1.001;0.018184588621755017
57:31.0;-0.32330381608222764;0.9453275147078247;-0.05922389871060834;0.9990000000000001;0.018100481297749403
57:31.0;-0.3223877620972558;0.9454474279437243;-0.05908046342310638;0.997;0.018007765454163847
57:31.0;-0.32149437461930924;0.945817339938463;-0.058872573064900215;0.995;0.017901674958793985
57:31.0;-0.3206393569555077;0.9464243708271454;-0.0585777025282854;0.996;0.01777604242693411
57:31.0;-0.3198252766261727;0.9472293451745355;-0.05817525277048629;0.997;0.017624069922805567
57:31.0;-0.31904098121773905;0.9481704648342876;-0.05764934382220782;1.004;0.01743922832719046
57:31.0;-0.3182640881425942;0.9491701452292547;-0.05699100579587381;1.004;0.01721622890344299
57:31.0;-0.31746597042127955;0.9501436516496014;-0.0561998074741985;1.005;0.01695201306112248
57:31.0;-0.3166178933403312;0.9510079350093846;-0.055284921386924236;1.005;0.016646628667160414
57:31.0;-0.31569708609503727;0.9516895780919392;-0.05426540213213856;1.006;0.01630380275012469
57:31.1;-0.3146920477247709;0.9521314483649956;-0.05316937495347998;1.0070000000000001;0.01593104385664547
57:31.1;-0.3136066720608568;0.952297960594252;-0.05203199805555781;1.0070000000000001;0.01553919982319344
57:31.1;-0.312462853318858;0.9521787431794466;-0.05089245244423892;1.008;0.015141547233972352
57:31.1;-0.31130128653456485;0.9517902285539592;-0.049790598729786535;1.0070000000000001;0.014752631892992751
57:31.1;-0.31018015653285996;0.9511745547904426;-0.04876401204377627;1.005;0.014387113324333275
57:31.1;-0.3091714270636882;0.9503954176257201;-0.047845788889044644;0.9990000000000001;0.014058772523650665
57:31.1;-0.3083548786242453;0.9495311903357025;-0.04706308264675064;0.9990000000000001;0.013779721153033856
57:31.1;-0.30781074159596794;0.9486663623852006;-0.0464361288852266;0.9990000000000001;0.01355979990393941
57:31.1;-0.30761196947498487;0.947882493370195;-0.04597754775551089;0.996;0.013406133402895412
57:31.1;-0.3078168073178314;0.9472494026850211;-0.04569173198088274;0.993;0.013322762626759906
57:31.2;-0.3084620593408987;0.946817059982902;-0.045574233195236485;0.991;0.013310280211138992
57:31.2;-0.3095576080944469;0.9466090460434412;-0.04561136533914458;0.991;0.013365499849170378
57:31.2;-0.31108297153683745;0.946618859620621;-0.045780522218274625;0.992;0.013481311196692299
57:31.2;-0.31298684091514;0.946810087191004;-0.04605171165589989;0.993;0.013646922699751549
57:31.2;-0.3151904696977684;0.94712074149574;-0.046390547925005736;0.996;0.013848665549825024
57:31.2;-0.3175951535292657;0.947471388934773;-0.046762503904313614;1.006;0.014071413596529473
57:31.2;-0.3200927302223033;0.9477759664624191;-0.04713770873027498;1.006;0.014300458797819054
57:31.2;-0.32257667532490086;0.9479533967607408;-0.04749526618610979;1.006;0.014523466074927134
57:31.2;-0.3249512965103098;0.9479378934193525;-0.047826248045385426;1.008;0.014732093630601446
57:31.2;-0.3271380139694803;0.9476864520750401;-0.04813501579660432;1.011;0.014923022835228663
57:31.3;-0.32907917600091785;0.9471826638030133;-0.048438862397548445;1.005;0.015098300916598998
57:31.3;-0.3307400294079277;0.9464364401461697;-0.04876602754184803;1.006;0.015264957294203222
57:31.3;-0.3321088006005911;0.945480125217354;-0.04915217432644685;1.003;0.015433894332501474
57:31.3;-0.33319450169739023;0.9443624028069836;-0.04963556031725587;1.003;0.015618144747157319
57:31.3;-0.3340225674449465;0.943141383292525;-0.05025144910179831;1.001;0.015830739453398333
57:31.3;-0.33462914355571;0.9418776288797318;-0.05102663819853652;0.997;0.016082560738139143
57:31.3;-0.3350550468495349;0.9406277197624948;-0.05197490153939046;0.997;0.01638051728240886
57:31.3;-0.33534026006131085;0.9394392560435878;-0.05309375142141743;0.997;0.016726220314430773
57:31.3;-0.33551968297246415;0.938348065405224;-0.05436279199596849;0.997;0.017115268597115724
57:31.3;-0.335620647018791;0.9373776521610274;-0.055744036059089674;0.995;0.01753725737169127
57:31.4;-0.33566233385758415;0.9365403296643885;-0.057184321398272044;0.996;0.017976538346732497
57:31.4;-0.3356569051110204;0.9358394883749176;-0.05861935980150252;0.996;0.018413571119971772
57:31.4;-0.33561195487787526;0.9352726603627441;-0.059978596202890394;0.997;0.01882660274354255
57:31.4;-0.3355337527156645;0.934834995235226;-0.06119023310379278;0.997;0.01919346051063885
57:31.4;-0.335430646522824;0.9345225644865313;-0.06218611268974383;0.995;0.01949332577680526
57:31.4;-0.3353160801384046;0.9343349027527491;-0.06290632409201112;0.996;0.01970839514964802
57:31.4;-0.33521086939231703;0.9342764833694995;-0.06330343047467783;0.997;0.0198253450757854
57:31.4;-0.33514435889889715;0.9343571124425452;-0.06334610932430004;0.997;0.019836486708871934
57:31.4;-0.33515388624579057;0.9345911973732307;-0.06302182486333105;0.997;0.019740444169391
57:31.4;-0.3352820431834886;0.9349956802444566;-0.062338121248452116;0.997;0.019542206950900858
57:31.4;-0.3355717101780787;0.9355864439001158;-0.06132234941044388;0.996;0.019252540565009166
57:31.5;-0.33605945780852464;0.9363732341546086;-0.06001997915782056;0.9940000000000001;0.01888691186565608
57:31.5;-0.3367683439810074;0.9373536599428087;-0.058491883871333;0.991;0.01846419380055802
57:31.5;-0.3377013100014303;0.9385077112001113;-0.05681096309465011;0.991;0.018005398695374562
57:31.5;-0.33883637911137443;0.9397949915234328;-0.05505820610135525;0.995;0.017532555222614314
57:31.5;-0.34012478545876534;0.941156524512979;-0.05331814361461862;1.006;0.01706770619486711
57:31.5;-0.3414927854467561;0.9425211486644155;-0.05167396005698549;1.006;0.01663199638836647
57:31.5;-0.34284701452046196;0.9438143638407928;-0.05020297391231497;1.006;0.016244875942853
57:31.5;-0.3440825050807484;0.9449669429363076;-0.04897296886172037;1.0090000000000001;0.015923393971742025
57:31.5;-0.3450924525481533;0.9459218226559423;-0.04803914583645617;1.011;0.015681441515810506
57:31.5;-0.34577881001226723;0.9466390133395715;-0.047441128845926335;1.012;0.015528796138188958
57:31.6;-0.3460623549750283;0.9470985607441744;-0.04719970717069659;1.012;0.015469947496605895
57:31.6;-0.34589072929199977;0.9473015633888052;-0.047313473334074374;1.011;0.015502866504480007
57:31.6;-0.3452434612547778;0.9472694499684005;-0.04775604647067313;1.011;0.015618069798397015
57:31.6;-0.3441336492559842;0.9470419186796142;-0.0484750879295615;1.011;0.015798467018717694
57:31.6;-0.3426064657452816;0.9466738225502637;-0.04939441942610838;1.008;0.01602041670013266
57:31.6;-0.340734989570059;0.9462310293911367;-0.05041965162796296;1.008;0.016256002564864657
57:31.6;-0.3386140942987193;0.9457852409194548;-0.051446145980766425;1.008;0.016475947872643035
57:31.6;-0.3363529086567978;0.9454078743178029;-0.052367390185161636;1.005;0.01665234245436802
57:31.6;-0.33406587573877555;0.9451632277032147;-0.05308269321551888;1.0;0.01676068952971634
57:31.6;-0.33186254349983424;0.9451014633307564;-0.0535043210468056;0.9990000000000001;0.01678129725795443
57:31.7;-0.3298370756197999;0.9452524638598211;-0.05356448688300862;0.997;0.016700298675288893
57:31.7;-0.3280591365548284;0.9456218510604227;-0.05322196938513395;0.997;0.016510513380000015
57:31.7;-0.3265677356831729;0.9461901525597842;-0.05246737714256838;0.998;0.01621216641591395
57:31.7;-0.32536903519009636;0.946915525872859;-0.05132581124199574;1.001;0.015813328007360853
57:31.7;-0.32443829625817616;0.9477397672252318;-0.04985589445393296;1.006;0.015329843752250494
57:31.7;-0.32372536162102417;0.9485965069898311;-0.04814488129274159;1.006;0.01478455870353465
