Time;AccX;AccY;AccZ;Acc-old;Acc-trns
57:11.2;0.0274450175612494;-0.31687006010461277;-0.9094621472171269;0.9640000000000001;0.007909141532353222
57:11.3;0.020105602332741033;-0.3092252073360702;-0.9149105677290166;0.9520000000000001;0.005688144516059053
57:11.3;0.012832650977520826;-0.301712161115035;-0.9202436728557845;0.9520000000000001;0.003562968955009281
57:11.3;0.005755374927887628;-0.2944699774899183;-0.9253533287562219;0.9520000000000001;0.0015682750573719692
57:11.3;-0.000988642801684488;-0.2876310947041894;-0.9301314656096723;0.98;0.0002644962866682346
57:11.3;-0.007257125183100762;-0.28131742074495825;-0.9344828116662306;0.998;0.0019077987467178224
57:11.3;-0.012906725121317087;-0.2756366468043877;-0.9383450761483205;1.003;0.0033382249461008408
57:11.3;-0.01779506183965406;-0.2706796567797682;-0.9417051275260564;0.992;0.004535968749426017
57:11.3;-0.021783006077846896;-0.2665187812244059;-0.944600932717972;0.976;0.005483956501428156
57:11.3;-0.024741693758764654;-0.26320474520446413;-0.9471076719176628;0.97;0.006167689421666856
57:11.3;-0.026566292874305265;-0.2607608133236965;-0.9493150807978123;0.977;0.006576330987803274
57:11.4;-0.027193732691197098;-0.2591759642150676;-0.95130529723346;0.981;0.006704763481463078
57:11.4;-0.02661909953501184;-0.2584016557540634;-0.9531365873696581;0.981;0.006556073188198906
57:11.4;-0.024905899210811124;-0.2583554333072778;-0.9548338354089505;0.981;0.006143949336882405
57:11.4;-0.02218707683371683;-0.2589304856603804;-0.9563855454289432;0.983;0.005494349438434964
57:11.4;-0.018655772439389536;-0.26000759039789795;-0.9577480081700213;0.991;0.004645693134275376
57:11.4;-0.014547527177192607;-0.26146577143173233;-0.9588572346018762;0.9990000000000001;0.0036471864848116988
57:11.4;-0.010118392668731086;-0.263189256658155;-0.9596472410944765;1.005;0.002555590739860995
57:11.4;-0.00562448517174474;-0.26507077065232815;-0.9600704293320779;1.008;0.0014313561563858716
57:11.4;-0.0013068540608217342;-0.2670134483602694;-0.9601142526614972;1.008;0.0003350295731053709
57:11.4;0.0026182146505755377;-0.26893361424207;-0.959809298399543;1.004;0.0006758266137456318
57:11.5;0.0059664774048485926;-0.2707648025930916;-0.9592266798647338;0.997;0.001549642285614294
57:11.5;0.008593563183948412;-0.2724617934407003;-0.9584659417103008;0.988;0.0022441690605228674
57:11.5;0.010403582768565556;-0.27400301826811213;-0.957637673802485;0.988;0.0027298544782571013
57:11.5;0.011356377526491032;-0.2753900893013013;-0.9568466790470562;0.9890000000000001;0.0029924746657160627
57:11.5;0.01147127053818673;-0.2766439719244871;-0.9561806744825928;0.9940000000000001;0.0030343990623914576
57:11.5;0.010826561661666324;-0.277798189671195;-0.9557063392689706;0.998;0.0028743816500670758
57:11.5;0.009554717603920954;-0.27889027256261373;-0.9554710289448224;0.997;0.002546060655171668
57:11.5;0.007832942121462875;-0.27995330771577015;-0.9555066450187202;0.997;0.0020952904441383347
57:11.5;0.005868857727369302;-0.28100954294150465;-0.9558325809551778;0.995;0.001576363898013838
57:11.5;0.003882166143248146;-0.282067154766501;-0.9564565212195142;0.996;0.0010473500749315716
57:11.6;0.0020847904574911786;-0.2831199292978861;-0.9573737125210104;0.995;0.0005650857428866254
57:11.6;0.0006628079049251018;-0.2841487191184357;-0.958566147286059;1.002;0.00018053253040839623
57:11.6;-0.00023743024873047234;-0.28512356179612885;-0.9600026648610647;1.002;6.498926027131425e-05
57:11.6;-0.0005185381265696233;-0.2860058204066536;-0.9616398100098289;1.005;0.00014261591730570453
57:11.6;-0.0001374373896712963;-0.2867501318485892;-0.963422514633187;1.005;3.79686639754374e-05
57:11.6;0.0008927400037114817;-0.28730618755807397;-0.9652839690378793;1.006;0.0002475854216447712
57:11.6;0.0025043471453482682;-0.2876204619974082;-0.9671449058549796;1.006;0.0006966359099119391
57:11.6;0.00458038587397233;-0.2876380821720236;-0.968913131353184;1.0070000000000001;0.0012765366638673385
57:11.6;0.006962298139466821;-0.28730505982849686;-0.9704843827123518;1.0070000000000001;0.0019412632914251131
57:11.6;0.009459763374499029;-0.28657084696948515;-0.9717457060469065;1.008;0.002634298051549583
57:11.7;0.011862997143120878;-0.285390876335332;-0.9725824792049187;1.011;0.0032927666348625245
57:11.7;0.013958300201338675;-0.28372901251046867;-0.9728895248745173;1.0170000000000001;0.003853007091778809
57:11.7;0.015545941645949477;-0.28156038567557823;-0.972585340866353;1.0170000000000001;0.004257124036397722
57:11.7;0.016457451949797957;-0.27887493606789343;-0.9716269955676824;1.021;0.004459350945977462
57:11.7;0.016569274693517575;-0.27568112435448666;-0.9700225299951396;1.02;0.004430904102258974
57:11.7;0.015811146047290576;-0.2720087465944321;-0.9678378136855464;1.014;0.004162447851912957
57:11.7;0.014168736407763885;-0.2679103102831682;-0.9651954885886818;1.006;0.0036638343624872008
57:11.7;0.0116809775122198;-0.26346136681324805;-0.9622651242392839;0.997;0.002961357737857523
57:11.7;0.00843402874760585;-0.25876055007990617;-0.9592458620639369;0.99;0.0020934523353503347
57:11.7;0.004555082266606085;-0.253929689479908;-0.9563446401431492;0.985;0.0011061757531220249
57:11.8;0.0002085776361253529;-0.24911365005749883;-0.9537537201282585;0.98;4.9556600999871355e-05
57:11.8;-0.004404775296113344;-0.24447866836085566;-0.9516308698181738;0.973;0.0010247861595317628
57:11.8;-0.009048207616927775;-0.2402072700469355;-0.9500849373698343;0.973;0.0020649575946791584
57:11.8;-0.013452465484123167;-0.2364879962979624;-0.9491689416840534;0.972;0.0030196353926732365
57:11.8;-0.01732770303588992;-0.23349919707684477;-0.948881819994845;0.971;0.0038391803471551733
57:11.8;-0.020386873417180162;-0.23138794079336533;-0.9491785268205181;0.976;0.004477537709999759
57:11.8;-0.022379374598907868;-0.230247454562956;-0.9499866127477947;0.9840000000000001;0.004895085352550618
57:11.8;-0.023128487697663187;-0.23009834410753044;-0.9512258204846111;0.988;0.005062258989106588
57:11.8;-0.022562602517091288;-0.23087901005771813;-0.9528258793456504;0.9890000000000001;0.004963490426030198
57:11.8;-0.020729817823126932;-0.2324492211845365;-0.9547376214281695;0.99;0.004600527352650684
57:11.9;-0.017788791672276504;-0.23460792660545232;-0.956934531674898;0.987;0.003993662470260482
57:11.9;-0.01397642560865894;-0.23712201464521934;-0.9594051748256506;0.987;0.003179582149014815
57:11.9;-0.009562737468787177;-0.2397585228021576;-0.9621400036379729;0.987;0.0022059443857360087
57:11.9;-0.004807613642964215;-0.24231214286609976;-0.965117377345713;0.992;0.001124306891098977
57:11.9;7.019624494935272e-05;-0.24462327027567102;-0.9682928236928274;0.996;1.6627170942136824e-05
57:11.9;0.004907948906143633;-0.24658573101734182;-0.9715936419405153;1.001;0.0011758519373073792
57:11.9;0.009597325577368901;-0.24814539945919614;-0.9749191207802214;1.003;0.002321801267942427
57:11.9;0.014069119599059822;-0.24929215083521783;-0.9781455461818493;1.0070000000000001;0.0034306704985254464
57:11.9;0.018270827331471312;-0.25004843040945446;-0.9811348701103422;1.012;0.004482404620748966
57:11.9;0.022145849047344335;-0.25045744181618823;-0.9837459981541377;1.0170000000000001;0.005456438371273551
57:12.0;0.025621189363142616;-0.25057280675349386;-0.9858474805218138;1.024;0.006329114533467785
57:12.0;0.028605599639883184;-0.2504504751119387;-0.9873297703981295;1.024;0.007073512871855277
57:12.0;0.030994965226504637;-0.2501429747864891;-0.988114744057249;1.024;0.007661024362003933
57:12.0;0.032679966524197614;-0.24969563808458095;-0.9881606570545378;1.021;0.008063435521525834
57:12.0;0.033553221212707984;-0.24914416770078682;-0.9874622235495591;1.015;0.008254778709947863
57:12.0;0.03351606167815897;-0.24851283923981468;-0.9860472748233867;1.014;0.008212957004825777
57:12.0;0.03248620687375396;-0.24781296240364487;-0.9839724856245129;1.012;0.00792147360747346
57:12.0;0.030407058642692598;-0.24704197738941097;-0.9813203403073871;1.012;0.007371501654400293
57:12.0;0.027258287577651086;-0.2461841356843742;-0.9781980827314215;1.012;0.006564254937905836
57:12.0;0.023066437608888442;-0.2452133666105835;-0.974737847344228;1.0090000000000001;0.005513311063701093
57:12.1;0.01791357738319868;-0.24409790236822054;-0.9710963361715126;1.006;0.0042462805758838856
57:12.1;0.01194145456597858;-0.2428056497074386;-0.9674523922617024;1.001;0.0028050823873458767
57:12.1;0.005348764760159968;-0.24130957274836284;-0.9640012388416069;1.001;0.001244244244984441
57:12.1;-0.001619349182510562;-0.23959259969394736;-0.9609445863188222;0.993;0.0003728312016862889
57:12.1;-0.00868844353988689;-0.23765124923107458;-0.958476307815042;0.985;0.0019790805334063983
57:12.1;-0.015575966895982693;-0.2354970842983153;-0.9567644983807563;0.978;0.0035095028709359916
57:12.1;-0.022012933035190814;-0.2331559768667356;-0.9559324352606563;0.975;0.004906272469241617
57:12.1;-0.027762286717062084;-0.23066630929741075;-0.9560421469557259;0.9740000000000001;0.006122325850930918
57:12.1;-0.0326312172505029;-0.22807728604999783;-0.9570841929658098;0.975;0.007123041174801387
57:12.1;-0.03647654743344835;-0.22544733981737614;-0.9589761737577525;0.9790000000000001;0.007886179484554846
57:12.2;-0.03920407823776474;-0.2228415271038761;-0.9615708952586288;0.9890000000000001;0.008400568603681399
57:12.2;-0.040763795145058845;-0.2203270304112711;-0.9646731591361889;0.9890000000000001;0.008664082647563442
57:12.2;-0.04114313867846386;-0.2179671735656522;-0.9680624039869298;0.997;0.008681441962406692
57:12.2;-0.040360566277983345;-0.21581536118453207;-0.9715176765112314;1.005;0.008462336898528771
57:12.2;-0.03846161784751048;-0.21391031631343008;-0.9748413216661089;1.012;0.008020347918592971
57:12.2;-0.03551916017018697;-0.21227339726886024;-0.9778774860958594;1.013;0.007372974068916454
57:12.2;-0.031637938128135173;-0.2109081690823011;-0.9805216440947249;1.012;0.006542726386405606
57:12.2;-0.026961443953642413;-0.20980194692490067;-0.9827190519881702;1.005;0.005558812654762899
57:12.2;-0.02167742302098327;-0.20892893937832263;-0.9844530351555004;0.9990000000000001;0.004458628159019407
57:12.2;-0.016017841563165845;-0.20825489768989386;-0.9857270457248396;0.997;0.003288182321345401
57:12.3;-0.010250107195910275;-0.20774323974851283;-0.9865463100826734;0.998;0.0021007423174622154
57:12.3;-0.004658545366977283;-0.20736193140288167;-0.9869047164573702;1.004;0.0009533548559063925
57:12.3;0.00048152557255775556;-0.20708958102630326;-0.9867802834466396;1.004;9.840067309706769e-05
57:12.3;0.0049312923277493705;-0.2069194021628237;-0.9861394318425617;1.004;0.0010062370129750742
57:12.3;0.008510950124947837;-0.2068607066953403;-0.984948290642781;1.0070000000000001;0.0017340814016130854
57:12.3;0.011113482495752853;-0.20693815367666865;-0.9831888044279046;1.013;0.002261141101356341
57:12.3;0.012708980469425755;-0.207188794023673;-0.9808769355810689;1.018;0.0025828042802321883
57:12.3;0.013339943399192887;-0.20765666467563443;-0.9780788114118881;1.016;0.0027094036515777687
57:12.3;0.013108841223272001;-0.20838491122385444;-0.9749194543932274;1.01;0.0026631725714923154
57:12.3;0.01216013250518425;-0.20940643450379676;-0.9715794435753232;1.003;0.002474039602174655
57:12.4;0.010659360121129509;-0.21073528548655993;-0.9682778003731203;0.978;0.0021750456165813
57:12.4;0.0087725591026333;-0.21236116195922303;-0.9652438181412495;0.978;0.0017982017860495943
57:12.4;0.00664993871971001;-0.21424809603011274;-0.9626846617833484;0.978;0.0013715721772333028
57:12.4;0.004417070657704626;-0.21633719884652225;-0.9607564302790695;0.973;0.000918076452611891
57:12.4;0.002174314970308441;-0.21855310516234586;-0.95954353519935;0.971;0.0004559782432531179
57:12.4;2.576388093854454e-06;-0.2208135654612255;-0.9590482810369751;0.9740000000000001;5.456039490857114e-07
57:12.4;-0.00202792442405628;-0.22304053122734338;-0.9591916185276398;0.98;0.00043385132870629766
57:12.4;-0.0038493620915976035;-0.2251698129358283;-0.9598254102793276;0.985;0.000831938408992712
57:12.4;-0.005391586804860146;-0.22715637511630915;-0.9607547667297267;0.991;0.001176668370087012
57:12.4;-0.0065832254063462195;-0.22897401360445066;-0.961766953086108;0.998;0.0014497555250761259
57:12.5;-0.007359111896185017;-0.23061039544774353;-0.9626621085267743;1.0;0.0016337220279913792
57:12.5;-0.007672048260367868;-0.23205973190149556;-0.9632808307905921;0.9990000000000001;0.0017149996280131647
57:12.5;-0.0075050639259409664;-0.2333154942860822;-0.9635246088047439;0.9990000000000001;0.0016871775496876671
57:12.5;-0.006880314683990471;-0.23436521487871925;-0.9633668756403689;0.9990000000000001;0.0015534352807896742
57:12.5;-0.005862116103168982;-0.23518878385231365;-0.9628541766694091;0.9990000000000001;0.001327490863489554
57:12.5;-0.004553328633769524;-0.23576075926311263;-0.9620978371720506;0.995;0.0010328083875028073
57:12.5;-0.003085837305456637;-0.2360563150753725;-0.9612569351188853;0.99;0.0007002097189055849
57:12.5;-0.0016068886972990676;-0.23605968363682964;-0.9605142418504391;0.985;0.0003643438350838465
57:12.5;-0.00026332799995265014;-0.23577309588465642;-0.9600482712126516;0.977;5.9605228420662345e-05
57:12.5;0.000814401683310039;-0.23522357137307867;-0.9600060881231897;0.971;0.00018390497986150046
57:12.6;0.0015265844293842386;-0.2344652754808821;-0.9604825235066047;0.97;0.00034378650736913965
57:12.6;0.0018147008625065564;-0.23357654371765912;-0.9615111627638331;0.992;0.00040755723204299345
57:12.6;0.0016663576119425234;-0.2326521003088648;-0.9630695506206355;0.992;0.00037336434264335054
57:12.6;0.0011145005252961736;-0.23179184661644486;-0.9650958207968391;1.003;0.00024931526368593594
57:12.6;0.0002320298661239419;-0.23108804324648338;-0.967509787996145;1.0090000000000001;5.187722441163536e-05
57:12.6;-0.0008768245172111912;-0.23061315082427072;-0.9702307987950729;1.0090000000000001;0.00019618771588805406
57:12.6;-0.0020871986476115882;-0.23041092197290247;-0.9731864380689972;1.002;0.00046801836444796454
57:12.6;-0.0032650913313018066;-0.23049284925573252;-0.9763097029057882;0.9940000000000001;0.0007347513554112069
57:12.6;-0.004278275081395053;-0.23084053209344166;-0.9795273061371664;0.988;0.0009673804781804522
57:12.6;-0.0050056448690915314;-0.2314126940229576;-0.9827464786293034;0.99;0.001138383806992065
57:12.7;-0.0053448492131579674;-0.23215433149526055;-0.9858490824795401;1.0190000000000001;0.0012232710145081056
57:12.7;-0.005218710701678028;-0.23300522181534397;-0.9886982351935749;1.0190000000000001;0.001202244047308831
57:12.7;-0.004581126059989802;-0.23390580241071124;-0.9911558257297065;1.0190000000000001;0.001062074974670653
57:12.7;-0.0034228100407477664;-0.23479975279185739;-0.993104895281008;1.028;0.0007981335284709838
57:12.7;-0.0017763745486741598;-0.2356336995790351;-0.9944714994108422;1.036;0.0004162596217578012
57:12.7;0.00028110700578657;-0.2363551485390136;-0.9952424354257301;1.037;6.612499034098334e-05
57:12.7;0.00263097906287655;-0.23691029529666757;-0.9954750842076919;1.035;0.000620485619421753
57:12.7;0.0051238639566201505;-0.2372436221333297;-0.9952957505940326;1.0290000000000001;0.0012098855397832797
57:12.7;0.007598741234458142;-0.2373007740290578;-0.9948852089957178;1.025;0.0017939642510336094
57:12.7;0.009907238172976224;-0.2370351385869153;-0.9944532819783439;1.023;0.0023353378627913235
57:12.8;0.011937529024026304;-0.2364170690407861;-0.9942063967338529;1.0090000000000001;0.0028058847099237606
57:12.8;0.013631710891788237;-0.2354433118438605;-0.9943132406558285;1.0090000000000001;0.0031912435318781985
57:12.8;0.014992497872262499;-0.2341437450313576;-0.9948745283007782;1.0090000000000001;0.0034924071453876133
57:12.8;0.016078290056218962;-0.2325831599351179;-0.9959027354250231;1.0090000000000001;0.003724217624877457
57:12.8;0.016988409127386014;-0.23085701490993124;-0.9973156587427086;1.011;0.003911365718905061
57:12.8;0.01784211115477556;-0.22908168023364373;-0.9989449450312494;1.018;0.0040829884752312294
57:12.8;0.01875587579047475;-0.22738147247730822;-1.0005584523641609;1.028;0.004267120308223969
57:12.8;0.019823166298416777;-0.22587569808204153;-1.0018931222500629;1.036;0.004486048116133126
57:12.8;0.02109978587733637;-0.2246680771003853;-1.0026928773285884;1.042;0.0047532137661000845
57:12.8;0.022596705562229726;-0.22383898574976463;-1.0027448368803316;1.046;0.005071907104203577
57:12.9;0.02428077255647589;-0.22343975239088196;-1.0019075286892778;1.033;0.0054356387038344695
57:12.9;0.026082039855190052;-0.22348860440840077;-1.000126918681314;1.033;0.00582977850126424
57:12.9;0.02790513292484682;-0.22396879252069124;-0.9974393699946946;1.033;0.006233875298799098
57:12.9;0.029642041732009853;-0.22482970238201672;-0.9939630446703576;1.023;0.006624178666558555
57:12.9;0.031185151881104333;-0.22599136922514618;-0.9898797162558574;1.012;0.006976251712644914
57:12.9;0.03244054090633118;-0.22735219595315018;-0.9854093999596872;1.004;0.007267816289781018
57:12.9;0.03334098966147419;-0.228799027782373;-0.9807818880102982;0.9990000000000001;0.00748178284301734
57:12.9;0.033856520927460464;-0.2302182035654599;-0.9762103505613114;0.998;0.007608961682421161
57:12.9;0.03399954862664483;-0.2315059229764109;-0.9718710373411178;0.995;0.007649691095213492
57:12.9;0.033822778825516;-0.23257630776053095;-0.9678907348963728;0.99;0.007613793432381531
57:13.0;0.03341015559452615;-0.2333660984408995;-0.9643418173204993;0.986;0.007518778024144043
57:13.0;0.03286327611516635;-0.23383605512433517;-0.9612441849798689;0.987;0.00738679517876625
57:13.0;0.03228689884054164;-0.23397022246705734;-0.9585733138836979;0.987;0.007241228554710201
57:13.0;0.031776785567808025;-0.23377450568711614;-0.9562730726114672;0.987;0.007103772383388564
57:13.0;0.03141145419899546;-0.23327536737350077;-0.9542711713485444;0.987;0.006992439679256269
57:13.0;0.03124774130676816;-0.2325184375727093;-0.9524948680566235;0.987;0.006920519089937706
57:13.0;0.031319275761893826;-0.23156614881735083;-0.9508848717085651;0.983;0.006896277386305907
57:13.0;0.03163698457427848;-0.2304936102046964;-0.9494058726902433;0.983;0.006923184201694005
57:13.0;0.03219117539481178;-0.22938269690473365;-0.9480526678940014;0.982;0.007000514404832146
57:13.0;0.032955197693808495;-0.22831520105439052;-0.9468512228262634;0.98;0.007124272014992635
57:13.1;0.033890807518740955;-0.22736632597459963;-0.9458541356832105;0.976;0.007288400480576132
57:13.1;0.034954892531088855;-0.22659957744172501;-0.9451304652989794;0.965;0.0074861552486544004
57:13.1;0.03610642295280473;-0.22606346606931216;-0.944751414937657;0.965;0.007711385211898078
57:13.1;0.03731211124366336;-0.22578991472689997;-0.9447752554104872;0.965;0.007959446597720781
57:13.1;0.038549694406935835;-0.22579409059059355;-0.9452353855162187;0.9670000000000001;0.008227605930191721
57:13.1;0.03980858854437721;-0.22607538113060963;-0.9461339987041435;0.9690000000000001;0.00851496172250235
57:13.1;0.04108821723176339;-0.2266192335508986;-0.947441877745243;0.973;0.008821991633022943
57:13.1;0.04239451378315592;-0.2273995144842752;-0.9491035999396117;0.98;0.009149825521054753
57:13.1;0.04373539460838972;-0.22838090581298298;-0.9510465611419003;0.985;0.009499365981957062
57:13.1;0.04511635806827639;-0.22952079326251545;-0.9531912320456909;0.988;0.009870430840222101
57:13.2;0.04653707597457517;-0.23077052566710682;-0.9554595208432106;0.987;0.010261048110281909
57:13.2;0.04798883627936987;-0.23207686230352048;-0.9577788527182748;0.986;0.010666877471171855
57:13.2;0.04945219500509573;-0.2333848496519396;-0.9600815014139563;0.986;0.011080678012230127
57:13.2;0.05089508178157615;-0.23464237167010385;-0.9623008253730848;0.987;0.011491933772672979
57:13.2;0.0522728264364529;-0.23580517417078348;-0.9643672837979411;0.988;0.011886986850956845
57:13.2;0.05353143452269919;-0.23684078892775218;-0.9662071076866333;0.992;0.012249986460231902
57:13.2;0.054613815629434743;-0.2377303851384606;-0.9677455941338825;1.0;0.01256459275009861
57:13.2;0.055467112083732145;-0.23846821488451395;-0.9689152725622731;1.0070000000000001;0.012815981062149172
57:13.2;0.05604909000129516;-0.2390587215575749;-0.9696668158456552;1.008;0.012992588743755916
57:13.2;0.056332405739999945;-0.2395118736169319;-0.9699787711333219;1.006;0.013087225216998257
57:13.3;0.056306457838955305;-0.2398379452017087;-0.96986244175939;1.004;0.013097434750227193
57:13.3;0.05597724998511819;-0.24004329394876847;-0.9693603751889187;0.9990000000000001;0.013025259953220097
57:13.3;0.05536617464412248;-0.24012829543311426;-0.9685392382605698;0.9990000000000001;0.012876714782065238
57:13.3;0.05450834269896852;-0.24008779966857144;-0.9674791558165763;0.9940000000000001;0.012661194666744285
57:13.3;0.053450126596275994;-0.23991382813209125;-0.9662619112962475;0.99;0.012390786653067747
57:13.3;0.05224521524942667;-0.2395997413361778;-0.9649604269995306;0.992;0.012079316785274156
57:13.3;0.050949532375895695;-0.23914453629794225;-0.9636317649587147;0.991;0.011741180724965376
57:13.3;0.049616688311623955;-0.23855570472023216;-0.9623150141376321;0.9890000000000001;0.01139029158802553
57:13.3;0.04829528370695384;-0.23784990810427586;-0.9610340547806231;0.991;0.011039425856943222
57:13.3;0.04702766440274318;-0.23705205759225323;-0.9598041086804197;0.996;0.01069990062867728
57:13.4;0.04584883325584219;-0.23619365263683137;-0.9586401802569323;0.996;0.010381309495421667
57:13.4;0.04478465776255221;-0.235310362787326;-0.9575647181930497;0.991;0.010091098586982108
57:13.4;0.043849113494431755;-0.2344385750765646;-0.9566117680967468;0.991;0.009833895973169004
57:13.4;0.04304097005618935;-0.23361148688541492;-0.9558260160203396;0.987;0.009610701565867361
57:13.4;0.042341317034474635;-0.23285591514558515;-0.9552566722122344;0.98;0.009418282591553265
57:13.4;0.04171385644814547;-0.23219074949925347;-0.9549475224612216;0.9740000000000001;0.00924921259654633
57:13.4;0.041109325240816404;-0.2316275125084347;-0.9549259247151916;0.976;0.009092853114220137
57:13.4;0.04047389836581978;-0.23117271997730832;-0.9551945796660479;0.978;0.008937240997603159
57:13.4;0.03975938729592978;-0.23083051028138174;-0.9557293814194882;0.98;0.008771378102401358
57:13.4;0.03893158492202807;-0.23060355831321486;-0.9564845909767641;0.986;0.008587091027649313
57:13.5;0.03797379089617068;-0.23049151792374972;-0.9574041658994671;0.991;0.008379810843949995
57:13.5;0.03688533858573936;-0.23048800647418244;-0.9584361388937439;0.995;0.008148267666784888
57:13.5;0.03567744741193161;-0.23057795359568437;-0.959545859023138;0.995;0.007893639540976272
57:13.5;0.03436907824531585;-0.23073685318846607;-0.9607241886989722;0.995;0.007618747413466878
57:13.5;0.03298432041752155;-0.2309325665783014;-0.9619884223848646;0.992;0.007327613739091882
57:13.5;0.031551571987908644;-0.23112926010162124;-0.9633759679732213;0.99;0.007025411046774561
57:13.5;0.030103777791821978;-0.23129243007587133;-0.9649327351985078;0.991;0.006718610412996755
57:13.5;0.02867830041686351;-0.2313939553528555;-0.9666991763037996;0.988;0.006415001587523252
57:13.5;0.027315064647684396;-0.23141618280148238;-0.9686971179053633;0.988;0.00612327784339196
57:13.5;0.026052614066017804;-0.2313540534224441;-0.9709203111110897;0.992;0.005852103593252294
57:13.6;0.02492292656277094;-0.23121467988134844;-0.9733309887016993;0.997;0.005608865069550854
57:13.6;0.023946339139674477;-0.23101456765376585;-0.9758632427984073;1.0090000000000001;0.005398429772407853
57:13.6;0.02312779245418958;-0.23077535326949083;-0.978431810328575;1.0090000000000001;0.005222208047366776
57:13.6;0.02245555747472586;-0.23051927238320552;-0.9809429547095111;1.011;0.005077791141949095
57:13.6;0.021903450157251123;-0.23026549708329702;-0.9833039565789515;1.012;0.004959400526135632
57:13.6;0.021436456420655718;-0.23002807987704071;-0.9854293192543464;1.013;0.004859139073787438
57:13.6;0.021018232791568357;-0.22981571756919103;-0.987243646884675;1.014;0.004768702980248332
57:13.6;0.020618494813049785;-0.22963288401880622;-0.9886822219576692;1.012;0.004681098320590298
57:13.6;0.02021887965262028;-0.22948127781926014;-0.9896907883568479;1.013;0.004592021098385495
57:13.6;0.019816428084426026;-0.229360632051561;-0.9902261976610276;1.016;0.004500685478648907
57:13.7;0.019424016143053786;-0.22926867125710498;-0.9902591101185151;1.02;0.004409939087729603
57:13.7;0.019067346332837853;-0.22920050426565444;-0.9897786004761363;1.021;0.004325575370299862
57:13.7;0.01877876399882061;-0.22914783431108693;-0.9887968992201015;1.021;0.0042549048916268135
57:13.7;0.018588941471772903;-0.2290985369092271;-0.9873517850697634;1.016;0.004204834349882256
57:13.7;0.01851808164945691;-0.22903720907340167;-0.9855049058510035;1.012;0.004179851264510156
57:13.7;0.018568675835323817;-0.22894676964783725;-0.9833360903318721;1.004;0.004180396097307573
57:13.7;0.01872176914686293;-0.22881056020694143;-0.9809356306855078;1.001;0.00420207171400428
57:13.7;0.018937957563662382;-0.2286143510643207;-0.978397606641022;1.004;0.004235961557094994
57:13.7;0.019163374566763695;-0.22834794355266927;-0.9758166579481868;1.0090000000000001;0.0042700928720443955
57:13.7;0.01933990928344512;-0.228006157334089;-0.9732880606741161;1.008;0.004291828939786259
57:13.8;0.01941749929604631;-0.22758913904172823;-0.9709081096617967;1.003;0.004290648717783344
57:13.8;0.019365116438306403;-0.22710239804054055;-0.9687711036255364;0.9890000000000001;0.00426052393043569
57:13.8;0.019177399239268044;-0.22655710814527494;-0.9669616345461415;0.9890000000000001;0.004201231812346393
57:13.8;0.01887577260145674;-0.2259705265708325;-0.9655445353792903;0.9840000000000001;0.004118403028517081
57:13.8;0.018504582034242496;-0.22536576273929257;-0.9645566721677178;0.985;0.004022489961043758
57:13.8;0.018123362770286897;-0.22477040641440735;-0.9640037411039041;0.99;0.003926961413060553
57:13.8;0.0177968023791595;-0.22421403965719022;-0.9638627341510445;0.9940000000000001;0.003846094677103243
57:13.8;0.01758473295986528;-0.22372473662785902;-0.9640883221956928;0.992;0.003792858190973769
57:13.8;0.01753459327602914;-0.22332491866369134;-0.964620181339539;0.9890000000000001;0.003777367374264246
57:13.8;0.017677621873592748;-0.22302779108042525;-0.9653889873215665;0.988;0.0038061435462782814
57:13.9;0.01802858636055977;-0.22283598324143974;-0.9663207720365864;0.99;0.00388211423927215
57:13.9;0.018588200920286384;-0.2227429922370563;-0.9673408223966472;0.996;0.004005169712161483
57:13.9;0.019347077944308445;-0.22273645343045959;-0.9683781744838104;0.996;0.004173031607863738
57:13.9;0.02028940693230137;-0.22280163478778636;-0.9693704835942798;0.9990000000000001;0.004382051905272857
57:13.9;0.02139444117814462;-0.22292402622052276;-0.9702680378181089;0.9990000000000001;0.004627533279323201
57:13.9;0.0226352685622818;-0.22309064357503633;-0.9710356435025994;0.998;0.004903454838340556
57:13.9;0.023976307720576483;-0.22329030759844581;-0.9716516902766256;0.997;0.005201909428675649
57:13.9;0.025371903863621783;-0.223513643204664;-0.9721045178689455;0.995;0.005512772318254849
57:13.9;0.02676777160998362;-0.2237536061481133;-0.9723870957714853;0.9940000000000001;0.00582400110011931
57:13.9;0.028105389850390062;-0.2240068265450396;-0.9724917333578881;0.993;0.006122612666375419
57:14.0;0.02932793995027969;-0.22427521626963165;-0.9724068660539315;0.9940000000000001;0.006396035406695447
57:14.0;0.03038588657820044;-0.22456670700382092;-0.9721176963235099;0.9990000000000001;0.006633399170103802
57:14.0;0.031240732195941617;-0.2248942239605478;-0.971611291710223;0.9990000000000001;0.006826405126805395
57:14.0;0.031866296557866755;-0.22527287231683507;-0.9708849704715145;1.001;0.0069696066508042375
57:14.0;0.0322477876309109;-0.22571594005942058;-0.9699555590664973;1.002;0.007060151030518098
57:14.0;0.0323796812447434;-0.2262302956261769;-0.9688669731447359;1.001;0.007097207192662666
57:14.0;0.03226372448607758;-0.22681165103078021;-0.9676940605599688;1.0;0.007081380583126213
57:14.0;0.0319081856624931;-0.22744052129366324;-0.9665412488817874;1.0;0.007014397050839997
57:14.0;0.03132878521399721;-0.2280802640815634;-0.9655351434733142;0.996;0.006899209744493363
57:14.0;0.03055045490089508;-0.22867870317376593;-0.9648108686594353;0.991;0.006740398747185993
57:14.1;0.029607857589874838;-0.22917410152515497;-0.9644931012698614;0.981;0.0065444272781928796
57:14.1;0.02854294884071796;-0.22950460795302197;-0.9646748096616184;0.981;0.006319332206790149
57:14.1;0.02739987741525168;-0.22961861137649878;-0.9653987557874705;0.981;0.0060738273215685396
57:14.1;0.026219128960764095;-0.22948306415000447;-0.9666470314287028;0.985;0.005816166375947543
57:14.1;0.025032837141304876;-0.22908789236155863;-0.9683418104328506;0.992;0.0055531690508061424
57:14.1;0.023862694520587334;-0.22844596840250944;-0.9703573877105864;1.001;0.005289744508316147
57:14.1;0.022721346434454722;-0.22758929054090302;-0.9725405734407095;1.0090000000000001;0.005029138710228952
57:14.1;0.021616843757035452;-0.22656304728894114;-0.9747341963093943;1.011;0.004773836750197873
57:14.1;0.020558225014306326;-0.22541954588262966;-0.9767978420884086;1.0090000000000001;0.0045267017093008274
57:14.1;0.019559897891523532;-0.22421322466665355;-0.9786216825050775;1.008;0.004291831292437534
57:14.2;0.018643269886654813;-0.22299699835630246;-0.9801323180573938;1.006;0.004074795457980315
57:14.2;0.01783531174389674;-0.2218197686057378;-0.9812920219481576;1.0070000000000001;0.003882211758736831
57:14.2;0.01716492377004103;-0.22072493105500857;-0.9820936140698541;1.0070000000000001;0.0037208842147421228
57:14.2;0.01665875607832217;-0.219749791886878;-0.9825527774448007;1.008;0.0035968881185955556
57:14.2;0.016338166023345216;-0.2189257318194305;-0.9826988713998612;1.006;0.003514961498729302
57:14.2;0.01621820219677717;-0.2182786711445902;-0.9825649667710766;1.0;0.003478366078511376
57:14.2;0.016308182725363198;-0.21782933227427725;-0.9821782820022591;0.998;0.0034890906727901936
57:14.2;0.016612339933510432;-0.21759311836917442;-0.9815531642824413;0.9990000000000001;0.0035480505033966187
57:14.2;0.017129059723876645;-0.2175795225091365;-0.9806891991969315;1.001;0.003654962582016109
57:14.2;0.017848430776059732;-0.217790767063062;-0.9795759315175835;1.006;0.0038078305120576115
57:14.3;0.018749072201278753;-0.21821961519048302;-0.9782032977712196;1.0090000000000001;0.004002235959496797
57:14.3;0.019795811283709;-0.21884706818047756;-0.9765745553719979;1.008;0.004230770255946553
57:14.3;0.020939568707879143;-0.21964113488825263;-0.9747174842510135;1.008;0.00448291152540539
57:14.3;0.02211982937724123;-0.22055767601214044;-0.9726902844608899;1.004;0.004745462302245043
57:14.3;0.02326923573338033;-0.2215437278397911;-0.9705802937787111;0.997;0.005003490134851993
57:14.3;0.02431993024224168;-0.22254289093697674;-0.9684956504246255;0.992;0.005241718873722191
57:14.3;0.02521136888590805;-0.2235017447373238;-0.9665519270969236;0.987;0.005446312235977338
57:14.3;0.025898443762004612;-0.2243762536653339;-0.964857019741395;0.987;0.0056067800768527095
57:14.3;0.02635786944402241;-0.22513733536363403;-0.9634976053846799;0.986;0.005717530154530145
57:14.3;0.026591159172909513;-0.22577456995895603;-0.962529467812724;0.985;0.00577864915789455
57:14.4;0.026623731351776758;-0.2262968919185952;-0.9619727577838147;0.986;0.005795758554500618
57:14.4;0.026500832500240344;-0.226729794338206;-0.9618123396129499;0.986;0.005779076664326188
57:14.4;0.02628176219152879;-0.22710983779384755;-0.9620027507039896;0.986;0.005742046990351468
57:14.4;0.02603404470800706;-0.22747806743722357;-0.9624769484592798;0.9890000000000001;0.005699956130846823
57:14.4;0.025828572122013026;-0.22787387563596476;-0.9631578603819786;0.993;0.005668816640853084
57:14.4;0.02573589501537443;-0.22833035552051742;-0.9639713024995619;0.9990000000000001;0.005664571125671448
57:14.4;0.02582306891847804;-0.22887157801183747;-0.9648579582092602;1.0;0.005702471213205841
57:14.4;0.026149528323246882;-0.22951155375886256;-0.9657815627606696;1.0;0.005796252856703079
57:14.4;0.02675992401144766;-0.23025422260488443;-0.9667309303363553;1.001;0.005956595282976283
57:14.4;0.027673218774834106;-0.23109373352763096;-0.9677148138705495;0.996;0.006188640211210666
57:14.5;0.028870660575256106;-0.23201437019485827;-0.9687501897852145;0.992;0.00648908414765897
57:14.5;0.030287903123750973;-0.23298992084461084;-0.9698462099232461;0.985;0.00684398760466547
57:14.5;0.031815764406186116;-0.23398313920598074;-0.9709877765954412;0.985;0.007228375216137956
57:14.5;0.03331057912606449;-0.23494653815391117;-0.9721238635129588;0.988;0.007608040883858155
57:14.5;0.03461203895938959;-0.2358253947184825;-0.9731652282217609;0.996;0.00794336166883556
57:14.5;0.0355650334352173;-0.236562655815044;-0.9739937037686088;1.004;0.008194558463279057
57:14.5;0.03604088554205117;-0.23710440427079849;-0.9744817678148983;1.014;0.008327387849820827
57:14.5;0.035952600537343705;-0.2374044892212245;-0.97451787761762;1.0190000000000001;0.008317810984177262
57:14.5;0.03526038656387592;-0.2374275418551091;-0.9740310859266367;1.0190000000000001;0.008154380691900805
57:14.5;0.03396789453787269;-0.2371502579976129;-0.9730083892608942;1.013;0.00783806416920212
57:14.6;0.0321134774279304;-0.23656160303027435;-0.9715004059652619;0.997;0.007380309535843031
57:14.6;0.02976156426632303;-0.23566328665925318;-0.9696149623833598;0.997;0.0068005962681567875
57:14.6;0.02699711701117339;-0.23447152938068075;-0.9675022480047621;0.997;0.00612434274675294
57:14.6;0.02392327039836941;-0.23301984326647882;-0.9653366304753549;0.992;0.005381362412640206
57:14.6;0.02066028453252945;-0.23136149027722047;-0.9632984822695836;0.9890000000000001;0.0046045611764175985
57:14.6;0.01734312674574194;-0.22956995051981136;-0.9615572651656848;0.988;0.0038284025090564128
57:14.6;0.014115362402337501;-0.2277358637156551;-0.9602565490541156;0.982;0.003086815974404383
57:14.6;0.01111866911173346;-0.22595962860471855;-0.9595018256394151;0.978;0.0024106239308541973
57:14.6;0.008479497215237872;-0.22434028547822762;-0.9593522111441429;0.976;0.0018249688288459226
57:14.6;0.006295971675896185;-0.22296286515917538;-0.9598174227658349;0.978;0.0013473608724084382
57:14.7;0.00462847875596771;-0.22188715526517813;-0.9608611891684486;0.985;0.0009868044262548402
57:14.7;0.003496395260659834;-0.22114044601711969;-0.9624108413534745;0.995;0.0007441306801503026
57:14.7;0.002881151578643468;-0.22071565470461155;-0.964370560423695;0.995;0.0006132579527591734
57:14.7;0.0027334065468087127;-0.2205748831447706;-0.9666341378772463;0.996;0.0005828038563764618
57:14.7;0.002981409580928123;-0.22065728593466818;-0.9690936922637345;0.9940000000000001;0.0006375374215549938
57:14.7;0.003538882344150815;-0.22088935653416988;-0.9716433544280899;0.9940000000000001;0.0007595350130633146
57:14.7;0.004312328311467306;-0.22119566093868942;-0.9741794957925081;0.998;0.0009292389503010412
57:14.7;0.005208383033645105;-0.22150851725302803;-0.9766000465290556;1.001;0.0011267046485973786
57:14.7;0.00614165151715572;-0.22177545846696486;-0.9788048484394682;1.003;0.0013331983521473734
57:14.7;0.007042529342032006;-0.22196345933328845;-0.980697838457624;1.004;0.001533011341743153
57:14.8;0.007863165918979446;-0.222059525666134;-0.9821911122468597;1.006;0.0017149949574610504
57:14.8;0.008579351266753322;-0.22206826971701524;-0.9832106554876046;1.01;0.0018732146035448764
57:14.8;0.009187558808561438;-0.2220077089512613;-0.9837032061306663;1.01;0.002006468166741219
57:14.8;0.009698538488740083;-0.2219044930273508;-0.9836431441368519;1.012;0.0021169468711028125
57:14.8;0.010129995336227328;-0.22178943302527848;-0.9830379212628143;1.013;0.002208616780177841
57:14.8;0.010500758580475856;-0.22169379624795568;-0.9819305526370614;1.012;0.002285888208392385
57:14.8;0.010828027573611815;-0.22164649018152047;-0.9803979157992154;1.0070000000000001;0.002352949416787082
57:14.8;0.011127781091104561;-0.22167213724367638;-0.978544230642781;1.001;0.0024137936629418442
57:14.8;0.011416653914060226;-0.22178999680816272;-0.9764904581203502;0.997;0.002472571132743092
57:14.8;0.011713003269745729;-0.22201345258235047;-0.9743619191503862;0.9940000000000001;0.0025337738949182133
57:14.9;0.01203617051863603;-0.22234947429215754;-0.9722770545443793;0.9940000000000001;0.0026020430374623475
57:14.9;0.012404717304938667;-0.22279753554976572;-0.9703394640441807;0.9940000000000001;0.0026817664218983447
57:14.9;0.012834849724400414;-0.22334809245293683;-0.9686337985109452;0.9940000000000001;0.0027767236200314494
57:14.9;0.013339181344143358;-0.22398148267043075;-0.9672246921444785;0.9940000000000001;0.0028898058571479686
57:14.9;0.01392506706890525;-0.2246681954249166;-0.9661572988790688;0.993;0.003022642132737761
57:14.9;0.014592099206960236;-0.22537056439084158;-0.9654581534128468;0.992;0.0031750342936229573
57:14.9;0.015329122510750852;-0.22604504905256295;-0.9651356464042776;0.9890000000000001;0.003344264745721041
57:14.9;0.016111359253952365;-0.22664461781368617;-0.9651800659431157;0.988;0.003524406030760719
57:14.9;0.016898561849755595;-0.2271217520751233;-0.9655637682048129;0.992;0.003705863650578723
57:14.9;0.017635944632929446;-0.2274326229448369;-0.9662422807418114;0.9940000000000001;0.0038755873004395276
57:15.0;0.018259759844629724;-0.22754195343797587;-0.9671566782791567;0.9940000000000001;0.004018401973889734
57:15.0;0.018707499163100168;-0.2274273741577171;-0.968236843471613;0.9940000000000001;0.0041194579681677794
57:15.0;0.01892972539818691;-0.22708236086898229;-0.9694051332777074;0.9940000000000001;0.004167091433902872
57:15.0;0.018899178352939677;-0.2265174375854457;-0.9705805646094237;0.996;0.004155049042680847
57:15.0;0.01861431948986059;-0.22575957205057773;-0.971684063159672;0.9990000000000001;0.004083367018992717
57:15.0;0.018097188424635584;-0.22484972283731966;-0.9726449639968188;1.002;0.003957836116804113
57:15.0;0.01738729109868432;-0.22383880816981438;-0.9734079668737922;1.005;0.0037884556397619856
57:15.0;0.016533836335244856;-0.22278297125626206;-0.9739387831595641;1.005;0.003587461808609052
57:15.0;0.015588447307719175;-0.22173929701404227;-0.9742264365479435;1.001;0.003367483186601344
57:15.0;0.01459995562083136;-0.22076259498579637;-0.9742810211577982;0.997;0.0031402286292677253
57:15.1;0.013612300871176078;-0.21990291895216632;-0.9741275235125241;0.993;0.002915938420081512
57:15.1;0.012665690611536343;-0.21920314136433505;-0.9737980735140168;0.993;0.0027036132107370525
57:15.1;0.01179980295226232;-0.21869645416716185;-0.9733255543556776;0.993;0.002511739656214378
57:15.1;0.01105662846076036;-0.21840428552610552;-0.9727406653038627;0.996;0.0023489887879144266
57:15.1;0.010480383796330034;-0.21833502368253224;-0.9720729497468545;0.9990000000000001;0.002224331194883921
57:15.1;0.01011278580286661;-0.21848339931291674;-0.9713546715424786;1.001;0.0021461846581871226
57:15.1;0.009983851855987946;-0.21883003222259437;-0.9706252827156258;0.9990000000000001;0.002120589721458165
57:15.1;0.010101005058583731;-0.21934083152291625;-0.9699340493303867;0.997;0.002148949845450484
57:15.1;0.010440964197779968;-0.21996671591433434;-0.9693391772651988;0.997;0.0022262469792122875
57:15.1;0.010948286234888619;-0.22064495715695703;-0.9689028802125889;0.993;0.0023405633279438573
57:15.2;0.011541908896307582;-0.2213034783295535;-0.9686828081750817;0.991;0.002474272191325759
57:15.2;0.012127928050072507;-0.22186847149805786;-0.9687212068960467;0.9890000000000001;0.0026066397304431123
57:15.2;0.012614627458574263;-0.2222741830076388;-0.9690341085204327;0.9890000000000001;0.0027170805630045234
57:15.2;0.012925619590256749;-0.222472367733587;-0.9696033447261381;0.986;0.0027881847796218675
57:15.2;0.013008481067819313;-0.2224388409591539;-0.970373941787445;0.988;0.0028078657425833387
57:15.2;0.012838039537030724;-0.22217611326575903;-0.9712585412834287;0.998;0.0027703262990104375
57:15.2;0.012415029076979712;-0.22171276443095225;-0.9721487966521226;1.003;0.0026759080187304897
57:15.2;0.011762404416445943;-0.2211004082809383;-0.9729313817691057;1.006;0.002530275809992467
57:15.2;0.010922109448016318;-0.22040847772876396;-0.9735044850887136;1.006;0.0023435421878915913
57:15.2;0.009953278642260106;-0.21971718930448966;-0.9737905702009482;1.0090000000000001;0.002129588837673613
57:15.3;0.008930264685595612;-0.21910966684020206;-0.9737425668104805;0.9940000000000001;0.0019053292083278707
57:15.3;0.007938472254912022;-0.21866419473394041;-0.9733429874661503;0.9940000000000001;0.001689586810776596
57:15.3;0.007067753457663217;-0.21844728993847204;-0.9725982123269102;0.9940000000000001;0.0015016251032022748
57:15.3;0.006404525981055524;-0.2185083313671758;-0.9715317152163392;0.991;0.0013596025638014323
57:15.3;0.00602390438409939;-0.21887629321156438;-0.9701792406645512;0.991;0.0012791714933841033
57:15.3;0.005983191544886732;-0.21955839982350125;-0.9685872959302608;0.991;0.0012723943498160787
57:15.3;0.006318136525070005;-0.22053994885718603;-0.9668152964913538;0.992;0.0013471618902628415
57:15.3;0.007042327397488996;-0.22178468533283124;-0.964940902459305;0.996;0.0015071222497691904
57:15.3;0.008148426182346282;-0.2232356153850283;-0.9630668414883419;0.9990000000000001;0.0017518368186386535
57:15.3;0.009609337376928893;-0.22481638738634876;-0.9613261146066069;0.997;0.0020767879074941992
57:15.4;0.011378205191933827;-0.22643350793026404;-0.9598818125378045;0.9940000000000001;0.0024730461399425896
57:15.4;0.013387420874990473;-0.22798015391108492;-0.9589186448001703;0.988;0.002926683252957719
57:15.4;0.015547827844734326;-0.22934255515284;-0.958625539396623;0.988;0.0034182464002303877
57:15.4;0.017749781457594184;-0.23040911247239992;-0.9591710688851348;0.982;0.003922732847510571
57:15.4;0.019867552423997688;-0.2310812982142754;-0.9606749884585186;0.977;0.00441047789960066
57:15.4;0.021767721997819154;-0.23128493376174242;-0.9631801324248618;0.973;0.004849174818218821
57:15.4;0.0233210478435167;-0.2309804337606161;-0.9666299784337198;0.9740000000000001;0.0052069512597107325
57:15.4;0.0244165420235678;-0.23017044761141525;-0.9708578630723476;0.981;0.005456188576135036
57:15.4;0.024976238924909955;-0.2289031336983459;-0.9755928450046949;0.995;0.005577600251472214
57:15.4;0.02496835246240829;-0.22726975101149136;-0.9804839341664694;1.01;0.005563806331580665
57:15.5;0.024415184232708907;-0.22539646466034927;-0.9851397013453085;1.02;0.005421318556876345
57:15.5;0.023392094763763575;-0.22343144149798552;-0.989176253740592;1.032;0.005169958824111555
57:15.5;0.022016552055624545;-0.22152899389692274;-0.9922648753278621;1.032;0.004839578066615923
57:15.5;0.020430258132669184;-0.21983287175816354;-0.9941713932884163;1.036;0.004465064630958476
57:15.5;0.018779420179692516;-0.218460777791395;-0.9947816984467405;1.035;0.004081158308540952
57:15.5;0.01719737380324245;-0.21749195239982183;-0.9941106056038322;1.028;0.0037182623592677596
57:15.5;0.015791788819220307;-0.2169596112218785;-0.9922936219500631;1.018;0.003399776921573686
57:15.5;0.014637129954287953;-0.21684968607677788;-0.9895635916721908;1.01;0.0031409312803725212
57:15.5;0.013772148716477976;-0.2171060678181413;-0.9862167201941413;1.003;0.0029488048115720823
57:15.5;0.01320181581637766;-0.21764085640872186;-0.9825740634060907;0.995;0.002823185349684044
57:15.6;0.012902857226613792;-0.2183471775593121;-0.9789445285903537;0.992;0.0027579828265276367
57:15.6;0.01283159854942926;-0.21911240861600226;-0.9755942613491421;0.991;0.0027429442058484557
57:15.6;0.012932420274862197;-0.21983046009792834;-0.9727255336586684;0.991;0.0027654002306115003
57:15.6;0.013145211696310553;-0.2204121806386423;-0.9704661628160953;0.993;0.002811794475414925
57:15.6;0.013410905651303486;-0.22079300141112687;-0.9688685482749855;0.99;0.0028688528199289267
57:15.6;0.013675198809337019;-0.22093715334324182;-0.9679162982185215;0.991;0.0029244230992826704
57:15.6;0.013891307255956012;-0.22083831791030262;-0.9675364093507534;0.992;0.0029681433019853334
57:15.6;0.014022679784495668;-0.22051711663677687;-0.967615391465764;0.996;0.0029920999021173914
57:15.6;0.014046027272542094;-0.2200161637795002;-0.9680176278478458;0.998;0.0029915162159409687
57:15.6;0.013954070042772458;-0.21939357577915727;-0.968603642381999;0.9990000000000001;0.0029653154679128964
57:15.7;0.013756682252044993;-0.21871597007699778;-0.9692456649073715;0.9990000000000001;0.002916272272652119
57:15.7;0.013479378125652839;-0.2180519422267316;-0.9698384936569282;0.997;0.002850553742714604
57:15.7;0.01315927533422057;-0.21746665707712254;-0.9703049049678496;0.997;0.0027767250556448514
57:15.7;0.012839791214205953;-0.21701769390686795;-0.9705960697194467;0.997;0.0027045289487168545
57:15.7;0.012565523711837648;-0.21675190209042045;-0.9706880537486179;0.9940000000000001;0.0026437671143355245
57:15.7;0.012378130616615787;-0.21670295579555793;-0.9705756093392964;0.991;0.002603450168624633
57:15.7;0.012313138323240172;-0.21688959959509563;-0.9702646850494706;0.988;0.002591180757146521
57:15.7;0.012396960392850003;-0.21731490994909197;-0.9697655568455217;0.9890000000000001;0.002612591401220857
57:15.7;0.012643394631571495;-0.2179667266057912;-0.9690886328755622;0.992;0.0026706525794223603
57:15.7;0.01304963130586811;-0.21881882923749607;-0.96824418758786;0.993;0.0027648261618013407
57:15.8;0.013592908781031263;-0.21983226969548822;-0.9672457181843459;0.9940000000000001;0.002890284954704662
57:15.8;0.014229688794198354;-0.22095689893435155;-0.9661152375890598;0.9940000000000001;0.0030376092038935376
57:15.8;0.014898959939535036;-0.22213377820717176;-0.9648883833008852;0.9940000000000001;0.003193358181115515
57:15.8;0.015529996452026172;-0.22329897151724526;-0.9636176248256085;0.993;0.0033416642619735985
57:15.8;0.016053402812475737;-0.22438848557329155;-0.9623725340758853;0.991;0.0034666571348454193
57:15.8;0.016413053662160452;-0.22534371491113778;-0.9612367557019232;0.987;0.0035552095838870717
57:15.8;0.016575585454943545;-0.2261168485949899;-0.960302055823764;0.985;0.0035992304918320713
57:15.8;0.016534233919994513;-0.22667584353494746;-0.9596605898513819;0.987;0.0035967228850057264
57:15.8;0.01630595116008779;-0.22700828401978415;-0.9593968673456996;0.986;0.0035512900050908864
57:15.8;0.01592380792786399;-0.22712288016594964;-0.9595805111709851;0.985;0.0034704775260563352
57:15.9;0.015428313142582157;-0.2270474086406182;-0.9602602831993091;0.9840000000000001;0.0033637519392208
57:15.9;0.01486042704357704;-0.2268230115106343;-0.9614596037637795;0.988;0.003240779208944647
57:15.9;0.014256968948682329;-0.22649618872774643;-0.9631737391420712;0.988;0.003110231641487389
57:15.9;0.013647728164387732;-0.22611053724309246;-0.9653685401854638;0.9890000000000001;0.0029790260936084292
57:15.9;0.013053447495050427;-0.22570011171955212;-0.9679803613375297;0.993;0.0028518294333721916
57:15.9;0.01248436022000464;-0.22528575020298588;-0.9709168926931344;0.995;0.0027307508093592147
57:15.9;0.011939643414652666;-0.22487510527204208;-0.9740588328319846;0.997;0.0026152783889178016
57:15.9;0.011408694552439059;-0.22446613966199383;-0.9772625720630148;0.998;0.0025026381271693304
57:15.9;0.010874982095848239;-0.22405263228330785;-0.9803646476725113;1.0;0.0023887254862995384
57:15.9;0.010322117652464694;-0.22362954274928157;-0.9831894273785527;1.005;0.002269526094147076
57:16.0;0.009740433697296057;-0.22319619153117515;-0.9855613673360583;1.018;0.0021426377176632554
57:16.0;0.009131858897574383;-0.22275617171929224;-0.9873214697599006;1.018;0.0020083875423216042
57:16.0;0.008511563096435132;-0.2223146220856195;-0.9883449495556575;1.018;0.0018701907229930616
57:16.0;0.007905864969374387;-0.22187476220865096;-0.9885560431438032;1.018;0.0017340379291131353
57:16.0;0.007346777346686917;-0.22143534791963818;-0.9879373836895881;1.0170000000000001;0.0016072122969971586
57:16.0;0.0068647609272625325;-0.22098975532250228;-0.9865334372366649;1.016;0.001496612498541724
57:16.0;0.006482459809697702;-0.22052686353681322;-0.9844483425865024;1.012;0.0014073245564308423
57:16.0;0.006211906854883926;-0.22003366623234624;-0.9818385261278514;1.01;0.0013420050169486268
57:16.0;0.006055533619216738;-0.21949920118802768;-0.9789005187551226;1.006;0.0013011396825916297
57:16.0;0.006009092428135423;-0.21891894221957847;-0.9758546207936416;1.0;0.0012837408113230142
57:16.1;0.006064230558031247;-0.21829846889738766;-0.9729254443476787;0.995;0.0012879706175352387
57:16.1;0.006209940139472778;-0.21765538195859746;-0.9703210270808698;0.9840000000000001;0.001311511995042948
57:16.1;0.006433683269712666;-0.21701913533462158;-0.9682130683983152;0.9840000000000001;0.0013518504370400753
57:16.1;0.006723108163667254;-0.21642916575880386;-0.9667213865979631;0.982;0.0014066537564929892
57:16.1;0.00706811550965755;-0.21593187616727308;-0.9659052391911153;0.9840000000000001;0.0014741949469803852
57:16.1;0.007461850334341597;-0.21557675920985114;-0.9657625915110302;0.99;0.001553527165697066
57:16.1;0.007898931031060562;-0.21541166754501576;-0.9662364711685141;0.991;0.0016440725213193966
57:16.1;0.008370264051450423;-0.2154772229050824;-0.9672260521641204;0.992;0.001744490119413154
57:16.1;0.008855815755214333;-0.21580065601633938;-0.9685997576481046;0.992;0.0018510821337031956
57:16.1;0.009318537365187115;-0.21638988737303333;-0.9702085129476999;0.995;0.0019563645866812595
57:16.2;0.009702949663945554;-0.2172291975188065;-0.9718983465442532;0.997;0.0020485323164391124
57:16.2;0.0099403177875439;-0.21827801855346068;-0.9735219429643651;1.0;0.002112302030199615
57:16.2;0.009959705939887323;-0.2194737773409332;-0.9749487009627822;1.0;0.0021311347924639797
57:16.2;0.009701966858061423;-0.22073859786767977;-0.9760729370508082;1.002;0.0020903563972308453
57:16.2;0.009132939730141534;-0.2219889187503792;-0.9768201986891735;1.003;0.001980416421915121
57:16.2;0.008252660777549662;-0.22314679307193203;-0.9771519604934515;1.004;0.0017994788702979706
57:16.2;0.007098660179650031;-0.22415104048326442;-0.9770691049581803;1.008;0.0015546850656826712
57:16.2;0.005743134175402847;-0.22496568491295776;-0.9766143142635741;1.0090000000000001;0.001261793617609584
57:16.2;0.004285214674406186;-0.22558340888864545;-0.9758725886431011;1.012;0.0009433500088932896
57:16.2;0.0028398284504516386;-0.22602322862359842;-0.9749680246100162;1.008;0.0006257999912766428
57:16.3;0.0015240594895534897;-0.22632308064961543;-0.9740548155725647;1.0;0.00033598057048763824
57:16.3;0.00044175717720719383;-0.22652899900406284;-0.9733018177812341;0.993;9.739910240459394e-05
57:16.3;-0.00033174798029948305;-0.22668343782799152;-0.9728724232218265;0.993;7.316173080490681e-05
57:16.3;-0.0007610703859033705;-0.226815711315595;-0.972903329559366;0.991;0.00016794521996003317
57:16.3;-0.0008539925474204288;-0.22693681007205802;-0.9734858600359811;0.992;0.00018866384204849638
57:16.3;-0.0006543518257541086;-0.22703944995759806;-0.974652230577096;0.9940000000000001;0.0001447979207282433
57:16.3;-0.00022640245440938298;-0.22710287972653911;-0.9763679354019974;0.995;5.0201567794119314e-05
57:16.3;0.000364313475508301;-0.22710082870261136;-0.9785308468676532;0.998;8.095962265637792e-05
57:16.3;0.0010676965275614248;-0.22701012658177444;-0.9809774712581014;1.002;0.00023776728284937107
57:16.3;0.0018588982461678312;-0.2268174522111136;-0.9834965496092128;1.006;0.00041467220501737525
57:16.4;0.0027389422503030923;-0.22652261435710264;-0.9858493522528389;1.021;0.0006116528393470512
57:16.4;0.0037264553714509217;-0.226138263351899;-0.9877943889047219;1.021;0.0008324085491379918
57:16.4;0.004843659584710408;-0.225687006944517;-0.9891125412713281;1.021;0.0010812493975609259
57:16.4;0.0061015034881071765;-0.2251970149267576;-0.9896284393597862;1.022;0.0013597894290457338
57:16.4;0.007488102334692148;-0.22469692448883932;-0.9892256223107982;1.02;0.001664425097272876
57:16.4;0.008962694937595168;-0.22421107889993147;-0.9878548700744112;1.016;0.0019851294320496113
57:16.4;0.010455809822291674;-0.22375658276756605;-0.985535919476026;1.015;0.0023057167455384996
57:16.4;0.011875384694224883;-0.22334328093139777;-0.982353194196904;1.0090000000000001;0.0026054829796030503
57:16.4;0.013117735956325247;-0.22297646723982092;-0.9784466247933591;1.003;0.0028619039540393916
57:16.5;0.014081361916467246;-0.22266101952947506;-0.9739989878831665;0.9990000000000001;0.0030538475969051713
57:16.5;0.014680880874672458;-0.2224054429873352;-0.9692214200195661;0.992;0.003164612432366319
57:16.5;0.014858543632122615;-0.2222245559333698;-0.9643388361061964;0.9840000000000001;0.0031841824772972024
57:16.5;0.014591626733490992;-0.2221398590313399;-0.9595769306134962;0.9840000000000001;0.0031103552999367616
57:16.5;0.013894801662819126;-0.22217721471947371;-0.9551520541138783;0.983;0.0029486578650830034
57:16.5;0.012817137557175397;-0.22236234877177005;-0.9512639687110102;0.982;0.002711148743680066
57:16.5;0.01143439392297631;-0.22271543321739623;-0.94808962803354;0.978;0.002414420212518977
57:16.5;0.009838666095618051;-0.2232463538900903;-0.9457752558341314;0.971;0.0020773445925084035
57:16.5;0.008128123033771091;-0.22395222166900963;-0.9444251060590694;0.9640000000000001;0.0017191476088983728
57:16.5;0.0063987918284322655;-0.22481820154732124;-0.9440878156726409;0.9590000000000001;0.0013581315667127618
57:16.5;0.004738775486380498;-0.22582162559092783;-0.9447438503970481;0.9570000000000001;0.0010109873842477927
57:16.6;0.003224099912393393;-0.22693781924700104;-0.9462989493627402;0.96;0.00069237874452371
57:16.6;0.0019149508913055362;-0.22814505842628446;-0.9485878846136915;0.977;0.0004144253195654504
57:16.6;0.0008511701832479057;-0.22942648032958177;-0.9513900431723771;0.977;0.00018578837933082623
57:16.6;4.6519707419164e-05;-0.23076830735384476;-0.9544545707797992;0.985;1.0246331471226658e-05
57:16.6;-0.0005175275242390422;-0.23215530651547686;-0.9575305024897199;0.996;0.0001150441884519074
57:16.6;-0.0008961569573540256;-0.23356528869561313;-0.9603969809584653;1.003;0.00020102180466683957
57:16.6;-0.0011804974756184862;-0.2349645906881464;-0.9628886757011889;1.005;0.00026708134864970374
57:16.6;-0.001489449742993904;-0.23630604999436144;-0.9649116763030005;1.002;0.00033961608900483464
57:16.6;-0.0019543974470804673;-0.23753025534736694;-0.9664468555906811;0.9990000000000001;0.00044865219792858234
57:16.7;-0.0027000806105195643;-0.23857003044630504;-0.9675409553644175;0.993;0.000623249550010179
57:16.7;-0.0038263802936731282;-0.23935725195345017;-0.9682888589578297;0.991;0.0008868285299121757
57:16.7;-0.005395159011481529;-0.23983050531002795;-0.9688122961543782;0.993;0.0012535692024243932
57:16.7;-0.00742393062121394;-0.23994205289641854;-0.9692400055932122;0.993;0.0017265199711665802
57:16.7;-0.009885317412397706;-0.23966297030830994;-0.9696925509410791;0.997;0.0022973418062335487
57:16.7;-0.012709993316083175;-0.23898582021711387;-0.9702726985021325;1.0;0.0029472112562004735
57:16.7;-0.015791653983123495;-0.23792487617158103;-0.9710604255807777;1.002;0.0036484947588860507
57:16.7;-0.01899384419773598;-0.23651452439151727;-0.9721105363514041;1.003;0.0043670316307089715
57:16.7;-0.02215885982418061;-0.23480660648216364;-0.9734507373391399;1.001;0.005064909625916834
57:16.7;-0.025118752437668118;-0.23286709328009697;-0.975078941523637;0.9990000000000001;0.0057035593503984685
57:16.8;-0.027708302493829745;-0.2307721401255022;-0.9769600931869412;0.998;0.006246980091328751
57:16.8;-0.029779545147579654;-0.2286035363875041;-0.9790241495180758;1.003;0.006664911839659924
57:16.8;-0.03121654913944271;-0.2264437619164606;-0.9811671527743218;1.003;0.006935667325914101
57:16.8;-0.03194788830058421;-0.22437124698281533;-0.9832564513879309;1.003;0.007048166639992468
57:16.8;-0.03195385590856553;-0.22245650048991816;-0.9851401990289206;1.01;0.007002714400920491
57:16.8;-0.031266505846302355;-0.22075914581029027;-0.9866609248056409;1.014;0.006810295929028023
57:16.8;-0.029962092126856462;-0.2193254018297884;-0.9876723314431659;1.0170000000000001;0.006490437263791136
57:16.8;-0.02814694599664106;-0.2181859821721433;-0.988057193483064;1.018;0.006067925069302153
57:16.8;-0.025939671632291304;-0.21735516344405678;-0.9877433642890414;1.021;0.005569017165177077
57:16.8;-0.02345410283494412;-0.21683175977835797;-0.9867149602574126;1.022;0.005018032068114782
57:16.9;-0.020787367008195567;-0.21660171595485375;-0.9850162643334689;1.0170000000000001;0.004435113905148346
57:16.9;-0.018015393672582924;-0.21664103727499315;-0.9827467417724332;1.008;0.0038355362865759367
57:16.9;-0.015195386534914175;-0.2169179963364852;-0.9800473772812873;0.9940000000000001;0.0032303859074561555
57:16.9;-0.012372559695604237;-0.21739472961081313;-0.9770812681281221;0.9940000000000001;0.002628084085681176
57:16.9;-0.0095875295533893;-0.21802906070280104;-0.9740135609243713;0.991;0.0020360390485629066
57:16.9;-0.006881185853186416;-0.21877703856127512;-0.9709956073584357;0.991;0.0014617809314478069
57:16.9;-0.004295579225615963;-0.2195958988603231;-0.9681558000673358;0.991;0.0009132532154691367
57:16.9;-0.0018717681598985046;-0.22044673063615838;-0.9655968806082522;0.993;0.0003984295783241972
57:16.9;0.0003528837141973397;-0.22129627750109684;-0.9633977617297623;0.993;7.523351575622298e-05
57:16.9;0.0023459794860005707;-0.2221177559991004;-0.961616994074415;0.992;0.0005010829403419936
57:17.0;0.004080093286356026;-0.22289100472646875;-0.9602949577610109;0.987;0.0008733076876289857
57:17.0;0.005533667005228282;-0.2236025496892184;-0.9594529648854943;0.98;0.0011871714998893143
57:17.0;0.006694713539022716;-0.2242460848669909;-0.9590895722236845;0.98;0.0014398459766063296
57:17.0;0.007566521351812846;-0.2248233339944134;-0.9591764621189974;0.98;0.0016316843893180353
57:17.0;0.008172211316107719;-0.2253447922882737;-0.9596568119327062;0.983;0.0017672706478786952
57:17.0;0.008555344062588786;-0.225829878916669;-0.9604479258759301;0.985;0.0018556356374200508
57:17.0;0.008775471417044305;-0.22630620736599494;-0.9614482691701782;0.99;0.0019093820890385372
57:17.0;0.008898739298337876;-0.2268076310896422;-0.9625478130266295;0.9940000000000001;0.0019427121568188696
57:17.0;0.008984761829576447;-0.22737062790676238;-0.9636397310692462;0.995;0.0019685916020585176
57:17.0;0.009072483583753451;-0.2280287400480242;-0.964631124727699;0.992;0.001995616331316624
57:17.1;0.009168812074767285;-0.22880533466978653;-0.9654511101162622;0.991;0.002025393928041248
57:17.1;0.009243528828260402;-0.22970586178779748;-0.9660560693954473;0.992;0.002051219853511561
57:17.1;0.009232308429391125;-0.23071163261895108;-0.9664329050264269;0.9990000000000001;0.0020585030063843914
57:17.1;0.009047115440570576;-0.23177718459163385;-0.9666006824915055;0.9990000000000001;0.002026879417438188
57:17.1;0.008590755915086934;-0.2328323491999422;-0.9666096528653717;0.998;0.001933418312401902
57:17.1;0.007771293260973364;-0.23378891554309053;-0.9665360611448381;0.995;0.001756043526761888
57:17.1;0.006513118383398834;-0.2345507988263546;-0.9664722839141503;0.991;0.0014764382654917608
57:17.1;0.004763924456846637;-0.23502579449344532;-0.9665138610188556;0.988;0.0010821525379317656
57:17.1;0.0024990861707932946;-0.23513667236868854;-0.9667464769911888;0.991;0.0005680861446436096
57:17.1;-0.0002744566714080612;-0.23482997641330863;-0.967235976059558;0.995;6.233899091330337e-05
57:17.2;-0.0035140863512417085;-0.23408187967058552;-0.9680229365563208;0.997;0.0007962801196366916
57:17.2;-0.007138642316418318;-0.23290099337593317;-0.969121236144045;0.997;0.0016112579501926336
57:17.2;-0.011029589280144234;-0.231328165932341;-0.9705189385868352;0.997;0.002476235067663092
57:17.2;-0.015038104091487066;-0.22943345381106672;-0.9721801608931406;0.997;0.003354258923056271
57:17.2;-0.018997266278727935;-0.22731064873831552;-0.9740475378631104;0.9990000000000001;0.004206210899945642
57:17.2;-0.02273644794496726;-0.22506976586824393;-0.9760455959812491;1.003;0.004994705454996525
57:17.2;-0.02609496210346944;-0.2228278899736884;-0.978085298789761;1.006;0.005687258252504072
57:17.2;-0.02893314391866247;-0.22069920546041782;-0.9800692734805369;1.006;0.0062582537841595915
57:17.2;-0.031140402748625902;-0.21878567966106302;-0.9818966083673937;1.003;0.006689734430169793
57:17.2;-0.0326409291322192;-0.21716983421489805;-0.9834666201675418;1.003;0.006971426235867444
57:17.3;-0.03339786819914294;-0.21591011872481922;-0.9846824305449067;1.005;0.007100483649160024
57:17.3;-0.03341590702579443;-0.21503849897654523;-0.9854561067197881;1.0090000000000001;0.007081198340451078
57:17.3;-0.03274150707346016;-0.2145597918523485;-0.9857164063440056;1.014;0.006924668540880597
57:17.3;-0.031460160860901226;-0.2144527927921412;-0.98541826919018;1.014;0.006648340512778
57:17.3;-0.02969055213277023;-0.2146735503804974;-0.9845515647185383;1.0170000000000001;0.006275311369370795
57:17.3;-0.027575554357237384;-0.2151608099114072;-0.9831462476821204;1.013;0.005833182286521034
57:17.3;-0.02526990310071859;-0.2158429961768785;-0.9812719405007692;1.006;0.0053521825516559
57:17.3;-0.02292507041287945;-0.21664582416536413;-0.9790315787451098;1.002;0.004862478577052149
57:17.3;-0.020673296929723462;-0.21749985633599614;-0.9765505614248771;0.9990000000000001;0.0043910001394377824
57:17.3;-0.01861383662909822;-0.21834740950636644;-0.9739639138242681;0.997;0.003958464986275031
57:17.4;-0.016804573297123357;-0.21914781887930482;-0.9714037437281428;0.9940000000000001;0.003577374564497165
57:17.4;-0.015261274838552283;-0.21987984290821777;-0.9689883414922004;0.99;0.003251582544110143
57:17.4;-0.01396489530828582;-0.22054055103113768;-0.9668136290536709;0.986;0.0029776174680394875
57:17.4;-0.01287474696172136;-0.22114110776963106;-0.9649476481321576;0.986;0.0027473369993034347
57:17.4;-0.011943145393239553;-0.2217007580657498;-0.9634289077593052;0.985;0.0025509712888848266
57:17.4;-0.01112684323124584;-0.2222406043174318;-0.9622690499611031;0.986;0.00237953389855833
57:17.4;-0.010392522594760796;-0.22277847408827064;-0.9614594303720332;0.99;0.0022260000300205543
57:17.4;-0.009716367899960202;-0.22332553787118808;-0.960980247288685;0.9890000000000001;0.0020852436153370587
57:17.4;-0.009079852578865929;-0.22388461952727795;-0.9608101268977026;0.992;0.0019531726242118736
57:17.4;-0.008464893978736078;-0.2244497406415421;-0.9609338653774845;0.993;0.0018257198189899565
57:17.5;-0.007851246065483635;-0.22500656952618972;-0.9613463293088211;0.993;0.0016982970669996865
57:17.5;-0.00721741436862202;-0.22553378275915467;-0.9620511319723273;0.99;0.0015659987063820426
57:17.5;-0.006544346186007002;-0.22600541023596016;-0.9630537959630985;0.987;0.0014244120789788154
57:17.5;-0.005819902848339588;-0.22639395285547453;-0.9643507201110894;0.987;0.001270619647467528
57:17.5;-0.005042181381352614;-0.22667376029589378;-0.9659167013231114;0.9840000000000001;0.0011039753819611802
57:17.5;-0.004220697037218919;-0.22682413064089815;-0.9676943398668587;0.985;0.0009264279206655783
57:17.5;-0.0033755460159560265;-0.22683171624392728;-0.9695884485272722;0.987;0.0007423953520774541
57:17.5;-0.002535427243003008;-0.22669177712407984;-0.9714678714843835;0.991;0.0005583613668198907
57:17.5;-0.0017355866648683083;-0.22640780827221202;-0.9731758372439863;0.998;0.0003824098081026974
57:17.5;-0.0010164933222957498;-0.2259894817234434;-0.974548120264992;1.005;0.0002238700747376381
57:17.6;-0.0004235930534769308;-0.22544942729730644;-0.9754362956506945;1.0090000000000001;9.315300674667663e-05
57:17.6;-7.662286220175992e-06;-0.2247997084410243;-0.9757319146649122;1.011;1.6806784237385691e-06
57:17.6;0.00017579834656325846;-0.22404906334956617;-0.9753870071138325;1.013;3.841801173898957e-05
57:17.6;7.000149812004941e-05;-0.2232020792759953;-0.9744268516638704;1.013;1.522491278983257e-05
57:17.6;-0.00037610059965937894;-0.22226105505442467;-0.9729519794885846;1.0090000000000001;8.133150399717619e-05
57:17.6;-0.001198209790739711;-0.22123033400361708;-0.9711277720419305;1.001;0.0002574268918554873
57:17.6;-0.0024069441554726667;-0.22012173309336985;-0.9691621462929072;0.9890000000000001;0.0005134821851392763
57:17.6;-0.003981001984272445;-0.21895884325623002;-0.9672747574611114;0.977;0.0008431497943961858
57:17.6;-0.005865533045545973;-0.21777801684410558;-0.9656640473910613;0.973;0.0012335239526039363
57:17.6;-0.007976337819672991;-0.21662505074793376;-0.9644798320149196;0.972;0.0016665001894540636
57:17.7;-0.010209076291320902;-0.2155483431346558;-0.9638078435326672;0.977;0.002120906848452277
57:17.7;-0.012451934168291842;-0.21459058460381145;-0.9636691149538675;0.983;0.0025749892433594656
57:17.7;-0.014599650653942711;-0.2137811691257095;-0.9640328701802927;0.998;0.0030088722838627294
57:17.7;-0.01656623508770108;-0.2131308094490666;-0.9648379020461354;0.998;0.0034066256340652204
57:17.7;-0.018293635777821997;-0.21262922601315687;-0.9660151908092801;1.0;0.00375756881007398
57:17.7;-0.01975459974764664;-0.21224652004217268;-0.9675048899314987;0.9990000000000001;0.004056598089822988
57:17.7;-0.020949551469921196;-0.21193837132099572;-0.9692637548630054;0.996;0.004303544465305241
57:17.7;-0.021898630491226936;-0.21165416913190624;-0.9712627553508844;0.992;0.004501741139287673
57:17.7;-0.022630867974446446;-0.21134604744246455;-0.9734774639652262;0.99;0.004656088678828339
57:17.7;-0.023173032929118455;-0.2109764241486758;-0.9758755788022621;0.9890000000000001;0.004771020206377565
57:17.8;-0.02354080024896579;-0.21052245948565013;-0.9784064680385135;0.991;0.004848852490612255
57:17.8;-0.023734388166300753;-0.20997720517355878;-0.980996636598674;1.006;0.004888973802167017
57:17.8;-0.02373947652002036;-0.20934811145546992;-0.9835525040518113;1.006;0.004888073571299017
57:17.8;-0.02353224646501923;-0.2086537538805619;-0.9859688437849583;1.006;0.004841197300429896
57:17.8;-0.023086106778378187;-0.20791946530884337;-0.9881398111162542;1.013;0.004743121466179409
57:17.8;-0.022378090261381548;-0.2071724031992694;-0.9899702501243144;1.018;0.004589623587000844
57:17.8;-0.021394076261650494;-0.20643677390037976;-0.9913856958360364;1.02;0.004378478802226487
57:17.8;-0.02013254580445347;-0.20573019667234557;-0.9923390904973454;1.0170000000000001;0.004110142096644839
57:17.8;-0.018606428171004163;-0.20506192266185516;-0.9928124246122562;1.012;0.0037880459568210975
57:17.8;-0.01684250175112363;-0.20443303108060948;-0.9928133556258052;1.0090000000000001;0.0034184188910438944
57:17.9;-0.01487831563162015;-0.2038383535649994;-0.9923690950443799;1.0090000000000001;0.003009628572153001
57:17.9;-0.012757477704392553;-0.20326961058764503;-0.9915207305408514;1.012;0.0025712190196840266
57:17.9;-0.010524680410826322;-0.20271890020355476;-0.9903200715417952;1.014;0.002112899010660078
57:17.9;-0.008221795316197397;-0.2021815853994664;-0.9888289314983237;1.014;0.0016437259937085876
57:17.9;-0.005886021026257586;-0.20165793684391817;-0.9871190027241769;1.012;0.0011716735910555567
57:17.9;-0.0035502594943456023;-0.20115328716521416;-0.985270131444865;1.006;0.0007036270854535908
57:17.9;-0.0012447325783151563;-0.20067675400960333;-0.9833658088847876;1.001;0.00024563385723457964
57:17.9;0.0010015012702422007;-0.2002389538037932;-0.9814863258261772;0.997;0.0001968268423917267
57:17.9;0.003159446225603764;-0.19984956046317912;-0.9797014155060716;0.9940000000000001;0.0006185971302925
57:17.9;0.005198760344085654;-0.19951562437308665;-0.9780646879077163;0.996;0.0010144818663557732
57:18.0;0.0070856655135463995;-0.19924094250607755;-0.9766115286975691;0.998;0.0013787358914947648
57:18.0;0.008780975311895351;-0.1990259651929641;-0.9753605782662673;1.001;0.0017045811963696312
57:18.0;0.010239549007259385;-0.19886762086795368;-0.9743171169780667;0.995;0.001984016316318654
57:18.0;0.0114119116763403;-0.19875911309099512;-0.9734759244746838;0.995;0.002208058966587637
57:18.0;0.012247872355929654;-0.19869033853372758;-0.9728221326984954;0.991;0.002367395643181421
57:18.0;0.012701461687900014;-0.19864940811938275;-0.9723303248716723;0.9890000000000001;0.002453323442034262
57:18.0;0.01273645785404414;-0.19862501224350484;-0.971963339709546;0.9890000000000001;0.0024588525400403576
57:18.0;0.012331827690443931;-0.1986087153529091;-0.9716725635106401;0.991;0.002379828658578635
57:18.0;0.011486299289158954;-0.19859616742683298;-0.9714009689916682;0.991;0.0022158967656664558
57:18.0;0.010220965541837775;-0.1985867437455936;-0.971088983208476;0.993;0.001971066178720694
57:18.1;0.008578735814405773;-0.1985819088442722;-0.9706821225109051;0.9940000000000001;0.0016536363329401418
57:18.1;0.0066202867489977444;-0.1985829857903559;-0.9701387977425739;0.992;0.0012754184942261324
57:18.1;0.004417759784245363;-0.19858882711495213;-0.9694368296267676;0.992;0.0008505041226523076
57:18.1;0.0020484902189405857;-0.1985937461603121;-0.9685777909783811;0.992;0.0003940342468551863
57:18.1;-0.0004095738745929613;-0.19858622962017083;-0.9675888476179858;0.9890000000000001;7.869954671838626e-05
57:18.1;-0.0028808308414464802;-0.1985489377850713;-0.9665220375519473;0.988;0.0005528369809092265
57:18.1;-0.005294592926919327;-0.19846014660198882;-0.9654511354975066;0.987;0.0010144629270792962
57:18.1;-0.007588204781384201;-0.19829642165189673;-0.9644664842747269;0.985;0.001451246081484809
57:18.1;-0.009710536256670961;-0.19803613890006733;-0.9636682382929965;0.9840000000000001;0.001853169780997879
57:18.1;-0.011624863087037347;-0.19766339812075698;-0.9631584409063964;0.983;0.0022131550397645728
57:18.2;-0.013310146778498054;-0.19717173749108763;-0.963032451767562;0.982;0.0025273676961389212
57:18.2;-0.014760241407234137;-0.19656690144808578;-0.9633703668026695;0.982;0.0027950986190297972
57:18.2;-0.015981145686105577;-0.19586799669232063;-0.9642290756371678;0.981;0.003018225022143621
57:18.2;-0.016986861191348856;-0.19510671782192612;-0.9656355829694732;0.981;0.003200358438803352
57:18.2;-0.01779464676657687;-0.19432467730051262;-0.9675823717988885;0.9840000000000001;0.003345840810052533
57:18.2;-0.018420533454566464;-0.19356912011514654;-0.9700256956686819;0.987;0.003458768680936379
57:18.2;-0.018875907277422443;-0.19288764233049227;-0.9728872835419294;0.992;0.0035422137691487146
57:18.2;-0.019165655979199166;-0.19232303679828167;-0.9760590549965857;0.995;0.0035977509048568186
57:18.2;-0.01928795204888477;-0.191909605764513;-0.9794097039488345;0.998;0.0036253274018544935
57:18.2;-0.01923555166749303;-0.19167175171786754;-0.9827919674451789;1.001;0.0036234673836521847
57:18.3;-0.018998364445285326;-0.1916246017094029;-0.9860500392810617;1.002;0.0035897684343842965
57:18.3;-0.018566638974432455;-0.191775539879707;-0.9890274198917706;1.006;0.0035215579457424043
57:18.3;-0.01793375703164926;-0.1921253619499661;-0.9915758668113223;1.014;0.0034165039609024193
57:18.3;-0.017097995275468025;-0.1926683152542819;-0.993565542185921;1.014;0.003273045283132379
57:18.3;-0.016063555531913274;-0.1933911142752371;-0.9948952926861985;1.015;0.00309069088063028
57:18.3;-0.01484164391244858;-0.19427159629896462;-0.9955014830521375;1.018;0.0028703392363254644
57:18.3;-0.013451752300490474;-0.19527765014649068;-0.9953643664692692;1.018;0.0026146495742206564
57:18.3;-0.01192227946826433;-0.196366641870927;-0.994511583319671;1.0170000000000001;0.002328288841874951
57:18.3;-0.010289477404019398;-0.1974855395272719;-0.9930183919173949;1.0170000000000001;0.0020178362084094367
57:18.3;-0.008594697550920025;-0.19857245280797017;-0.9910040716658105;1.016;0.0016913170912549805
57:18.4;-0.006881070746285511;-0.1995603321616701;-0.9886239459740849;1.014;0.0013575672941924122
57:18.4;-0.005191111814734149;-0.2003825698108295;-0.9860566470932174;1.008;0.0010257043338312089
57:18.4;-0.0035662366564319786;-0.2009792778249353;-0.9834868815501366;0.992;0.000704904060731033
57:18.4;-0.0020481501986815568;-0.20130304510333366;-0.981085654311608;0.992;0.0004045005084349897
57:18.4;-0.000680839890814229;-0.20132349157600143;-0.978992124351329;0.99;0.00013418953417067042
57:18.4;0.0004888453786480749;-0.20103022446178914;-0.9773017726780124;0.993;9.604208019891279e-05
57:18.4;0.0014136575560609885;-0.20043396449843218;-0.9760632959129631;0.997;0.0002765626432624859
57:18.4;0.00205163109478694;-0.19956593407200926;-0.975283302860721;0.9990000000000001;0.00039931577820551226
57:18.4;0.0023736210333178027;-0.19847592934397193;-0.9749355496322034;1.0;0.0004592986114894446
57:18.4;0.0023707283536874048;-0.1972295549376404;-0.9749708482758233;0.997;0.000455874624927831
57:18.5;0.002059994841372998;-0.19590493380274626;-0.9753248853511256;0.993;0.0003936051859640211
57:18.5;0.0014871558207013318;-0.1945890082757178;-0.9759233896597583;0.99;0.00028241678625028473
57:18.5;0.0007252930875295875;-0.19337333663173953;-0.9766861683194077;0.998;0.00013698252482204627
57:18.5;-0.00013134930706261793;-0.19234912223897194;-0.9775320182864561;0.998;2.469727207155881e-05
57:18.5;-0.0009778532849062996;-0.1916012561357714;-0.9783850108179416;1.002;0.00018330817834018079
57:18.5;-0.001711577681385673;-0.19120145990777404;-0.9791806648841771;1.003;0.0003204428959412408
57:18.5;-0.0022451241363079287;-0.19120123045420526;-0.9798697925574908;1.0;0.0004206291932232116
57:18.5;-0.0025166564351038726;-0.191626046795359;-0.9804185252384215;0.998;0.0004728136220190492
57:18.5;-0.0024951562048987283;-0.19247247778788945;-0.980804608509738;0.995;0.00047103033162969066
57:18.5;-0.0021796084573245736;-0.1937089354472509;-0.981011724755541;0.995;0.00041419260121967
57:18.6;-0.001593346410332518;-0.19527942715110685;-0.981024463805383;0.997;0.00030524357841060437
57:18.6;-0.0007763577843894375;-0.19710880228991612;-0.9808261022148129;1.0;0.00015009282987368957
57:18.6;0.00022168745674023006;-0.19910809640785893;-0.9803998777168831;1.002;4.327462266832111e-05
57:18.6;0.0013461674580118588;-0.20117926194867222;-0.9797328752485078;1.002;0.0002653322131630804
57:18.6;0.0025398699936749953;-0.2032192519259464;-0.9788208282586162;1.001;0.0005052188404412748
57:18.6;0.003743778916332717;-0.20512380851490483;-0.9776723381092685;0.998;0.0007507919253065839
57:18.6;0.004897441569003301;-0.20679128261398053;-0.976311929963695;0.997;0.0009887581727318824
57:18.6;0.005939825958640475;-0.20812646228819662;-0.9747823094871723;0.9990000000000001;0.0012050599726717987
57:18.6;0.006810764915021209;-0.20904414264828916;-0.9731463208027773;1.001;0.0013855175729217207
57:18.6;0.007452322979858572;-0.20947225074459935;-0.9714881637983933;0.9990000000000001;0.001516546327172339
57:18.7;0.007809467847830371;-0.20935454756342584;-0.9699122785005406;0.997;0.0015857557596981279
57:18.7;0.007830219492432402;-0.2086531329412462;-0.9685381493588;0.9940000000000001;0.0015823974625250288
57:18.7;0.007466215001325811;-0.20735119114468697;-0.9674902847781952;0.988;0.001497799354804075
57:18.7;0.006674847350594254;-0.20545642988059407;-0.9668840311117695;0.988;0.0013259753879223608
57:18.7;0.005423831091932049;-0.2030052181600351;-0.966808987005434;0.9840000000000001;0.0010645205176996147
57:18.7;0.0036983482913974883;-0.20006674570806693;-0.9673123114465942;0.9790000000000001;0.0007157303468134824
57:18.7;0.0015099047101913329;-0.19674613882798786;-0.9683844876455325;0.976;0.0002876759671788186
57:18.7;-0.0010952139354147938;-0.19318545105378968;-0.9699506414533261;0.9740000000000001;0.0002052215729185009
57:18.7;-0.004031086747603228;-0.189561423478095;-0.9718710238950978;0.9790000000000001;0.0007426441072494924
57:18.7;-0.007174057259052932;-0.18607867722252694;-0.973953657717662;0.991;0.0013001688047470877
57:18.8;-0.010372408095587926;-0.182956878094432;-0.9759795217354407;1.004;0.0018521196601340637
57:18.8;-0.01346145972891694;-0.18041133243186677;-0.9777363578281639;1.01;0.00237453040732753
57:18.8;-0.016279689697022634;-0.17862923078378004;-0.9790533523496616;1.01;0.0028471150007208317
57:18.8;-0.0186822569521108;-0.1777470370952793;-0.979828102323443;1.01;0.003253730679766694
57:18.8;-0.020550780645113332;-0.17783516111643283;-0.9800398922681668;1.005;0.003581704151683545
57:18.8;-0.02180001319455366;-0.17889306044251144;-0.979747490400695;0.997;0.003820888901616356
57:18.8;-0.022382025866703327;-0.18085394909281166;-0.9790734937615517;0.993;0.003963169827353627
57:18.8;-0.022287599725433004;-0.18359607644425815;-0.9781799137721399;0.9890000000000001;0.004002629905982915
57:18.8;-0.021544279958662513;-0.1869574134890009;-0.9772407781041762;0.986;0.003936191832036194
57:18.8;-0.02021129537769529;-0.1907513441914005;-0.9764170264299676;0.987;0.0037644115741180314
57:18.9;-0.018372372643014043;-0.19478151347326705;-0.9758375813341491;0.987;0.00349213095311107
57:18.9;-0.01612794782977308;-0.19885432180187942;-0.9755887948989537;0.9890000000000001;0.0031288226558131675
57:18.9;-0.013588458386134868;-0.20278825395886949;-0.9757126710135701;1.002;0.00268865407817761
57:18.9;-0.010869837095385674;-0.20642013276155569;-0.976212285388764;1.002;0.0021903794551579882
57:18.9;-0.008090759768262777;-0.2096088506072934;-0.9770609959318522;1.003;0.001656992716574329
57:18.9;-0.005369862876862702;-0.21223732054600059;-0.9782115471915499;1.002;0.0011148533291200158
57:18.9;-0.0028215683141940085;-0.21421376282624624;-0.9796026189207787;1.003;0.0005920902057603132
57:18.9;-0.00055079601605008;-0.2154734552165211;-0.9811624734749962;1.005;0.00011644624686862182
57:18.9;0.0013521522596523785;-0.21598111818874072;-0.982810613482108;1.006;0.0002870193796152237
57:18.9;0.0028155295018047997;-0.2157328838176817;-0.9844586117400255;1.006;0.0005979624239409334
57:19.0;0.003788680020191824;-0.21475647420215238;-0.9860111706612231;1.005;0.0008022616420709029
57:19.0;0.004243608180568359;-0.21310894701223415;-0.9873684570973674;1.01;0.0008929275240687023
57:19.0;0.004176261958015719;-0.21087245675732663;-0.988430548046825;1.01;0.0008704698815675449
57:19.0;0.003607877870362948;-0.20814921887260462;-0.9891040286862647;1.01;0.0007427943370848783
57:19.0;0.0025860547843180445;-0.2050566939164421;-0.9893099873365717;1.013;0.0005246190605875955
57:19.0;0.0011846523845750864;-0.20172308206902673;-0.9889924378573093;1.015;0.00023634123402641957
57:19.0;-0.0004986553535688542;-0.1982825800952886;-0.9881260078474678;1.014;9.770063302729964e-05
57:19.0;-0.002347990696499924;-0.19486997730459546;-0.9867212759128302;1.0090000000000001;0.00045147717510710393
57:19.0;-0.0042377951927352496;-0.19161452776335652;-0.9848262981250292;1.003;0.0007997017278053155
57:19.0;-0.006043006604280729;-0.1886333229935458;-0.9825240564814028;1.001;0.001119991371628114
57:19.1;-0.007649397172647332;-0.18602465008388747;-0.9799268455844724;0.9990000000000001;0.0013944128067372886
57:19.1;-0.008962795606850218;-0.1838619696977295;-0.977168886295056;0.9940000000000001;0.0016102934680649775
57:19.1;-0.009916121866797299;-0.18218917461159495;-0.9743978287236429;0.9940000000000001;0.0017603569181186313
57:19.1;-0.010473530247306137;-0.1810177999279645;-0.9717652095862399;0.988;0.001842365193500569
57:19.1;-0.010631485334872978;-0.18032679529178836;-0.9694158554521405;0.981;0.001858507541380781
57:19.1;-0.010416838800594104;-0.18006526153760277;-0.9674767654454074;0.977;0.0018147066206206921
57:19.1;-0.00988196198720284;-0.18015831049028466;-0.9660470572554959;0.976;0.0017198705552206295
57:19.1;-0.00909716066022877;-0.1805158806292164;-0.9651912909998425;0.978;0.001585019733563972
57:19.1;-0.008140998411569976;-0.1810435736371731;-0.9649379638862381;0.9840000000000001;0.001422198371311195
57:19.1;-0.007089728896085722;-0.18165347164007564;-0.9652832479685722;0.987;0.0012431630692738937
57:19.2;-0.006007800991765562;-0.18227240116160223;-0.9661980394352798;0.9890000000000001;0.0010580412621798998
57:19.2;-0.004941747246196409;-0.18284591757751495;-0.967635267736751;0.9890000000000001;0.0008743342395956906
57:19.2;-0.00391884068791863;-0.18333805062420316;-0.9695348248975759;0.987;0.0006965842184858426
57:19.2;-0.0029499197115477552;-0.18372861052877618;-0.9718250627963488;0.985;0.0005267142663013887
57:19.2;-0.0020340464800480402;-0.18401046922337588;-0.9744217442707491;0.986;0.000364712268099871
57:19.2;-0.0011623011154333956;-0.18418826101304936;-0.9772267863226126;0.991;0.00020920688105671337
57:19.2;-0.00031913287749070436;-0.18427832333407873;-0.9801293136116391;0.997;5.764069099237811e-05
57:19.2;0.0005183848088871704;-0.18430868195495598;-0.9830102929175499;1.002;9.391957633102894e-05
57:19.2;0.0013814150330547965;-0.1843178676387977;-0.9857501685213186;1.006;0.0002509911886323087
57:19.2;0.0023080774969080667;-0.18435201324478126;-0.9882375589900283;1.011;0.0004204938295299541
57:19.3;0.0033390032070511316;-0.18446048002361276;-0.99037670658468;1.011;0.0006099870119393197
57:19.3;0.004510497455541254;-0.18469073532936858;-0.9920918653614458;1.011;0.0008264592432032252
57:19.3;0.005847255568177145;-0.18508327885129464;-0.9933279120436093;1.0090000000000001;0.0010750085042092318
57:19.3;0.0073563463632336625;-0.1856673302683509;-0.9940478470635877;1.0070000000000001;0.0013577035417596233
57:19.3;0.009022827808843378;-0.18645782498559946;-0.9942290500532271;1.005;0.0016726679358724664
57:19.3;0.010806439818219854;-0.18745385196722977;-0.993860820115689;1.005;0.0020132725794452444
57:19.3;0.01263949770950257;-0.18863810865712055;-0.9929456313552052;1.011;0.002367471275033167
57:19.3;0.014427465465376552;-0.18997678165193882;-0.9915052576224319;1.014;0.0027176003576567663
57:19.3;0.01605395964451139;-0.19141977283376396;-0.9895905134417402;1.016;0.003041056484405791
57:19.3;0.0173908286284645;-0.19290182620156615;-0.9872911158622646;1.014;0.0033120878207314394
57:19.4;0.01831251732546175;-0.19434514397827157;-0.9847415844625667;1.014;0.0035046448963070936
57:19.4;0.01871287216987606;-0.19566365381212028;-0.9821201459012256;1.008;0.0035959631267997215
57:19.4;0.0185217616927941;-0.19676883501146597;-0.9796391477666313;1.008;0.0035703002332994624
57:19.4;0.017718372633220347;-0.19757699821459224;-0.9775267176176299;1.001;0.0034220696948712116
57:19.4;0.016338236107392674;-0.19801778521941305;-0.9760004281257522;0.99;0.0031576164415953656
57:19.4;0.014472134530807295;-0.19804325462203348;-0.9752353496946313;0.981;0.002795130446003161
57:19.4;0.012256641060004247;-0.19763632909967377;-0.9753314295489702;0.9740000000000001;0.0023626014484057632
57:19.4;0.009857537339141477;-0.19681689957783466;-0.9762873537131764;0.975;0.0018941243216263782
57:19.4;0.007448286900914107;-0.19564383215814632;-0.9779881933667842;0.98;0.0014251355369169533
57:19.4;0.005186246444261361;-0.19421155073642812;-0.9802117441519645;0.993;0.0009872976599953692
57:19.5;0.0031899695606355145;-0.19264074289091335;-0.9826541699750682;1.005;0.0006038587793469969
57:19.5;0.0015217561217846878;-0.1910641416605512;-0.9849706020920336;1.015;0.000286383184286363
57:19.5;0.00017945249497417417;-0.18961001884644263;-0.9868225036779412;1.022;3.3577613583442336e-05
57:19.5;-0.0009004431312595276;-0.18838707818319786;-0.9879223490607562;1.022;0.00016758309628877249
57:19.5;-0.0018293306229168111;-0.18747396995412013;-0.9880676697886077;1.0190000000000001;0.0003388596592268481
57:19.5;-0.0027460248629072857;-0.1869148324795692;-0.9871599388827076;1.012;0.0005066823234055069
57:19.5;-0.003793568651623002;-0.18672025196980632;-0.985207849651308;1.004;0.0006978582804886181
57:19.5;-0.0050978380319163085;-0.1868718362231943;-0.9823179981114726;0.998;0.0009357977298937829
57:19.5;-0.006751685789934144;-0.18732844116035274;-0.9786778503292428;0.9940000000000001;0.0012378148866196792
57:19.5;-0.008806294821450443;-0.18803260951136766;-0.9745358249643735;0.991;0.0016137052167260616
57:19.6;-0.011268838801019405;-0.18891646081266167;-0.9701817084192695;0.99;0.002065389902891218
57:19.6;-0.01410421283181639;-0.18990677279819912;-0.9659284084928373;0.987;0.0025872252765128797
57:19.6;-0.01723919008616383;-0.19092929948380566;-0.962094345643398;0.9790000000000001;0.0031667012958437116
57:19.6;-0.020568577694540475;-0.19191254858957532;-0.9589853791016497;0.9790000000000001;0.0037854683573381445
57:19.6;-0.023963293313122726;-0.19279122133643034;-0.9568759340485103;0.976;0.0044206831700709355
57:19.6;-0.027279931184523182;-0.19350937857298933;-0.9559898046285541;0.973;0.005046596119089592
57:19.6;-0.0303709652228357;-0.19402339371967184;-0.9564814058283481;0.97;0.005636236691791431
57:19.6;-0.03309428676047109;-0.19430484384878047;-0.9584186978622456;0.968;0.006162996638438411
57:19.6;-0.03532077139381003;-0.19434338472330975;-0.9617699536066212;0.968;0.00660193352882884
57:19.6;-0.036939576498648694;-0.1941492240890753;-0.9663974563538641;0.972;0.006930799725018311
57:19.7;-0.037862229598451244;-0.19375415993933806;-0.972061433362561;0.983;0.007131008156544675
57:19.7;-0.03802701081971791;-0.1932096993456556;-0.9784364497727047;0.9940000000000001;0.007188755884525976
57:19.7;-0.037404172634157254;-0.19258121717798515;-0.9851398342517635;1.0170000000000001;0.007096298250832162
57:19.7;-0.036000878422340385;-0.19193875646061043;-0.9917681142406981;1.0170000000000001;0.0068530818029758165
57:19.7;-0.03386363678256629;-0.1913469832697929;-0.9979348158491217;1.025;0.006466322957354803
57:19.7;-0.031076203218086136;-0.19085737480757214;-1.0033034102088776;1.031;0.0059507154960225005
57:19.7;-0.027752181928920986;-0.1905044859623732;-1.0076120446526373;1.036;0.005327159386920438
57:19.7;-0.024023150935585914;-0.19030628729392376;-1.010688982281953;1.041;0.0046206240896280925
57:19.7;-0.02002453506546002;-0.19026736406689254;-1.0124581375148916;1.041;0.003857481200647483
57:19.7;-0.0158823905277438;-0.19038351319187102;-1.0129340536737963;1.037;0.003062854590648059
57:19.8;-0.011704142852774565;-0.19064654763300168;-1.0122064048858521;1.03;0.0022585912434755447
57:19.8;-0.007574746771164907;-0.19104841421900742;-1.0104159440966682;1.013;0.0014622167230661195
57:19.8;-0.0035577788623728976;-0.1915840106101251;-1.0077264195837539;1.013;0.0006868799755469668
57:19.8;0.00029991544331533517;-0.1922525511577954;-1.0042989300025824;1.013;5.790738330263719e-05
57:19.8;0.003961507172418583;-0.1930578051344123;-1.0002744793968101;1.011;0.0007650098015410327
57:19.8;0.0073931656581687835;-0.19400755847408654;-0.9957672010615499;1.0090000000000001;0.0014282587881550971
57:19.8;0.010558584574751454;-0.19511217211885679;-0.9908675292580226;1.008;0.002041294491458044
57:19.8;0.013416278003044018;-0.1963817616854143;-0.9856530921393913;1.01;0.002596912334755462
57:19.8;0.015920070407222493;-0.1978219550034694;-0.9802042634250834;1.008;0.003086995957577805
57:19.8;0.018022695297472763;-0.19942912939901178;-0.9746202894260338;1.0070000000000001;0.0035030293968889505
57:19.9;0.019681992981563572;-0.2011866042214766;-0.969031308042424;1.001;0.003837124951096603
57:19.9;0.020868492618139525;-0.2030630665645921;-0.9636021581699975;0.993;0.004083379879279972
57:19.9;0.021572304801774623;-0.20501376754219275;-0.9585258944211844;0.9740000000000001;0.004239195294649771
57:19.9;0.021807033497739887;-0.20698401536605093;-0.9540082091285564;0.9740000000000001;0.004306113871785264
57:19.9;0.02160929457736093;-0.20891362318893886;-0.9502470967869467;0.9690000000000001;0.004289867735998338
57:19.9;0.02103374136087323;-0.21074091103723963;-0.9474127612366289;0.966;0.004199567950890948
57:19.9;0.020144413646170166;-0.21240565018933738;-0.9456308775643136;0.9640000000000001;0.004046153368793145
57:19.9;0.019003686775534222;-0.21385116421425956;-0.9449704283402462;0.961;0.00384032253348063
57:19.9;0.017660543125018954;-0.2150261246800028;-0.9454368480828202;0.963;0.003590275770829932
57:19.9;0.01614061189635695;-0.21588648109297479;-0.9469712682418301;0.966;0.0032997591730694535
57:20.0;0.014440932813996277;-0.21639758935521305;-0.9494563202371017;0.972;0.0029670349064967825
57:20.0;0.01253164128570955;-0.2165361615809962;-0.9527280086721067;0.9840000000000001;0.002585278424688159
57:20.0;0.01036461611124646;-0.21629152300527232;-0.9565916768762676;0.9840000000000001;0.0021444667540492924
57:20.0;0.007886909497955154;-0.2156659172169766;-0.9608388658779003;0.9840000000000001;0.0016343269265370844
57:20.0;0.005055796692117528;-0.2146738969714098;-0.9652623870237949;0.9890000000000001;0.0010476451940761363
57:20.0;0.0018525713115176237;-0.2133409812330706;-0.969668999675115;0.996;0.0003832416789076555
57:20.0;-0.0017069572984426899;-0.2117019674823594;-0.9738902942901805;1.003;0.0003519310528704803
57:20.0;-0.005566495439381713;-0.209799557819788;-0.97779152768726;1.0070000000000001;0.0011419121555565769
57:20.0;-0.009628459397286723;-0.2076838726573631;-0.981276800998342;1.0090000000000001;0.0019622354086208916
57:20.0;-0.01375853951332292;-0.2054127911720709;-0.9842889031288955;1.006;0.0027817776160667046
57:20.1;-0.017795450569435982;-0.20305222904934467;-0.9868036156677881;1.004;0.0035657220119899315
57:20.1;-0.02156518392651341;-0.20067512814284677;-0.9888203143012396;1.008;0.004279214884230674
57:20.1;-0.024898068398680237;-0.1983586181983904;-0.9903517635159367;1.008;0.004891096249750751
57:20.1;-0.027645580698439955;-0.19618009877602693;-0.9914153113531886;1.008;0.0053769535837914365
57:20.1;-0.029693674307945946;-0.19421352828607075;-0.992026345766361;1.008;0.005720929882831887
57:20.1;-0.030971085008635133;-0.1925265581290962;-0.9921942614840168;1.01;0.005916212680957034
57:20.1;-0.031452746720012595;-0.19117856072559955;-0.9919210440516967;1.011;0.005964511352718239
57:20.1;-0.031158754902838804;-0.19021973081716453;-0.9912021796386652;1.0070000000000001;0.005874865201218202
57:20.1;-0.030149170184857254;-0.1896913685387968;-0.9900293673365336;1.005;0.0056620149320424995
57:20.1;-0.028515242019490964;-0.18962669924622377;-0.9883949760133233;1.0070000000000001;0.005344499942225783
57:20.2;-0.026368219969961262;-0.19005099287599664;-0.9862986032479202;1.0070000000000001;0.004942644488627608
57:20.2;-0.02382757803148698;-0.1909801269188661;-0.9837554940626189;1.004;0.004476671727375163
57:20.2;-0.021010793052147616;-0.1924177201951885;-0.9808055167739913;1.004;0.003965248503217932
57:20.2;-0.018026195942363307;-0.19435154596383725;-0.977521001637784;1.004;0.003424665698175216
57:20.2;-0.014968989633695622;-0.19674995993374045;-0.9740118360062838;1.0;0.0028686091185921017
57:20.2;-0.011919374172859876;-0.19955913843511275;-0.9704261384521249;0.998;0.0023082750608653057
57:20.2;-0.008941729679529185;-0.2027020141454596;-0.9669449659591428;0.992;0.0017525941480941445
57:20.2;-0.006084686337343037;-0.20607955506690578;-0.9637703352628705;0.986;0.0012085000094307356
57:20.2;-0.0033826326097921616;-0.20957457782566727;-0.9611071907792332;0.9790000000000001;0.0006813421519149559
57:20.2;-0.0008590371295029721;-0.2130578495990422;-0.9591415716038837;0.972;0.00017554650587926705
57:20.3;0.0014691444415370486;-0.21639580950263493;-0.9580188199654273;0.971;0.00030457018245450847
57:20.3;0.0035877733115610034;-0.2194589870557301;-0.9578264285482253;0.9740000000000001;0.0007541629298804444
57:20.3;0.005484004854229697;-0.22213033818646066;-0.9585851097296808;0.9840000000000001;0.0011677137305876818
57:20.3;0.007146738918269207;-0.224312970168728;-0.9602489429268216;0.9840000000000001;0.001539381066384154
57:20.3;0.008567606294765273;-0.2259366479994214;-0.962712653324504;0.9890000000000001;0.0018635577790807518
57:20.3;0.009741446882727947;-0.22696228332674667;-0.9658230452899159;0.995;0.00213537779604969
57:20.3;0.010666500861814093;-0.2273837487599108;-0.969392247293787;0.997;0.0023511532468475406
57:20.3;0.011345223589103831;-0.22722687644452053;-0.9732112131139177;1.001;0.002508879840986886
57:20.3;0.011786309121931137;-0.22654618292085588;-0.977062346006829;1.005;0.002608896518200945
57:20.3;0.012007691027073511;-0.22542025441372696;-0.9807306230157218;1.005;0.0026546188643232897
57:20.4;0.012039492651471837;-0.2239464322422197;-0.9840133157535292;1.008;0.0026530981044523274
57:20.4;0.011925365989223833;-0.22223478483586426;-0.9867290538514534;1.014;0.002615060069901523
57:20.4;0.011720697820323098;-0.22040104337818114;-0.988726975360721;1.016;0.002554132942404312
57:20.4;0.011487069175060764;-0.2185585938049873;-0.9898957193615879;1.016;0.002485229902254002
57:20.4;0.011283825133449341;-0.21681050254717982;-0.9901709453620079;1.0170000000000001;0.00242240548944749
57:20.4;0.011158755974672106;-0.21524294923190923;-0.9895400315186333;1.016;0.002376720337961918
57:20.4;0.01114020686926138;-0.2139208233233892;-0.9880433007715371;1.014;0.0023546279497907168
57:20.4;0.0112325292884544;-0.21288548795440618;-0.9857716173973587;1.011;0.002357218965654493
57:20.4;0.011415778713638037;-0.2121546598709482;-0.9828603465324597;1.0070000000000001;0.0023803999408809054
57:20.4;0.011649374777181302;-0.21172450601639903;-0.9794798423949274;1.004;0.0024158460107478754
57:20.5;0.01187880815043921;-0.21157374544067858;-0.9758229387274824;0.9990000000000001;0.0024524810792287467
57:20.5;0.01204438165122523;-0.21166907917706015;-0.9720902103445638;0.9940000000000001;0.0024782693088604185
57:20.5;0.012090808517713374;-0.21197116688021927;-0.9684740749445628;0.9840000000000001;0.0024821049087422995
57:20.5;0.011976214453278018;-0.21244035814015672;-0.9651433674173269;0.9840000000000001;0.0024555479524198715
57:20.5;0.011679044542817726;-0.2130411568073082;-0.9622306465638915;0.9790000000000001;0.00239414258340681
57:20.5;0.011201565471195314;-0.2137445419328533;-0.9598244051539974;0.977;0.0022980821192655388
57:20.5;0.010569026492395547;-0.2145281193126741;-0.9579674320864051;0.9790000000000001;0.0021720506916026575
57:20.5;0.009824417264639996;-0.2153746413171684;-0.9566614815771823;0.981;0.002024229058304569
57:20.5;0.009020094780310382;-0.21626913060195607;-0.9558772565789787;0.9840000000000001;0.0018646948176724064
57:20.5;0.00820837077576038;-0.21719480165936225;-0.9555673441248316;0.986;0.0017036002366496894
57:20.6;0.007432918388775942;-0.21812895486652623;-0.955678742756501;0.985;0.0015494751265599407
57:20.6;0.006722401963492835;-0.21904079094573825;-0.9561618987107664;0.982;0.0014079295050935467
57:20.6;0.006087483504546745;-0.21989231603454748;-0.9569748731877193;0.982;0.0012809978057105773
57:20.6;0.005521580090993868;-0.22064183722700217;-0.9580833953037808;0.982;0.001167224929290709
57:20.6;0.005004536327847645;-0.22124870004824945;-0.9594587094509228;0.9840000000000001;0.0010623579281837982
57:20.6;0.0045078083223793605;-0.22167828205490278;-0.9610748960917279;0.987;0.0009603860021596381
57:20.6;0.003999973265525929;-0.22190669126785514;-0.9629064795085962;0.9890000000000001;0.0008546958509733286
57:20.6;0.0034518006408919373;-0.22192446274109506;-0.96492642902177;0.991;0.0007391712793853424
57:20.6;0.0028404708583744287;-0.22173834382696034;-0.9671043672254791;0.993;0.0006091222755878477
57:20.6;0.0021525489600921635;-0.22137053960865727;-0.9694048574100439;0.992;0.0004619320051388211
57:20.7;0.0013850954778918728;-0.2208554256385168;-0.9717859722053585;0.993;0.00029727501512811426
57:20.7;0.0005446657022575364;-0.22023436124835655;-0.9741988486208844;0.995;0.00011685914905973815
57:20.7;-0.00035490565818111354;-0.21954967766701727;-0.9765891326752268;1.005;7.609526158536255e-05
57:20.7;-0.0012944004496262395;-0.21883922928911542;-0.9789003935457137;1.005;0.0002772888041734319
57:20.7;-0.0022499435230832828;-0.21813297967392017;-0.9810780368345566;1.0090000000000001;0.00048150023343214915
57:20.7;-0.003192743711520851;-0.217452537193144;-0.9830715592163196;1.0070000000000001;0.0006825173083590499
57:20.7;-0.004088354159070345;-0.2168133871773354;-0.9848340130145484;1.0070000000000001;0.0008729666320010915
57:20.7;-0.004895874506839717;-0.21622857129185766;-0.9863192796196517;1.0070000000000001;0.0010441451568696226
57:20.7;-0.00556775285057548;-0.21571230242709097;-0.9874788771847066;1.0070000000000001;0.0011859945077146372
57:20.7;-0.006051329668015164;-0.2152822484651431;-0.9882602213527107;1.008;0.001287449932617262
57:20.8;-0.0062933300673688655;-0.2149596526885025;-0.9886078025537148;1.011;0.0013374005436052653
57:20.8;-0.006247659967748939;-0.21476706679531468;-0.9884678908721235;1.012;0.0013263179183852104
57:20.8;-0.005885329895449098;-0.2147242090888518;-0.9877962696040903;1.013;0.001248300674595159
57:20.8;-0.005204034167121523;-0.214843137921806;-0.9865674624232167;1.013;0.0011030327678391901
57:20.8;-0.00423461969895113;-0.21512424898810606;-0.9847833708916914;1.013;0.0008971074992647705
57:20.8;-0.0030422939898854164;-0.21555432444948697;-0.9824793000374785;1.0090000000000001;0.000644289907701896
57:20.8;-0.0017214655324394065;-0.2161071644293836;-0.9797259594330333;1.005;0.0003644786653255096
57:20.8;-0.0003845169947243991;-0.21674661718771798;-0.976627069377018;1.002;8.139479336036507e-05
57:20.8;0.00085343520994893;-0.2174312550241065;-0.9733132337031654;0.9990000000000001;0.00018061139932263497
57:20.8;0.00189039018853041;-0.2181195388102854;-0.9699332109600045;0.995;0.00039993356581686823
57:20.9;0.002650435503647779;-0.21877423979092384;-0.9666436548333629;0.9890000000000001;0.0005605054353351117
57:20.9;0.0030913888199619217;-0.21936529580479144;-0.9635983646348233;0.983;0.0006534578933314694
57:20.9;0.0032060476237768623;-0.21987090139938611;-0.9609384045710164;0.982;0.0006773814146721782
57:20.9;0.0030175148153292605;-0.22027699713734952;-0.9587846819883937;0.982;0.0006372937296064755
57:20.9;0.0025705548279291667;-0.22057542290758367;-0.9572339915018153;0.983;0.0005427528393582657
57:20.9;0.0019215430845715901;-0.2207612034919844;-0.956358154321771;0.985;0.00040568919853791786
57:20.9;0.0011289499139328283;-0.2208298593568339;-0.9562045288715738;0.985;0.00023838738352757302
57:20.9;0.00024543218319891916;-0.22077595550580556;-0.9567956069775925;0.982;5.1844472049863804e-05
57:20.9;-0.0006875805548279685;-0.22059387752870482;-0.9581260888146047;0.98;0.00014532479080801847
57:20.9;-0.0016417992315659428;-0.22028094759855632;-0.9601576609695376;0.9790000000000001;0.0003472478260836181
57:21.0;-0.0026000864519182382;-0.2198419066837655;-0.9628136800090581;0.9790000000000001;0.0005503519665059229
57:21.0;-0.003551660188109939;-0.21929320442393246;-0.9659767806603152;0.992;0.0007523557910930647
57:21.0;-0.0044866872787851795;-0.2186657430132823;-0.9694914184138953;0.992;0.0009511533015917954
57:21.0;-0.005392046613108064;-0.21800526562870462;-0.9731712736506956;0.992;0.001143957532453976
57:21.0;-0.006248852060542483;-0.2173699216687534;-0.9768103658540073;0.998;0.001326813713384904
57:21.0;-0.007031753808874173;-0.21682481950820676;-0.9801973747457813;1.004;0.0014944665045598525
57:21.0;-0.007710176417321019;-0.21643407911840068;-0.9831330230419247;1.013;0.001640598250394136
57:21.0;-0.00825174038256026;-0.21625184270479156;-0.9854490363899525;1.018;0.0017584885371120429
57:21.0;-0.008627546425456462;-0.21631402853593892;-0.9870254668724305;1.0190000000000001;0.0018420454802517178
57:21.0;-0.008817774302632983;-0.21663209864710503;-0.9878027809792939;1.018;0.0018869136668171384
57:21.1;-0.008815186199308312;-0.21718969266329097;-0.9877862748313027;1.016;0.0018911835791413701
57:21.1;-0.008624753090667708;-0.21794316158517826;-0.9870421549998412;1.013;0.0018553490180418229
57:21.1;-0.008259432845333486;-0.2188268473330528;-0.9856862313986613;1.005;0.00178151515033157
57:21.1;-0.007733868495127922;-0.2197625816402909;-0.9838676057640113;1.005;0.001672196048833902
57:21.1;-0.007058601295393649;-0.22067122869019318;-0.9817508088226584;1.004;0.0015292047290077528
57:21.1;-0.006237012658751012;-0.221483586904828;-0.9794996249309433;1.003;0.0013530768004398864
57:21.1;-0.005265907937327913;-0.22214860112128698;-0.9772642350944828;1.003;0.0011432174639613886
57:21.1;-0.004139393999198793;-0.22263776322334974;-0.9751715873185096;0.9990000000000001;0.0008987039179259123
57:21.1;-0.002854997830749289;-0.22294563165942874;-0.9733181420996339;0.9940000000000001;0.0006195260442075784
57:21.1;-0.0014203629119534128;-0.223087514884018;-0.9717645027584428;0.991;0.0003079183848696601
57:21.2;0.00014176779226621395;-0.2230957555555925;-0.9705325563243338;0.988;3.069580252824949e-05
57:21.2;0.001792425612143509;-0.2230154899572424;-0.9696067076205567;0.99;0.0003875893016458914
57:21.2;0.0034798525557103244;-0.2229001128380861;-0.968940542587896;0.998;0.0007515679632724052
57:21.2;0.005146113416748911;-0.22280644198483743;-0.9684685338731556;0.998;0.0011104336443336013
57:21.2;0.0067341878832214855;-0.22278946204085281;-0.9681201943251799;1.0;0.0014524766289985723
57:21.2;0.00819325835293979;-0.2228965572753863;-0.9678330379059177;0.9990000000000001;0.0017675041948157935
57:21.2;0.009481372047665334;-0.22316162125471228;-0.967561420651013;0.997;0.0020472422698713387
57:21.2;0.010565812561591257;-0.22360005558972312;-0.9672799011015888;0.995;0.002285214509918569
57:21.2;0.011421976022548401;-0.22420578523700488;-0.9669812539398372;0.99;0.002476316284410354
57:21.2;0.01203168097838383;-0.2249509481323327;-0.9666705003193334;0.9890000000000001;0.002616330484849544
57:21.3;0.012381720316216207;-0.22578830279751383;-0.9663572212474415;0.988;0.0027015942616997104
57:21.3;0.012462874714003895;-0.22665591913602073;-0.9660486803952248;0.988;0.002728879168002004
57:21.3;0.012268841027110084;-0.22748343380857752;-0.965745705778457;0.99;0.0026953557862710443
57:21.3;0.011794585398161413;-0.2281990128808373;-0.9654422182825027;0.99;0.0025985000352607168
57:21.3;0.01103482944882448;-0.22873606246234118;-0.9651283326374281;0.992;0.0024360451374532757
57:21.3;0.009984347991472688;-0.2290388284553041;-0.9647962787029305;0.996;0.00220629937846894
57:21.3;0.008641205372750921;-0.22906645393656283;-0.9644477408140112;0.998;0.001909037765431237
57:21.3;0.0070124120826110005;-0.22879533226251383;-0.9641005570634779;0.996;0.0015468098293880237
57:21.3;0.005119850645292763;-0.22821939982198364;-0.9637926617252075;0.9940000000000001;0.0011261428045049172
57:21.3;0.0030035415780994127;-0.22734799964284894;-0.9635820646948554;0.992;0.0006579812127424512
57:21.4;0.0007200842681974334;-0.22620168417217326;-0.9635428616466993;0.991;0.00015694597969161716
57:21.4;-0.001663683372636522;-0.22480732335636092;-0.9637579068549706;0.9890000000000001;0.0003604533656791266
57:21.4;-0.00407934069507589;-0.2231943517362792;-0.9643089062741858;0.9890000000000001;0.0008779895678555049
57:21.4;-0.006464209475255397;-0.22139368394809752;-0.9652647888532409;0.9890000000000001;0.001381424367940205
57:21.4;-0.008764496882465021;-0.2194398694764089;-0.9666694223765179;0.986;0.0018591760168524855
57:21.4;-0.010933555830240993;-0.21737571754158638;-0.9685300855292928;0.985;0.002301895327210315
57:21.4;-0.012926557644791685;-0.2152574104778066;-0.970808734897739;0.987;0.002701311540298651
57:21.4;-0.01469395945535232;-0.2131576756404728;-0.9734185791622813;0.991;0.003048873771338338
57:21.4;-0.016176522440439284;-0.2111652419156645;-0.9762278266725067;0.9990000000000001;0.0033347154494236466
57:21.4;-0.017304298046767957;-0.20938016900877932;-0.9790705229340121;1.004;0.0035473456528306224
57:21.5;-0.018000786018280857;-0.20790591491905508;-0.9817622021524468;1.0070000000000001;0.0036742154771542287
57:21.5;-0.018191626093823476;-0.2068397864108551;-0.9841169432000069;1.01;0.003702988051087412
57:21.5;-0.017815465048323487;-0.20626362906353363;-0.9859628034892394;1.0090000000000001;0.0036231002343150415
57:21.5;-0.016834143899059184;-0.20623621250852583;-0.987153981529085;1.0090000000000001;0.0034272111421687125
57:21.5;-0.015240459164660573;-0.20678795185850085;-0.9875796386421453;1.0070000000000001;0.0031124000289746824
57:21.5;-0.013063201191204288;-0.207917805626351;-0.987170520288299;1.0090000000000001;0.0026812263338930192
57:21.5;-0.010369578631332976;-0.20959172922563887;-0.9859048608269596;1.011;0.002142743852471062
57:21.5;-0.007264798835644281;-0.21174224586692225;-0.983814187207452;1.011;0.0015133667548089189
57:21.5;-0.0038883759745959273;-0.21426955589345892;-0.9809879771828992;1.012;0.000817320525014791
57:21.6;-0.0004066714172460667;-0.2170453512555323;-0.9775748288309615;1.01;8.628675729033284e-05
57:21.6;0.002998982432620152;-0.21992031211669533;-0.9737776235497838;1.005;0.0006422425211155538
57:21.6;0.0061488313433714185;-0.22273529631110006;-0.9698411859385847;0.99;0.0013282574124285794
57:21.6;0.008884253261959525;-0.22533493692377213;-0.9660331690832633;0.99;0.0019339333406236208
57:21.6;0.011085905910966696;-0.22758116198728678;-0.9626213777876698;0.99;0.002428639202597905
57:21.6;0.012685340476377534;-0.22936407675182807;-0.9598512496987149;0.9840000000000001;0.0027927461522452048
57:21.6;0.013667452609220783;-0.23060902265951874;-0.9579254655887388;0.9790000000000001;0.003019225776761064
57:21.6;0.014064412450817996;-0.23127999564219245;-0.956986402049423;0.977;0.0031129018769225645
57:21.6;0.013943529501602481;-0.23137990623611773;-0.9571027404944134;0.977;0.0030878551558699806
57:21.6;0.013392245183123654;-0.23094790175647892;-0.9582622913779721;0.9790000000000001;0.002963819909875413
57:21.7;0.012503764866349115;-0.23005384603659582;-0.9603725666512632;0.983;0.0027625493321192583
57:21.7;0.011366159674944606;-0.22879037044663442;-0.9632692404407189;0.988;0.0025049507220492686
57:21.7;0.01005583884704761;-0.22726357929049387;-0.9667312014679433;0.997;0.0022092958812315088
57:21.7;0.008634528926153521;-0.2255838637444452;-0.9704998347922502;0.997;0.0018903496682766547
57:21.7;0.007148636181754626;-0.22385785235044656;-0.9742998808492171;0.997;0.001559150998795795
57:21.7;0.0056304254456640565;-0.2221816320516106;-0.9778601889957796;1.003;0.0012232807177733232
57:21.7;0.004100609304362389;-0.22063486934337248;-0.9809341639561224;1.011;0.0008874878232013465
57:21.7;0.002571818530433867;-0.21927588011336932;-0.9833197857141703;1.015;0.000554531168876049
57:21.7;0.0010524781158501675;-0.218138508317057;-0.984877517870313;1.018;0.00022611409595149458
57:21.7;-0.0004492939980086536;-0.21723178859491557;-0.9855431563969405;1.0190000000000001;9.618993728474703e-05
57:21.7;-0.0019221189726449637;-0.21654254509304088;-0.9853328899034708;1.0190000000000001;0.0004101157819070275
57:21.8;-0.003348416774397698;-0.21604019515337117;-0.9843388929072451;1.016;0.0007120634842072024
57:21.8;-0.004702401864370809;-0.21568288007535183;-0.9827150941552302;0.998;0.0009966967491990316
57:21.8;-0.005949352592389127;-0.21542431507981982;-0.9806548848567243;0.998;0.001256841826725263
57:21.8;-0.007046265377048581;-0.2152206310805612;-0.9783651791972786;0.998;0.0014836924390895106
57:21.8;-0.007943783108263327;-0.21503611888277674;-0.9760420847547852;0.9940000000000001;0.0016672753711054462
57:21.8;-0.008589583480110501;-0.2148469509655451;-0.9738514787966076;0.99;0.0017971901415917517
57:21.8;-0.008933825145491837;-0.21464263292107286;-0.9719155424435442;0.987;0.001863725564148776
57:21.8;-0.00893682526389968;-0.214425485516311;-0.9703058387292864;0.986;0.00185938067688763
57:21.8;-0.008577769167994412;-0.21420860544596854;-0.9690437646470441;0.99;0.0017805519947644822
57:21.9;-0.007861945768009177;-0.21401269960274574;-0.9681085120070982;0.995;0.001628897015882316
57:21.9;-0.006823861001765963;-0.21386221425348775;-0.9674508179953579;0.9990000000000001;0.001411864853282285
57:21.9;-0.00552479769138824;-0.21378136006301038;-0.967008817636697;0.9940000000000001;0.0011421329198080142
57:21.9;-0.004045387184153874;-0.2137907210573695;-0.9667218458686256;0.9940000000000001;0.0008360850909170413
57:21.9;-0.0024755041372236104;-0.21390488149918704;-0.966539617685854;0.9940000000000001;0.0005118043965357778
57:21.9;-0.000904083022660101;-0.214131098851908;-0.966426327134008;0.992;0.00018709268684494158
57:21.9;0.0005896201136211933;-0.2144688378677664;-0.9663602850719446;0.9890000000000001;0.00012220122567244807
57:21.9;0.0019426309096215628;-0.21490995503636012;-0.9663300841554143;0.988;0.0004034338439822665
57:21.9;0.0031120910747632685;-0.21543933534500964;-0.9663288169878144;0.985;0.000647891421253362
57:21.9;0.004076049544081853;-0.21603582715054193;-0.966348449492181;0.985;0.0008509400969026503
57:22.0;0.004831803097702096;-0.2166734043953613;-0.9663765069954252;0.988;0.0010117220107630303
57:22.0;0.005392698453274122;-0.2173225858304923;-0.9663965015875546;0.9890000000000001;0.001132573378692088
57:22.0;0.005783798781508265;-0.21795225242702435;-0.9663922059376117;0.992;0.001218226256622245
57:22.0;0.006036429750270341;-0.218532011551675;-0.966354574680009;0.997;0.001274769667596827
57:22.0;0.006182095025075014;-0.21903498291433024;-0.9662892545744471;0.997;0.0013084475237291448
57:22.0;0.006247157703590433;-0.21944048333678876;-0.9662222583552761;0.997;0.0013245740989343128
57:22.0;0.00624997077408165;-0.21973597646593945;-0.966201685804838;0.995;0.0013269267381501022
57:22.0;0.006201333586353366;-0.21991789625760055;-0.9662944515526504;0.991;0.0013178171406540101
57:22.0;0.006107738395172872;-0.2199912709849078;-0.9665784455442258;0.9890000000000001;0.0012987422897495278
57:22.0;0.005975697903463301;-0.21996825410623522;-0.9671318279675987;0.991;0.0012712598114355414
57:22.1;0.005815042392206251;-0.21986571775023503;-0.9680215826488149;0.993;0.001237643152323489
57:22.1;0.005639471440027574;-0.21970226007188257;-0.9692926516544388;0.995;0.001200958074486549
57:22.1;0.005463745004678062;-0.2194954047607032;-0.9709577221604291;0.9890000000000001;0.001164437478178558
57:22.1;0.005298576950052877;-0.2192598814222724;-0.9729876178961857;0.9890000000000001;0.001130383304124226
57:22.1;0.005145779105169291;-0.21900730823076664;-0.9753037450159888;0.9890000000000001;0.0010991314592734077
57:22.1;0.004996342843205334;-0.21874688952595742;-0.977775656109989;0.99;0.001068644704758027
57:22.1;0.004832760447631526;-0.2184864257441161;-0.980226954533347;0.996;0.0010350143451494016
57:22.1;0.004634872980647847;-0.21823283514467892;-0.9824514182854226;1.0070000000000001;0.0009937314058538294
57:22.1;0.0043867293485510975;-0.2179914408571363;-0.9842387582191143;1.018;0.0009411974573106811
57:22.1;0.004081120044798587;-0.21776390727901868;-0.9854060844112172;1.0270000000000001;0.000875750732925299
57:22.2;0.0037196484760783025;-0.21754575723506547;-0.9858281133752737;1.031;0.0007977259423739672
57:22.2;0.0033093150516498664;-0.21732496330063975;-0.9854581120155924;1.0270000000000001;0.0007087382932507082
57:22.2;0.0028591103507596633;-0.21708283209159931;-0.9843335313043521;1.001;0.0006109401626475363
57:22.2;0.002379461453460999;-0.21679756783951404;-0.9825653640976811;1.001;0.0005068675992189427
57:22.2;0.001884360366993064;-0.216449710379547;-0.9803164680013211;1.001;0.0003998409481407661
57:22.2;0.0013938336351356656;-0.2160277035162075;-0.9777768900316838;0.997;0.0002944151524361268
57:22.2;0.0009344957401363845;-0.21553193423906372;-0.9751418028865123;0.9940000000000001;0.00019640689358993075
57:22.2;0.0005371172678781344;-0.21497636239738235;-0.9725938829082729;0.992;0.00011230300015371046
57:22.2;0.00023144233635370481;-0.214387488720704;-0.9702903448110086;0.99;4.8144197464207487e-05
57:22.2;3.9771048878122574e-05;-0.21380081791950176;-0.9683547273726508;0.985;8.234000406923858e-06
57:22.3;-2.8405292908635318e-05;-0.21325550630343784;-0.9668735308232637;0.986;5.856918714134583e-06
57:22.3;2.126406917783189e-05;-0.212788392923963;-0.9658977290257962;0.9890000000000001;4.370442955429383e-06
57:22.3;0.0001694509343840127;-0.2124286496965416;-0.9654486558740578;0.992;3.475251494113825e-05
57:22.3;0.0003876671426066796;-0.2121939156601468;-0.9655265250010562;0.996;7.942479991602553e-05
57:22.3;0.0006440619504101122;-0.21208839620448983;-0.9661186098310529;0.996;0.0001319699337443211
57:22.3;0.0009087326491811728;-0.21210303461692187;-0.9672039482953076;0.993;0.00018642367911725802
57:22.3;0.0011576722940741316;-0.21221753779636576;-0.9687527004105152;0.99;0.0002380015783864357
57:22.3;0.0013753233074437867;-0.2124039851826191;-0.9707204725454815;0.9890000000000001;0.00028357089430409977
57:22.3;0.0015560024396494548;-0.21263172105647501;-0.9730400230768014;0.9890000000000001;0.00032193562069370214
57:22.3;0.0017044212925512987;-0.21287282056216514;-0.97561386805023;0.991;0.00035397707042797953
57:22.4;0.0018352970875142908;-0.21310687485897312;-0.9783111591466551;0.995;0.0003826316082005455
57:22.4;0.0019715924786966304;-0.21332377395954868;-0.980971181929328;0.996;0.0004125842643270859
57:22.4;0.0021406453592481846;-0.2135238318706723;-0.9834143187426101;1.014;0.0004494978365001357
57:22.4;0.0023681323317889065;-0.2137155775888806;-0.9854592771919356;1.014;0.0004987476108544709
57:22.4;0.0026713333853824;-0.213912078150089;-0.9869431242545301;1.014;0.0005639693791778756
57:22.4;0.0030540810618168907;-0.21412656993223958;-0.9877398305392017;1.0170000000000001;0.0006459422428420175
57:22.4;0.0035051042156925;-0.21436802724238396;-0.987774377052063;1.0170000000000001;0.0007421961596008631
57:22.4;0.00399987006818176;-0.21463753893536247;-0.9870311944912039;1.014;0.0008473882591836303
57:22.4;0.0045046612818219495;-0.21492658413441285;-0.9855564376352699;1.014;0.0009541876170936118
57:22.4;0.004981194761613116;-0.21521776723011307;-0.9834540394307114;1.011;0.0010543036564467064
57:22.5;0.005390615602279763;-0.21548744145819046;-0.9808760910550609;1.005;0.0011393954408384186
57:22.5;0.005696479683927169;-0.21570901648426574;-0.9780086133602144;0.9990000000000001;0.0012017594093238447
57:22.5;0.005866845980066335;-0.21585616920803005;-0.9750543074267841;0.996;0.0012348038007741183
57:22.5;0.005876054444192288;-0.21590587919201273;-0.9722143796050693;0.99;0.0012334237873081243
57:22.5;0.005707027153784895;-0.21584135112974656;-0.9696716825946295;0.99;0.0011944536527847911
57:22.5;0.005354340547674303;-0.2156547035539571;-0.9675770255654219;0.987;0.0011172502805725426
57:22.5;0.00482722902464707;-0.21534920920916256;-0.9660396771805798;0.9890000000000001;0.001004236840737309
57:22.5;0.004151303690174127;-0.21494065326028114;-0.965122146645099;0.986;0.0008611629790893328
57:22.5;0.0033683688773273653;-0.21445705519049985;-0.9648387553643004;0.985;0.0006969710254057014
57:22.5;0.0025343915677490127;-0.21393625242504996;-0.9651575349827259;0.985;0.0005233067111749613
57:22.6;0.001715792990098306;-0.21342180614302328;-0.9660052937543936;0.9890000000000001;0.0003537391976986544
57:22.6;0.00098416554539926;-0.2129583787891245;-0.9672756205942545;0.992;0.00020272771744134595
57:22.6;0.0004097742032589166;-0.21258746265005066;-0.9688389109612081;0.995;8.439832660163856e-05
57:22.6;5.461539758226958e-05;-0.21234377787441786;-0.9705528243992758;0.995;1.125573389430534e-05
57:22.6;-3.398047913300257e-05;-0.21225254972201735;-0.9722716772753075;0.995;7.012454380280483e-06
57:22.6;0.00017168323183460767;-0.2123279475433974;-0.9738541760561906;0.996;3.5500050646898895e-05
57:22.6;0.0006767390683281984;-0.21257283697967969;-0.9751699614081856;0.996;0.00014028438508501578
57:22.6;0.0014632984500165538;-0.2129797796885262;-0.9761059940152826;0.998;0.0003042063432978977
57:22.6;0.0024927901655722377;-0.21353302761999976;-0.9765736677202623;1.002;0.0005198233578551401
57:22.6;0.0037109284768023325;-0.21421109097509675;-0.9765167900092386;1.003;0.000776254716412396
57:22.7;0.005054246018318872;-0.2149893797231777;-0.9759194944783658;1.0070000000000001;0.001060443117210211
57:22.7;0.006456365960688906;-0.21584249888834567;-0.9748122276834533;1.0070000000000001;0.0013584575369809781
57:22.7;0.007852134697640572;-0.2167459962225741;-0.9732736424332598;0.998;0.0016564326682510864
57:22.7;0.009178681070523314;-0.2176775245755461;-0.9714269334560776;0.998;0.0019409037995202034
57:22.7;0.010374106533312681;-0.21861728382788426;-0.9694307396196424;0.998;0.0021986291634816294
57:22.7;0.011375768434007354;-0.21954748596158516;-0.967465896683322;0.991;0.0024162667425871604
57:22.7;0.012120207174541611;-0.22045079055684697;-0.9657193708409229;0.985;0.0025803145230799953
57:22.7;0.012546003829609952;-0.2213079675907982;-0.9643669316556462;0.982;0.0026775943039696075
57:22.7;0.012599790726681798;-0.2220952086005441;-0.9635570588922635;0.985;0.0026963729307300384
57:22.7;0.01224441678577671;-0.22278177853998987;-0.963398632209202;0.987;0.002627990531692275
57:22.8;0.011467054171494195;-0.2233291558146809;-0.9639533575727464;0.988;0.0024686146889242597
57:22.8;0.010284337721740776;-0.2236929533629939;-0.9652320827209395;0.9890000000000001;0.0022205491067781888
57:22.8;0.008742243427016533;-0.2238282382590531;-0.9671937036970221;0.988;0.0018925668653549449
57:22.8;0.006910596178876845;-0.22369745997330304;-0.9697462205921475;0.9940000000000001;0.001499114014527817
57:22.8;0.00487464494455589;-0.22327889120028052;-0.9727504930953559;0.9940000000000001;0.0010587468099817277
57:22.8;0.0027271397919008244;-0.22257318104993207;-0.9760275352558634;0.998;0.0005924371759383922
57:22.8;0.0005630225286016396;-0.2216063577609622;-0.9793698983474901;1.003;0.0001221953670753437
57:22.8;-0.0015237096823853867;-0.22042871702838363;-0.9825570916142271;1.01;0.00033001083175425406
57:22.8;-0.0034432239294674145;-0.21910989700004432;-0.9853739983375908;1.014;0.0007434099348922518
57:22.8;-0.005115254444636539;-0.21773087366682858;-0.9876301489426748;1.0170000000000001;0.001099971912249338
57:22.9;-0.0064770093030154414;-0.21637390082704577;-0.9891771972358385;1.0190000000000001;0.0013862880892204078
57:22.9;-0.00749179850841353;-0.2151120579016381;-0.9899221741876179;1.02;0.0015953350103574096
57:22.9;-0.008155227763724791;-0.21400076669095808;-0.9898347264368297;1.0170000000000001;0.0017274843044834396
57:22.9;-0.008495792217059626;-0.21307336970878207;-0.988947481297468;1.012;0.0017902195074208376
57:22.9;-0.008568524281492473;-0.21234144652698042;-0.9873499680668761;1.012;0.0017964367040001034
57:22.9;-0.00844325444725298;-0.21179907062929668;-0.9851776252781841;1.01;0.0017617669859077744
57:22.9;-0.008190836479770158;-0.2114295110720058;-0.9825975574918789;1.006;0.0017016472710826402
57:22.9;-0.007870365480833289;-0.2112127522124854;-0.979792179653744;0.9990000000000001;0.001628729658801474
57:22.9;-0.007519302598203631;-0.21113229352127644;-0.9769418508250501;0.993;0.0015509612326184178
57:22.9;-0.007147651894074325;-0.2111800371187996;-0.9742083667557525;0.9890000000000001;0.001470510433508912
57:23.0;-0.0067367926971935235;-0.2113586062304406;-0.9717218831346052;0.987;0.0013836144949277021
57:23.0;-0.006243172632234963;-0.21168088128263307;-0.9695735930822538;0.9890000000000001;0.001281349953799726
57:23.0;-0.005606803941096311;-0.21216683534915098;-0.9678151410611704;0.992;0.0011512914533514257
57:23.0;-0.004763832447496394;-0.2128381426758274;-0.9664638297352566;0.992;0.0009799220803194228
57:23.0;-0.0036611534551937446;-0.2137116103861135;-0.9655110947646528;0.992;0.0007554458121410347
57:23.0;-0.002270049642055319;-0.21479287091433372;-0.9649313174503478;0.992;0.00047049132398705416
57:23.0;-0.00059584624494183;-0.21607164061507475;-0.9646887842516461;0.9890000000000001;0.0001241993164298841
57:23.0;0.0013187660117562317;-0.21751944619274743;-0.9647418282950263;0.986;0.00027674319027033657
57:23.0;0.0033978884671524733;-0.21909038220503094;-0.9650445038003862;0.986;0.0007184222496725235
57:23.0;0.005543139309775111;-0.22072500199314485;-0.965547253630543;0.9890000000000001;0.0011813561749468631
57:23.1;0.007647946517880127;-0.22235657644459136;-0.9661983569391508;0.991;0.0016430891036914974
57:23.1;0.009611659899817031;-0.223918043470506;-0.966947277904113;0.993;0.0020810872148907303
57:23.1;0.01135050413712474;-0.22534780902477927;-0.9677498797678694;0.9990000000000001;0.002475321518650913
57:23.1;0.012803920609973813;-0.22659336204970332;-0.9685743566341264;0.9990000000000001;0.0028101087204205045
57:23.1;0.01393643586000427;-0.22761275103486017;-0.969406002606269;0.9990000000000001;0.0030750629651719336
57:23.1;0.014736278580525517;-0.2283746326098191;-0.970249001211359;1.001;0.003265268427393765
57:23.1;0.015212028554423624;-0.22885773993443204;-0.9711242260790288;1.001;0.0033808626305029668
57:23.1;0.015387800741620843;-0.22905044543833125;-0.972062838177009;1.0;0.0034261157793335642
57:23.1;0.01529689417164675;-0.22895082416152823;-0.9730959776025562;0.997;0.0034080122777275404
57:23.1;0.014974371801465268;-0.22856736548018844;-0.9742416610749787;0.993;0.0033344908637935673
57:23.2;0.014450367174597675;-0.22792016350310484;-0.9754913700388271;0.9890000000000001;0.003212810139874458
57:23.2;0.013746719231479824;-0.22704198698365344;-0.9768001784830109;0.9890000000000001;0.0030486738930691126
57:23.2;0.012878762772387219;-0.22597832002133897;-0.978084537500893;1.006;0.0028465401406807143
57:23.2;0.011861825189920069;-0.22478572871908326;-0.9792298445661834;1.006;0.00261098812028073
57:23.2;0.010719489744386057;-0.22352871103373706;-0.9801061848570064;1.006;0.002348445881985253
57:23.2;0.00948971487489219;-0.2222756392156214;-0.9805881226041361;1.011;0.0020683863370823175
